time,seconds_elapsed,z,y,x
1750935420030260500,0.140260498046875,-0.008093958720564842,0.025350889191031456,-0.010384701192378998
1750935420077322200,0.187322265625,0.006566796451807022,-0.010079269297420979,0.03237583488225937
1750935420124384000,0.234384033203125,-0.0019853105768561363,-0.006414080038666725,-0.01893680728971958
1750935420152620800,0.262620849609375,-0.0007635809597559273,0.01802051067352295,-0.01893680728971958
1750935420171445500,0.281445556640625,-0.0007635809597559273,0.016798781231045723,-0.0030543238390237093
1750935420190270200,0.300270263671875,0.00045814859913662076,0.003359756199643016,-0.000610864779446274
1750935420209095000,0.319094970703125,0.00045814859913662076,0.0009162971982732415,-0.006719512399286032
1750935420227919600,0.337919677734375,-0.0007635809597559273,0.0021380267571657896,0.006719512399286032
1750935420246744300,0.356744384765625,-0.0032070400193333626,0.003359756199643016,0.027488915249705315
1750935420265568800,0.37556884765625,0.001679878099821508,0.005803215317428112,0.023823726922273636
1750935420284393500,0.3943935546875,0.004123337101191282,-0.003970621153712273,0.014049889519810677
1750935420303218200,0.41321826171875,0.005345067009329796,-0.023518294095993042,0.000610864779446274
1750935420322043000,0.43204296875,0.009010255336761475,-0.019853105768561363,-0.01893680728971958
1750935420340867600,0.45086767578125,0.001679878099821508,0.008246674202382565,-0.0030543238390237093
1750935420359692300,0.4696923828125,-0.004428769461810589,-0.012522728182375431,-0.006719512399286032
1750935420378517000,0.48851708984375,-0.0032070400193333626,-0.010079269297420979,-0.000610864779446274
1750935420397341700,0.507341796875,-0.0032070400193333626,-0.013744457624852657,0.006719512399286032
1750935420416166400,0.52616650390625,-0.004428769461810589,0.0021380267571657896,-0.004276053514331579
1750935420434990800,0.544990966796875,-0.008093958720564842,0.00946840364485979,-0.010384701192378998
1750935420453815600,0.563815673828125,-0.009315688163042068,0.01802051067352295,-0.017715077847242355
1750935420472640300,0.58264013671875,-0.006872228812426329,0.0021380267571657896,-0.02626718580722809
1750935420491465000,0.60146484375,-0.0032070400193333626,-0.0015271619195118546,-0.01893680728971958
1750935420510289700,0.62028955078125,0.001679878099821508,0.011911863461136818,-0.01282816007733345
1750935420529114400,0.6391142578125,0.004123337101191282,-0.0015271619195118546,0.007941242307424545
1750935420547939000,0.65793896484375,-0.0007635809597559273,-0.008857538923621178,0.023823726922273636
1750935420566763800,0.676763671875,-0.0019853105768561363,0.008246674202382565,0.02871064469218254
1750935420585588500,0.69558837890625,-0.005650499369949102,0.003359756199643016,0.029932374134659767
1750935420604413200,0.7144130859375,-0.004428769461810589,0.016798781231045723,0.01282816007733345
1750935420623238000,0.73323779296875,-0.0019853105768561363,0.021685699000954628,-0.017715077847242355
1750935420642062600,0.7520625,0.00045814859913662076,0.0204639695584774,-0.02260199747979641
1750935420660887000,0.770886962890625,0.002901607658714056,0.005803215317428112,-0.0054977829568088055
1750935420679711700,0.789711669921875,0.005345067009329796,0.008246674202382565,-0.004276053514331579
1750935420707948800,0.81794873046875,0.002901607658714056,-0.019853105768561363,0.007941242307424545
1750935420726773500,0.8367734375,-0.005650499369949102,0.0009162971982732415,0.006719512399286032
1750935420745598200,0.85559814453125,-0.014202605932950974,0.032681263983249664,-0.004276053514331579
1750935420764423000,0.8744228515625,-0.0154243353754282,0.03145953640341759,-0.015271619893610477
1750935420783247600,0.89324755859375,-0.006872228812426329,0.021685699000954628,-0.029932374134659767
1750935420802072300,0.912072265625,-0.0007635809597559273,0.026572618633508682,-0.02260199747979641
1750935420820897000,0.93089697265625,0.001679878099821508,-0.012522728182375431,-0.011606430634856224
1750935420839721700,0.9497216796875,0.009010255336761475,-0.0027488914784044027,-0.017715077847242355
1750935420858546400,0.96854638671875,0.007788525894284248,0.03145953640341759,-0.02871064469218254
1750935420877371100,0.98737109375,0.001679878099821508,0.026572618633508682,-0.0409279391169548
1750935420896195800,1.00619580078125,-0.0007635809597559273,-0.0027488914784044027,-0.033597562462091446
1750935420915020500,1.0250205078125,-0.0032070400193333626,-0.0015271619195118546,-0.025045456364750862
1750935420933845200,1.04384521484375,-0.0019853105768561363,0.054672397673130035,-0.03481929376721382
1750935420952669700,1.062669677734375,-0.005650499369949102,0.04978547990322113,-0.039706211537122726
1750935420971494400,1.081494384765625,-0.006872228812426329,-0.011300998739898205,-0.009162971749901772
1750935420999731500,1.1097314453125,-0.011759147047996521,0.013133592903614044,0.007941242307424545
1750935421018556200,1.12855615234375,-0.014202605932950974,0.03756818547844887,-0.023823726922273636
1750935421037380900,1.147380859375,-0.0154243353754282,0.0204639695584774,-0.033597562462091446
1750935421056205600,1.16620556640625,-0.005650499369949102,0.0009162971982732415,-0.033597562462091446
1750935421075030300,1.1850302734375,-0.0032070400193333626,0.003359756199643016,-0.021380268037319183
1750935421093855000,1.20385498046875,-0.0007635809597559273,0.019242240116000175,-0.017715077847242355
1750935421112679700,1.2226796875,-0.005650499369949102,0.044898562133312225,-0.01282816007733345
1750935421131504400,1.24150439453125,-0.016646064817905426,0.05833758786320686,-0.011606430634856224
1750935421150329000,1.2603291015625,-0.01908952370285988,0.0412333719432354,-0.000610864779446274
1750935421169153800,1.27915380859375,-0.0007635809597559273,0.05100720748305321,0.020158538594841957
1750935421187978500,1.297978515625,0.004123337101191282,0.1328630894422531,0.0054977829568088055
1750935421206803200,1.31680322265625,-0.0007635809597559273,0.021685699000954628,-0.010384701192378998
1750935421225628000,1.3356279296875,-0.009315688163042068,-0.03451386094093323,0.004276053514331579
1750935421244452600,1.35445263671875,-0.010537417605519295,0.026572618633508682,0.037262752652168274
1750935421263277300,1.37327734375,-0.006872228812426329,0.06444623321294785,0.049480047076940536
1750935421282102000,1.39210205078125,-0.0032070400193333626,0.04245510324835777,0.047036588191986084
1750935421300926700,1.4109267578125,-0.0007635809597559273,-0.018631376326084137,0.049480047076940536
1750935421319751400,1.42975146484375,0.00045814859913662076,-0.012522728182375431,0.047036588191986084
1750935421338576100,1.448576171875,0.009010255336761475,-0.04917461425065994,0.03237583488225937
1750935421357400600,1.467400634765625,0.007788525894284248,-0.10415244847536087,0.029932374134659767
1750935421376225500,1.4862255859375,0.00045814859913662076,-0.09926552325487137,0.025045456364750862
1750935421395050200,1.50505029296875,-0.012980876490473747,-0.029626941308379173,-0.020158538594841957
1750935421413875000,1.523875,-0.0154243353754282,-0.005192350596189499,-0.04581485688686371
1750935421432699400,1.542699462890625,-0.010537417605519295,-0.0565049909055233,-0.05436696484684944
1750935421451524000,1.561524169921875,-0.017867794260382652,-0.06261363625526428,-0.037262752652168274
1750935421470349000,1.58034912109375,-0.017867794260382652,-0.08338304609060287,-0.031154103577136993
1750935421489173500,1.599173583984375,-0.020311253145337105,-0.1127045527100563,-0.05558869615197182
1750935421507998200,1.617998291015625,0.007788525894284248,-0.09437860548496246,-0.07880155742168427
1750935421526823000,1.636822998046875,0.056657709181308746,-0.10537417232990265,-0.08979712426662445
1750935421545647600,1.655647705078125,0.05299251899123192,-0.13713914155960083,-0.06902772188186646
1750935421564472300,1.674472412109375,0.03222311660647392,-0.09560033679008484,-0.015271619893610477
1750935421583297000,1.693297119140625,0.028557928279042244,-0.11026109009981155,0.006719512399286032
1750935421602121700,1.712121826171875,0.021227551624178886,-0.18356487154960632,-0.01649334840476513
1750935421620946400,1.730946533203125,0.013897174037992954,-0.18600831925868988,-0.04581485688686371
1750935421639771100,1.749771240234375,0.002901607658714056,-0.13103049993515015,-0.03848448023200035
1750935421658595800,1.768595947265625,-0.012980876490473747,-0.04917461425065994,-0.000610864779446274
1750935421677420500,1.787420654296875,-0.012980876490473747,0.07544180005788803,0.01649334840476513
1750935421696245200,1.806245361328125,-0.006872228812426329,0.08888082206249237,0.03481929376721382
1750935421715070000,1.825070068359375,-0.008093958720564842,0.10598503798246384,0.049480047076940536
1750935421733894700,1.843894775390625,-0.010537417605519295,0.1389717310667038,0.05070177838206291
1750935421752719400,1.86271923828125,-0.009315688163042068,0.08032871782779694,0.047036588191986084
1750935421771544000,1.8815439453125,-0.0032070400193333626,0.01435532234609127,0.05925388261675835
1750935421790368800,1.90036865234375,-0.0032070400193333626,0.03145953640341759,0.08124501258134842
1750935421809193500,1.919193359375,-0.0019853105768561363,0.10598503798246384,0.06780599057674408
1750935421828018200,1.93801806640625,-0.004428769461810589,0.1487455666065216,0.049480047076940536
1750935421846843000,1.9568427734375,-0.0007635809597559273,0.14263692498207092,0.03481929376721382
1750935421865667600,1.97566748046875,0.0102319847792387,0.10842850059270859,0.03481929376721382
1750935421884492300,1.9944921875,0.011453714221715927,0.09498947113752365,0.03481929376721382
1750935421903317000,2.01331689453125,0.013897174037992954,0.06811141967773438,0.03481929376721382
1750935421922141700,2.0321416015625,0.011453714221715927,0.06566796451807022,0.021380268037319183
1750935421940966400,2.05096630859375,0.006566796451807022,0.06200277432799339,0.007941242307424545
1750935421959791000,2.069791015625,-0.0007635809597559273,0.06444623321294785,-0.006719512399286032
1750935421978615800,2.08861572265625,-0.005650499369949102,0.025350889191031456,-0.033597562462091446
1750935421997440500,2.1074404296875,-0.006872228812426329,0.0009162971982732415,-0.029932374134659767
1750935422016265200,2.12626513671875,-0.0007635809597559273,-0.016187917441129684,-0.015271619893610477
1750935422035090000,2.14508984375,0.002901607658714056,0.010690134018659592,-0.011606430634856224
1750935422053914600,2.16391455078125,0.001679878099821508,0.013133592903614044,-0.01282816007733345
1750935422072739300,2.1827392578125,0.002901607658714056,0.016798781231045723,-0.009162971749901772
1750935422091564000,2.20156396484375,0.001679878099821508,0.02412915788590908,-0.007941242307424545
1750935422110388700,2.220388671875,0.002901607658714056,0.022907428443431854,0.0030543238390237093
1750935422129213400,2.23921337890625,0.005345067009329796,-0.0027488914784044027,-0.010384701192378998
1750935422148038100,2.2580380859375,0.001679878099821508,-0.005192350596189499,-0.001832594396546483
1750935422166862800,2.27686279296875,-0.0019853105768561363,0.011911863461136818,0.01282816007733345
1750935422185687300,2.295687255859375,0.001679878099821508,0.011911863461136818,-0.009162971749901772
1750935422204512000,2.314511962890625,-0.0032070400193333626,0.044898562133312225,-0.004276053514331579
1750935422223337000,2.3333369140625,0.00045814859913662076,0.021685699000954628,-0.017715077847242355
1750935422242161700,2.35216162109375,0.004123337101191282,-0.03451386094093323,-0.0360410213470459
1750935422260986000,2.370986083984375,0.006566796451807022,0.010690134018659592,-0.01282816007733345
1750935422279810800,2.389810791015625,0.004123337101191282,0.011911863461136818,0.023823726922273636
1750935422298635500,2.408635498046875,0.007788525894284248,-0.022296564653515816,0.010384701192378998
1750935422317460200,2.427460205078125,0.005345067009329796,0.004581485874950886,0.021380268037319183
1750935422336285000,2.446284912109375,0.007788525894284248,0.007024944759905338,0.021380268037319183
1750935422355109600,2.465109619140625,0.004123337101191282,0.011911863461136818,0.009162971749901772
1750935422373934300,2.483934326171875,-0.0019853105768561363,0.029016077518463135,0.011606430634856224
1750935422392759000,2.502759033203125,-0.0032070400193333626,0.007024944759905338,0.017715077847242355
1750935422411583700,2.521583740234375,-0.005650499369949102,-0.013744457624852657,0.015271619893610477
1750935422430408400,2.540408447265625,-0.0032070400193333626,-0.03817904740571976,0.014049889519810677
1750935422449233200,2.559233154296875,0.002901607658714056,-0.029626941308379173,0.011606430634856224
1750935422468057900,2.578057861328125,0.004123337101191282,0.0021380267571657896,0.001832594396546483
1750935422486882600,2.596882568359375,0.001679878099821508,-0.003970621153712273,-0.01649334840476513
1750935422505707300,2.615707275390625,-0.0032070400193333626,-0.005192350596189499,-0.020158538594841957
1750935422524532000,2.634531982421875,-0.008093958720564842,-0.0015271619195118546,-0.0030543238390237093
1750935422543356700,2.653356689453125,-0.004428769461810589,0.0021380267571657896,-0.010384701192378998
1750935422562181400,2.672181396484375,-0.0019853105768561363,-0.003970621153712273,-0.020158538594841957
1750935422581006000,2.691006103515625,-0.0007635809597559273,0.01435532234609127,-0.017715077847242355
1750935422599830800,2.709830810546875,-0.0019853105768561363,0.016798781231045723,0.0054977829568088055
1750935422618655500,2.728655517578125,0.00045814859913662076,-0.000305432389723137,0.0030543238390237093
1750935422637480200,2.747480224609375,-0.0019853105768561363,-0.013744457624852657,0.0030543238390237093
1750935422656305000,2.766304931640625,-0.0019853105768561363,0.004581485874950886,0.0054977829568088055
1750935422675129600,2.785129638671875,-0.0019853105768561363,-0.006414080038666725,0.01649334840476513
1750935422693954300,2.803954345703125,0.00045814859913662076,-0.014966187067329884,0.017715077847242355
1750935422712779000,2.822779052734375,-0.0019853105768561363,-0.023518294095993042,0.031154103577136993
1750935422731603500,2.841603515625,-0.0007635809597559273,-0.03940077871084213,0.01649334840476513
1750935422750428200,2.86042822265625,-0.0019853105768561363,-0.06017018109560013,-0.000610864779446274
1750935422778665200,2.888665283203125,-0.0032070400193333626,-0.018631376326084137,-0.014049889519810677
1750935422797490000,2.907489990234375,-0.005650499369949102,0.004581485874950886,0.004276053514331579
1750935422816314600,2.926314697265625,-0.004428769461810589,-0.005192350596189499,0.010384701192378998
1750935422835139300,2.945139404296875,-0.005650499369949102,-0.02107483521103859,-0.0030543238390237093
1750935422853964000,2.963964111328125,-0.008093958720564842,-0.028405211865901947,-0.01649334840476513
1750935422872788700,2.982788818359375,-0.006872228812426329,-0.018631376326084137,-0.001832594396546483
1750935422891613400,3.001613525390625,-0.0032070400193333626,-0.0027488914784044027,0.014049889519810677
1750935422910438100,3.020438232421875,0.00045814859913662076,-0.024740023538470268,0.017715077847242355
1750935422929262800,3.039262939453125,-0.0007635809597559273,-0.032070402055978775,0.021380268037319183
1750935422948087600,3.058087646484375,-0.005650499369949102,-0.04306596517562866,0.007941242307424545
1750935422966912300,3.076912353515625,-0.0032070400193333626,-0.04428769648075104,-0.01282816007733345
1750935422985737000,3.095737060546875,-0.0032070400193333626,-0.057726722210645676,-0.011606430634856224
1750935423004561700,3.114561767578125,-0.0154243353754282,-0.07605266571044922,-0.006719512399286032
1750935423023386400,3.133386474609375,-0.014202605932950974,-0.10415244847536087,-0.037262752652168274
1750935423042211000,3.152211181640625,0.017562363296747208,-0.15790854394435883,-0.09957095980644226
1750935423061035800,3.171035888671875,0.011453714221715927,-0.15546508133411407,-0.1288924664258957
1750935423079860200,3.189860107421875,0.002901607658714056,-0.12125665694475174,-0.07269290834665298
1750935423098685000,3.208684814453125,0.004123337101191282,-0.0821613147854805,-0.01282816007733345
1750935423117509600,3.227509521484375,-0.0007635809597559273,-0.029626941308379173,0.02871064469218254
1750935423136334300,3.246334228515625,0.002901607658714056,-0.005192350596189499,0.033597562462091446
1750935423155159000,3.265158935546875,0.001679878099821508,0.004581485874950886,0.011606430634856224
1750935423173983700,3.283983642578125,0.004123337101191282,-0.03817904740571976,-0.010384701192378998
1750935423192808400,3.302808349609375,0.007788525894284248,-0.06627883017063141,-0.02626718580722809
1750935423211633200,3.321633056640625,0.009010255336761475,-0.04062250629067421,-0.01282816007733345
1750935423230457900,3.340457763671875,0.005345067009329796,0.011911863461136818,0.027488915249705315
1750935423249282600,3.359282470703125,0.001679878099821508,0.0412333719432354,0.04581485688686371
1750935423268107300,3.378107177734375,-0.0007635809597559273,0.025350889191031456,0.047036588191986084
1750935423286932000,3.396931884765625,-0.0019853105768561363,0.015577051788568497,0.02871064469218254
1750935423305756400,3.41575634765625,-0.0032070400193333626,0.022907428443431854,0.02260199747979641
1750935423324581000,3.4345810546875,0.00045814859913662076,0.04734202101826668,0.001832594396546483
1750935423343405800,3.45340576171875,0.004123337101191282,0.038789913058280945,-0.014049889519810677
1750935423362230500,3.47223046875,0.005345067009329796,0.026572618633508682,-0.006719512399286032
1750935423381055200,3.49105517578125,0.001679878099821508,0.04245510324835777,0.031154103577136993
1750935423399880000,3.5098798828125,0.005345067009329796,0.05100720748305321,0.0409279391169548
1750935423418704600,3.52870458984375,-0.0019853105768561363,-0.008857538923621178,0.039706211537122726
1750935423437529300,3.547529296875,-0.008093958720564842,-0.03695731982588768,0.04581485688686371
1750935423456354000,3.56635400390625,-0.010537417605519295,-0.03695731982588768,0.02626718580722809
1750935423475178800,3.5851787109375,-0.008093958720564842,-0.14080433547496796,-0.009162971749901772
1750935423494003500,3.60400341796875,-0.009315688163042068,-0.36193737387657166,-0.05558869615197182
1750935423512828200,3.622828125,-0.016646064817905426,-0.45478883385658264,-0.07635809481143951
1750935423531652600,3.641652587890625,0.00045814859913662076,-0.19333870708942413,0.007941242307424545
1750935423550477300,3.660477294921875,-0.016646064817905426,0.17318016290664673,0.16798780858516693
1750935423569302000,3.679302001953125,-0.02153298258781433,0.22449280321598053,0.2009745091199875
1750935423588126700,3.698126708984375,-0.016646064817905426,0.060781046748161316,0.06536252796649933
1750935423606951400,3.716951416015625,-0.026419902220368385,0.05833758786320686,-0.0054977829568088055
1750935423625776000,3.735776123046875,-0.0386371985077858,0.16096286475658417,0.01282816007733345
1750935423644600800,3.754600830078125,-0.03252854943275452,0.08032871782779694,0.009162971749901772
1750935423663425500,3.773425537109375,-0.022754713892936707,-0.10659590363502502,-0.07269290834665298
1750935423682250200,3.792250244140625,-0.05085449293255806,-0.19822561740875244,-0.17287473380565643
1750935423701075000,3.811074951171875,-0.04230238497257233,-0.10903936624526978,-0.1496618688106537
1750935423719899600,3.829899658203125,-0.030085090547800064,0.005803215317428112,-0.07147117704153061
1750935423738724000,3.84872412109375,-0.020311253145337105,0.02779434807598591,-0.01282816007733345
1750935423757548800,3.867548828125,0.006566796451807022,-0.11148282140493393,-0.07757982611656189
1750935423776373500,3.88637353515625,-0.02153298258781433,-0.09682206809520721,-0.08979712426662445
1750935423795198200,3.9051982421875,-0.045967575162649155,0.09987638890743256,0.06414080411195755
1750935423814023000,3.92402294921875,-0.06062832847237587,0.14752385020256042,0.13744457066059113
1750935423832847600,3.94284765625,-0.05818486958742142,0.05100720748305321,0.11667517572641373
1750935423851672300,3.96167236328125,-0.030085090547800064,0.013133592903614044,0.07147117704153061
1750935423870497000,3.9804970703125,-0.03252854943275452,0.015577051788568497,0.02871064469218254
1750935423889321700,3.99932177734375,-0.052076224237680435,0.010690134018659592,0.006719512399286032
1750935423908146200,4.018146240234375,-0.05696314200758934,0.04001164436340332,0.0030543238390237093
1750935423926971000,4.036970947265625,-0.06062832847237587,0.07055488228797913,0.0054977829568088055
1750935423945795600,4.055795654296875,-0.008093958720564842,0.06322450190782547,-0.01649334840476513
1750935423964620300,4.074620361328125,0.005345067009329796,0.08765909820795059,0.014049889519810677
1750935423983445000,4.093445068359375,0.013897174037992954,0.1182023361325264,0.10201441496610641
1750935424002269700,4.112269775390625,0.056657709181308746,0.15485422313213348,0.17776164412498474
1750935424021094400,4.131094482421875,0.04321868345141411,0.10354158282279968,0.19120067358016968
1750935424039919000,4.149919189453125,0.028557928279042244,0.09987638890743256,0.205861434340477
1750935424058743600,4.16874365234375,-0.0007635809597559273,0.05345066636800766,0.17653992772102356
1750935424077568300,4.187568359375,-0.026419902220368385,-0.13469567894935608,0.09834922850131989
1750935424096393000,4.20639306640625,-0.028863361105322838,-0.2202167510986328,-0.05558869615197182
1750935424115217700,4.2252177734375,-0.02519817277789116,-0.21410810947418213,-0.22174391150474548
1750935424134042400,4.24404248046875,-0.012980876490473747,-0.22999058663845062,-0.32192572951316833
1750935424152867000,4.2628671875,-0.011759147047996521,-0.08338304609060287,-0.2706131041049957
1750935424171691800,4.28169189453125,-0.011759147047996521,0.05589412897825241,-0.14110976457595825
1750935424190516500,4.3005166015625,0.006566796451807022,0.019242240116000175,-0.07757982611656189
1750935424209341000,4.3193408203125,0.002901607658714056,0.0009162971982732415,-0.04825831577181816
1750935424228165600,4.33816552734375,0.018784092739224434,-0.016187917441129684,-0.023823726922273636
1750935424246990300,4.356990234375,0.01511890348047018,-0.09437860548496246,-0.0030543238390237093
1750935424265815000,4.37581494140625,-0.0032070400193333626,-0.10415244847536087,-0.033597562462091446
1750935424284639700,4.3946396484375,-0.0007635809597559273,0.0009162971982732415,-0.039706211537122726
1750935424303464400,4.41346435546875,0.009010255336761475,0.007024944759905338,-0.000610864779446274
1750935424322289200,4.4322890625,0.013897174037992954,-0.05283980444073677,0.009162971749901772
1750935424341113600,4.451113525390625,0.004123337101191282,-0.03451386094093323,0.01649334840476513
1750935424359938300,4.469938232421875,0.007788525894284248,0.06566796451807022,0.047036588191986084
1750935424378763000,4.488762939453125,0.006566796451807022,0.10354158282279968,0.07269290834665298
1750935424397587700,4.507587646484375,0.009010255336761475,0.0021380267571657896,0.039706211537122726
1750935424416412400,4.526412353515625,0.006566796451807022,-0.06994401663541794,-0.021380268037319183
1750935424435237000,4.545237060546875,-0.0019853105768561363,-0.025961752980947495,-0.031154103577136993
1750935424454061600,4.5640615234375,-0.009315688163042068,0.06933315098285675,-0.015271619893610477
1750935424472886300,4.58288623046875,-0.004428769461810589,0.07788526266813278,-0.006719512399286032
1750935424491711000,4.6017109375,0.004123337101191282,0.00946840364485979,-0.02626718580722809
1750935424510535700,4.62053564453125,0.0102319847792387,-0.025961752980947495,-0.027488915249705315
1750935424529360400,4.6393603515625,0.009010255336761475,-0.000305432389723137,-0.014049889519810677
1750935424548185000,4.65818505859375,0.005345067009329796,0.01435532234609127,-0.01282816007733345
1750935424567009500,4.677009521484375,0.001679878099821508,0.0204639695584774,0.01893680728971958
1750935424585834200,4.695834228515625,0.007788525894284248,0.06444623321294785,0.03848448023200035
1750935424604659000,4.714658935546875,0.009010255336761475,0.06566796451807022,0.033597562462091446
1750935424623483600,4.733483642578125,0.002901607658714056,0.035124726593494415,0.029932374134659767
1750935424642308400,4.752308349609375,0.002901607658714056,0.008246674202382565,0.029932374134659767
1750935424661133000,4.771133056640625,0.007788525894284248,-0.005192350596189499,0.007941242307424545
1750935424679957500,4.78995751953125,0.006566796451807022,0.0009162971982732415,-0.025045456364750862
1750935424698782200,4.8087822265625,-0.0007635809597559273,0.05589412897825241,-0.037262752652168274
1750935424717607000,4.82760693359375,-0.010537417605519295,0.06200277432799339,-0.015271619893610477
1750935424736431600,4.846431640625,-0.008093958720564842,0.05589412897825241,0.0030543238390237093
1750935424755256300,4.86525634765625,-0.006872228812426329,0.029016077518463135,0.033597562462091446
1750935424774081000,4.8840810546875,0.00045814859913662076,0.007024944759905338,0.02626718580722809
1750935424792905700,4.90290576171875,0.007788525894284248,-0.04062250629067421,-0.006719512399286032
1750935424811730200,4.921730224609375,0.005345067009329796,-0.057726722210645676,-0.025045456364750862
1750935424830555000,4.940554931640625,-0.0032070400193333626,-0.032070402055978775,-0.0360410213470459
1750935424849379600,4.959379638671875,-0.006872228812426329,0.026572618633508682,-0.023823726922273636
1750935424868204300,4.978204345703125,-0.009315688163042068,0.05222893878817558,0.017715077847242355
1750935424887029000,4.997029052734375,-0.0019853105768561363,-0.008857538923621178,0.033597562462091446
1750935424905853400,5.015853515625,-0.004428769461810589,-0.04673115536570549,0.015271619893610477
1750935424924678100,5.03467822265625,-0.004428769461810589,-0.035735588520765305,0.009162971749901772
1750935424943502800,5.0535029296875,0.004123337101191282,0.021685699000954628,0.007941242307424545
1750935424962327600,5.07232763671875,-0.0019853105768561363,-0.019853105768561363,0.0030543238390237093
1750935424981152300,5.09115234375,-0.006872228812426329,-0.04917461425065994,-0.01893680728971958
1750935424999976700,5.109976806640625,-0.004428769461810589,-0.012522728182375431,-0.000610864779446274
1750935425018801400,5.128801513671875,-0.0007635809597559273,0.003359756199643016,0.010384701192378998
1750935425037626000,5.147626220703125,-0.0007635809597559273,-0.007635809946805239,0.01282816007733345
1750935425056450800,5.166450927734375,0.001679878099821508,-0.04428769648075104,0.01893680728971958
1750935425075275500,5.185275634765625,0.001679878099821508,-0.03329212963581085,0.01282816007733345
1750935425094100000,5.204099853515625,0.00045814859913662076,0.01435532234609127,-0.001832594396546483
1750935425112924700,5.222924560546875,0.001679878099821508,-0.011300998739898205,-0.02260199747979641
1750935425131749400,5.241749267578125,0.00045814859913662076,-0.014966187067329884,-0.0030543238390237093
1750935425150574000,5.260573974609375,-0.0007635809597559273,-0.010079269297420979,0.043371398001909256
1750935425169398800,5.279398681640625,0.002901607658714056,-0.02107483521103859,0.0409279391169548
1750935425188223200,5.29822314453125,0.005345067009329796,-0.03940077871084213,0.0054977829568088055
1750935425207048000,5.3170478515625,0.004123337101191282,-0.0308486707508564,-0.01282816007733345
1750935425225872600,5.33587255859375,-0.0007635809597559273,-0.007635809946805239,-0.007941242307424545
1750935425244697300,5.354697265625,-0.008093958720564842,-0.01740964688360691,0.006719512399286032
1750935425263521800,5.373521728515625,-0.0019853105768561363,-0.025961752980947495,0.011606430634856224
1750935425282346500,5.392346435546875,0.004123337101191282,-0.016187917441129684,0.02626718580722809
1750935425301171200,5.411171142578125,0.001679878099821508,-0.03329212963581085,0.031154103577136993
1750935425319996000,5.429995849609375,-0.0007635809597559273,-0.051618073135614395,0.021380268037319183
1750935425338820600,5.448820556640625,0.002901607658714056,-0.05283980444073677,0.01282816007733345
1750935425357645000,5.46764501953125,0.00045814859913662076,-0.07971785217523575,0.007941242307424545
1750935425376469800,5.4864697265625,0.00045814859913662076,-0.06627883017063141,-0.000610864779446274
1750935425395294500,5.50529443359375,0.002901607658714056,-0.03940077871084213,0.006719512399286032
1750935425414119200,5.524119140625,0.001679878099821508,-0.0821613147854805,-0.010384701192378998
1750935425432943600,5.542943603515625,0.002901607658714056,-0.12125665694475174,-0.03848448023200035
1750935425451768300,5.561768310546875,-0.0007635809597559273,-0.06994401663541794,-0.03848448023200035
1750935425470593000,5.580593017578125,-0.0032070400193333626,-0.0565049909055233,-0.0054977829568088055
1750935425489417700,5.599417724609375,-0.004428769461810589,-0.08338304609060287,0.010384701192378998
1750935425508242400,5.618242431640625,0.004123337101191282,-0.14691297709941864,0.0030543238390237093
1750935425527067000,5.63706689453125,0.007788525894284248,-0.324063777923584,-0.017715077847242355
1750935425545891600,5.6558916015625,0.001679878099821508,-0.33139413595199585,-0.01649334840476513
1750935425564716300,5.67471630859375,0.00045814859913662076,-0.23976442217826843,-0.006719512399286032
1750935425583541000,5.693541015625,0.004123337101191282,-0.23365578055381775,0.033597562462091446
1750935425602365400,5.712365478515625,0.0102319847792387,-0.2605338394641876,0.037262752652168274
1750935425621190100,5.731190185546875,0.013897174037992954,-0.2409861534833908,0.020158538594841957
1750935425640014800,5.750014892578125,0.017562363296747208,-0.2519817352294922,0.006719512399286032
1750935425658839600,5.768839599609375,0.022449281066656113,-0.41447174549102783,0.000610864779446274
1750935425677664000,5.7876640625,0.013897174037992954,-0.5451968312263489,0.021380268037319183
1750935425705901000,5.815901123046875,0.006566796451807022,-0.2788597643375397,0.031154103577136993
1750935425724725800,5.834725830078125,0.004123337101191282,-0.24220788478851318,0.02871064469218254
1750935425743550500,5.853550537109375,0.006566796451807022,-0.18723005056381226,0.027488915249705315
1750935425762375000,5.872375,0.005345067009329796,-0.11026109009981155,0.04214967042207718
1750935425781199600,5.89119970703125,0.006566796451807022,-0.15179990231990814,0.037262752652168274
1750935425800024300,5.9100244140625,-0.004428769461810589,-0.34605491161346436,0.031154103577136993
1750935425818848800,5.928848876953125,-0.011759147047996521,-0.4621191918849945,0.05070177838206291
1750935425837673500,5.947673583984375,-0.009315688163042068,-0.34116798639297485,0.08002328872680664
1750935425856498200,5.966498291015625,0.004123337101191282,-0.2629773020744324,0.07880155742168427
1750935425875323000,5.985322998046875,0.0102319847792387,-0.2556469142436981,0.06047561392188072
1750935425894147600,6.004147705078125,0.011453714221715927,-0.39736753702163696,0.05558869615197182
1750935425912972000,6.022971923828125,0.022449281066656113,-0.581848680973053,0.05925388261675835
1750935425931796700,6.041796630859375,0.0383317656815052,-0.7284562587738037,0.07880155742168427
1750935425950621400,6.060621337890625,0.050549060106277466,-0.8396336436271667,0.08979712426662445
1750935425969446000,6.07944580078125,0.0383317656815052,-0.8042035102844238,0.06902772188186646
1750935425988270600,6.0982705078125,0.017562363296747208,-0.8139773011207581,0.047036588191986084
1750935426007095300,6.11709521484375,0.01511890348047018,-0.8506292104721069,0.01649334840476513
1750935426025919700,6.135919677734375,0.007788525894284248,-0.8176425099372864,0.001832594396546483
1750935426044744400,6.154744384765625,0.006566796451807022,-0.7382301092147827,-0.029932374134659767
1750935426063569200,6.173569091796875,0.004123337101191282,-0.7431169748306274,-0.05925388261675835
1750935426082393900,6.192393798828125,-0.009315688163042068,-0.7651081085205078,-0.07147117704153061
1750935426101218300,6.21121826171875,-0.0154243353754282,-0.795651376247406,-0.08368847519159317
1750935426120043000,6.23004296875,-0.030085090547800064,-0.5378664135932922,-0.08979712426662445
1750935426138867700,6.24886767578125,-0.010537417605519295,-0.37781986594200134,-0.05070177838206291
1750935426157692400,6.2676923828125,-0.011759147047996521,-0.1750127524137497,-0.0360410213470459
1750935426176516900,6.286516845703125,0.017562363296747208,0.16584978997707367,-0.04825831577181816
1750935426195341600,6.305341552734375,0.031001387163996696,1.0027345418930054,-0.01649334840476513
1750935426214166300,6.324166259765625,-0.06795870512723923,1.8836015462875366,0.043371398001909256
1750935426232991000,6.342990966796875,-0.07406735420227051,2.3380849361419678,0.13011419773101807
1750935426251815400,6.3618154296875,-0.0850629210472107,2.3258676528930664,0.18631376326084137
1750935426270640000,6.38064013671875,-0.14737112820148468,2.1841471195220947,0.1545487940311432
1750935426289464800,6.39946484375,-0.17913609743118286,2.0265438556671143,0.0922405794262886
1750935426308289300,6.418289306640625,-0.16936226189136505,1.8164063692092896,0.007941242307424545
1750935426327114000,6.437114013671875,-0.11194097250699997,1.554956316947937,-0.06780599057674408
1750935426345938700,6.455938720703125,-0.07895427197217941,1.341153621673584,-0.02871064469218254
1750935426364763100,6.47476318359375,-0.04718930274248123,1.13712477684021,0.06536252796649933
1750935426383587800,6.493587890625,-0.028863361105322838,1.2006547451019287,0.10934479534626007
1750935426402412500,6.51241259765625,0.002901607658714056,1.2983931303024292,0.09834922850131989
1750935426421237000,6.531237060546875,-0.028863361105322838,1.0955859422683716,0.049480047076940536
1750935426440061700,6.550061767578125,-0.04841103404760361,1.311832070350647,-0.01893680728971958
1750935426458886400,6.568886474609375,-0.06307178735733032,1.3997966051101685,-0.08002328872680664
1750935426477711000,6.587711181640625,-0.07406735420227051,1.0906990766525269,-0.027488915249705315
1750935426496535600,6.60653564453125,-0.049632761627435684,1.145676851272583,-0.04459312930703163
1750935426515360300,6.6253603515625,-0.08628465235233307,1.3729186058044434,-0.049480047076940536
1750935426534185000,6.64418505859375,-0.08628465235233307,1.2898409366607666,-0.13011419773101807
1750935426553009400,6.663009521484375,-0.07284562289714813,1.0467168092727661,-0.17776164412498474
1750935426571834000,6.681834228515625,-0.05940660089254379,0.8866702318191528,-0.09346231073141098
1750935426590658800,6.700658935546875,-0.05940660089254379,0.8035926222801208,-0.05925388261675835
1750935426609483300,6.719483154296875,-0.061850059777498245,0.6765327453613281,-0.11056652665138245
1750935426628308000,6.738307861328125,-0.06795870512723923,0.7278453707695007,-0.20219624042510986
1750935426647132700,6.757132568359375,-0.0899498388171196,1.0259474515914917,-0.23029601573944092
1750935426665957400,6.775957275390625,-0.11194097250699997,1.0418298244476318,-0.0824667438864708
1750935426684781800,6.79478173828125,-0.10461059212684631,0.962417483329773,0.03848448023200035
1750935426703606500,6.8136064453125,-0.06307178735733032,0.6777544617652893,-0.0054977829568088055
1750935426722431200,6.83243115234375,-0.020311253145337105,0.16829325258731842,-0.06047561392188072
1750935426741255700,6.851255615234375,0.02000582218170166,-0.2837466895580292,-0.05803215503692627
1750935426760080400,6.870080322265625,0.040775224566459656,-0.6795870661735535,0.021380268037319183
1750935426778905000,6.888905029296875,0.046883873641490936,-0.9019418358802795,0.06291907280683517
1750935426797729500,6.9077294921875,0.06276635825634003,-1.0228930711746216,0.053145237267017365
1750935426816554200,6.92655419921875,0.06765327602624893,-1.0876446962356567,0.004276053514331579
1750935426835379000,6.94537890625,0.0847574844956398,-1.5861103534698486,-0.03237583488225937
1750935426854203400,6.964203369140625,0.09697478264570236,-2.028376579284668,-0.001832594396546483
1750935426873028000,6.983028076171875,0.08720094710588455,-1.7986913919448853,0.011606430634856224
1750935426891852800,7.001852783203125,0.09086613357067108,-1.3991857767105103,-0.01649334840476513
1750935426910677200,7.02067724609375,0.09819651395082474,-1.4297289848327637,-0.05070177838206291
1750935426929502000,7.039501953125,0.12140937149524689,-1.7156137228012085,-0.05925388261675835
1750935426948326700,7.05832666015625,0.14462223649024963,-1.8634430170059204,-0.05436696484684944
1750935426967151000,7.077151123046875,0.09819651395082474,-1.7314962148666382,-0.07147117704153061
1750935426985975800,7.095975830078125,0.06154462695121765,-1.3197733163833618,-0.05558869615197182
1750935427004800500,7.114800537109375,0.07009673118591309,-1.1841614246368408,-0.0054977829568088055
1750935427023625000,7.133625,0.056657709181308746,-1.220813274383545,0.033597562462091446
1750935427042449700,7.15244970703125,0.024892739951610565,-1.1377356052398682,0.029932374134659767
1750935427061274400,7.1712744140625,0.007788525894284248,-0.9837977290153503,0.015271619893610477
1750935427080098800,7.190098876953125,0.012675444595515728,-0.8396336436271667,0.010384701192378998
1750935427098923500,7.208923583984375,-0.02519817277789116,-0.6270527243614197,0.014049889519810677
1750935427117748000,7.227748046875,-0.0019853105768561363,-0.37781986594200134,0.0409279391169548
1750935427136572700,7.24657275390625,0.007788525894284248,-0.2971857190132141,0.07024945318698883
1750935427155397400,7.2653974609375,0.009010255336761475,-0.6502655744552612,0.05925388261675835
1750935427174221800,7.284221923828125,0.016340631991624832,-0.8335250020027161,0.004276053514331579
1750935427193046500,7.303046630859375,0.021227551624178886,-0.6710349321365356,-0.010384701192378998
1750935427211871200,7.321871337890625,-0.005650499369949102,-0.34116798639297485,0.0030543238390237093
1750935427230695700,7.34069580078125,-0.006872228812426329,-0.13469567894935608,0.021380268037319183
1750935427249520400,7.359520263671875,-0.008093958720564842,0.10354158282279968,0.027488915249705315
1750935427268345000,7.378344970703125,-0.026419902220368385,0.4260781705379486,0.006719512399286032
1750935427287168500,7.39716845703125,-0.04718930274248123,0.7461713552474976,0.006719512399286032
1750935427305992700,7.41599267578125,-0.07162389904260635,1.1126902103424072,0.025045456364750862
1750935427324817400,7.4348173828125,-0.09361502528190613,1.525634765625,0.021380268037319183
1750935427343641900,7.453641845703125,-0.07773254066705704,1.7614285945892334,0.029932374134659767
1750935427362466600,7.472466552734375,-0.0642935186624527,1.721111536026001,0.07391463965177536
1750935427381291300,7.491291259765625,-0.061850059777498245,1.5610649585723877,0.07635809481143951
1750935427400115700,7.51011572265625,-0.07040216773748398,1.56350839138031,0.006719512399286032
1750935427418940400,7.5289404296875,-0.08628465235233307,1.4462224245071411,-0.08002328872680664
1750935427437764900,7.547764892578125,-0.10461059212684631,1.17499840259552,-0.0922405794262886
1750935427456589600,7.566589599609375,-0.1156061589717865,1.0625993013381958,-0.07635809481143951
1750935427475414300,7.585414306640625,-0.11682789027690887,1.2104285955429077,-0.08368847519159317
1750935427494238700,7.60423876953125,-0.10583232343196869,1.1859939098358154,-0.0922405794262886
1750935427513063400,7.6230634765625,-0.08139773458242416,0.9037744402885437,-0.0824667438864708
1750935427531887900,7.641887939453125,-0.07040216773748398,0.6472112536430359,-0.08979712426662445
1750935427550712600,7.660712646484375,-0.07162389904260635,0.3344484567642212,-0.1081230640411377
1750935427569537300,7.679537353515625,-0.0899498388171196,0.2721402645111084,-0.16187916696071625
1750935427588361700,7.69836181640625,-0.09972367435693741,0.1744018942117691,-0.1496618688106537
1750935427607186400,7.7171865234375,-0.07162389904260635,-0.024740023538470268,-0.15699224174022675
1750935427626011100,7.73601123046875,-0.049632761627435684,-0.1444695144891739,-0.16065743565559387
1750935427644835600,7.754835693359375,-0.03741546720266342,-0.06750056147575378,-0.13133592903614044
1750935427663660300,7.773660400390625,0.00045814859913662076,-0.10415244847536087,-0.0360410213470459
1750935427682484700,7.792484619140625,0.03955349326133728,-0.6307178735733032,0.06047561392188072
1750935427701309400,7.811309326171875,0.12018764764070511,-1.6814053058624268,0.056810423731803894
1750935427720134100,7.830134033203125,0.1971566081047058,-2.377791166305542,0.01282816007733345
1750935427738958600,7.84895849609375,0.2032652497291565,-2.2751657962799072,-0.0409279391169548
1750935427757783300,7.867783203125,0.14706569910049438,-1.978285551071167,-0.08124501258134842
1750935427786020000,7.89602001953125,0.07742711156606674,-1.5653409957885742,-0.07757982611656189
1750935427804844800,7.9148447265625,0.07620538026094437,-1.461493968963623,0.011606430634856224
1750935427823669200,7.933669189453125,0.07376192510128021,-1.7913609743118286,0.10567960888147354
1750935427842494000,7.952493896484375,0.06276635825634003,-1.793804407119751,0.09712749719619751
1750935427861318700,7.971318603515625,0.04932733252644539,-1.4223986864089966,0.12767073512077332
1750935427880143000,7.99014306640625,0.04566214233636856,-1.1426225900650024,0.24373504519462585
1750935427917792300,8.027792236328125,0.04199695214629173,-0.8897245526313782,0.2608392536640167
1750935427936617000,8.046616943359375,0.028557928279042244,-0.629496157169342,0.1899789422750473
1750935427955441400,8.06544140625,0.012675444595515728,-0.6722567081451416,0.17043127119541168
1750935427974266000,8.08426611328125,-0.006872228812426329,-0.6075050234794617,0.164322629570961
1750935427993090800,8.1030908203125,-0.010537417605519295,-0.3656025826931,0.185092031955719
1750935428011915300,8.121915283203125,-0.014202605932950974,-0.03329212963581085,0.18753549456596375
1750935428030740000,8.140739990234374,-0.0154243353754282,0.32589635252952576,0.1337793916463852
1750935428049564700,8.159564697265624,-0.023976443335413933,0.6227766275405884,0.06047561392188072
1750935428068389000,8.17838916015625,-0.036193739622831345,1.0259474515914917,0.0054977829568088055
1750935428087213800,8.1972138671875,-0.05329795181751251,1.3997966051101685,0.009162971749901772
1750935428106038300,8.216038330078124,-0.05696314200758934,1.5879429578781128,0.03237583488225937
1750935428124863000,8.234863037109376,-0.039858926087617874,1.73088538646698,0.027488915249705315
1750935428143687400,8.2536875,-0.045967575162649155,1.8994840383529663,0.09590577334165573
1750935428162512100,8.27251220703125,-0.09728021919727325,2.0851869583129883,0.19730933010578156
1750935428181336600,8.291336669921876,-0.1314886510372162,2.174373149871826,0.23396120965480804
1750935428200161300,8.310161376953126,-0.10216713696718216,2.072969675064087,0.18387030065059662
1750935428218986000,8.328986083984375,-0.09850194305181503,1.9556835889816284,0.1386663019657135
1750935428237810400,8.347810546875,-0.11194097250699997,1.6942334175109863,0.07757982611656189
1750935428256635100,8.36663525390625,-0.11927134543657303,1.4828742742538452,0.006719512399286032
1750935428275459600,8.38545947265625,-0.12660172581672668,1.3716968297958374,0.03481929376721382
1750935428294284300,8.4042841796875,-0.1363755613565445,1.193324327468872,0.01282816007733345
1750935428313109000,8.42310888671875,-0.1363755613565445,0.9697478413581848,-0.08857539296150208
1750935428331933400,8.441933349609375,-0.08017600327730179,0.5287034511566162,-0.1594357043504715
1750935428350758100,8.460758056640625,0.012675444595515728,-0.22754712402820587,-0.10445787757635117
1750935428369582600,8.47958251953125,0.10797034949064255,-1.0595449209213257,-0.08979712426662445
1750935428388407300,8.4984072265625,0.17027856409549713,-1.6313143968582153,-0.09468404203653336
1750935428407231700,8.517231689453125,0.1360701322555542,-1.6019928455352783,-0.12644900381565094
1750935428426056400,8.536056396484375,0.12385283410549164,-1.8157955408096313,-0.10201441496610641
1750935428444881000,8.554880859375,0.12140937149524689,-1.989281177520752,-0.02260199747979641
1750935428463705600,8.57370556640625,0.145843967795372,-2.1554362773895264,0.037262752652168274
1750935428482530000,8.592530029296874,0.19593487679958344,-2.422995090484619,0.0409279391169548
1750935428501354800,8.611354736328124,0.12140937149524689,-2.2397356033325195,-0.01649334840476513
1750935428520179500,8.630179443359374,0.09330959618091583,-1.7498221397399902,-0.05436696484684944
1750935428539004000,8.64900390625,0.03588830679655075,-1.3808598518371582,-0.025045456364750862
1750935428557828600,8.66782861328125,0.009010255336761475,-1.1450660228729248,0.001832594396546483
1750935428576653000,8.686653076171876,0.046883873641490936,-1.2244784832000732,-0.006719512399286032
1750935428595477800,8.705477783203126,0.022449281066656113,-1.046105980873108,-0.021380268037319183
1750935428614302200,8.72430224609375,0.01511890348047018,-0.5732966065406799,-0.021380268037319183
1750935428633127000,8.743126953125,-0.05085449293255806,0.032681263983249664,-0.0054977829568088055
1750935428651951400,8.761951416015625,-0.0386371985077858,0.8170316219329834,0.04581485688686371
1750935428670776000,8.780776123046875,-0.022754713892936707,1.3814706802368164,0.19242240488529205
1750935428689600500,8.7996005859375,-0.04474584385752678,1.9080361127853394,0.3023780584335327
1750935428708425200,8.81842529296875,-0.02764163166284561,2.263559341430664,0.26450446248054504
1750935428727250000,8.83725,-0.049632761627435684,2.352745771408081,0.17531819641590118
1750935428746074400,8.856074462890625,-0.0691804364323616,2.2562291622161865,0.15088360011577606
1750935428764898800,8.87489892578125,-0.09239330142736435,2.1328344345092773,0.13500112295150757
1750935428783723500,8.8937236328125,-0.11804962158203125,2.140164852142334,0.10690133273601532
1750935428802548200,8.91254833984375,-0.1571449637413025,2.0827434062957764,0.12278381735086441
1750935428821372700,8.93137255859375,-0.16814053058624268,1.8066326379776,0.10079269111156464
1750935428840197400,8.950197265625,-0.12293653935194016,1.3093886375427246,0.07147117704153061
1750935428859021800,8.969021728515624,-0.09361502528190613,0.9147700071334839,0.01282816007733345
1750935428877846500,8.987846435546874,-0.06673697382211685,0.4468475878238678,-0.03237583488225937
1750935428896671000,9.0066708984375,-0.0032070400193333626,-0.3130682110786438,-0.08124501258134842
1750935428915495700,9.02549560546875,0.08109229803085327,-1.0143409967422485,-0.1288924664258957
1750935428934320000,9.044320068359376,0.14340050518512726,-1.4663809537887573,-0.15210533142089844
1750935428953144800,9.063144775390626,0.15439607203006744,-1.7620394229888916,-0.13255766034126282
1750935428971969300,9.08196923828125,0.14706569910049438,-2.0137157440185547,-0.13011419773101807
1750935428990794000,9.1007939453125,0.15073087811470032,-2.2262966632843018,-0.14110976457595825
1750935429009618400,9.119618408203126,0.1153007298707962,-2.1114540100097656,-0.164322629570961
1750935429028443100,9.138443115234375,0.10308343172073364,-1.7143919467926025,-0.15577052533626556
1750935429047267600,9.157267578125,0.11285726726055145,-1.9330816268920898,-0.14110976457595825
1750935429066092300,9.17609228515625,0.12873975932598114,-2.093128204345703,-0.16676609218120575
1750935429084916700,9.194916748046875,0.011453714221715927,-1.694844365119934,-0.23273947834968567
1750935429103741400,9.213741455078125,-0.026419902220368385,-1.120631456375122,-0.2828303873538971
1750935429122566000,9.23256591796875,-0.023976443335413933,-0.6563742160797119,-0.258395791053772
1750935429141390600,9.251390625,-0.045967575162649155,-0.2519817352294922,-0.09712749719619751
1750935429160215000,9.270215087890625,-0.023976443335413933,0.3552178740501404,0.05558869615197182
1750935429179039700,9.289039794921875,-0.0154243353754282,1.1615593433380127,0.12156209349632263
1750935429197864200,9.3078642578125,-0.014202605932950974,1.9471315145492554,0.18631376326084137
1750935429216689000,9.32668896484375,-0.02764163166284561,2.311206817626953,0.22663083672523499
1750935429235513300,9.345513427734375,-0.05818486958742142,2.344193696975708,0.205861434340477
1750935429254338000,9.364338134765624,-0.09605848789215088,2.3087635040283203,0.13744457066059113
1750935429273162500,9.38316259765625,-0.08261945843696594,2.3344197273254395,0.11178825795650482
1750935429291987200,9.4019873046875,-0.09728021919727325,2.126725673675537,0.08979712426662445
1750935429310811600,9.420811767578124,-0.09605848789215088,1.7223331928253174,0.017715077847242355
1750935429329636400,9.43963623046875,-0.10827577859163284,1.48776113986969,0.015271619893610477
1750935429348460800,9.458460693359376,-0.10583232343196869,1.4474440813064575,0.07024945318698883
1750935429367285500,9.477285400390626,-0.0899498388171196,1.17499840259552,0.0873536616563797
1750935429386110000,9.49610986328125,-0.023976443335413933,0.4725039005279541,0.06536252796649933
1750935429404934700,9.5149345703125,0.07620538026094437,-0.6502655744552612,0.04825831577181816
1750935429423759000,9.533759033203125,0.16294817626476288,-1.5836669206619263,-0.001832594396546483
1750935429442583800,9.552583740234375,0.1715002804994583,-2.000276803970337,-0.047036588191986084
1750935429461408300,9.571408203125,0.15928299725055695,-2.0857977867126465,-0.056810423731803894
1750935429480233000,9.59023291015625,0.12018764764070511,-1.7070616483688354,-0.0873536616563797
1750935429499057400,9.609057373046875,0.07131846249103546,-1.5543454885482788,-0.05558869615197182
1750935429517882000,9.627882080078125,0.054214250296354294,-1.8536691665649414,-0.025045456364750862
1750935429536706600,9.64670654296875,0.07254019379615784,-2.173762321472168,-0.025045456364750862
1750935429555531300,9.66553125,0.12140937149524689,-2.2226314544677734,-0.014049889519810677
1750935429574355700,9.684355712890625,0.04199695214629173,-1.9587379693984985,0.06047561392188072
1750935429593180400,9.703180419921875,-0.01908952370285988,-1.8817689418792725,0.23273947834968567
1750935429612004900,9.7220048828125,-0.06795870512723923,-1.6716314554214478,0.2974911332130432
1750935429630829600,9.74082958984375,-0.0007635809597559273,-1.2257001399993896,0.1545487940311432
1750935429649654000,9.759654052734374,-0.0032070400193333626,-0.601396381855011,0.05803215503692627
1750935429668478500,9.778478515625,-0.009315688163042068,-0.06505709886550903,0.05070177838206291
1750935429687303200,9.79730322265625,0.002901607658714056,0.5115992426872253,-0.006719512399286032
1750935429706127600,9.816127685546874,-0.009315688163042068,1.2153154611587524,-0.025045456364750862
1750935429724952300,9.834952392578124,-0.0642935186624527,1.9691226482391357,-0.0360410213470459
1750935429743776800,9.85377685546875,-0.10705405473709106,2.6606216430664062,-0.09346231073141098
1750935429762601500,9.8726015625,-0.11682789027690887,2.967275619506836,-0.07757982611656189
1750935429781426000,9.891426025390626,-0.11682789027690887,2.78890323638916,0.0030543238390237093
1750935429800250600,9.910250732421876,-0.13515383005142212,2.5995349884033203,-0.007941242307424545
1750935429819075000,9.929074951171875,-0.15470150113105774,2.565326690673828,-0.02260199747979641
1750935429837899800,9.947899658203125,-0.17424917221069336,2.3600761890411377,-0.029932374134659767
1750935429856724200,9.96672412109375,-0.17547090351581573,1.943466305732727,-0.05192350596189499
1750935429875549000,9.985548828125,-0.08139773458242416,1.4022401571273804,-0.0616973415017128
1750935429894373400,10.004373291015625,-0.049632761627435684,1.0406081676483154,-0.1178968995809555
1750935429913197800,10.02319775390625,-0.04841103404760361,0.6288852691650391,-0.1484401375055313
1750935429932022500,10.0420224609375,-0.0032070400193333626,-0.28496840596199036,-0.10567960888147354
1750935429950847000,10.060846923828125,0.08109229803085327,-1.600771188735962,-0.02626718580722809
1750935429969671700,10.079671630859375,0.1824958473443985,-2.746753454208374,0.001832594396546483
1750935429988496100,10.09849609375,0.2386954128742218,-3.0949463844299316,0.053145237267017365
1750935430007321300,10.1173212890625,0.21914774179458618,-2.673449754714966,0.000610864779446274
1750935430026145800,10.136145751953125,0.12873975932598114,-2.058919668197632,-0.10690133273601532
1750935430044970500,10.154970458984375,0.06643154472112656,-2.058919668197632,-0.06536252796649933
1750935430063795000,10.173794921875,0.09575305134057999,-2.3118176460266113,0.006719512399286032
1750935430082619400,10.192619384765624,0.07742711156606674,-2.0442590713500977,0.04214967042207718
1750935430101444000,10.211444091796874,0.022449281066656113,-1.676518440246582,0.0873536616563797
1750935430120268500,10.2302685546875,-0.01908952370285988,-1.4407246112823486,0.1484401375055313
1750935430139093200,10.24909326171875,0.04321868345141411,-0.7687733173370361,0.04825831577181816
1750935430157917700,10.267917724609376,-0.01908952370285988,0.14996729791164398,-0.06291907280683517
1750935430176742400,10.286742431640626,-0.07895427197217941,1.0601558685302734,-0.0409279391169548
1750935430195566800,10.30556689453125,-0.07651081681251526,2.0583088397979736,0.0665842592716217
1750935430214391300,10.324391357421876,-0.07651081681251526,2.85854172706604,0.05192350596189499
1750935430233216000,10.343216064453125,-0.12171480804681778,3.3716681003570557,-0.08002328872680664
1750935430252040400,10.36204052734375,-0.1718057245016098,3.459632635116577,-0.14233149588108063
1750935430270865200,10.380865234375,-0.19013166427612305,3.0808966159820557,-0.12767073512077332
1750935430289689600,10.399689697265625,-0.1718057245016098,2.667951822280884,-0.13744457066059113
1750935430308514300,10.418514404296875,-0.16569706797599792,2.2708897590637207,-0.1899789422750473
1750935430327338800,10.4373388671875,-0.1571449637413025,1.8054108619689941,-0.24740023910999298
1750935430346163500,10.45616357421875,-0.12293653935194016,1.1114684343338013,-0.2522871494293213
1750935430364988000,10.47498779296875,-0.07040216773748398,0.16218459606170654,-0.12644900381565094
1750935430383812400,10.493812255859375,-0.036193739622831345,-0.7565560340881348,-0.04214967042207718
1750935430402637000,10.512636962890625,0.016340631991624832,-1.3661991357803345,-0.07269290834665298
1750935430421461500,10.53146142578125,0.06765327602624893,-2.0686936378479004,-0.10690133273601532
1750935430440286200,10.5502861328125,0.14706569910049438,-2.9263477325439453,-0.13500112295150757
1750935430459110700,10.569110595703124,0.18493930995464325,-3.5054476261138916,-0.1288924664258957
1750935430477935000,10.58793505859375,0.09819651395082474,-3.3038620948791504,-0.007941242307424545
1750935430496759800,10.606759765625,0.07742711156606674,-2.7528622150421143,0.08613193035125732
1750935430515584300,10.625584228515624,0.09330959618091583,-2.179871082305908,0.10567960888147354
1750935430534409000,10.644408935546876,0.017562363296747208,-1.8280128240585327,0.10567960888147354
1750935430553233400,10.6632333984375,-0.006872228812426329,-1.5176935195922852,0.13988803327083588
1750935430572058000,10.68205810546875,-0.05085449293255806,-0.8310815095901489,0.0360410213470459
1750935430590882600,10.700882568359376,-0.049632761627435684,-0.23732095956802368,-0.0054977829568088055
1750935430609707300,10.719707275390626,-0.0435241162776947,0.23793183267116547,0.0616973415017128
1750935430628531700,10.73853173828125,-0.008093958720564842,0.9233221411705017,0.10934479534626007
1750935430647356200,10.757356201171875,0.018784092739224434,1.915366530418396,0.11423171311616898
1750935430666180900,10.776180908203125,-0.008093958720564842,2.827998399734497,0.11545344442129135
1750935430685005300,10.79500537109375,-0.08384118974208832,3.3374598026275635,0.12522727251052856
1750935430703830000,10.813830078125,-0.12415826320648193,3.3521203994750977,0.07269290834665298
1750935430722654500,10.832654541015625,-0.15836669504642487,3.1334309577941895,-0.05192350596189499
1750935430741479000,10.85147900390625,-0.1718057245016098,2.967275619506836,-0.1545487940311432
1750935430760303600,10.8703037109375,-0.1571449637413025,2.682612657546997,-0.19120067358016968
1750935430779128000,10.889128173828125,-0.1314886510372162,2.1279475688934326,-0.2364046722650528
1750935430797952800,10.907952880859375,-0.07040216773748398,1.4217877388000488,-0.26939135789871216
1750935430816777200,10.926777099609374,0.0102319847792387,0.3857611119747162,-0.18753549456596375
1750935430835601700,10.9456015625,0.027336198836565018,-0.47922343015670776,-0.06047561392188072
1750935430854426400,10.96442626953125,0.07376192510128021,-1.1695005893707275,-0.031154103577136993
1750935430873250800,10.983250732421874,0.09330959618091583,-1.9538509845733643,0.021380268037319183
1750935430892075500,11.002075439453124,0.08353576064109802,-2.475529432296753,0.0922405794262886
1750935430910900000,11.02089990234375,0.056657709181308746,-3.0973899364471436,0.164322629570961
1750935430929724700,11.039724609375,0.13362666964530945,-3.3344054222106934,0.15699224174022675
1750935430948549000,11.058549072265626,0.1262962967157364,-2.8151702880859375,0.0616973415017128
1750935430967373600,11.07737353515625,0.06887500733137131,-2.095571517944336,0.007941242307424545
1750935430986198300,11.0961982421875,0.0847574844956398,-1.9636248350143433,0.03237583488225937
1750935431005022700,11.115022705078125,0.05543597787618637,-1.9159773588180542,0.027488915249705315
1750935431023847400,11.133847412109375,-0.04108065739274025,-1.035110354423523,-0.0824667438864708
1750935431042671900,11.152671875,-0.016646064817905426,-0.15546508133411407,-0.12278381735086441
1750935431061496300,11.171496337890625,-0.0154243353754282,0.5836812853813171,0.009162971749901772
1750935431080321000,11.190321044921875,-0.004428769461810589,1.416900873184204,0.1533270627260208
1750935431099145500,11.2091455078125,0.0383317656815052,2.350302219390869,0.18753549456596375
1750935431117970200,11.22797021484375,-0.012980876490473747,3.0027058124542236,0.1337793916463852
1750935431136794600,11.246794677734375,-0.10461059212684631,3.2055130004882812,0.14477495849132538
1750935431155619000,11.265619140625,-0.15470150113105774,3.221395492553711,0.16798780858516693
1750935431174443800,11.28444384765625,-0.162031888961792,3.134652614593506,0.001832594396546483
1750935431193268200,11.303268310546875,-0.19501857459545135,2.869537353515625,-0.18264856934547424
1750935431212093000,11.322093017578124,-0.1718057245016098,2.1560473442077637,-0.3084867000579834
1750935431230917400,11.34091748046875,-0.09728021919727325,1.0687079429626465,-0.3695732057094574
1750935431249741800,11.359741943359374,-0.028863361105322838,-0.13225223124027252,-0.25350889563560486
1750935431268566500,11.37856640625,0.03222311660647392,-1.0021237134933472,-0.08613193035125732
1750935431287391000,11.397390869140626,0.10919208079576492,-1.7767002582550049,-0.023823726922273636
1750935431306215700,11.416215576171876,0.12751802802085876,-2.5549418926239014,-0.031154103577136993
1750935431325040000,11.4350400390625,0.1153007298707962,-2.9849908351898193,-0.000610864779446274
1750935431343864600,11.453864501953126,0.06276635825634003,-3.3820528984069824,0.09957095980644226
1750935431362689300,11.472689208984375,0.013897174037992954,-3.246440887451172,0.18264856934547424
1750935431381513700,11.491513671875,0.0334448479115963,-2.8848090171813965,0.1692095398902893
1750935431400338400,11.51033837890625,0.125074565410614,-2.6697845458984375,0.08491020649671555
1750935431419163000,11.529162841796875,0.07864884287118912,-1.8732168674468994,-0.0030543238390237093
1750935431437987300,11.5479873046875,0.00045814859913662076,-0.6453786492347717,0.02871064469218254
1750935431456812000,11.56681201171875,-0.061850059777498245,0.20372340083122253,0.13133592903614044
1750935431475636500,11.585636474609375,-0.06307178735733032,0.9673043489456177,0.10079269111156464
1750935431494461200,11.604461181640625,-0.045967575162649155,1.4926481246948242,0.11056652665138245
1750935431513285600,11.62328564453125,0.011453714221715927,1.9275838136672974,0.1386663019657135
1750935431532110000,11.642110107421875,0.027336198836565018,2.54577898979187,0.05803215503692627
1750935431550934800,11.660934814453125,-0.061850059777498245,3.129765748977661,0.04825831577181816
1750935431569759200,11.67975927734375,-0.16325360536575317,3.2543821334838867,0.16065743565559387
1750935431588584000,11.698583984375,-0.15836669504642487,3.0295839309692383,0.05803215503692627
1750935431607408400,11.717408447265624,-0.13759729266166687,2.721708059310913,-0.23396120965480804
1750935431626232800,11.73623291015625,-0.14004075527191162,2.3869540691375732,-0.4098902642726898
1750935431645057500,11.7550576171875,-0.10949750989675522,1.8310672044754028,-0.41844236850738525
1750935431663882000,11.773882080078126,-0.06551524996757507,0.8988875150680542,-0.2620609998703003
1750935431682706700,11.792706787109376,-0.017867794260382652,-0.26542073488235474,0.0054977829568088055
1750935431701531100,11.81153125,0.044440411031246185,-1.1377356052398682,0.06780599057674408
1750935431720355600,11.83035546875,0.09575305134057999,-1.9196425676345825,0.02626718580722809
1750935431739180300,11.84918017578125,0.08720094710588455,-2.684445381164551,0.04825831577181816
1750935431758004700,11.868004638671875,0.08231402933597565,-3.233001947402954,0.11423171311616898
1750935431776829400,11.886829345703125,0.04566214233636856,-3.2317800521850586,0.2522871494293213
1750935431795654000,11.90565380859375,0.060322895646095276,-3.2672102451324463,0.3243691921234131
1750935431814478300,11.924478271484375,0.12385283410549164,-3.015533924102783,0.22418737411499023
1750935431833303000,11.943302978515625,0.1262962967157364,-2.0967934131622314,0.06414080411195755
1750935431852127500,11.96212744140625,0.02977965772151947,-1.3319905996322632,0.10323614627122879
1750935431870952000,11.980951904296875,0.021227551624178886,-1.044884204864502,0.22907429933547974
1750935431889776600,11.999776611328125,0.028557928279042244,-0.9361502528190613,0.2461785078048706
1750935431908601000,12.01860107421875,0.031001387163996696,-0.5317577719688416,0.14599667489528656
1750935431927425800,12.03742578125,0.046883873641490936,0.0204639695584774,-0.039706211537122726
1750935431946250200,12.056250244140625,-0.008093958720564842,0.9440914988517761,-0.1130099818110466
1750935431965074700,12.07507470703125,-0.05818486958742142,2.129169225692749,-0.004276053514331579
1750935431983899400,12.0938994140625,-0.1107192412018776,2.9245152473449707,0.1496618688106537
1750935432002723800,12.112723876953124,-0.15836669504642487,3.182300090789795,0.1802051067352295
1750935432021548500,12.131548583984374,-0.15836669504642487,3.1749696731567383,0.0360410213470459
1750935432040373000,12.150373046875,-0.15836669504642487,2.9575018882751465,-0.08368847519159317
1750935432059197400,12.169197509765626,-0.15347976982593536,2.4211626052856445,-0.11911863088607788
1750935432078022100,12.188022216796876,-0.11682789027690887,1.6710206270217896,-0.09957095980644226
1750935432096846600,12.2068466796875,-0.09605848789215088,0.6655371785163879,-0.07024945318698883
1750935432115671000,12.225671142578125,-0.0154243353754282,-0.7968730926513672,-0.037262752652168274
1750935432134495700,12.244495849609375,0.06643154472112656,-2.6673409938812256,-0.001832594396546483
1750935432153320200,12.2633203125,0.21181736886501312,-3.7009241580963135,-0.05925388261675835
1750935432172145000,12.282144775390625,0.2680169343948364,-3.7546803951263428,-0.16676609218120575
1750935432190969300,12.30096923828125,0.18127411603927612,-3.1315982341766357,-0.07147117704153061
1750935432209794000,12.3197939453125,0.08109229803085327,-2.330143690109253,0.13011419773101807
1750935432228618500,12.338618408203125,0.07376192510128021,-1.9184207916259766,0.22418737411499023
1750935432247443000,12.35744287109375,0.05787943676114082,-1.5665627717971802,0.19608759880065918
1750935432266267600,12.376267578125,0.04199695214629173,-1.5506802797317505,0.09346231073141098
1750935432285092000,12.395092041015625,0.02977965772151947,-1.4395028352737427,-0.025045456364750862
1750935432303916500,12.41391650390625,-0.0019853105768561363,-0.9776890873908997,-0.07635809481143951
1750935432322741200,12.4327412109375,-0.04841103404760361,0.18295399844646454,-0.04581485688686371
1750935432341565700,12.451565673828124,-0.09117157012224197,1.5244131088256836,0.01893680728971958
1750935432360390400,12.470390380859374,-0.09239330142736435,2.6019785404205322,0.000610864779446274
1750935432379214800,12.48921484375,-0.11316270381212234,3.422980785369873,-0.18142683804035187
1750935432398039300,12.508039306640624,-0.17424917221069336,3.920224666595459,-0.3451386094093323
1750935432416864000,12.526864013671876,-0.23167046904563904,4.154796600341797,-0.3023780584335327
1750935432435688400,12.5456884765625,-0.27320927381515503,4.036289215087891,-0.09957095980644226
1750935432454513200,12.56451318359375,-0.19868376851081848,3.1896305084228516,0.14477495849132538
1750935432473337600,12.583337646484376,-0.10827577859163284,1.933692455291748,0.2718348205089569
1750935432492162000,12.602162109375,-0.052076224237680435,0.323452889919281,0.16676609218120575
1750935432510986800,12.62098681640625,0.01511890348047018,-1.3808598518371582,-0.14721840620040894
1750935432529811200,12.639811279296875,0.06765327602624893,-2.875035047531128,-0.2816086709499359
1750935432548635600,12.6586357421875,0.07254019379615784,-3.688706874847412,-0.05925388261675835
1750935432567460400,12.67746044921875,0.07742711156606674,-3.3881614208221436,0.14599667489528656
1750935432586284800,12.696284912109375,0.0383317656815052,-2.9739952087402344,0.1997527778148651
1750935432605109500,12.715109619140625,0.11896591633558273,-2.897026300430298,0.25350889563560486
1750935432623934000,12.733933837890625,0.15439607203006744,-2.227518320083618,0.3500255048274994
1750935432642758400,12.75275830078125,0.14950916171073914,-1.3503166437149048,0.3634645342826843
1750935432661583000,12.7715830078125,0.14217877388000488,-0.9642500281333923,0.2107483446598053
1750935432680407600,12.790407470703125,0.15806126594543457,-0.8762855529785156,0.0030543238390237093
1750935432699232000,12.80923193359375,0.15928299725055695,-0.6771436333656311,-0.10201441496610641
1750935432718056700,12.828056640625,0.03955349326133728,0.1487455666065216,-0.18631376326084137
1750935432736881200,12.846881103515624,-0.10338886082172394,1.1688897609710693,-0.15699224174022675
1750935432755705900,12.865705810546874,-0.20357069373130798,1.7565417289733887,-0.164322629570961
1750935432783942700,12.893942626953125,-0.19990549981594086,2.385732412338257,-0.49663305282592773
1750935432802767000,12.91276708984375,-0.19013166427612305,2.7058255672454834,-0.7092140316963196
1750935432821591800,12.931591796875,-0.2548833191394806,3.0271403789520264,-0.8497129082679749
1750935432840416300,12.950416259765625,-0.3159697949886322,3.1920738220214844,-0.8717040419578552
1750935432859240700,12.96924072265625,-0.3575085997581482,3.0637922286987305,-0.842382550239563
1750935432878065400,12.9880654296875,-0.35017824172973633,2.61541748046875,-0.6823359727859497
1750935432896889900,13.006889892578124,-0.2890917658805847,2.042426347732544,-0.5345066785812378
1750935432915714300,13.02571435546875,-0.1314886510372162,1.4425572156906128,-0.5442805290222168
1750935432934539000,13.0445390625,-0.008093958720564842,0.15485422313213348,-0.5369501113891602
1750935432953363500,13.063363525390624,0.016340631991624832,-2.2091925144195557,-0.26939135789871216
1750935432972188200,13.082188232421874,0.10797034949064255,-4.0588908195495605,0.04825831577181816
1750935432991012600,13.1010126953125,0.1568395346403122,-4.2372636795043945,0.07757982611656189
1750935433009837000,13.119837158203126,0.16661337018013,-3.0644030570983887,-0.0873536616563797
1750935433028661800,13.138661865234376,0.14950916171073914,-2.5219552516937256,0.000610864779446274
1750935433047486200,13.157486328125,0.13484840095043182,-2.534172534942627,0.3610210716724396
1750935433066311000,13.176310791015625,0.2704603672027588,-2.7027711868286133,0.749531090259552
1750935433085135400,13.19513525390625,0.4036289155483246,-2.740644931793213,0.8949168920516968
1750935433103959800,13.213959716796875,0.34498587250709534,-2.712545156478882,0.7250964641571045
1750935433122784500,13.232784423828125,0.21548254787921906,-2.243400812149048,0.472198486328125
1750935433141609000,13.25160888671875,0.001679878099821508,-1.3710860013961792,0.35735589265823364
1750935433160433700,13.27043359375,0.012675444595515728,-0.5549706816673279,0.4477638900279999
1750935433179258000,13.289258056640625,0.09697478264570236,0.008246674202382565,0.573602020740509
1750935433198082600,13.30808251953125,-0.04108065739274025,0.8585704565048218,0.3634645342826843
1750935433216907300,13.3269072265625,-0.28176137804985046,1.9593487977981567,-0.0054977829568088055
1750935433235731700,13.345731689453125,-0.3098611533641815,2.817003011703491,-0.18631376326084137
1750935433254556200,13.36455615234375,-0.2805396616458893,3.4144287109375,-0.12522727251052856
1750935433273380900,13.383380859375,-0.29886558651924133,3.766286849975586,-0.0665842592716217
1750935433292205300,13.402205322265624,-0.29764387011528015,3.6844308376312256,-0.07513637095689774
1750935433311030000,13.421030029296874,-0.3208567202091217,3.470628261566162,-0.18631376326084137
1750935433329854500,13.4398544921875,-0.2952004075050354,3.638005256652832,-0.49663305282592773
1750935433348679000,13.458678955078126,-0.27198755741119385,3.5842490196228027,-0.7202095985412598
1750935433367503600,13.477503662109376,-0.1925751268863678,2.760803461074829,-0.5662716627120972
1750935433386328000,13.496328125,-0.11316270381212234,1.7443243265151978,-0.18142683804035187
1750935433405152800,13.51515283203125,-0.0435241162776947,0.8891136646270752,0.07147117704153061
1750935433423977200,13.533977294921876,-0.04841103404760361,0.4370737373828888,0.16187916696071625
1750935433442801700,13.5528017578125,-0.017867794260382652,0.2868010103702545,0.056810423731803894
1750935433461626400,13.57162646484375,0.021227551624178886,-0.3814850449562073,0.03481929376721382
1750935433480450800,13.590450927734375,0.11285726726055145,-1.961181402206421,0.18753549456596375
1750935433499275500,13.609275634765625,0.1617264449596405,-3.7546803951263428,0.47464191913604736
1750935433518100000,13.628099853515625,0.25579962134361267,-4.70640754699707,0.6542361974716187
1750935433536924700,13.646924560546875,0.36942046880722046,-4.806589603424072,0.5723803043365479
1750935433555749000,13.6657490234375,0.33399030566215515,-3.7791149616241455,0.39889469742774963
1750935433574573600,13.684573486328125,0.2741255760192871,-2.749197006225586,0.347582072019577
1750935433593398300,13.703398193359375,0.19837833940982819,-2.255618095397949,0.40866854786872864
1750935433612222700,13.72222265625,0.18371757864952087,-1.9953898191452026,0.4172206521034241
1750935433631047400,13.74104736328125,0.25213444232940674,-2.1187844276428223,0.36712974309921265
1750935433649872000,13.759871826171874,0.27656903862953186,-2.218966245651245,0.29993459582328796
1750935433668696300,13.7786962890625,0.07864884287118912,-1.694844365119934,0.17776164412498474
1750935433687521000,13.79752099609375,-0.017867794260382652,-0.8738420605659485,0.049480047076940536
1750935433706345500,13.816345458984374,-0.052076224237680435,0.07910698652267456,-0.025045456364750862
1750935433725170200,13.835170166015626,-0.1302669197320938,0.9868520498275757,-0.11056652665138245
1750935433743994600,13.85399462890625,-0.19990549981594086,1.9080361127853394,-0.16187916696071625
1750935433762819000,13.872819091796876,-0.14859285950660706,2.9269585609436035,-0.15088360011577606
1750935433781643800,13.891643798828126,-0.20479241013526917,3.525606155395508,-0.15210533142089844
1750935433800468200,13.91046826171875,-0.3098611533641815,3.7675085067749023,-0.2254091054201126
1750935433819293000,13.92929296875,-0.3782780170440674,4.098597049713135,-0.38179048895835876
1750935433838117400,13.948117431640625,-0.3819431960582733,4.037510871887207,-0.47952884435653687
1750935433856942000,13.966942138671875,-0.38438665866851807,3.707643747329712,-0.5015199780464172
1750935433875766500,13.9857666015625,-0.31352636218070984,3.1920738220214844,-0.3341430425643921
1750935433894591200,14.00459130859375,-0.19379685819149017,2.437045097351074,-0.19853104650974274
1750935433913415700,14.023415771484375,-0.0948367565870285,1.8457279205322266,-0.23762640357017517
1750935433932240100,14.042240234375,-0.012980876490473747,1.7809762954711914,-0.4098902642726898
1750935433951064800,14.06106494140625,0.0334448479115963,1.3252711296081543,-0.23273947834968567
1750935433969889300,14.07988916015625,0.021227551624178886,0.6594285368919373,0.029932374134659767
1750935433988714000,14.0987138671875,0.05177079141139984,-0.0772743970155716,0.143553227186203
1750935434007538400,14.117538330078125,0.11285726726055145,-1.266017198562622,0.19853104650974274
1750935434026363000,14.13636279296875,0.19960007071495056,-3.1902413368225098,0.3390299379825592
1750935434045187600,14.1551875,0.2533561587333679,-4.862789154052734,0.500298261642456
1750935434064012000,14.174011962890624,0.20570871233940125,-4.8212504386901855,0.5589412450790405
1750935434082836700,14.192836669921874,0.1922696828842163,-3.914726972579956,0.5247328281402588
1750935434101661200,14.2116611328125,0.1727220118045807,-3.196349859237671,0.5308414697647095
1750935434120486000,14.23048583984375,0.1776089370250702,-2.620915412902832,0.545502245426178
1750935434139310300,14.249310302734376,0.1360701322555542,-2.29960036277771,0.5235111117362976
1750935434158134800,14.268134765625,0.09086613357067108,-2.1664319038391113,0.44898560643196106
1750935434176959500,14.28695947265625,0.06765327602624893,-2.1920883655548096,0.36712974309921265
1750935434195784000,14.305783935546875,0.06276635825634003,-1.5677844285964966,0.2571740746498108
1750935434214608600,14.324608642578125,-0.0032070400193333626,-0.20311254262924194,0.13622283935546875
1750935434233433000,14.34343310546875,-0.05818486958742142,0.620333194732666,0.0873536616563797
1750935434252257800,14.3622578125,-0.07162389904260635,1.1713331937789917,0.037262752652168274
1750935434271082200,14.381082275390625,-0.10461059212684631,1.8493931293487549,0.01282816007733345
1750935434289907000,14.399906982421875,-0.15347976982593536,2.6667301654815674,-0.06902772188186646
1750935434308731400,14.4187314453125,-0.17547090351581573,3.2934775352478027,-0.205861434340477
1750935434327555800,14.437555908203125,-0.23777911067008972,3.531714677810669,-0.3182605504989624
1750935434346380500,14.456380615234375,-0.2842048406600952,3.5500407218933105,-0.4575377106666565
1750935434365205000,14.475205078125,-0.3416261374950409,3.422980785369873,-0.5442805290222168
1750935434384029700,14.49402978515625,-0.3404043912887573,3.107774496078491,-0.42821621894836426
1750935434402854100,14.512854248046875,-0.2964221239089966,2.8548765182495117,-0.36712974309921265
1750935434421678800,14.531678955078124,-0.25121814012527466,2.500575065612793,-0.37323838472366333
1750935434440503300,14.55050341796875,-0.2133445292711258,1.787084937095642,-0.3182605504989624
1750935434459328000,14.569327880859374,-0.1302669197320938,1.1065815687179565,-0.2559523284435272
1750935434478152400,14.58815234375,-0.07040216773748398,0.20127993822097778,-0.1533270627260208
1750935434496977200,14.60697705078125,-0.08139773458242416,-0.3741546869277954,-0.07024945318698883
1750935434515801600,14.625801513671876,-0.061850059777498245,-0.5952877402305603,-0.06902772188186646
1750935434534626000,14.6446259765625,-0.055741410702466965,-1.0974185466766357,0.0030543238390237093
1750935434553450800,14.66345068359375,-0.026419902220368385,-2.2653920650482178,0.16310089826583862
1750935434572275200,14.682275146484375,0.04810560122132301,-3.548207998275757,0.2828303873538971
1750935434591100000,14.701099853515625,0.2655734717845917,-4.043008327484131,0.2718348205089569
1750935434609924400,14.71992431640625,0.27656903862953186,-3.612959623336792,0.30482152104377747
1750935434628749000,14.7387490234375,0.18371757864952087,-2.5500550270080566,0.23762640357017517
1750935434647573500,14.757573486328125,0.10430516302585602,-2.043037176132202,0.17776164412498474
1750935434666398200,14.776398193359375,0.04932733252644539,-1.655748963356018,0.10201441496610641
1750935434685222700,14.79522265625,0.022449281066656113,-1.3136646747589111,-0.004276053514331579
1750935434704047400,14.81404736328125,0.024892739951610565,-0.89705491065979,-0.08979712426662445
1750935434722871800,14.832871826171875,0.0102319847792387,-0.476779967546463,-0.11911863088607788
1750935434741696300,14.8516962890625,0.013897174037992954,-0.023518294095993042,-0.1545487940311432
1750935434760521000,14.87052099609375,-0.03375028073787689,0.42974337935447693,-0.12034036219120026
1750935434779345400,14.889345458984375,-0.02764163166284561,0.6948586702346802,-0.021380268037319183
1750935434798170000,14.908170166015625,-0.023976443335413933,0.9831868410110474,-0.07635809481143951
1750935434816994600,14.92699462890625,-0.08261945843696594,2.1865904331207275,-0.258395791053772
1750935434835819300,14.9458193359375,-0.03741546720266342,3.6477789878845215,-0.30604326725006104
1750935434854643700,14.964643798828124,-0.1253799945116043,4.127918720245361,-0.11911863088607788
1750935434873468400,14.983468505859374,-0.25610506534576416,3.649000644683838,-0.06047561392188072
1750935434892292900,15.00229296875,-0.27320927381515503,3.4376416206359863,-0.37323838472366333
1750935434911117600,15.02111767578125,-0.2585485279560089,3.4718499183654785,-0.62857985496521
1750935434929942000,15.03994189453125,-0.24999640882015228,2.922071695327759,-0.5882627964019775
1750935434948766500,15.058766357421876,-0.1876882016658783,2.090073823928833,-0.45020735263824463
1750935434967591200,15.077591064453125,-0.08261945843696594,1.0833686590194702,-0.268169641494751
1750935434986415600,15.09641552734375,-0.04718930274248123,-0.12247838824987411,-0.09957095980644226
1750935435005240300,15.115240234375,-0.0386371985077858,-1.5433498620986938,0.01649334840476513
1750935435024064800,15.134064697265625,0.004123337101191282,-2.8591525554656982,0.14721840620040894
1750935435042889500,15.152889404296875,0.09330959618091583,-3.248884439468384,0.20341797173023224
1750935435061714000,15.1717138671875,0.12263110280036926,-3.033859968185425,0.2632827162742615
1750935435080538600,15.19053857421875,0.15806126594543457,-2.892139196395874,0.3121519088745117
1750935435099363000,15.209363037109375,0.16905683279037476,-2.897026300430298,0.35735589265823364
1750935435118187800,15.228187744140625,0.17027856409549713,-2.677114963531494,0.4098902642726898
1750935435137012200,15.24701220703125,0.10919208079576492,-2.4853034019470215,0.500298261642456
1750935435155836700,15.265836669921875,0.07864884287118912,-2.132223606109619,0.4612029194831848
1750935435174661400,15.284661376953125,0.11774418503046036,-1.6899573802947998,0.28527384996414185
1750935435193486000,15.303486083984374,0.08353576064109802,-1.2171480655670166,0.10445787757635117
1750935435212310500,15.322310546875,0.04199695214629173,-0.9288198947906494,0.08368847519159317
1750935435231135000,15.341135009765624,0.04199695214629173,-0.6795870661735535,0.12400554865598679
1750935435249959700,15.359959716796874,0.01511890348047018,-0.24831652641296387,0.1484401375055313
1750935435268784000,15.3787841796875,0.017562363296747208,0.3796524703502655,0.09590577334165573
1750935435287608800,15.39760888671875,-0.06307178735733032,1.341153621673584,0.017715077847242355
1750935435306433300,15.416433349609376,-0.11438442766666412,2.520122766494751,-0.06780599057674408
1750935435325258000,15.435258056640626,-0.08750637620687485,3.0246970653533936,-0.029932374134659767
1750935435344082400,15.45408251953125,-0.1461493968963623,2.9636104106903076,-0.021380268037319183
1750935435362907100,15.4729072265625,-0.17791436612606049,2.9526150226593018,-0.08124501258134842
1750935435381731600,15.491731689453125,-0.18646647036075592,2.757138252258301,-0.22296564280986786
1750935435400556300,15.510556396484375,-0.1766926348209381,2.4749186038970947,-0.3597993552684784
1750935435419380700,15.529380615234375,-0.1974620372056961,2.087630271911621,-0.4221075773239136
1750935435438205200,15.548205078125,-0.17424917221069336,1.322827696800232,-0.35613417625427246
1750935435457030000,15.56702978515625,-0.09728021919727325,0.1597411334514618,-0.17165300250053406
1750935435475854300,15.585854248046875,-0.045967575162649155,-1.257465124130249,0.06902772188186646
1750935435494679000,15.604678955078125,0.04810560122132301,-2.646571636199951,0.14477495849132538
1750935435513503500,15.62350341796875,0.2130390852689743,-3.481013059616089,0.12644900381565094
1750935435532328200,15.642328125,0.27168211340904236,-3.6251771450042725,0.1533270627260208
1750935435551152600,15.661152587890625,0.23258677124977112,-3.233001947402954,0.26939135789871216
1750935435569977300,15.679977294921875,0.21181736886501312,-2.892139196395874,0.42455101013183594
1750935435588801800,15.6988017578125,0.19593487679958344,-2.5439462661743164,0.49052441120147705
1750935435607626500,15.71762646484375,0.10308343172073364,-1.8683298826217651,0.3536907136440277
1750935435626451000,15.736450927734374,0.060322895646095276,-1.0241148471832275,0.15577052533626556
1750935435645275600,15.755275634765624,0.06520981341600418,-0.2617555558681488,0.0030543238390237093
1750935435664100000,15.77410009765625,0.01511890348047018,0.3442223072052002,0.02260199747979641
1750935435682924500,15.792924560546876,-0.052076224237680435,1.1310161352157593,0.12644900381565094
1750935435701749200,15.811749267578126,-0.02153298258781433,2.0412046909332275,0.07513637095689774
1750935435720573700,15.83057373046875,-0.0899498388171196,2.6728389263153076,-0.0360410213470459
1750935435739398400,15.8493984375,-0.2231183648109436,2.9575018882751465,-0.06414080411195755
1750935435758222800,15.868222900390625,-0.27687445282936096,3.1334309577941895,-0.0824667438864708
1750935435777047600,15.887047607421875,-0.2487746775150299,3.2055130004882812,-0.143553227186203
1750935435795872000,15.9058720703125,-0.24755294620990753,3.2030694484710693,-0.2828303873538971
1750935435814696700,15.92469677734375,-0.25732678174972534,2.9599452018737793,-0.33658650517463684
1750935435833521200,15.943521240234375,-0.2341139316558838,2.2220206260681152,-0.2864955961704254
1750935435852345900,15.962345947265625,-0.1510363221168518,0.8988875150680542,-0.19120067358016968
1750935435871170300,15.98117041015625,-0.039858926087617874,-1.0314451456069946,0.011606430634856224
1750935435889995000,15.9999951171875,0.05177079141139984,-2.8347179889678955,0.1594357043504715
1750935435908819500,16.0188193359375,0.16539163887500763,-3.4162611961364746,0.15210533142089844
1750935435927644000,16.037643798828125,0.21181736886501312,-3.4016005992889404,0.164322629570961
1750935435946468600,16.056468505859375,0.20082180202007294,-3.0668466091156006,0.2364046722650528
1750935435965293300,16.075293212890625,0.16783510148525238,-2.7724099159240723,0.32070401310920715
1750935435984117800,16.09411767578125,0.16539163887500763,-2.9080216884613037,0.33658650517463684
1750935436002942200,16.112942138671876,0.23136503994464874,-2.646571636199951,0.25473061203956604
1750935436021767000,16.131766845703126,0.20693044364452362,-2.106567144393921,0.15699224174022675
1750935436040591400,16.15059130859375,0.18127411603927612,-1.7681480646133423,0.0824667438864708
1750935436059416000,16.169416015625,0.13851359486579895,-1.8451170921325684,0.03848448023200035
1750935436078240500,16.188240478515624,0.08231402933597565,-2.0124940872192383,-0.020158538594841957
1750935436097065200,16.207065185546874,0.07742711156606674,-1.7828088998794556,-0.020158538594841957
1750935436115889700,16.2258896484375,0.1153007298707962,-1.2880083322525024,0.04459312930703163
1750935436134714400,16.24471435546875,0.007788525894284248,-0.3851502537727356,0.05925388261675835
1750935436153538800,16.263538818359375,-0.04108065739274025,0.28069236874580383,0.031154103577136993
1750935436172363500,16.282363525390625,-0.08384118974208832,0.8463531732559204,-0.02260199747979641
1750935436191188000,16.30118798828125,-0.04718930274248123,1.5427390336990356,0.000610864779446274
1750935436210012700,16.3200126953125,-0.020311253145337105,2.08152174949646,0.053145237267017365
1750935436228837000,16.338837158203123,-0.026419902220368385,2.4162757396698,0.007941242307424545
1750935436247661600,16.35766162109375,-0.07773254066705704,2.4431536197662354,-0.10445787757635117
1750935436266486300,16.376486328125,-0.15347976982593536,2.255007266998291,-0.2522871494293213
1750935436285311000,16.39531103515625,-0.20967933535575867,2.1731514930725098,-0.40744680166244507
1750935436304135400,16.414135498046875,-0.23167046904563904,2.090073823928833,-0.4978547990322113
1750935436322960100,16.432960205078125,-0.21945317089557648,2.061974048614502,-0.5210676789283752
1750935436341784600,16.45178466796875,-0.2548833191394806,2.0778565406799316,-0.3585776388645172
1750935436360609000,16.470609130859376,-0.27809619903564453,1.9214751720428467,-0.13988803327083588
1750935436379433700,16.489433837890626,-0.27320927381515503,1.5781691074371338,-0.1545487940311432
1750935436398258200,16.508258056640624,-0.23533566296100616,1.4022401571273804,-0.24251331388950348
1750935436417083000,16.527082763671874,-0.1876882016658783,1.2544108629226685,-0.23273947834968567
1750935436435907300,16.5459072265625,-0.15470150113105774,0.887891948223114,-0.14477495849132538
1750935436454732000,16.56473193359375,-0.09117157012224197,0.5225948095321655,-0.1178968995809555
1750935436473556500,16.583556396484376,-0.008093958720564842,-0.061391908675432205,-0.05436696484684944
1750935436492381200,16.602381103515626,0.05787943676114082,-1.10230553150177,0.08491020649671555
1750935436511205600,16.62120556640625,0.12385283410549164,-2.352134943008423,0.19853104650974274
1750935436530030300,16.6400302734375,0.23625195026397705,-3.3551747798919678,0.2315177470445633
1750935436548854800,16.658854736328124,0.3657552897930145,-3.5530951023101807,0.20952661335468292
1750935436567679500,16.677679443359374,0.3462076187133789,-2.760192394256592,0.15210533142089844
1750935436586504000,16.69650390625,0.2643517255783081,-2.251953125,0.2364046722650528
1750935436605328600,16.71532861328125,0.15561780333518982,-2.0809109210968018,0.32559093832969666
1750935436624153000,16.734153076171875,0.12018764764070511,-2.0186026096343994,0.30482152104377747
1750935436642977800,16.752977783203125,0.1971566081047058,-2.1444408893585205,0.2926042377948761
1750935436661802200,16.77180224609375,0.13729186356067657,-1.7486004829406738,0.2254091054201126
1750935436680627000,16.790626953125,-0.005650499369949102,-1.0143409967422485,0.0665842592716217
1750935436708863700,16.81886376953125,-0.1302669197320938,0.2110537886619568,0.09712749719619751
1750935436727688400,16.8376884765625,-0.19624030590057373,1.0674861669540405,0.13133592903614044
1750935436746513000,16.856512939453125,-0.17547090351581573,1.34237539768219,0.1081230640411377
1750935436765337600,16.875337646484375,-0.1718057245016098,1.3826924562454224,0.08491020649671555
1750935436784162000,16.894162109375,-0.2328922003507614,1.341153621673584,0.04825831577181816
1750935436802986800,16.91298681640625,-0.22556181252002716,1.6795727014541626,-0.029932374134659767
1750935436821811200,16.931811279296873,-0.22067490220069885,1.8823797702789307,-0.020158538594841957
1750935436840636000,16.950635986328123,-0.2646571695804596,1.5891647338867188,-0.09590577334165573
1750935436859460400,16.96946044921875,-0.29397866129875183,1.4034618139266968,-0.23884813487529755
1750935436878285000,16.98828515625,-0.28787001967430115,1.3277145624160767,-0.2620609998703003
1750935436897109500,17.007109619140625,-0.314748078584671,1.4278963804244995,-0.19364413619041443
1750935436915934200,17.025934326171875,-0.2793179154396057,1.4205660820007324,-0.22174391150474548
1750935436934758700,17.044758544921876,-0.24633121490478516,0.8988875150680542,-0.3707949221134186
1750935436953583400,17.063583251953126,-0.2231183648109436,0.37843072414398193,-0.48563748598098755
1750935436972407800,17.08240771484375,-0.19868376851081848,0.5042688846588135,-0.5418370366096497
1750935436991232500,17.101232421875,-0.11682789027690887,0.4407389461994171,-0.3854556679725647
1750935437010057000,17.120056884765624,-0.0642935186624527,-0.03695731982588768,-0.06902772188186646
1750935437028881700,17.138881591796874,0.07131846249103546,-0.639270007610321,0.06780599057674408
1750935437047706000,17.1577060546875,0.23503021895885468,-1.4126248359680176,0.06047561392188072
1750935437066530800,17.17653076171875,0.31444263458251953,-2.0381503105163574,0.09712749719619751
1750935437085355300,17.195355224609376,0.2228129357099533,-1.8756603002548218,0.22174391150474548
1750935437104180000,17.214179931640626,0.18005239963531494,-1.6337578296661377,0.26939135789871216
1750935437123004700,17.233004638671876,0.13851359486579895,-1.7351614236831665,0.14477495849132538
1750935437141829000,17.2518291015625,0.12263110280036926,-1.7913609743118286,0.037262752652168274
1750935437160653800,17.27065380859375,0.18371757864952087,-1.5189152956008911,-0.0054977829568088055
1750935437179478300,17.289478271484374,0.14828743040561676,-1.2232567071914673,-0.07147117704153061
1750935437198303000,17.308302978515623,0.056657709181308746,-0.8762855529785156,-0.19242240488529205
1750935437217127400,17.32712744140625,-0.0386371985077858,-0.5745183229446411,-0.39767298102378845
1750935437235952000,17.3459521484375,-0.07162389904260635,-0.3448331654071808,-0.49418962001800537
1750935437254776600,17.364776611328125,-0.061850059777498245,-0.16035200655460358,-0.379347026348114
1750935437273601300,17.383601318359375,-0.008093958720564842,0.03023780696094036,-0.15821397304534912
1750935437292425700,17.40242578125,-0.02764163166284561,0.1328630894422531,0.07147117704153061
1750935437311250400,17.42125048828125,0.012675444595515728,0.20861032605171204,0.0616973415017128
1750935437330075000,17.440074951171876,0.05787943676114082,0.129197895526886,0.056810423731803894
1750935437348899600,17.458899658203126,0.06887500733137131,0.48472121357917786,0.22663083672523499
1750935437367724300,17.477724365234376,0.006566796451807022,1.3741402626037598,0.2156352698802948
1750935437386548700,17.496548828125,-0.004428769461810589,1.7748676538467407,0.2412915825843811
1750935437405373400,17.51537353515625,0.054214250296354294,1.9850051403045654,0.3610210716724396
1750935437424198000,17.534197998046874,-0.0691804364323616,2.0436480045318604,0.4868592321872711
1750935437443022600,17.553022705078124,-0.1766926348209381,2.092517375946045,0.3488037884235382
1750935437461847000,17.571846923828126,-0.25121814012527466,1.711337685585022,0.22785256803035736
1750935437480671700,17.590671630859376,-0.28787001967430115,1.2544108629226685,0.21197007596492767
1750935437499496200,17.60949609375,-0.162031888961792,1.1065815687179565,0.1484401375055313
1750935437518321000,17.62832080078125,-0.1253799945116043,1.176220178604126,0.08491020649671555
1750935437537145600,17.6471455078125,-0.15958842635154724,1.0980294942855835,0.13133592903614044
1750935437555970000,17.665969970703124,-0.09728021919727325,0.9587522745132446,0.10079269111156464
1750935437574794800,17.684794677734374,-0.10705405473709106,0.5653553605079651,-0.04459312930703163
1750935437593619200,17.703619140625,-0.07773254066705704,-0.02718348242342472,-0.09957095980644226
1750935437612444000,17.72244384765625,0.04321868345141411,-0.898276686668396,-0.017715077847242355
1750935437631268400,17.741268310546875,0.22769984602928162,-1.9672900438308716,0.08857539296150208
1750935437650093000,17.760093017578125,0.4390590488910675,-2.9801037311553955,0.1533270627260208
1750935437668917500,17.77891748046875,0.43050694465637207,-3.3173012733459473,0.2620609998703003
1750935437687742200,17.7977421875,0.3400989770889282,-2.9068000316619873,0.32192572951316833
1750935437706567000,17.81656689453125,0.2338084876537323,-2.601367712020874,0.3133736252784729
1750935437725391400,17.835391357421877,0.21548254787921906,-1.8536691665649414,0.2669478952884674
1750935437744216000,17.854216064453126,0.19593487679958344,-1.201265573501587,0.1533270627260208
1750935437763040500,17.87304052734375,0.0798705667257309,-0.8310815095901489,-0.04581485688686371
1750935437781865200,17.891865234375,-0.0019853105768561363,-0.9080504775047302,-0.13011419773101807
1750935437800689700,17.910689697265624,-0.026419902220368385,-1.2647955417633057,-0.0665842592716217
1750935437819514400,17.929514404296874,-0.030085090547800064,-1.3906337022781372,0.04214967042207718
1750935437838339000,17.948339111328124,0.009010255336761475,-0.8994984030723572,-0.025045456364750862
1750935437857163500,17.96716357421875,0.0383317656815052,0.2721402645111084,-0.19730933010578156
1750935437875988200,17.98598828125,0.03955349326133728,1.4498875141143799,-0.25473061203956604
1750935437894812700,18.004812744140626,-0.0019853105768561363,2.5079052448272705,-0.17287473380565643
1750935437913637400,18.023637451171876,-0.08261945843696594,3.036914348602295,-0.03481929376721382
1750935437932461800,18.0424619140625,-0.1314886510372162,3.3704464435577393,-0.08613193035125732
1750935437951286500,18.06128662109375,-0.20967933535575867,3.5158321857452393,-0.28038692474365234
1750935437970111200,18.080111328125,-0.27687445282936096,3.576918601989746,-0.4868592321872711
1750935437988935700,18.098935791015624,-0.38560840487480164,3.4608542919158936,-0.462424635887146
1750935438007760400,18.117760498046874,-0.449138343334198,3.1981825828552246,-0.21319180727005005
1750935438026585000,18.136585205078124,-0.397825688123703,2.9049675464630127,-0.10934479534626007
1750935438045409500,18.155409423828125,-0.2280052751302719,2.15726900100708,-0.2767217457294464
1750935438064234200,18.174234130859375,-0.12904518842697144,1.0723731517791748,-0.38667741417884827
1750935438083058700,18.19305859375,0.009010255336761475,-0.06261363625526428,-0.24373504519462585
1750935438101883400,18.21188330078125,0.15928299725055695,-1.072983980178833,0.08124501258134842
1750935438120707800,18.230707763671877,0.3657552897930145,-1.8353432416915894,0.24251331388950348
1750935438139532500,18.249532470703127,0.5490147471427917,-2.5292856693267822,0.2730565667152405
1750935438158357200,18.268357177734377,0.5355756878852844,-3.070511817932129,0.33047783374786377
1750935438177181700,18.287181640625,0.3633118271827698,-2.8567092418670654,0.4013381600379944
1750935438196006400,18.30600634765625,0.4964803457260132,-2.4352123737335205,0.3133736252784729
1750935438214830800,18.324830810546874,0.5526798963546753,-2.551276683807373,0.1545487940311432
1750935438233655600,18.343655517578124,0.5025889873504639,-2.721097230911255,-0.05436696484684944
1750935438252480300,18.362480224609374,0.42562004923820496,-2.5805983543395996,-0.19242240488529205
1750935438271304700,18.3813046875,0.29856017231941223,-2.0857977867126465,-0.1899789422750473
1750935438290129400,18.40012939453125,0.13851359486579895,-1.3869684934616089,-0.0409279391169548
1750935438308953900,18.418953857421876,0.06154462695121765,-0.8225294351577759,0.08124501258134842
1750935438327778600,18.437778564453126,0.0896444097161293,-0.5513054728507996,0.11423171311616898
1750935438346603300,18.456603271484376,0.187382772564888,-0.868955135345459,0.22296564280986786
1750935438365427700,18.475427734375,0.25702136754989624,-1.1499528884887695,0.2571740746498108
1750935438384252400,18.49425244140625,0.21426081657409668,-0.7431169748306274,0.23762640357017517
1750935438403077000,18.5130771484375,0.10063996911048889,-0.1285870373249054,0.2926042377948761
1750935438421901600,18.531901611328124,-0.023976443335413933,0.7742711305618286,0.35735589265823364
1750935438440726300,18.550726318359374,-0.09850194305181503,1.8994840383529663,0.4001164436340332
1750935438459551000,18.569551025390624,-0.1766926348209381,2.7009387016296387,0.27427828311920166
1750935438478375400,18.58837548828125,-0.3318522870540619,2.969719171524048,-0.08124501258134842
1750935438497200000,18.6072001953125,-0.4344775676727295,3.0271403789520264,-0.23884813487529755
1750935438516024600,18.626024658203125,-0.5175551772117615,3.358229160308838,-0.15577052533626556
1750935438534849300,18.644849365234375,-0.643393337726593,3.7149741649627686,-0.11423171311616898
1750935438553674000,18.663674072265625,-0.6666061878204346,3.4889543056488037,-0.11545344442129135
1750935438572498400,18.68249853515625,-0.522442102432251,2.5237877368927,-0.05803215503692627
1750935438591323100,18.7013232421875,-0.2890917658805847,1.0259474515914917,-0.015271619893610477
1750935438610147800,18.72014794921875,-0.02519817277789116,-0.2813032269477844,-0.06780599057674408
1750935438628972300,18.73897216796875,0.1360701322555542,-0.5684096813201904,-0.2156352698802948
1750935438647797000,18.757796875,0.10063996911048889,-0.4108065664768219,-0.22663083672523499
1750935438666621400,18.776621337890624,0.050549060106277466,-0.25442516803741455,-0.13500112295150757
1750935438685446100,18.795446044921874,0.016340631991624832,-0.4315759539604187,0.12400554865598679
1750935438704270800,18.814270751953124,0.0896444097161293,-1.2721259593963623,0.31459537148475647
1750935438723095300,18.83309521484375,0.2631300091743469,-2.7711880207061768,0.3585776388645172
1750935438741920000,18.851919921875,0.3474293351173401,-3.6752679347991943,0.3194822669029236
1750935438760744700,18.87074462890625,0.3877464234828949,-3.5298821926116943,0.19242240488529205
1750935438779569200,18.889569091796876,0.4427242577075958,-3.126711368560791,0.15210533142089844
1750935438798393900,18.908393798828126,0.39996370673179626,-2.598924160003662,0.13744457066059113
1750935438817218600,18.927218505859376,0.3107774555683136,-1.940411925315857,0.143553227186203
1750935438836043000,18.94604296875,0.2692386507987976,-1.5543454885482788,0.18631376326084137
1750935438854867700,18.96486767578125,0.22647811472415924,-1.5213587284088135,0.2009745091199875
1750935438873692400,18.9836923828125,0.21548254787921906,-1.6581923961639404,0.09590577334165573
1750935438892516900,19.002516845703123,0.17883066833019257,-1.481041669845581,-0.04581485688686371
1750935438911341600,19.021341552734373,0.09941824525594711,-0.7663298845291138,-0.0665842592716217
1750935438930166300,19.040166259765623,0.02367101050913334,0.3197877109050751,0.02871064469218254
1750935438948990700,19.05899072265625,-0.05329795181751251,1.0662645101547241,0.09468404203653336
1750935438967815400,19.0778154296875,-0.06062832847237587,1.6575815677642822,-0.02260199747979641
1750935438986640100,19.09664013671875,-0.21578797698020935,2.452927589416504,-0.22174391150474548
1750935439005464600,19.115464599609375,-0.4637990891933441,3.4217591285705566,-0.3610210716724396
1750935439024289300,19.134289306640625,-0.5908589363098145,3.881129264831543,-0.4416552484035492
1750935439043114000,19.153114013671875,-0.6922625303268433,3.9446592330932617,-0.6017017960548401
1750935439061938400,19.1719384765625,-0.585972011089325,3.5048365592956543,-0.646905779838562
1750935439080763100,19.19076318359375,-0.4247037470340729,2.719264507293701,-0.5027416944503784
1750935439099587800,19.209587890625,-0.3306305706501007,2.0974042415618896,-0.4367683231830597
1750935439118412300,19.228412353515626,-0.22067490220069885,1.3387101888656616,-0.42332929372787476
1750935439137237000,19.247237060546876,-0.12660172581672668,0.15485422313213348,-0.23518294095993042
1750935439156061700,19.266061767578126,-0.05696314200758934,-0.7357866168022156,0.01649334840476513
1750935439174886100,19.28488623046875,0.05543597787618637,-1.3185516595840454,0.09712749719619751
1750935439193710800,19.3037109375,0.18005239963531494,-1.9330816268920898,0.10079269111156464
1750935439212535600,19.32253564453125,0.27290382981300354,-2.4767513275146484,0.1740964651107788
1750935439231360000,19.341360107421874,0.3205513060092926,-2.6746714115142822,0.22296564280986786
1750935439250184700,19.360184814453124,0.29856017231941223,-2.4633121490478516,0.22785256803035736
1750935439269009400,19.379009521484374,0.2900080680847168,-2.330143690109253,0.2364046722650528
1750935439287833900,19.397833740234375,0.2594648003578186,-2.1920883655548096,0.3133736252784729
1750935439306658600,19.416658447265625,0.2790125012397766,-2.0833542346954346,0.33047783374786377
1750935439325483300,19.435483154296875,0.26679518818855286,-2.1077890396118164,0.3035998046398163
1750935439344307700,19.4543076171875,0.1922696828842163,-2.1077890396118164,0.2706131041049957
1750935439363132400,19.47313232421875,0.027336198836565018,-1.499367594718933,0.17287473380565643
1750935439381957000,19.49195703125,0.017562363296747208,-0.8139773011207581,0.14477495849132538
1750935439400781600,19.510781494140623,0.013897174037992954,-0.37293294072151184,0.09957095980644226
1750935439419606300,19.529606201171877,-0.0435241162776947,-0.09315688163042068,-0.0030543238390237093
1750935439438431000,19.548430908203127,-0.061850059777498245,0.18173226714134216,-0.07757982611656189
1750935439457255400,19.56725537109375,-0.11438442766666412,0.6337721943855286,-0.08002328872680664
1750935439476080000,19.586080078125,-0.20357069373130798,1.5292999744415283,-0.0873536616563797
1750935439494904800,19.60490478515625,-0.30863943696022034,2.4932446479797363,-0.14233149588108063
1750935439513729500,19.6237294921875,-0.3733910918235779,3.179856538772583,-0.21319180727005005
1750935439532554000,19.642553955078125,-0.39049530029296875,3.3460118770599365,-0.22174391150474548
1750935439551378700,19.661378662109374,-0.35384342074394226,2.9355106353759766,-0.22785256803035736
1750935439570203400,19.680203369140624,-0.34406960010528564,2.699716806411743,-0.40378162264823914
1750935439589027800,19.69902783203125,-0.32818710803985596,2.6972734928131104,-0.6933315396308899
1750935439607852500,19.7178525390625,-0.3000873327255249,2.411388635635376,-0.7837395071983337
1750935439626677200,19.73667724609375,-0.2487746775150299,1.6575815677642822,-0.4770853817462921
1750935439645501700,19.755501708984376,-0.20479241013526917,0.8830050230026245,-0.20830489695072174
1750935439664326400,19.774326416015626,-0.11194097250699997,0.08521563559770584,-0.10201441496610641
1750935439683151000,19.793151123046876,-0.023976443335413933,-0.619722306728363,0.010384701192378998
1750935439701975800,19.811975830078126,0.024892739951610565,-0.8530726432800293,0.07024945318698883
1750935439720800300,19.83080029296875,0.0847574844956398,-0.9104939699172974,0.08491020649671555
1750935439739625000,19.849625,0.12751802802085876,-1.2024873495101929,0.21930044889450073
1750935439758449700,19.86844970703125,0.20448698103427887,-1.9269729852676392,0.31581708788871765
1750935439777274000,19.887274169921874,0.30711227655410767,-2.6636757850646973,0.38301220536231995
1750935439796098800,19.906098876953124,0.3584249019622803,-2.9177956581115723,0.4196641147136688
1750935439814923500,19.924923583984373,0.3718639314174652,-2.738201379776001,0.41844236850738525
1750935439833748000,19.943748046875,0.3523162603378296,-2.6612324714660645,0.4147771894931793
1750935439852572700,19.96257275390625,0.32299473881721497,-2.740644931793213,0.38789913058280945
1750935439871397400,19.9813974609375,0.3205513060092926,-2.587928533554077,0.31581708788871765
1750935439890222000,20.00022216796875,0.2631300091743469,-2.1725406646728516,0.30604326725006104
1750935439909046500,20.019046630859375,0.27656903862953186,-1.8768820762634277,0.268169641494751
1750935439927871200,20.037871337890625,0.21181736886501312,-1.3674207925796509,0.12156209349632263
1750935439946696000,20.056696044921875,0.07620538026094437,-0.33017241954803467,-0.007941242307424545
1750935439965520600,20.075520751953125,-0.06062832847237587,0.795040488243103,-0.0360410213470459
1750935439984345000,20.094344970703126,-0.16936226189136505,1.6111558675765991,-0.0360410213470459
1750935440003169800,20.113169677734376,-0.2292270064353943,2.0864086151123047,-0.010384701192378998
1750935440021994500,20.131994384765626,-0.2280052751302719,2.531118154525757,-0.05070177838206291
1750935440040819000,20.15081884765625,-0.31352636218070984,3.065014123916626,-0.15821397304534912
1750935440059643600,20.1696435546875,-0.449138343334198,3.2372779846191406,-0.3439168632030487
1750935440078468400,20.18846826171875,-0.5199986696243286,3.1175484657287598,-0.5247328281402588
1750935440097293000,20.20729296875,-0.4650208055973053,2.819446325302124,-0.5235111117362976
1750935440116117500,20.226117431640624,-0.32452189922332764,2.2782201766967773,-0.34636032581329346
1750935440134942200,20.244942138671874,-0.2390008419752121,1.719889760017395,-0.29993459582328796
1750935440153767000,20.263766845703124,-0.1571449637413025,1.1139118671417236,-0.34147340059280396
1750935440172591400,20.28259130859375,-0.11804962158203125,0.33078327775001526,-0.3194822669029236
1750935440191416000,20.301416015625,-0.0850629210472107,-0.49510589241981506,-0.18142683804035187
1750935440210240800,20.32024072265625,-0.04841103404760361,-1.0424407720565796,-0.06780599057674408
1750935440229065500,20.3390654296875,0.031001387163996696,-1.45294189453125,0.015271619893610477
1750935440247890000,20.357889892578125,0.03955349326133728,-2.1945316791534424,0.1288924664258957
1750935440266714600,20.376714599609375,0.060322895646095276,-2.7809619903564453,0.23396120965480804
1750935440285539300,20.395539306640625,0.18005239963531494,-2.8713698387145996,0.2559523284435272
1750935440304363800,20.41436376953125,0.21914774179458618,-2.685667037963867,0.2669478952884674
1750935440323188500,20.4331884765625,0.2240346521139145,-2.746753454208374,0.23884813487529755
1750935440342013200,20.45201318359375,0.21670427918434143,-2.416886568069458,0.21441353857517242
1750935440360838000,20.470837890625,0.1568395346403122,-1.638644814491272,0.22907429933547974
1750935440379662300,20.489662353515627,0.1104138121008873,-1.1829396486282349,0.2364046722650528
1750935440398487000,20.508487060546877,0.08597921580076218,-0.9459241032600403,0.1997527778148651
1750935440417311700,20.527311767578126,0.10063996911048889,-0.7247910499572754,0.11911863088607788
1750935440436136200,20.54613623046875,0.08842267841100693,-0.3448331654071808,0.07391463965177536
1750935440454961000,20.5649609375,0.04932733252644539,0.09132428467273712,0.09712749719619751
1750935440473785600,20.58378564453125,0.03588830679655075,0.37843072414398193,0.11667517572641373
1750935440492610300,20.6026103515625,-0.006872228812426329,0.8536835312843323,0.05192350596189499
1750935440511434800,20.621434814453124,-0.10827577859163284,2.305098295211792,-0.09834922850131989
1750935440530259500,20.640259521484374,-0.24633121490478516,3.8909032344818115,-0.21197007596492767
1750935440549084200,20.659084228515624,-0.3452913165092468,4.363712787628174,-0.08002328872680664
1750935440567908900,20.677908935546874,-0.4124864339828491,3.914116144180298,-0.03237583488225937
1750935440586733300,20.6967333984375,-0.39416050910949707,3.5781404972076416,-0.25473061203956604
1750935440605558000,20.71555810546875,-0.35017824172973633,3.314246892929077,-0.5760455131530762
1750935440624382700,20.7343828125,-0.2793179154396057,2.7058255672454834,-0.6554579138755798
1750935440643207400,20.75320751953125,-0.1669187992811203,1.5244131088256836,-0.3585776388645172
1750935440662032000,20.772031982421876,-0.09239330142736435,0.3197877109050751,-0.023823726922273636
1750935440680856600,20.790856689453125,0.009010255336761475,-0.7235693335533142,0.04214967042207718
1750935440699681300,20.809681396484375,0.09941824525594711,-1.6215405464172363,-0.03237583488225937
1750935440718505700,20.828505615234373,0.09575305134057999,-2.2201881408691406,0.0360410213470459
1750935440737330400,20.847330322265623,0.08109229803085327,-2.304487466812134,0.13744457066059113
1750935440756155100,20.866155029296873,0.09330959618091583,-2.2751657962799072,0.1997527778148651
1750935440774979800,20.884979736328123,0.125074565410614,-2.212857723236084,0.20708316564559937
1750935440793804300,20.90380419921875,0.1311832070350647,-2.093128204345703,0.17165300250053406
1750935440812629000,20.92262890625,0.13851359486579895,-2.137110471725464,0.1545487940311432
1750935440831453700,20.94145361328125,0.10186170041561127,-2.4437644481658936,0.16187916696071625
1750935440850278400,20.9602783203125,0.06154462695121765,-2.358243465423584,0.164322629570961
1750935440869102800,20.979102783203125,0.0334448479115963,-1.8157955408096313,0.15699224174022675
1750935440887927600,20.997927490234375,0.03955349326133728,-1.461493968963623,0.15088360011577606
1750935440906752300,21.016752197265625,0.04932733252644539,-1.2623521089553833,0.12522727251052856
1750935440925577000,21.035576904296875,0.050549060106277466,-0.942258894443512,0.11545344442129135
1750935440944401400,21.0544013671875,0.10674861818552017,-0.6563742160797119,0.11056652665138245
1750935440963226000,21.07322607421875,0.04810560122132301,-0.12003492563962936,0.10690133273601532
1750935440982050800,21.09205078125,0.027336198836565018,0.8378010392189026,0.09712749719619751
1750935441000875300,21.110875244140626,-0.0019853105768561363,1.7052290439605713,0.01649334840476513
1750935441019700000,21.129699951171876,-0.06673697382211685,2.467588186264038,-0.10079269111156464
1750935441038524700,21.148524658203126,-0.11438442766666412,2.8634285926818848,-0.07269290834665298
1750935441057349400,21.167349365234376,-0.15225805342197418,2.9550583362579346,-0.023823726922273636
1750935441076173800,21.186173828125,-0.17424917221069336,3.0784530639648438,-0.12767073512077332
1750935441094998500,21.20499853515625,-0.22067490220069885,3.10166597366333,-0.3231474757194519
1750935441113823200,21.2238232421875,-0.29153522849082947,3.082118272781372,-0.4978547990322113
1750935441132648000,21.24264794921875,-0.29764387011528015,2.9122977256774902,-0.5760455131530762
1750935441151472400,21.261472412109374,-0.22556181252002716,2.1584906578063965,-0.4111120104789734
1750935441170297000,21.280297119140624,-0.14248420298099518,1.0247256755828857,-0.1948658674955368
1750935441189121800,21.299121826171874,-0.09850194305181503,-0.22754712402820587,0.025045456364750862
1750935441207946500,21.317946533203123,0.005345067009329796,-1.5482367277145386,0.11911863088607788
1750935441226771000,21.33677099609375,0.14828743040561676,-2.9715516567230225,0.17653992772102356
1750935441245595600,21.355595703125,0.20693044364452362,-3.6899287700653076,0.24495677649974823
1750935441264420400,21.37442041015625,0.24480405449867249,-3.441917657852173,0.27427828311920166
1750935441283244800,21.393244873046875,0.2680169343948364,-3.2061238288879395,0.29504770040512085
1750935441302069500,21.412069580078125,0.19960007071495056,-2.995986223220825,0.3536907136440277
1750935441320894200,21.430894287109375,0.20448698103427887,-2.662454128265381,0.36835145950317383
1750935441339719000,21.449718994140625,0.26679518818855286,-2.1884231567382812,0.2559523284435272
1750935441358543400,21.46854345703125,0.13973531126976013,-1.3136646747589111,0.14721840620040894
1750935441377368000,21.4873681640625,0.03955349326133728,-0.5488619804382324,0.15088360011577606
1750935441396192800,21.50619287109375,-0.02764163166284561,0.1340848207473755,0.12278381735086441
1750935441415017500,21.525017578125,-0.10949750989675522,1.0210604667663574,-0.020158538594841957
1750935441433842000,21.543842041015626,-0.14981459081172943,1.6514729261398315,-0.09834922850131989
1750935441452666600,21.56266650390625,-0.18646647036075592,2.2623376846313477,-0.07757982611656189
1750935441471491300,21.5814912109375,-0.24633121490478516,2.919628143310547,-0.053145237267017365
1750935441490315800,21.600315673828124,-0.35873034596443176,3.6135706901550293,-0.10690133273601532
1750935441509140500,21.619140380859374,-0.4027126133441925,3.8823511600494385,-0.2156352698802948
1750935441527965200,21.637965087890624,-0.4283689260482788,3.705200433731079,-0.3854556679725647
1750935441546790000,21.656789794921874,-0.35873034596443176,3.229947566986084,-0.5149590373039246
1750935441565614300,21.6756142578125,-0.2341139316558838,2.3674063682556152,-0.4831940531730652
1750935441584439000,21.69443896484375,-0.11804962158203125,1.303279995918274,-0.3280344009399414
1750935441603263700,21.713263671875,-0.04841103404760361,0.09865466505289078,-0.15577052533626556
1750935441622088400,21.73208837890625,0.00045814859913662076,-1.1585050821304321,-0.03848448023200035
1750935441640913000,21.750912841796875,0.09575305134057999,-2.2421791553497314,0.03848448023200035
1750935441659737600,21.769737548828125,0.21059563755989075,-2.9825472831726074,0.10201441496610641
1750935441678562300,21.788562255859375,0.2900080680847168,-3.5225517749786377,0.24495677649974823
1750935441697387000,21.807386962890625,0.34376415610313416,-3.5078909397125244,0.34636032581329346
1750935441716211500,21.82621142578125,0.31810784339904785,-2.842048406600952,0.337808221578598
1750935441735036200,21.8450361328125,0.27656903862953186,-2.6135849952697754,0.37201663851737976
1750935441753860900,21.86386083984375,0.23625195026397705,-2.595258951187134,0.3744601011276245
1750935441772685300,21.882685302734377,0.2533561587333679,-2.442542791366577,0.3439168632030487
1750935441791510000,21.901510009765627,0.228921577334404,-1.950185775756836,0.2877173125743866
1750935441810334700,21.920334716796877,0.12263110280036926,-1.3979640007019043,0.26450446248054504
1750935441829159400,21.939159423828126,0.06765327602624893,-0.8933897614479065,0.1948658674955368
1750935441847983900,21.95798388671875,0.02000582218170166,-0.536644697189331,0.10690133273601532
1750935441866808600,21.97680859375,-0.052076224237680435,0.20861032605171204,-0.037262752652168274
1750935441885633300,21.99563330078125,-0.11927134543657303,1.518304467201233,-0.10201441496610641
1750935441904458000,22.0144580078125,-0.13515383005142212,2.6532912254333496,-0.14599667489528656
1750935441923282400,22.033282470703124,-0.16569706797599792,3.232390880584717,-0.11911863088607788
1750935441942107100,22.052107177734374,-0.28787001967430115,3.531714677810669,-0.025045456364750862
1750935441960931800,22.070931884765624,-0.4198168218135834,4.0338454246521,-0.0922405794262886
1750935441979756500,22.089756591796874,-0.5004509687423706,4.435794830322266,-0.17653992772102356
1750935441998581000,22.1085810546875,-0.5236638188362122,4.1230316162109375,-0.23029601573944092
1750935442017405700,22.12740576171875,-0.4234820008277893,3.0967791080474854,-0.2315177470445633
1750935442036230400,22.14623046875,-0.21090106666088104,1.564730167388916,-0.20219624042510986
1750935442055054800,22.165054931640626,-0.11682789027690887,0.32100942730903625,-0.2706131041049957
1750935442073879600,22.183879638671876,-0.0154243353754282,-0.6233875155448914,-0.268169641494751
1750935442092704300,22.202704345703125,0.04932733252644539,-1.6032146215438843,-0.0824667438864708
1750935442111529000,22.221529052734375,0.09086613357067108,-2.9019131660461426,0.2156352698802948
1750935442130353400,22.240353515625,0.2961167097091675,-3.928165912628174,0.4050033390522003
1750935442149178000,22.25917822265625,0.39018988609313965,-3.9611525535583496,0.3341430425643921
1750935442168002800,22.2780029296875,0.3730856776237488,-3.5311038494110107,0.12034036219120026
1750935442186827500,22.29682763671875,0.3254382014274597,-3.283092737197876,0.04214967042207718
1750935442205652000,22.31565185546875,0.2997818887233734,-2.7821836471557617,0.03481929376721382
1750935442224476700,22.3344765625,0.2741255760192871,-2.2067489624023438,0.01649334840476513
1750935442243301400,22.35330126953125,0.22647811472415924,-2.0748021602630615,0.05803215503692627
1750935442262126000,22.3721259765625,0.18127411603927612,-1.8475605249404907,0.07513637095689774
1750935442280950500,22.390950439453125,0.05543597787618637,-1.0143409967422485,0.02260199747979641
1750935442299775200,22.409775146484375,-0.008093958720564842,0.31123560667037964,-0.04214967042207718
1750935442318600000,22.428599853515625,-0.16325360536575317,1.7064508199691772,-0.0360410213470459
1750935442337424400,22.44742431640625,-0.22067490220069885,2.5054619312286377,0.029932374134659767
1750935442356249000,22.4662490234375,-0.25121814012527466,3.0246970653533936,0.05070177838206291
1750935442375073800,22.48507373046875,-0.2805396616458893,3.9690937995910645,0.023823726922273636
1750935442393898500,22.5038984375,-0.34895649552345276,4.793761253356934,-0.13500112295150757
1750935442412723000,22.522722900390626,-0.43569931387901306,4.617832183837891,-0.2364046722650528
1750935442431547600,22.541547607421876,-0.40515607595443726,3.6734354496002197,-0.143553227186203
1750935442450372400,22.560372314453126,-0.23533566296100616,2.6728389263153076,-0.13744457066059113
1750935442469197000,22.579197021484376,-0.12660172581672668,1.2751802206039429,-0.19242240488529205
1750935442488021500,22.598021484375,-0.045967575162649155,-0.03940077871084213,-0.16065743565559387
1750935442506846200,22.61684619140625,0.07131846249103546,-1.5042544603347778,0.015271619893610477
1750935442525671000,22.6356708984375,0.16294817626476288,-2.724762439727783,0.164322629570961
1750935442544495400,22.654495361328124,0.2704603672027588,-3.0937247276306152,0.13133592903614044
1750935442563320000,22.673320068359374,0.25579962134361267,-3.1218245029449463,0.07391463965177536
1750935442582144800,22.692144775390624,0.2997818887233734,-3.467573881149292,0.1386663019657135
1750935442600969200,22.71096923828125,0.40607234835624695,-3.713141679763794,0.23029601573944092
1750935442619794000,22.7297939453125,0.39629852771759033,-3.4406957626342773,0.2767217457294464
1750935442638618600,22.74861865234375,0.3633118271827698,-2.948338747024536,0.15821397304534912
1750935442657443300,22.767443359375,0.2692386507987976,-2.4791946411132812,0.06536252796649933
1750935442676267800,22.786267822265625,0.18860450387001038,-2.271500587463379,0.029932374134659767
1750935442695092500,22.805092529296875,0.16905683279037476,-2.1786491870880127,0.05436696484684944
1750935442713917200,22.823917236328125,0.21548254787921906,-1.9196425676345825,0.006719512399286032
1750935442732742000,22.842741943359375,0.1922696828842163,-1.0864230394363403,-0.02626718580722809
1750935442751566300,22.86156640625,0.12385283410549164,0.04245510324835777,-0.010384701192378998
1750935442770391000,22.88039111328125,0.02367101050913334,1.1346813440322876,0.05925388261675835
1750935442789215700,22.8992158203125,-0.04718930274248123,2.187812089920044,0.15210533142089844
1750935442808040400,22.91804052734375,-0.1107192412018776,2.5860960483551025,0.24251331388950348
1750935442826865000,22.936864990234376,-0.18402300775051117,2.917184829711914,0.18264856934547424
1750935442845689600,22.955689697265626,-0.30375251173973083,3.7003133296966553,0.07147117704153061
1750935442864514300,22.974514404296876,-0.4198168218135834,4.148688316345215,0.021380268037319183
1750935442883338800,22.9933388671875,-0.4552469849586487,3.5085017681121826,0.03481929376721382
1750935442902163500,23.01216357421875,-0.35017824172973633,2.5995349884033203,0.039706211537122726
1750935442920988200,23.03098828125,-0.2585485279560089,1.8347324132919312,-0.12156209349632263
1750935442939812600,23.0498125,-0.19013166427612305,1.1249074935913086,-0.347582072019577
1750935442958637300,23.06863720703125,-0.19379685819149017,0.6435460448265076,-0.39400777220726013
1750935442977462000,23.0874619140625,-0.1510363221168518,0.25503605604171753,-0.21197007596492767
1750935442996286700,23.10628662109375,-0.08139773458242416,-0.48655378818511963,-0.02260199747979641
1750935443015111200,23.125111083984375,-0.0154243353754282,-2.0161592960357666,0.10079269111156464
1750935443033936000,23.143935791015625,0.19837833940982819,-3.333183765411377,0.03481929376721382
1750935443052760600,23.162760498046875,0.43172869086265564,-3.825540781021118,-0.16554436087608337
