time,seconds_elapsed,z,y,x
1751620525405442000,0.303442138671875,9.946365356445312,0.1178465187549591,-0.2309073805809021
1751620525424265500,0.322265380859375,9.879366874694824,0.357128769159317,-0.17347964644432068
1751620525443089200,0.341089111328125,9.845867156982422,0.4384847581386566,-0.15912270545959473
1751620525461912800,0.359912841796875,9.88415241241455,0.20877377688884735,-0.21176479756832123
1751620525480736300,0.378736328125,9.88415241241455,0.03170489892363548,-0.19262222945690155
1751620525499560000,0.397559814453125,9.865009307861328,0.12741780281066895,-0.08733802288770676
1751620525518383600,0.416383544921875,9.869794845581055,0.2231307178735733,-0.005982056725770235
1751620525537207300,0.435207275390625,9.903294563293457,0.1178465187549591,0.003589233849197626
1751620525556030700,0.45403076171875,9.932008743286133,-0.020937198773026466,-0.058624155819416046
1751620525574854400,0.4728544921875,9.970293998718262,0.012562318705022335,-0.09212367236614227
1751620525593678000,0.491677978515625,9.927223205566406,0.2470589429140091,-0.07776673883199692
1751620525612501500,0.51050146484375,9.92243766784668,0.30927231907844543,-0.10169496387243271
1751620525631325200,0.5293251953125,9.946365356445312,0.18963119387626648,-0.17347964644432068
1751620525650148900,0.54814892578125,9.927223205566406,0.12263216078281403,-0.19740787148475647
1751620525668972500,0.56697265625,9.89850902557373,0.23748764395713806,-0.16390834748744965
1751620525687796000,0.5857958984375,9.865009307861328,0.3044866919517517,-0.10169496387243271
1751620525706619600,0.60461962890625,9.850652694702148,0.1657029688358307,-0.11126625537872314
1751620525725443300,0.623443359375,9.89850902557373,0.07477571070194244,-0.13998012244701385
1751620525744266800,0.642266845703125,9.874580383300781,-0.03529413416981697,-0.05383851006627083
1751620525763090400,0.66109033203125,9.874580383300781,0.17527425289154053,0.0323031060397625
1751620525781914000,0.6799140625,9.88415241241455,0.22791635990142822,-0.010767702013254166
1751620525800737800,0.69873779296875,9.955936431884766,0.0364905446767807,-0.13040883839130402
1751620525819561200,0.717561279296875,9.975079536437988,0.012562318705022335,-0.16869398951530457
1751620525838385000,0.736385009765625,9.951150894165039,0.1944168359041214,-0.10169496387243271
1751620525857208600,0.75520849609375,9.932008743286133,0.357128769159317,-0.039481572806835175
1751620525876032300,0.7740322265625,9.91286563873291,0.34277185797691345,-0.1543370634317398
1751620525894855700,0.792855712890625,9.941579818725586,0.14656038582324982,-0.27397820353507996
1751620525913679400,0.811679443359375,9.91286563873291,0.16091732680797577,-0.25004997849464417
1751620525932503000,0.8305029296875,9.845867156982422,0.33798620104789734,-0.12083754688501358
1751620525951326700,0.84932666015625,9.855438232421875,0.23270200192928314,-0.04426721855998039
1751620525970150100,0.868150146484375,9.893723487854004,0.0029910283628851175,-0.039481572806835175
1751620525988973800,0.886973876953125,9.903294563293457,-0.030508488416671753,-0.039481572806835175
1751620526007797500,0.905797607421875,9.89850902557373,0.06999006122350693,-0.02512463741004467
1751620526026621200,0.92462109375,9.903294563293457,0.16091732680797577,-0.015553346835076809
1751620526045444600,0.943444580078125,9.932008743286133,0.11306086927652359,-0.06340979784727097
1751620526064268300,0.962268310546875,9.951150894165039,0.10348957777023315,-0.08733802288770676
1751620526083092000,0.981092041015625,9.93679428100586,0.18484555184841156,-0.13040883839130402
1751620526101915600,0.99991552734375,9.92243766784668,0.2470589429140091,-0.12083754688501358
1751620526120739000,1.018739013671875,9.908080101013184,0.2709871530532837,-0.16390834748744965
1751620526139562800,1.037562744140625,9.89850902557373,0.3475574851036072,-0.25004997849464417
1751620526158386400,1.056386474609375,9.89850902557373,0.31405797600746155,-0.3074777126312256
1751620526177210000,1.075210205078125,9.888937950134277,0.3044866919517517,-0.26440688967704773
1751620526196033500,1.094033447265625,9.88415241241455,0.3044866919517517,-0.17347964644432068
1751620526214857200,1.112857177734375,9.879366874694824,0.21355941891670227,-0.09212367236614227
1751620526233681000,1.131680908203125,9.917651176452637,0.07956135272979736,-0.06340979784727097
1751620526252504600,1.150504638671875,9.917651176452637,-0.030508488416671753,-0.03469592705368996
1751620526271328000,1.169327880859375,9.941579818725586,-0.03529413416981697,0.017946170642971992
1751620526290151700,1.188151611328125,9.951150894165039,0.0077766734175384045,0.037088751792907715
1751620526308975400,1.206975341796875,9.941579818725586,0.026919255033135414,0.02751746028661728
1751620526327799000,1.225799072265625,9.946365356445312,0.06999006122350693,-0.058624155819416046
1751620526346622700,1.244622802734375,9.941579818725586,0.15613168478012085,-0.11605189740657806
1751620526365446100,1.263446044921875,9.91286563873291,0.2183450609445572,-0.16390834748744965
1751620526384269800,1.282269775390625,9.903294563293457,0.26620152592658997,-0.18305093050003052
1751620526403093500,1.301093505859375,9.888937950134277,0.2709871530532837,-0.19740787148475647
1751620526421917200,1.319917236328125,9.893723487854004,0.251844584941864,-0.19262222945690155
1751620526440740600,1.33874072265625,9.88415241241455,0.23270200192928314,-0.16390834748744965
1751620526459564300,1.357564208984375,9.879366874694824,0.21355941891670227,-0.13998012244701385
1751620526478388000,1.376387939453125,9.89850902557373,0.18005990982055664,-0.09690931439399719
1751620526497211600,1.395211669921875,9.91286563873291,0.1178465187549591,-0.08733802288770676
1751620526516035300,1.414035400390625,9.927223205566406,0.09391828626394272,-0.06819544732570648
1751620526534858800,1.432858642578125,9.955936431884766,0.13220344483852386,-0.058624155819416046
1751620526553682400,1.451682373046875,9.951150894165039,0.15134602785110474,-0.08733802288770676
1751620526572506000,1.470506103515625,9.955936431884766,0.16091732680797577,-0.11605189740657806
1751620526591329800,1.489329833984375,9.951150894165039,0.15613168478012085,-0.12083754688501358
1751620526610153200,1.5081533203125,9.93679428100586,0.18484555184841156,-0.12083754688501358
1751620526628977000,1.526976806640625,9.92243766784668,0.16091732680797577,-0.10169496387243271
1751620526647800600,1.545800537109375,9.88415241241455,0.14656038582324982,-0.11126625537872314
1751620526666624300,1.564624267578125,9.874580383300781,0.1704886108636856,-0.10169496387243271
1751620526685448000,1.583447998046875,9.869794845581055,0.14656038582324982,-0.11605189740657806
1751620526704271400,1.602271240234375,9.88415241241455,0.15613168478012085,-0.09690931439399719
1751620526723095000,1.621094970703125,9.865009307861328,0.1657029688358307,-0.11605189740657806
1751620526741918700,1.639918701171875,9.908080101013184,0.18484555184841156,-0.12083754688501358
1751620526760742400,1.658742431640625,9.92243766784668,0.1657029688358307,-0.13519448041915894
1751620526779565800,1.67756591796875,9.955936431884766,0.18005990982055664,-0.1256231814622879
1751620526798389500,1.696389404296875,9.960722923278809,0.1657029688358307,-0.12083754688501358
1751620526817213200,1.715213134765625,9.965508460998535,0.17527425289154053,-0.08255238085985184
1751620526836036900,1.734036865234375,9.941579818725586,0.1417747437953949,-0.08733802288770676
1751620526854860500,1.752860595703125,9.941579818725586,0.13698910176753998,-0.08733802288770676
1751620526873684000,1.77168408203125,9.917651176452637,0.15613168478012085,-0.09690931439399719
1751620526892507600,1.790507568359375,9.893723487854004,0.15134602785110474,-0.11605189740657806
1751620526911331300,1.809331298828125,9.874580383300781,0.16091732680797577,-0.13040883839130402
1751620526930155000,1.828155029296875,9.874580383300781,0.18005990982055664,-0.13040883839130402
1751620526948978700,1.846978759765625,9.88415241241455,0.1944168359041214,-0.13519448041915894
1751620526967802000,1.865802001953125,9.89850902557373,0.1944168359041214,-0.13519448041915894
1751620526986625800,1.884625732421875,9.92243766784668,0.1704886108636856,-0.13040883839130402
1751620527005449500,1.903449462890625,9.93679428100586,0.16091732680797577,-0.10648060590028763
1751620527024273200,1.922273193359375,9.970293998718262,0.14656038582324982,-0.08733802288770676
1751620527043096800,1.941096923828125,9.951150894165039,0.14656038582324982,-0.08255238085985184
1751620527061920300,1.959920166015625,9.965508460998535,0.13698910176753998,-0.06819544732570648
1751620527080744000,1.978743896484375,9.92243766784668,0.1178465187549591,-0.08733802288770676
1751620527099567600,1.997567626953125,9.93679428100586,0.13698910176753998,-0.09212367236614227
1751620527118391300,2.016391357421875,9.89850902557373,0.16091732680797577,-0.09212367236614227
1751620527137214700,2.035214599609375,9.874580383300781,0.1704886108636856,-0.11605189740657806
1751620527156038400,2.054038330078125,9.874580383300781,0.18005990982055664,-0.1256231814622879
1751620527174862000,2.072862060546875,9.869794845581055,0.1944168359041214,-0.13040883839130402
1751620527193685800,2.091685791015625,9.89850902557373,0.1944168359041214,-0.13998012244701385
1751620527212509400,2.110509521484375,9.91286563873291,0.20877377688884735,-0.1256231814622879
1751620527231333000,2.1293330078125,9.932008743286133,0.18484555184841156,-0.12083754688501358
1751620527250156500,2.148156494140625,9.941579818725586,0.1657029688358307,-0.09690931439399719
1751620527268980200,2.166980224609375,9.965508460998535,0.14656038582324982,-0.09212367236614227
1751620527297215700,2.1952158203125,9.88415241241455,0.14656038582324982,-0.10648060590028763
1751620527316039400,2.214039306640625,9.888937950134277,0.15613168478012085,-0.09690931439399719
1751620527334862800,2.23286279296875,9.91286563873291,0.15613168478012085,-0.09690931439399719
1751620527353686500,2.2516865234375,9.946365356445312,0.1417747437953949,-0.09212367236614227
1751620527372510200,2.27051025390625,9.946365356445312,0.16091732680797577,-0.09212367236614227
1751620527391334000,2.289333984375,9.955936431884766,0.1657029688358307,-0.10648060590028763
1751620527410157600,2.308157470703125,9.955936431884766,0.1944168359041214,-0.10648060590028763
1751620527428981000,2.32698095703125,9.960722923278809,0.1704886108636856,-0.12083754688501358
1751620527447804700,2.3458046875,9.927223205566406,0.18484555184841156,-0.12083754688501358
1751620527466628400,2.36462841796875,9.927223205566406,0.18005990982055664,-0.13998012244701385
1751620527485452000,2.3834521484375,9.893723487854004,0.18484555184841156,-0.12083754688501358
1751620527504275700,2.402275634765625,9.869794845581055,0.1657029688358307,-0.10648060590028763
1751620527523099100,2.42109912109375,9.88415241241455,0.17527425289154053,-0.12083754688501358
1751620527541922800,2.4399228515625,9.879366874694824,0.18005990982055664,-0.11126625537872314
1751620527560746500,2.45874658203125,9.888937950134277,0.17527425289154053,-0.11605189740657806
1751620527579570200,2.477570068359375,9.917651176452637,0.1657029688358307,-0.10648060590028763
1751620527598393900,2.496393798828125,9.927223205566406,0.14656038582324982,-0.09690931439399719
1751620527617217300,2.51521728515625,9.951150894165039,0.13220344483852386,-0.0729810893535614
1751620527636041000,2.534041015625,9.965508460998535,0.15613168478012085,-0.06819544732570648
1751620527654864600,2.55286474609375,9.970293998718262,0.13220344483852386,-0.08255238085985184
1751620527673688300,2.571688232421875,9.955936431884766,0.1417747437953949,-0.09212367236614227
1751620527692512000,2.590511962890625,9.946365356445312,0.15134602785110474,-0.10169496387243271
1751620527711335400,2.60933544921875,9.917651176452637,0.1704886108636856,-0.10648060590028763
1751620527730159000,2.6281591796875,9.879366874694824,0.18963119387626648,-0.12083754688501358
1751620527748982800,2.646982666015625,9.88415241241455,0.19920247793197632,-0.14476576447486877
1751620527767806500,2.665806396484375,9.874580383300781,0.2231307178735733,-0.17347964644432068
1751620527786630100,2.684630126953125,9.888937950134277,0.21355941891670227,-0.15912270545959473
1751620527805453800,2.703453857421875,9.91286563873291,0.1704886108636856,-0.12083754688501358
1751620527824277200,2.72227734375,9.917651176452637,0.14656038582324982,-0.09212367236614227
1751620527843101000,2.741100830078125,9.932008743286133,0.1178465187549591,-0.0729810893535614
1751620527861924600,2.759924560546875,9.951150894165039,0.12741780281066895,-0.06819544732570648
1751620527880748300,2.778748291015625,9.960722923278809,0.13698910176753998,-0.07776673883199692
1751620527899571700,2.79757177734375,9.951150894165039,0.15613168478012085,-0.09690931439399719
1751620527918395400,2.8163955078125,9.955936431884766,0.14656038582324982,-0.13040883839130402
1751620527937219000,2.835218994140625,9.917651176452637,0.1657029688358307,-0.1256231814622879
1751620527956042800,2.854042724609375,9.893723487854004,0.20877377688884735,-0.1256231814622879
1751620527974866400,2.872866455078125,9.88415241241455,0.17527425289154053,-0.11605189740657806
1751620527993690000,2.891690185546875,9.879366874694824,0.16091732680797577,-0.12083754688501358
1751620528012513500,2.910513427734375,9.874580383300781,0.15613168478012085,-0.13519448041915894
1751620528031337200,2.929337158203125,9.88415241241455,0.1704886108636856,-0.12083754688501358
1751620528050161000,2.948160888671875,9.92243766784668,0.18484555184841156,-0.13040883839130402
1751620528068984600,2.966984619140625,9.932008743286133,0.14656038582324982,-0.09212367236614227
1751620528087808000,2.98580810546875,9.965508460998535,0.15134602785110474,-0.08733802288770676
1751620528106631700,3.004631591796875,9.965508460998535,0.16091732680797577,-0.09212367236614227
1751620528125455400,3.023455322265625,9.960722923278809,0.16091732680797577,-0.08733802288770676
1751620528144279000,3.042279052734375,9.93679428100586,0.17527425289154053,-0.08733802288770676
1751620528163102700,3.061102783203125,9.932008743286133,0.18005990982055664,-0.11126625537872314
1751620528181926400,3.079926513671875,9.927223205566406,0.17527425289154053,-0.13998012244701385
1751620528200749800,3.098749755859375,9.888937950134277,0.17527425289154053,-0.13519448041915894
1751620528219573500,3.117573486328125,9.869794845581055,0.18963119387626648,-0.1256231814622879
1751620528238397200,3.136397216796875,9.865009307861328,0.18484555184841156,-0.11605189740657806
1751620528257220900,3.155220947265625,9.88415241241455,0.14656038582324982,-0.11605189740657806
1751620528276044500,3.17404443359375,9.89850902557373,0.1657029688358307,-0.13040883839130402
1751620528294868000,3.192867919921875,9.917651176452637,0.16091732680797577,-0.09690931439399719
1751620528313691600,3.211691650390625,9.941579818725586,0.1657029688358307,-0.09212367236614227
1751620528332515300,3.230515380859375,9.965508460998535,0.13220344483852386,-0.09212367236614227
1751620528351339000,3.249339111328125,9.984650611877441,0.1657029688358307,-0.11126625537872314
1751620528370162700,3.26816259765625,9.951150894165039,0.18484555184841156,-0.12083754688501358
1751620528388986000,3.286986083984375,9.951150894165039,0.18963119387626648,-0.13040883839130402
1751620528407809800,3.305809814453125,9.927223205566406,0.17527425289154053,-0.13040883839130402
1751620528426633500,3.324633544921875,9.932008743286133,0.1657029688358307,-0.1256231814622879
1751620528445457200,3.34345703125,9.893723487854004,0.18484555184841156,-0.10648060590028763
1751620528464280800,3.36228076171875,9.874580383300781,0.1657029688358307,-0.10648060590028763
1751620528483104300,3.381104248046875,9.879366874694824,0.1417747437953949,-0.12083754688501358
1751620528501928000,3.399927978515625,9.888937950134277,0.14656038582324982,-0.11605189740657806
1751620528520751600,3.418751708984375,9.917651176452637,0.1657029688358307,-0.12083754688501358
1751620528539575300,3.4375751953125,9.941579818725586,0.17527425289154053,-0.12083754688501358
1751620528558399000,3.45639892578125,9.951150894165039,0.16091732680797577,-0.11126625537872314
1751620528577222400,3.475222412109375,9.965508460998535,0.1657029688358307,-0.10648060590028763
1751620528596046000,3.494046142578125,9.979865074157715,0.18005990982055664,-0.10648060590028763
1751620528614869800,3.512869873046875,9.955936431884766,0.15613168478012085,-0.09690931439399719
1751620528633693400,3.531693359375,9.946365356445312,0.16091732680797577,-0.09212367236614227
1751620528652517000,3.55051708984375,9.941579818725586,0.1704886108636856,-0.12083754688501358
1751620528671340800,3.5693408203125,9.893723487854004,0.14656038582324982,-0.12083754688501358
1751620528690164200,3.588164306640625,9.879366874694824,0.1704886108636856,-0.1256231814622879
1751620528708988000,3.60698779296875,9.874580383300781,0.17527425289154053,-0.12083754688501358
1751620528727811600,3.6258115234375,9.869794845581055,0.1704886108636856,-0.11605189740657806
1751620528746635300,3.64463525390625,9.88415241241455,0.14656038582324982,-0.11605189740657806
1751620528765459000,3.663458984375,9.908080101013184,0.15613168478012085,-0.11126625537872314
1751620528784282400,3.682282470703125,9.946365356445312,0.17527425289154053,-0.11126625537872314
1751620528803106000,3.70110595703125,9.951150894165039,0.15134602785110474,-0.11126625537872314
1751620528821929700,3.7199296875,9.965508460998535,0.15613168478012085,-0.12083754688501358
1751620528840753400,3.73875341796875,9.989436149597168,0.1704886108636856,-0.09690931439399719
1751620528859577000,3.7575771484375,9.955936431884766,0.16091732680797577,-0.09690931439399719
1751620528878400500,3.776400390625,9.93679428100586,0.18484555184841156,-0.12083754688501358
1751620528897224200,3.79522412109375,9.92243766784668,0.17527425289154053,-0.10648060590028763
1751620528916048000,3.8140478515625,9.89850902557373,0.1657029688358307,-0.11605189740657806
1751620528934871600,3.83287158203125,9.879366874694824,0.1657029688358307,-0.10648060590028763
1751620528953695200,3.8516953125,9.879366874694824,0.15134602785110474,-0.11605189740657806
1751620528972518700,3.8705185546875,9.879366874694824,0.15134602785110474,-0.11126625537872314
1751620528991342300,3.88934228515625,9.89850902557373,0.16091732680797577,-0.11126625537872314
1751620529010166000,3.908166015625,9.917651176452637,0.17527425289154053,-0.09690931439399719
1751620529028989700,3.92698974609375,9.93679428100586,0.1657029688358307,-0.1256231814622879
1751620529047813400,3.9458134765625,9.970293998718262,0.16091732680797577,-0.10169496387243271
1751620529066636800,3.96463671875,9.960722923278809,0.15134602785110474,-0.10648060590028763
1751620529085460500,3.98346044921875,9.975079536437988,0.15613168478012085,-0.11126625537872314
1751620529104284200,4.0022841796875,9.955936431884766,0.14656038582324982,-0.11126625537872314
1751620529123107800,4.02110791015625,9.927223205566406,0.15134602785110474,-0.11605189740657806
1751620529141931500,4.039931640625,9.893723487854004,0.1657029688358307,-0.10648060590028763
1751620529160755000,4.0587548828125,9.879366874694824,0.1657029688358307,-0.10648060590028763
1751620529179578600,4.07757861328125,9.874580383300781,0.15134602785110474,-0.11126625537872314
1751620529198402300,4.09640234375,9.88415241241455,0.16091732680797577,-0.11126625537872314
1751620529217226000,4.11522607421875,9.88415241241455,0.1657029688358307,-0.12083754688501358
1751620529236049700,4.134049560546875,9.908080101013184,0.15134602785110474,-0.09212367236614227
1751620529254873300,4.152873291015625,9.927223205566406,0.1704886108636856,-0.10648060590028763
1751620529273696800,4.17169677734375,9.955936431884766,0.16091732680797577,-0.10648060590028763
1751620529292520400,4.1905205078125,9.951150894165039,0.15613168478012085,-0.12083754688501358
1751620529311344000,4.20934423828125,9.975079536437988,0.16091732680797577,-0.10648060590028763
1751620529330167800,4.228167724609375,9.960722923278809,0.15134602785110474,-0.11126625537872314
1751620529348991200,4.2469912109375,9.965508460998535,0.16091732680797577,-0.09690931439399719
1751620529367815000,4.26581494140625,9.932008743286133,0.15134602785110474,-0.11605189740657806
1751620529386638600,4.284638671875,9.903294563293457,0.1704886108636856,-0.12083754688501358
1751620529405462300,4.303462158203125,9.888937950134277,0.17527425289154053,-0.11126625537872314
1751620529424286000,4.322285888671875,9.874580383300781,0.18005990982055664,-0.11605189740657806
1751620529443109400,4.341109375,9.874580383300781,0.15134602785110474,-0.11605189740657806
1751620529461933000,4.35993310546875,9.893723487854004,0.14656038582324982,-0.1256231814622879
1751620529480756700,4.3787568359375,9.927223205566406,0.13698910176753998,-0.10169496387243271
1751620529499580400,4.397580322265625,9.91286563873291,0.17527425289154053,-0.10648060590028763
1751620529518404000,4.416404052734375,9.946365356445312,0.15613168478012085,-0.10648060590028763
1751620529537227800,4.435227783203125,9.970293998718262,0.15613168478012085,-0.10169496387243271
1751620529556051200,4.45405126953125,9.975079536437988,0.17527425289154053,-0.11126625537872314
1751620529574875000,4.472875,9.970293998718262,0.17527425289154053,-0.10648060590028763
1751620529593698600,4.491698486328125,9.946365356445312,0.1704886108636856,-0.12083754688501358
1751620529612522200,4.510522216796875,9.917651176452637,0.15613168478012085,-0.1256231814622879
1751620529631345700,4.529345703125,9.888937950134277,0.16091732680797577,-0.12083754688501358
1751620529650169300,4.54816943359375,9.893723487854004,0.15134602785110474,-0.12083754688501358
1751620529668993000,4.566992919921875,9.88415241241455,0.16091732680797577,-0.11605189740657806
1751620529687816700,4.585816650390625,9.874580383300781,0.15613168478012085,-0.12083754688501358
1751620529706640400,4.604640380859375,9.91286563873291,0.17527425289154053,-0.11126625537872314
1751620529725463800,4.6234638671875,9.92243766784668,0.1657029688358307,-0.11605189740657806
1751620529744287500,4.64228759765625,9.932008743286133,0.1657029688358307,-0.14476576447486877
1751620529763111200,4.661111083984375,9.960722923278809,0.16091732680797577,-0.10169496387243271
1751620529781934800,4.679934814453125,9.970293998718262,0.16091732680797577,-0.10648060590028763
1751620529800758500,4.698758544921875,9.965508460998535,0.15134602785110474,-0.09212367236614227
1751620529819582000,4.71758203125,9.951150894165039,0.15613168478012085,-0.08733802288770676
1751620529838405600,4.736405517578125,9.927223205566406,0.16091732680797577,-0.10169496387243271
1751620529857229300,4.755229248046875,9.908080101013184,0.17527425289154053,-0.13998012244701385
1751620529876053000,4.774052978515625,9.888937950134277,0.18005990982055664,-0.12083754688501358
1751620529894876700,4.792876708984375,9.893723487854004,0.15613168478012085,-0.11126625537872314
1751620529913700000,4.8117001953125,9.88415241241455,0.15134602785110474,-0.09212367236614227
1751620529932523800,4.830523681640625,9.88415241241455,0.15613168478012085,-0.09690931439399719
1751620529951347500,4.849347412109375,9.908080101013184,0.15134602785110474,-0.11605189740657806
1751620529970171100,4.868171142578125,9.92243766784668,0.16091732680797577,-0.11605189740657806
1751620529988994600,4.88699462890625,9.946365356445312,0.17527425289154053,-0.10648060590028763
1751620530007818200,4.905818359375,9.970293998718262,0.1704886108636856,-0.11126625537872314
1751620530026642000,4.924641845703125,9.970293998718262,0.15613168478012085,-0.11605189740657806
1751620530045465600,4.943465576171875,9.960722923278809,0.1657029688358307,-0.1256231814622879
1751620530064289300,4.962289306640625,9.932008743286133,0.1704886108636856,-0.1256231814622879
1751620530083112700,4.98111279296875,9.91286563873291,0.17527425289154053,-0.12083754688501358
1751620530101936400,4.999936279296875,9.903294563293457,0.15134602785110474,-0.11605189740657806
1751620530120760000,5.018760009765625,9.888937950134277,0.16091732680797577,-0.11126625537872314
1751620530139583700,5.037583740234375,9.888937950134277,0.1657029688358307,-0.09690931439399719
1751620530158407400,5.056407470703125,9.879366874694824,0.15613168478012085,-0.10169496387243271
1751620530177230800,5.07523095703125,9.888937950134277,0.18005990982055664,-0.11126625537872314
1751620530196054500,5.094054443359375,9.908080101013184,0.1657029688358307,-0.11126625537872314
1751620530214878200,5.112878173828125,9.951150894165039,0.1704886108636856,-0.12083754688501358
1751620530233702000,5.131701904296875,9.946365356445312,0.1657029688358307,-0.11605189740657806
1751620530252525600,5.150525634765625,9.975079536437988,0.16091732680797577,-0.10648060590028763
1751620530271349000,5.169348876953125,9.975079536437988,0.18005990982055664,-0.09690931439399719
1751620530290172700,5.188172607421875,9.965508460998535,0.17527425289154053,-0.11126625537872314
1751620530308996400,5.206996337890625,9.941579818725586,0.1704886108636856,-0.11126625537872314
1751620530327820000,5.225820068359375,9.908080101013184,0.14656038582324982,-0.11605189740657806
1751620530346643700,5.244643798828125,9.908080101013184,0.1704886108636856,-0.10648060590028763
1751620530365467100,5.263467041015625,9.879366874694824,0.18484555184841156,-0.10169496387243271
1751620530384290800,5.282290771484375,9.874580383300781,0.1657029688358307,-0.12083754688501358
1751620530403114500,5.301114501953125,9.88415241241455,0.15613168478012085,-0.11605189740657806
1751620530421938200,5.319938232421875,9.893723487854004,0.15134602785110474,-0.11126625537872314
1751620530440761600,5.33876171875,9.93679428100586,0.17527425289154053,-0.11605189740657806
1751620530459585300,5.357585205078125,9.960722923278809,0.18005990982055664,-0.10648060590028763
1751620530478409000,5.376408935546875,9.965508460998535,0.18005990982055664,-0.1256231814622879
1751620530497232600,5.395232666015625,9.975079536437988,0.1704886108636856,-0.11605189740657806
1751620530516056300,5.414056396484375,9.970293998718262,0.17527425289154053,-0.12083754688501358
1751620530534879700,5.432879638671875,9.965508460998535,0.1657029688358307,-0.11126625537872314
1751620530553703400,5.451703369140625,9.93679428100586,0.15613168478012085,-0.10169496387243271
1751620530572527000,5.470527099609375,9.903294563293457,0.1178465187549591,-0.07776673883199692
1751620530591350800,5.489350830078125,9.893723487854004,0.08434699475765228,-0.06819544732570648
1751620530610174200,5.50817431640625,9.879366874694824,0.06041877344250679,-0.058624155819416046
1751620530628998000,5.526997802734375,9.89850902557373,0.13220344483852386,-0.09212367236614227
1751620530647821600,5.545821533203125,9.91286563873291,0.18963119387626648,-0.08255238085985184
1751620530666645200,5.564645263671875,9.908080101013184,0.21355941891670227,-0.11605189740657806
1751620530685469000,5.583468994140625,9.93679428100586,0.20877377688884735,-0.14476576447486877
1751620530704292400,5.602292236328125,9.941579818725586,0.28534409403800964,-0.15912270545959473
1751620530723116000,5.621115966796875,9.93679428100586,0.2757728099822998,-0.16869398951530457
1751620530741939700,5.639939697265625,9.951150894165039,0.18963119387626648,-0.1782652884721756
1751620530760763400,5.658763427734375,9.941579818725586,0.16091732680797577,-0.13040883839130402
1751620530779586800,5.6775869140625,9.927223205566406,0.15613168478012085,-0.09212367236614227
1751620530798410500,5.696410400390625,9.893723487854004,0.1417747437953949,-0.06819544732570648
1751620530817234200,5.715234130859375,9.893723487854004,0.0891326442360878,-0.07776673883199692
1751620530836057900,5.734057861328125,9.893723487854004,0.07477571070194244,-0.0729810893535614
1751620530854881300,5.75288134765625,9.879366874694824,0.12263216078281403,-0.07776673883199692
1751620530873705000,5.771705078125,9.89850902557373,0.18484555184841156,-0.11126625537872314
1751620530892528600,5.790528564453125,9.908080101013184,0.18005990982055664,-0.13998012244701385
1751620530911352300,5.809352294921875,9.941579818725586,0.18484555184841156,-0.14476576447486877
1751620530930176000,5.828176025390625,9.960722923278809,0.19920247793197632,-0.15912270545959473
1751620530948999400,5.84699951171875,9.960722923278809,0.2231307178735733,-0.1495514214038849
1751620530967823000,5.865822998046875,9.975079536437988,0.20877377688884735,-0.13519448041915894
1751620530986646800,5.884646728515625,9.970293998718262,0.12741780281066895,-0.08733802288770676
1751620531005470500,5.903470458984375,9.955936431884766,0.1178465187549591,-0.08255238085985184
1751620531024294000,5.9222939453125,9.92243766784668,0.13220344483852386,-0.06819544732570648
1751620531043117600,5.94111767578125,9.927223205566406,0.12263216078281403,-0.06340979784727097
1751620531061941200,5.959941162109375,9.91286563873291,0.10827522724866867,-0.06819544732570648
1751620531080765000,5.978764892578125,9.865009307861328,0.13220344483852386,-0.09690931439399719
1751620531099588600,5.997588623046875,9.836296081542969,0.1704886108636856,-0.11605189740657806
1751620531118412000,6.016412109375,9.865009307861328,0.2470589429140091,-0.1543370634317398
1751620531137235700,6.035235595703125,9.908080101013184,0.21355941891670227,-0.15912270545959473
1751620531156059400,6.054059326171875,9.927223205566406,0.19920247793197632,-0.15912270545959473
1751620531174883000,6.072883056640625,9.955936431884766,0.16091732680797577,-0.11126625537872314
1751620531193706500,6.09170654296875,9.955936431884766,0.14656038582324982,-0.06340979784727097
1751620531212530200,6.1105302734375,9.965508460998535,0.12263216078281403,-0.06340979784727097
1751620531231353900,6.129353759765625,9.951150894165039,0.10348957777023315,-0.04905286431312561
1751620531250177500,6.148177490234375,9.932008743286133,0.10827522724866867,-0.08255238085985184
1751620531269001000,6.1670009765625,9.927223205566406,0.16091732680797577,-0.11126625537872314
1751620531287824600,6.18582470703125,9.903294563293457,0.18005990982055664,-0.10648060590028763
1751620531306648300,6.2046484375,9.888937950134277,0.20877377688884735,-0.13998012244701385
1751620531325472000,6.223471923828125,9.893723487854004,0.17527425289154053,-0.1543370634317398
1751620531344295400,6.24229541015625,9.869794845581055,0.19920247793197632,-0.1495514214038849
1751620531363119000,6.261119140625,9.89850902557373,0.18484555184841156,-0.12083754688501358
1751620531381942800,6.27994287109375,9.927223205566406,0.16091732680797577,-0.10648060590028763
1751620531400766500,6.298766357421875,9.965508460998535,0.13698910176753998,-0.11126625537872314
1751620531419590100,6.317590087890625,9.88415241241455,0.1178465187549591,-0.02512463741004467
1751620531438413600,6.33641357421875,10.137791633605957,0.17527425289154053,-0.16390834748744965
1751620531457237200,6.3552373046875,9.989436149597168,0.13698910176753998,-0.06819544732570648
1751620531476061000,6.37406103515625,9.970293998718262,0.42412781715393066,-0.2021935135126114
1751620531494884400,6.39288427734375,9.941579818725586,0.6969096064567566,-0.900897741317749
1751620531513708000,6.4117080078125,9.91286563873291,0.16091732680797577,-0.8913264274597168
1751620531532531700,6.43053173828125,9.91286563873291,0.10348957777023315,-1.1066805124282837
1751620531551355400,6.44935546875,9.89850902557373,0.30927231907844543,-1.2741780281066895
1751620531570179000,6.468178955078125,9.89850902557373,0.0029910283628851175,-1.0205388069152832
1751620531589002500,6.48700244140625,9.908080101013184,-0.6047859191894531,0.5874379873275757
1751620531607826200,6.505826171875,9.91286563873291,-0.6574280261993408,1.817348837852478
1751620531626649900,6.52464990234375,9.879366874694824,-0.4420739710330963,2.0231316089630127
1751620531645473500,6.5434736328125,9.960722923278809,-0.37507495284080505,1.1617153882980347
1751620531664297000,6.562296875,9.92243766784668,-1.1168500185012817,1.5206388235092163
1751620531683120600,6.58112060546875,9.975079536437988,-1.3465609550476074,1.7694923877716064
1751620531701944300,6.5999443359375,9.917651176452637,-1.0307083129882812,1.568495273590088
1751620531720768000,6.61876806640625,9.979865074157715,0.08434699475765228,0.137587308883667
1751620531739591400,6.63759130859375,9.903294563293457,0.39062830805778503,-0.7381857633590698
1751620531758415000,6.6564150390625,9.88415241241455,0.8165507316589355,-1.5852450132369995
1751620531777238800,6.67523876953125,9.91286563873291,1.2185449600219727,-2.355733871459961
1751620531796062500,6.6940625,9.93679428100586,1.2329018115997314,-2.3222343921661377
1751620531814886000,6.712885986328125,9.845867156982422,0.8835497498512268,-1.3986048698425293
1751620531833709600,6.73170947265625,9.869794845581055,0.14656038582324982,-0.015553346835076809
1751620531852533200,6.750533203125,9.865009307861328,0.23748764395713806,0.18544375896453857
1751620531871357000,6.76935693359375,9.975079536437988,1.1467602252960205,-1.211964726448059
1751620531890180400,6.788180419921875,9.994221687316895,1.9938194751739502,-2.7672994136810303
1751620531909004000,6.807004150390625,9.999007225036621,1.3334003686904907,-2.89172625541687
1751620531927827700,6.82582763671875,9.994221687316895,0.36670008301734924,-2.6428725719451904
1751620531946651400,6.8446513671875,9.88415241241455,-0.7579265832901001,-1.1210373640060425
1751620531965475000,6.86347509765625,9.951150894165039,-1.3417752981185913,0.33858439326286316
1751620531984298500,6.882298583984375,9.92243766784668,-1.8586249351501465,2.008774518966675
1751620532003122200,6.9011220703125,9.874580383300781,-1.7437695264816284,3.597608804702759
1751620532021945900,6.91994580078125,9.91286563873291,-0.1788634955883026,1.3100703954696655
1751620532040769300,6.938769287109375,9.970293998718262,-1.0307083129882812,1.0037890672683716
1751620532059593000,6.957593017578125,9.946365356445312,-2.925823926925659,2.6021945476531982
1751620532078416600,6.976416748046875,9.81236743927002,-2.4185454845428467,2.4538395404815674
1751620532097240300,6.995240234375,10.123434066772461,-0.8201399445533752,1.1521440744400024
1751620532116063700,7.014063720703125,9.984650611877441,-0.3655036687850952,-0.35054850578308105
1751620532134887400,7.032887451171875,10.128219604492188,0.41934216022491455,-1.293320655822754
1751620532153711000,7.051711181640625,9.965508460998535,1.2664014101028442,-1.8963119983673096
1751620532172534800,7.07053466796875,9.927223205566406,2.0368902683258057,-2.853440999984741
1751620532191358200,7.089358154296875,9.946365356445312,2.2331018447875977,-3.308077335357666
1751620532210182000,7.108181884765625,9.888937950134277,0.1178465187549591,-0.17347964644432068
1751620532229005600,7.127005615234375,9.927223205566406,1.7736797332763672,-2.1260228157043457
1751620532247829200,7.145829345703125,9.893723487854004,1.500898003578186,-2.2983062267303467
1751620532266652700,7.164652587890625,9.88415241241455,0.3188436031341553,-1.7623138427734375
1751620532285476400,7.183476318359375,9.932008743286133,-0.32721850275993347,-1.5565310716629028
1751620532304300000,7.202300048828125,9.965508460998535,-0.3128615617752075,-1.1880364418029785
1751620532323123700,7.221123779296875,9.903294563293457,-0.3032902777194977,-0.5324030518531799
1751620532341947100,7.239947021484375,9.917651176452637,-0.6909275650978088,1.1473584175109863
1751620532360770800,7.258770751953125,9.91286563873291,-1.303490161895752,3.497110366821289
1751620532379594500,7.277594482421875,9.92243766784668,-1.968694806098938,3.7603209018707275
1751620532398418200,7.296418212890625,9.970293998718262,-0.9828519225120544,1.0755738019943237
1751620532417241600,7.31524169921875,10.013364791870117,-1.944766640663147,1.8652052879333496
1751620532436065300,7.334065185546875,10.085148811340332,-1.4949159622192383,2.8223342895507812
1751620532454889000,7.352888916015625,9.850652694702148,-1.5906288623809814,2.348555326461792
1751620532473712400,7.37171240234375,9.79801082611084,-1.5619150400161743,0.9463613629341125
1751620532492536000,7.3905361328125,9.989436149597168,-0.6909275650978088,-0.9200403094291687
1751620532511359700,7.40935986328125,9.908080101013184,0.24227328598499298,-2.4083759784698486
1751620532530183400,7.428183349609375,9.994221687316895,1.563111424446106,-3.451646566390991
1751620532549007000,7.447007080078125,9.860223770141602,2.6733810901641846,-4.145565032958984
1751620532567830500,7.46583056640625,9.879366874694824,2.032104730606079,-3.260220766067505
1751620532586654200,7.484654296875,10.04686450958252,1.7114664316177368,-1.9872392416000366
1751620532605478000,7.503477783203125,9.932008743286133,1.5391831398010254,-2.504088878631592
1751620532624301600,7.522301513671875,9.994221687316895,0.8979067206382751,-2.5567309856414795
1751620532643125000,7.541125,10.02293586730957,-0.1501496136188507,-2.355733871459961
1751620532661948700,7.55994873046875,9.917651176452637,-1.2077772617340088,-1.5086746215820312
1751620532680772400,7.5787724609375,10.013364791870117,-1.4327025413513184,-0.19262222945690155
1751620532699595800,7.597595703125,9.93679428100586,-1.3752747774124146,0.6927221417427063
1751620532718419500,7.61641943359375,9.836296081542969,-1.5954145193099976,3.1956145763397217
1751620532737243100,7.6352431640625,9.831509590148926,-1.9591234922409058,5.693721294403076
1751620532756066800,7.65406689453125,9.946365356445312,-1.0546365976333618,2.3437697887420654
1751620532774890200,7.67289013671875,9.903294563293457,-2.4568307399749756,3.1956145763397217
1751620532793714000,7.6917138671875,9.960722923278809,-2.868396043777466,2.812762975692749
1751620532812537600,7.71053759765625,9.960722923278809,-2.6865415573120117,1.817348837852478
1751620532831361300,7.729361328125,9.874580383300781,-1.5810575485229492,-0.08733802288770676
1751620532850184700,7.748184814453125,10.089935302734375,0.45284169912338257,-2.671586513519287
1751620532869008400,7.76700830078125,9.951150894165039,2.132603168487549,-4.222135543823242
1751620532887832000,7.78583203125,9.975079536437988,2.620738983154297,-4.542773723602295
1751620532906655700,7.80465576171875,9.92243766784668,2.1996021270751953,-3.810570001602173
1751620532925479200,7.823479248046875,9.927223205566406,1.165902853012085,-1.2454642057418823
1751620532944302800,7.842302734375,9.903294563293457,1.831107497215271,-2.4562325477600098
1751620532963126500,7.86112646484375,9.888937950134277,1.347757339477539,-2.5423741340637207
1751620532981950200,7.8799501953125,9.88415241241455,0.5150550603866577,-2.671586513519287
1751620533000773600,7.898773681640625,9.970293998718262,-0.4468596279621124,-1.939382791519165
1751620533019597300,7.917597412109375,9.88415241241455,-0.6717849373817444,-1.5852450132369995
1751620533038421000,7.9364208984375,10.042078018188477,-0.8967102766036987,-0.776470959186554
1751620533057244400,7.955244384765625,9.89850902557373,-1.4997016191482544,0.6113662123680115
1751620533076068000,7.974068115234375,9.908080101013184,-1.8586249351501465,2.066202402114868
1751620533094891800,7.992891845703125,9.951150894165039,-1.8442680835723877,3.190829038619995
1751620533113715500,8.011715576171875,9.975079536437988,-1.4327025413513184,4.095315933227539
1751620533132539100,8.0305390625,9.989436149597168,-1.4757733345031738,2.449054002761841
1751620533151362600,8.049362548828125,9.93679428100586,-2.475973129272461,4.444668292999268
1751620533170186200,8.068186279296874,9.836296081542969,-2.562114953994751,3.449253797531128
1751620533189010000,8.087010009765624,9.927223205566406,-2.0883359909057617,1.353141188621521
1751620533207833300,8.105833251953126,9.979865074157715,-1.3848460912704468,-0.4414757788181305
1751620533226657000,8.124656982421875,9.91286563873291,-0.40378883481025696,-2.2121646404266357
1751620533245480700,8.143480712890625,9.54915714263916,1.2616157531738281,-4.3417768478393555
1751620533264304400,8.162304443359375,10.166504859924316,2.496312141418457,-5.073980331420898
1751620533283127800,8.1811279296875,9.93679428100586,2.730808734893799,-4.480560302734375
1751620533301951500,8.199951416015624,9.845867156982422,0.7399803996086121,-0.2309073805809021
1751620533320775200,8.218775146484376,9.965508460998535,1.6013965606689453,-1.7623138427734375
1751620533339598800,8.237598876953125,9.960722923278809,1.4913266897201538,-1.5086746215820312
1751620533358422300,8.25642236328125,9.941579818725586,0.44327038526535034,-1.140179991722107
1751620533377246000,8.275245849609375,9.979865074157715,0.2470589429140091,-1.9298114776611328
1751620533396069600,8.294069580078125,9.955936431884766,0.5581258535385132,-1.810170292854309
1751620533414893300,8.312893310546874,9.941579818725586,0.5437689423561096,-1.0971091985702515
1751620533433717000,8.331717041015626,9.917651176452637,0.12263216078281403,-0.8291130661964417
1751620533452540400,8.35054052734375,9.960722923278809,-1.3465609550476074,-0.6424728631973267
1751620533471364000,8.369364013671875,10.00857925415039,-2.193620204925537,-0.18305093050003052
1751620533490187800,8.388187744140625,9.333803176879883,-2.3706889152526855,1.420140266418457
1751620533509011200,8.40701123046875,10.487143516540527,-2.241476535797119,4.013959884643555
1751620533527835000,8.4258349609375,9.520442962646484,-0.3080759048461914,2.812762975692749
1751620533546658600,8.444658447265626,10.267004013061523,-1.4039887189865112,1.6498512029647827
1751620533565482200,8.463482177734376,10.334002494812012,-1.7868403196334839,1.7694923877716064
1751620533584305700,8.4823056640625,10.032506942749023,-1.2221341133117676,1.8652052879333496
1751620533603129300,8.50112939453125,9.903294563293457,-1.1168500185012817,0.6592226624488831
1751620533621953000,8.519953125,9.994221687316895,-0.45164528489112854,-0.3074777126312256
1751620533640776700,8.538776611328124,9.908080101013184,0.44805604219436646,-1.3028919696807861
1751620533659600400,8.557600341796874,9.917651176452637,1.1132607460021973,-2.1786649227142334
1751620533678423800,8.576423828125,9.946365356445312,0.9936196208000183,-2.623729944229126
1751620533697247500,8.59524755859375,9.879366874694824,1.1515458822250366,-2.001596212387085
1751620533716071200,8.6140712890625,9.821938514709473,0.97926265001297,0.28594231605529785
1751620533734894800,8.632894775390625,9.874580383300781,0.8452646136283875,-0.833898663520813
1751620533753718300,8.65171826171875,10.018150329589844,1.6253247261047363,-2.480160713195801
1751620533772542000,8.6705419921875,9.78843879699707,1.831107497215271,-3.284149169921875
1751620533791365600,8.68936572265625,10.4823579788208,0.5246263742446899,-3.48993182182312
1751620533810189300,8.708189208984376,10.27178955078125,-0.4085744619369507,-2.1882362365722656
1751620533829013000,8.727012939453125,10.630712509155273,-1.4135600328445435,-0.2883351147174835
1751620533847836400,8.74583642578125,10.070792198181152,-2.0309081077575684,1.6450655460357666
1751620533866660000,8.76466015625,9.802796363830566,-2.0883359909057617,3.387040376663208
1751620533885483800,8.78348388671875,10.195219039916992,-2.145763635635376,3.937389612197876
1751620533904307500,8.802307373046874,9.793225288391113,-1.0546365976333618,1.5493526458740234
1751620533923131000,8.821130859375,9.88415241241455,-1.906481385231018,2.874976396560669
1751620533941954600,8.83995458984375,10.209575653076172,-1.9351953268051147,2.252842426300049
1751620533960778200,8.8587783203125,10.123434066772461,-2.107478618621826,1.444068431854248
1751620533979602000,8.877601806640625,9.960722923278809,-1.6719847917556763,0.9463613629341125
1751620533998425300,8.89642529296875,9.975079536437988,-0.7004988193511963,-0.2787638306617737
1751620534017249000,8.9152490234375,9.855438232421875,0.7447660565376282,-1.5804593563079834
1751620534036072700,8.93407275390625,10.00857925415039,2.290529489517212,-3.236292600631714
1751620534054896400,8.952896484375,9.888937950134277,3.362514019012451,-4.246063709259033
1751620534083131600,8.981131591796874,10.13300609588623,1.8789639472961426,-1.7527425289154053
1751620534101955300,8.999955322265626,9.865009307861328,1.9124635457992554,-2.6189444065093994
1751620534120779000,9.018779052734375,9.994221687316895,1.074975609779358,-2.9730820655822754
1751620534139602700,9.037602783203125,9.888937950134277,0.1657029688358307,-3.2267212867736816
1751620534158426400,9.05642626953125,10.018150329589844,-0.8249256014823914,-2.2360928058624268
1751620534177250000,9.07525,9.458230018615723,-1.064207911491394,-0.9391828775405884
1751620534196073500,9.094073486328124,10.587641716003418,-2.648256540298462,1.8077775239944458
1751620534214897200,9.112897216796876,9.721440315246582,-3.720241069793701,5.492724418640137
1751620534233720800,9.131720947265626,10.123434066772461,-1.906481385231018,3.5497524738311768
1751620534252544500,9.15054443359375,9.975079536437988,-2.0787646770477295,2.6979074478149414
1751620534271368200,9.1693681640625,10.032506942749023,-2.4807589054107666,2.1714866161346436
1751620534290191600,9.188191650390625,9.989436149597168,-2.9976086616516113,1.2287144660949707
1751620534309015300,9.207015380859374,10.056435585021973,-2.3371894359588623,0.0849452018737793
1751620534327839000,9.2258388671875,10.16171932220459,-0.23629122972488403,-1.8436698913574219
1751620534346662700,9.24466259765625,9.93679428100586,1.9507486820220947,-3.3415768146514893
1751620534365486000,9.263486083984375,9.975079536437988,3.3098719120025635,-4.078566074371338
1751620534384309800,9.282309814453125,10.003793716430664,3.171088218688965,-2.9874391555786133
1751620534403133400,9.301133544921875,9.932008743286133,1.8837496042251587,-1.537388563156128
1751620534421957000,9.31995703125,10.027721405029297,1.3956137895584106,-1.7910277843475342
1751620534440780800,9.33878076171875,9.855438232421875,0.8500502705574036,-1.8867406845092773
1751620534459604500,9.3576044921875,10.094720840454102,-0.04007977992296219,-2.6285157203674316
1751620534478428000,9.376427978515625,10.027721405029297,-1.1407781839370728,-2.197807550430298
1751620534497251600,9.39525146484375,9.573084831237793,-1.2699905633926392,-0.9104689955711365
1751620534516075300,9.4140751953125,10.822138786315918,-0.8632107973098755,0.07058826833963394
1751620534534899000,9.43289892578125,9.879366874694824,-1.7437695264816284,1.8221344947814941
1751620534553722600,9.45172265625,9.620942115783691,-3.696312665939331,5.1050872802734375
1751620534572546000,9.470546142578126,9.888937950134277,-1.9639091491699219,4.133601188659668
1751620534591369700,9.48936962890625,9.989436149597168,-0.7387840151786804,3.1956145763397217
1751620534610193400,9.508193359375,10.137791633605957,-0.2841476798057556,0.7166503667831421
1751620534629017000,9.52701708984375,10.156933784484863,-1.4039887189865112,-0.12083754688501358
1751620534647840800,9.5458408203125,8.874381065368652,-1.7964116334915161,-0.47976094484329224
1751620534666664400,9.56466455078125,10.353145599365234,-0.96370929479599,-1.805384635925293
1751620534685487900,9.58348779296875,9.515657424926758,0.5533402562141418,-2.2983062267303467
1751620534704311600,9.6023115234375,9.726225852966309,1.7880367040634155,-2.6189444065093994
1751620534723135200,9.62113525390625,9.850652694702148,2.05603289604187,-2.906083106994629
1751620534741959000,9.639958984375,9.70229721069336,0.8069794178009033,0.6879364848136902
1751620534760782600,9.658782470703125,9.917651176452637,0.6921239495277405,-0.029910283163189888
1751620534779606300,9.677606201171875,9.841081619262695,1.5439687967300415,-0.9391828775405884
1751620534798429700,9.6964296875,9.874580383300781,1.8023936748504639,-2.059023857116699
1751620534817253400,9.71525341796875,9.88415241241455,1.5104693174362183,-2.882154941558838
1751620534836077000,9.7340771484375,10.128219604492188,0.41934216022491455,-3.4707891941070557
1751620534854900700,9.752900634765625,10.104291915893555,-0.786640465259552,-1.389033555984497
1751620534873724400,9.771724365234375,9.946365356445312,-2.767897605895996,0.9176474809646606
1751620534892548000,9.790548095703125,10.113862991333008,-4.0935211181640625,4.870590686798096
1751620534911371500,9.80937158203125,9.640084266662598,-2.2510478496551514,4.24367094039917
1751620534930195200,9.8281953125,10.180862426757812,-0.6813562512397766,2.678765058517456
1751620534949019000,9.847018798828126,10.128219604492188,-0.5569294691085815,1.6019947528839111
1751620534967842600,9.865842529296875,10.02293586730957,-1.2508480548858643,0.6783652305603027
1751620534986666200,9.884666259765625,9.778867721557617,-1.5427724123001099,-0.03469592705368996
1751620535005489700,9.90348974609375,10.415358543395996,-1.2556337118148804,-0.9631111025810242
1751620535024313300,9.922313232421875,10.070792198181152,-0.3320041298866272,-1.5134602785110474
1751620535043137000,9.941136962890624,9.855438232421875,0.735194742679596,-1.8340985774993896
1751620535061960700,9.959960693359376,9.932008743286133,1.898106575012207,-2.3748764991760254
1751620535080784400,9.978784423828126,9.807581901550293,2.740380048751831,-3.064009428024292
1751620535099608000,9.997608154296875,10.075577735900879,1.252044439315796,-1.144965648651123
1751620535118431500,10.016431396484375,9.970293998718262,1.8885352611541748,-2.0542383193969727
1751620535137255200,10.035255126953125,10.003793716430664,0.9936196208000183,-2.0159530639648438
1751620535156078800,10.054078857421874,10.003793716430664,-0.1501496136188507,-2.14516544342041
1751620535174902500,10.072902587890624,10.353145599365234,-0.7770691514015198,-2.39401912689209
1751620535193726200,10.091726318359376,8.596813201904297,-0.9349954724311829,-1.3076776266098022
1751620535212550000,10.1105498046875,9.750154495239258,-1.1934202909469604,0.3290131092071533
1751620535231373300,10.129373291015625,9.707083702087402,-1.1838489770889282,2.008774518966675
1751620535250197000,10.148197021484375,10.085148811340332,-1.6002001762390137,2.851048231124878
1751620535269020700,10.167020751953125,9.721440315246582,-1.906481385231018,3.219542980194092
1751620535287844400,10.18584423828125,9.951150894165039,0.07477571070194244,0.07537391036748886
1751620535306668000,10.20466796875,10.0612211227417,-0.01615155301988125,0.30987054109573364
1751620535325491700,10.22349169921875,10.04686450958252,-1.088136076927185,0.778863787651062
1751620535344315400,10.2423154296875,9.343374252319336,-2.8253252506256104,1.841277003288269
1751620535363139000,10.26113916015625,9.807581901550293,-3.3517463207244873,2.36291241645813
1751620535381962500,10.27996240234375,10.2478609085083,-1.3657035827636719,0.989432156085968
1751620535400786200,10.2987861328125,9.501300811767578,0.8452646136283875,-1.2789636850357056
1751620535419609900,10.31760986328125,9.678369522094727,2.8791637420654297,-3.025724172592163
1751620535438433500,10.33643359375,9.850652694702148,4.228715896606445,-4.557130813598633
1751620535457257200,10.35525732421875,10.056435585021973,2.2091734409332275,-1.939382791519165
1751620535476081000,10.374080810546875,9.960722923278809,2.4053850173950195,-2.9826533794403076
1751620535494904300,10.392904296875,9.955936431884766,0.7495517134666443,-2.671586513519287
1751620535513728000,10.41172802734375,10.429716110229492,-0.6478567123413086,-2.5902304649353027
1751620535532551700,10.4305517578125,10.960922241210938,-1.8873388767242432,-1.207179069519043
1751620535551375400,10.449375244140626,10.190433502197266,-3.3230323791503906,0.381655216217041
1751620535570199000,10.468198974609376,9.793225288391113,-2.940180778503418,3.6837503910064697
1751620535589022700,10.487022705078125,9.984650611877441,-1.7820546627044678,5.755934715270996
1751620535607846400,10.505846435546875,10.420144081115723,-1.3417752981185913,2.152343988418579
1751620535626669800,10.524669921875,9.745368003845215,-1.6576279401779175,2.8701908588409424
1751620535645493500,10.543493408203124,10.166504859924316,-0.4181457459926605,1.1282159090042114
1751620535664317200,10.562317138671874,9.764511108398438,-1.1168500185012817,-0.6472585201263428
1751620535683140900,10.581140869140626,9.845867156982422,-1.5284154415130615,-1.2167502641677856
1751620535701964500,10.599964599609375,9.879366874694824,-0.1740778535604477,-1.542174220085144
1751620535720788200,10.618788330078125,9.836296081542969,0.9266205430030823,-2.0685951709747314
1751620535739611600,10.637611572265625,9.81236743927002,1.8406788110733032,-2.197807550430298
1751620535758435300,10.656435302734375,9.836296081542969,2.644667148590088,-0.9822536706924438
1751620535777259000,10.675259033203124,9.845867156982422,1.4769697189331055,-0.6616154313087463
1751620535796082700,10.694082763671876,9.88415241241455,2.950948476791382,-3.284149169921875
1751620535814906400,10.71290625,9.970293998718262,2.0991036891937256,-3.198007345199585
1751620535833730000,10.73172998046875,10.003793716430664,-0.03529413416981697,-2.221735715866089
1751620535852553700,10.7505537109375,10.578070640563965,-2.0309081077575684,-1.140179991722107
1751620535871377400,10.76937744140625,8.898308753967285,-2.7535407543182373,0.9272187948226929
1751620535890200800,10.788200927734374,9.482157707214355,-2.2031915187835693,2.884547710418701
1751620535909024500,10.8070244140625,9.927223205566406,-1.7629120349884033,3.8464624881744385
1751620535927848200,10.82584814453125,10.305289268493652,-0.50907301902771,0.3194418251514435
1751620535946671900,10.844671875,9.8267240524292,-1.0546365976333618,2.1858434677124023
1751620535965495600,10.86349560546875,9.893723487854004,-1.547558069229126,2.568695068359375
1751620535984319200,10.8823193359375,10.214361190795898,-1.41834557056427,0.8315058946609497
1751620536003143000,10.901142822265625,9.903294563293457,-1.944766640663147,-0.1256231814622879
1751620536021966300,10.91996630859375,10.109077453613281,-1.7389838695526123,-0.6329016089439392
1751620536040790000,10.9387900390625,10.032506942749023,-0.6861419081687927,-1.5948163270950317
1751620536059613700,10.95761376953125,9.917651176452637,1.2089736461639404,-2.7290141582489014
1751620536078437400,10.976437255859375,9.932008743286133,3.1136605739593506,-3.346362352371216
1751620536097261000,10.995260986328125,10.14736270904541,2.7499513626098633,-1.2598211765289307
1751620536116084700,11.014084716796875,9.984650611877441,1.9938194751739502,-1.7048860788345337
1751620536134908400,11.032908447265624,9.89850902557373,2.1517457962036133,-2.451446771621704
1751620536153732000,11.051732177734374,9.841081619262695,1.2376874685287476,-2.0207388401031494
1751620536172555500,11.070555419921876,10.334002494812012,-0.42771705985069275,-1.867598056793213
1751620536191379200,11.089379150390625,10.688140869140625,-2.1170499324798584,-0.2309073805809021
1751620536210203000,11.108202880859375,11.075778007507324,-2.7870402336120605,1.4009976387023926
1751620536229026600,11.127026611328125,9.697511672973633,-1.4709876775741577,2.5639095306396484
1751620536247850200,11.145850341796875,10.195219039916992,-1.3800604343414307,2.5591237545013428
1751620536266674000,11.164673828125,10.018150329589844,0.1944168359041214,-0.3122633695602417
1751620536285497600,11.18349755859375,10.056435585021973,0.2231307178735733,0.8171489238739014
1751620536304321000,11.202321044921876,9.793225288391113,-0.8823533654212952,1.7694923877716064
1751620536323144700,11.221144775390625,10.13300609588623,-2.1361923217773438,1.333998680114746
1751620536341968400,11.239968505859375,9.865009307861328,-2.461616277694702,0.6640082597732544
1751620536360792000,11.2587919921875,9.984650611877441,-1.5379867553710938,-0.05383851006627083
1751620536379615700,11.27761572265625,9.70229721069336,-0.753140926361084,0.003589233849197626
1751620536398439400,11.296439453125,10.066006660461426,0.859621524810791,-1.1784651279449463
1751620536417263000,11.31526318359375,9.984650611877441,3.5156545639038086,-3.7435710430145264
1751620536436086800,11.334086669921875,9.81236743927002,1.9555343389511108,-2.89172625541687
1751620536454910200,11.35291015625,10.013364791870117,1.3621143102645874,-1.542174220085144
1751620536473734000,11.37173388671875,9.807581901550293,1.1276177167892456,-1.8580267429351807
1751620536492557600,11.3905576171875,9.999007225036621,0.7782655358314514,-2.3365912437438965
1751620536511381200,11.40938134765625,10.0612211227417,-0.4325026869773865,-2.2360928058624268
1751620536530205000,11.428204833984376,10.166504859924316,-1.6671991348266602,-1.207179069519043
1751620536549028600,11.447028564453126,9.419944763183594,-1.2508480548858643,0.21415762603282928
1751620536567852300,11.465852294921875,10.726426124572754,-0.666999340057373,0.5826523303985596
1751620536586676000,11.484676025390625,9.534799575805664,-1.1455638408660889,2.094916343688965
1751620536605499600,11.503499755859375,10.018150329589844,-1.5092729330062866,3.5928232669830322
1751620536624323000,11.522322998046874,9.908080101013184,0.0891326442360878,-0.4366901218891144
1751620536643146800,11.541146728515624,9.917651176452637,-0.5712863802909851,0.8937192559242249
1751620536661970400,11.559970458984376,9.831509590148926,-1.8969101905822754,2.324627161026001
1751620536680794000,11.578794189453125,9.8267240524292,-1.906481385231018,1.4871392250061035
1751620536699617800,11.59761767578125,10.00857925415039,-0.9254241585731506,0.4247260093688965
1751620536718441500,11.61644140625,9.783653259277344,-0.4133601188659668,-0.34576287865638733
1751620536737265200,11.63526513671875,9.927223205566406,0.5198407173156738,-1.168893814086914
1751620536756088600,11.654088623046874,10.02293586730957,2.213959217071533,-2.3222343921661377
1751620536774912300,11.672912353515626,9.879366874694824,2.974876642227173,-3.906282901763916
1751620536793736000,11.69173583984375,9.93679428100586,1.414756417274475,-0.9439685344696045
1751620536812559600,11.7105595703125,9.979865074157715,1.3668999671936035,-1.3603196144104004
1751620536831383300,11.72938330078125,9.908080101013184,0.8883354067802429,-1.5900306701660156
1751620536850207000,11.74820703125,10.16171932220459,0.4624129831790924,-2.6189444065093994
1751620536869030700,11.76703076171875,10.477572441101074,-0.6622136831283569,-2.5232315063476562
1751620536887854300,11.785854248046874,8.893523216247559,-1.6049858331680298,-0.45583271980285645
1751620536906677800,11.804677734375,9.611370086669922,-2.1266210079193115,2.1379871368408203
1751620536925501400,11.82350146484375,9.711869239807129,-1.3848460912704468,3.4923245906829834
1751620536944325000,11.8423251953125,9.841081619262695,-0.5042873620986938,0.989432156085968
1751620536963148800,11.861148681640625,9.793225288391113,0.2183450609445572,0.1950150430202484
1751620536981972500,11.879972412109375,10.003793716430664,-0.4660021960735321,1.3435698747634888
1751620537000796200,11.898796142578124,9.778867721557617,-0.9541380405426025,1.8077775239944458
1751620537019619800,11.917619873046876,10.415358543395996,-1.5236297845840454,0.8315058946609497
1751620537038443500,11.936443603515626,9.81236743927002,-1.6480566263198853,0.8554341197013855
1751620537057267200,11.95526708984375,10.075577735900879,-1.1982059478759766,0.4773681163787842
1751620537076090600,11.974090576171875,9.793225288391113,-0.04486542567610741,-0.3314059376716614
1751620537094914300,11.992914306640625,9.845867156982422,1.7784653902053833,-1.810170292854309
1751620537113738000,12.011738037109374,9.821938514709473,3.0370900630950928,-3.355933666229248
1751620537132561700,12.030561767578124,9.917651176452637,1.1180464029312134,-1.3076776266098022
1751620537151385300,12.04938525390625,10.03729248046875,2.1756739616394043,-2.1547367572784424
1751620537170209000,12.068208984375,9.89850902557373,1.6444673538208008,-2.5328028202056885
1751620537189032700,12.08703271484375,10.00857925415039,0.5054838061332703,-2.135594129562378
1751620537207856000,12.105856201171875,10.195219039916992,-1.638485312461853,-2.480160713195801
1751620537226680000,12.12468017578125,10.334002494812012,-2.6530420780181885,-0.6424728631973267
1751620537245503500,12.14350341796875,9.917651176452637,-2.32761812210083,1.7742780447006226
1751620537264327200,12.1623271484375,9.625727653503418,-1.456630825996399,3.291327476501465
1751620537283150800,12.18115087890625,10.578070640563965,-0.5712863802909851,4.004388809204102
1751620537301974500,12.199974609375,10.0612211227417,0.06999006122350693,-0.6951149702072144
1751620537320798200,12.218798095703125,9.764511108398438,-0.3798605799674988,1.0660024881362915
1751620537339622000,12.237621826171875,9.970293998718262,-1.4039887189865112,2.2193429470062256
1751620537358445600,12.256445556640625,10.013364791870117,-1.1359925270080566,1.6402798891067505
1751620537377269000,12.27526904296875,9.845867156982422,-0.8727820515632629,0.5587241053581238
1751620537396092700,12.2940927734375,9.951150894165039,-1.5284154415130615,0.6017948985099792
1751620537414916400,12.312916259765625,9.92243766784668,-1.4518451690673828,-0.21655045449733734
1751620537433740000,12.331739990234375,9.764511108398438,-0.13100704550743103,-1.2023934125900269
1751620537452563700,12.350563720703125,9.994221687316895,2.008176326751709,-2.317448616027832
1751620537471387400,12.369387451171875,9.91286563873291,3.3003005981445312,-3.8536407947540283
1751620537490211000,12.388211181640624,10.018150329589844,0.7447660565376282,-0.9439685344696045
1751620537509034800,12.40703466796875,10.066006660461426,1.0462616682052612,-1.7958134412765503
1751620537527858400,12.4258583984375,10.03729248046875,0.6251249313354492,-1.5804593563079834
1751620537546681900,12.444681884765625,9.79801082611084,-0.006580262444913387,-2.5471596717834473
1751620537565505500,12.463505615234375,9.93679428100586,-0.11665010452270508,-2.221735715866089
1751620537584329200,12.4823291015625,10.02293586730957,-0.3128615617752075,-0.5084748268127441
1751620537603153000,12.50115283203125,9.850652694702148,-0.9876375198364258,1.482353687286377
1751620537621976600,12.5199765625,9.740582466125488,-1.7437695264816284,3.339184045791626
1751620537640800300,12.53880029296875,9.711869239807129,-2.3706889152526855,4.0426740646362305
1751620537659624000,12.5576240234375,10.166504859924316,-0.05922235921025276,0.1663011759519577
1751620537678447600,12.576447509765625,9.793225288391113,0.09870393574237823,1.683350682258606
1751620537697271300,12.595271240234375,10.051650047302246,-0.3320041298866272,1.3387842178344727
1751620537716094700,12.6140947265625,9.932008743286133,-1.327418327331543,1.0755738019943237
1751620537734918400,12.63291845703125,9.92243766784668,-2.121835470199585,1.0325030088424683
1751620537753742000,12.6517421875,9.946365356445312,-1.7724833488464355,0.49172505736351013
1751620537772565800,12.670565673828126,9.960722923278809,-0.5808576941490173,-0.3601198196411133
1751620537791389400,12.689389404296875,9.874580383300781,1.4051851034164429,-2.4083759784698486
1751620537810213000,12.708213134765625,9.932008743286133,2.71645188331604,-3.7770705223083496
1751620537829036800,12.727036865234375,10.013364791870117,0.6107679605484009,-1.7958134412765503
1751620537847860500,12.745860595703125,9.874580383300781,2.204387903213501,-2.7050859928131104
1751620537866684200,12.76468408203125,10.118648529052734,1.4626128673553467,-3.5808591842651367
1751620537885507600,12.783507568359376,9.970293998718262,-0.030508488416671753,-2.5328028202056885
1751620537904331300,12.802331298828125,9.611370086669922,-0.7387840151786804,-2.39401912689209
1751620537923155000,12.821155029296875,10.094720840454102,-1.8586249351501465,-0.6903293132781982
1751620537941978600,12.839978515625,9.242876052856445,-2.767897605895996,2.4299113750457764
1751620537960802300,12.85880224609375,9.553942680358887,-2.145763635635376,4.837090969085693
1751620537979626000,12.8776259765625,9.965508460998535,-0.10707881301641464,3.2961132526397705
1751620537998449700,12.89644970703125,10.02293586730957,0.251844584941864,1.2957134246826172
1751620538017273300,12.9152734375,10.00857925415039,0.6681957244873047,1.8699909448623657
1751620538036096800,12.9340966796875,9.994221687316895,-0.6909275650978088,0.9224331378936768
1751620538054920400,12.95292041015625,9.979865074157715,-1.6815561056137085,0.15194423496723175
1751620538073744100,12.971744140625,9.81236743927002,-2.3563320636749268,0.4534398913383484
1751620538092567800,12.99056787109375,9.908080101013184,-2.0404794216156006,0.39601215720176697
1751620538111391500,13.0093916015625,10.080363273620605,-0.6622136831283569,-0.5994020700454712
1751620538130215200,13.028215087890626,9.89850902557373,1.414756417274475,-1.95852530002594
1751620538149038800,13.047038818359376,10.104291915893555,2.816950559616089,-2.9826533794403076
1751620538167862500,13.065862548828125,9.989436149597168,1.4195420742034912,-0.6903293132781982
1751620538186686200,13.084686279296875,9.903294563293457,1.9938194751739502,-3.3846476078033447
1751620538205509600,13.103509521484375,9.960722923278809,2.1134605407714844,-4.140779495239258
1751620538224333300,13.122333251953124,9.817152976989746,1.1132607460021973,-2.89172625541687
1751620538243157000,13.141156982421874,9.908080101013184,-0.01615155301988125,-1.5948163270950317
1751620538261980700,13.159980712890626,10.41057300567627,-1.9256240129470825,-0.0011964113218709826
1751620538280804400,13.178804443359375,9.592227935791016,-3.294318675994873,3.4540395736694336
1751620538299628000,13.1976279296875,9.654440879821777,-3.3996028900146484,5.330012321472168
1751620538318451700,13.21645166015625,10.104291915893555,-0.5617151260375977,0.9846464991569519
1751620538337275400,13.235275390625,9.932008743286133,-1.1407781839370728,2.2671995162963867
1751620538356099000,13.25409912109375,9.793225288391113,-2.0931215286254883,2.8414769172668457
1751620538374922500,13.272922607421876,9.888937950134277,-1.6911274194717407,1.089930772781372
1751620538393746200,13.29174609375,10.051650047302246,-0.8679963946342468,-1.3698909282684326
1751620538412569900,13.31056982421875,9.845867156982422,-0.18364913761615753,-2.3222343921661377
1751620538431393500,13.3293935546875,9.908080101013184,0.4336991012096405,-1.867598056793213
1751620538450217200,13.34821728515625,10.142577171325684,1.3381860256195068,-1.8628123998641968
1751620538469041000,13.367041015625,9.984650611877441,2.826521635055542,-3.087937593460083
1751620538487864600,13.385864501953124,10.13300609588623,0.706480860710144,-0.537188708782196
1751620538506688300,13.404688232421876,9.946365356445312,1.5296118259429932,-1.848455548286438
1751620538525512000,13.423511962890625,10.109077453613281,1.189831018447876,-2.796013355255127
1751620538544335400,13.44233544921875,9.8267240524292,0.5054838061332703,-3.2889347076416016
1751620538563159000,13.461158935546875,10.300503730773926,-0.389431893825531,-3.5473594665527344
1751620538581982700,13.479982666015625,10.156933784484863,-1.7868403196334839,-2.939582586288452
1751620538600806400,13.498806396484374,10.003793716430664,-3.7010984420776367,0.6592226624488831
1751620538619630000,13.517630126953126,9.745368003845215,-3.5479576587677,5.052444934844971
1751620538638453800,13.536453857421876,9.793225288391113,-1.8586249351501465,6.679564476013184
1751620538657277400,13.55527734375,9.92243766784668,-0.9397810697555542,3.3678979873657227
1751620538676101000,13.57410107421875,9.850652694702148,-1.303490161895752,3.5545380115509033
1751620538694924800,13.5929248046875,10.176076889038086,-1.5332010984420776,1.5780665874481201
1751620538713748200,13.611748291015624,10.166504859924316,-0.8488538265228271,-0.7429714202880859
1751620538732572000,13.630572021484374,9.965508460998535,-0.7435696125030518,-2.0781664848327637
1751620538751395600,13.6493955078125,9.932008743286133,-0.19322042167186737,-2.307877540588379
1751620538770219300,13.66821923828125,9.908080101013184,0.2757728099822998,-1.3411771059036255
1751620538789043000,13.68704296875,10.094720840454102,0.6873382925987244,-1.2502498626708984
1751620538807866600,13.70586669921875,9.496515274047852,1.989033818244934,-3.1166515350341797
1751620538826690300,13.724690185546875,9.908080101013184,0.5437689423561096,-0.4989035129547119
1751620538845514000,13.743513916015624,9.874580383300781,1.591825246810913,-1.7623138427734375
1751620538864337700,13.762337646484376,9.850652694702148,1.9555343389511108,-2.293520450592041
1751620538883161000,13.7811611328125,9.88415241241455,1.587039589881897,-2.365305185317993
1751620538901984800,13.79998486328125,10.156933784484863,0.4815555512905121,-1.9680966138839722
1751620538920808400,13.818808349609375,10.080363273620605,-1.3417752981185913,-0.7812566161155701
1751620538939632000,13.837632080078125,9.817152976989746,-3.3134610652923584,2.262413740158081
1751620538958455800,13.856455810546874,10.00857925415039,-3.8590247631073,4.569094657897949
1751620538977279500,13.875279541015624,9.970293998718262,-0.6239284873008728,1.5302101373672485
1751620538996103200,13.894103271484376,9.683155059814453,-1.1120643615722656,2.2576282024383545
1751620539014926800,13.9129267578125,9.965508460998535,-1.9830517768859863,2.496910333633423
1751620539033750500,13.93175048828125,9.855438232421875,-1.3178470134735107,1.534995675086975
1751620539052574000,13.950573974609375,10.003793716430664,-0.5186443328857422,-0.12083754688501358
1751620539071397600,13.969397705078125,9.955936431884766,-0.001794616924598813,-1.6666009426116943
1751620539090221300,13.98822119140625,9.807581901550293,-0.08315058797597885,-1.8915263414382935
1751620539109045000,14.007044921875,9.89850902557373,-0.01615155301988125,-1.1114661693572998
1751620539127868700,14.02586865234375,10.070792198181152,1.1850453615188599,-1.9537396430969238
1751620539146692400,14.0446923828125,9.946365356445312,1.74496591091156,-3.867997884750366
1751620539165516000,14.06351611328125,9.917651176452637,1.3573286533355713,-1.1928220987319946
1751620539184339500,14.08233935546875,9.965508460998535,2.190030813217163,-2.7912275791168213
1751620539203163400,14.101163330078125,9.903294563293457,1.3812568187713623,-2.685943365097046
1751620539221986800,14.11998681640625,10.137791633605957,0.13220344483852386,-2.2265214920043945
1751620539240810500,14.138810546875,10.625926971435547,-0.9445667266845703,-1.0971091985702515
1751620539259634200,14.15763427734375,10.39621639251709,-1.662413477897644,0.3002992272377014
1751620539278457900,14.176457763671875,10.042078018188477,-1.4422738552093506,1.1186445951461792
1751620539297281500,14.195281494140625,9.93679428100586,-1.4135600328445435,2.4011974334716797
1751620539316105200,14.214105224609375,9.783653259277344,-2.9306094646453857,4.191029071807861
1751620539334929000,14.232928955078124,9.726225852966309,-1.6911274194717407,2.4059832096099854
1751620539353752600,14.251752685546874,9.68794059753418,-1.72941255569458,2.8893332481384277
1751620539372576000,14.270575927734376,10.597213745117188,-1.241276741027832,0.9032905697822571
1751620539391399700,14.289399658203125,9.81236743927002,-0.5904290080070496,-0.5515456199645996
1751620539410223400,14.308223388671875,10.018150329589844,-0.6143572330474854,-1.3651052713394165
1751620539429047000,14.327047119140625,9.903294563293457,-0.4468596279621124,-1.4464613199234009
1751620539447870700,14.34587060546875,10.042078018188477,0.5485545992851257,-2.0446670055389404
1751620539466694400,14.3646943359375,9.93679428100586,1.7641085386276245,-2.3126630783081055
1751620539485518000,14.38351806640625,9.850652694702148,2.5489542484283447,-1.8436698913574219
1751620539504341800,14.402341796875,9.855438232421875,0.4911268353462219,-0.13040883839130402
1751620539523165200,14.421165283203125,9.865009307861328,1.2376874685287476,-1.5038890838623047
1751620539541988900,14.43998876953125,9.879366874694824,1.8263218402862549,-2.3844478130340576
1751620539560812500,14.4588125,9.932008743286133,1.6588243246078491,-2.9587252140045166
1751620539579636200,14.47763623046875,10.051650047302246,0.06999006122350693,-2.599801778793335
1751620539598460000,14.4964599609375,10.118648529052734,-1.5044872760772705,-0.8578268885612488
1751620539617283600,14.51528369140625,9.908080101013184,-1.662413477897644,1.171286702156067
1751620539636107300,14.534107177734375,9.419944763183594,-1.9399809837341309,3.157329559326172
1751620539654931000,14.552930908203125,9.692726135253906,-3.390031576156616,4.856233596801758
1751620539673754600,14.571754638671875,9.754940032958984,-1.9974087476730347,3.535395383834839
1751620539692578300,14.590578369140625,9.486943244934082,-1.9208383560180664,2.8079774379730225
1751620539711401700,14.609401611328124,10.597213745117188,-1.4709876775741577,-0.11605189740657806
1751620539730225400,14.628225341796876,10.003793716430664,-0.2793620526790619,-1.566102385520935
1751620539749049000,14.647049072265625,9.778867721557617,0.07956135272979736,-0.7956135272979736
1751620539767872800,14.665872802734375,9.841081619262695,-0.054436713457107544,0.09451649338006973
1751620539786696400,14.684696533203125,9.908080101013184,1.165902853012085,-0.8769695162773132
1751620539805520100,14.70352001953125,9.850652694702148,2.2809581756591797,-2.6811578273773193
1751620539824343800,14.72234375,9.831509590148926,1.5726827383041382,-3.0448668003082275
1751620539843167500,14.74116748046875,9.965508460998535,0.24227328598499298,-0.9391828775405884
1751620539861991200,14.7599912109375,10.02293586730957,0.41934216022491455,-1.0683952569961548
1751620539880814600,14.778814697265625,9.960722923278809,0.5581258535385132,-2.0925233364105225
1751620539899638300,14.79763818359375,10.491929054260254,0.30927231907844543,-3.0065815448760986
1751620539918462000,14.8164619140625,8.108677864074707,0.4624129831790924,-2.5423741340637207
1751620539937285600,14.83528564453125,9.644869804382324,-0.9924231767654419,-1.5182459354400635
1751620539956109300,14.854109375,9.975079536437988,-1.0019944906234741,1.9130617380142212
1751620539974933000,14.87293310546875,9.644869804382324,-1.1024930477142334,3.817748546600342
1751620539993756700,14.891756591796875,9.745368003845215,-1.3561322689056396,2.764906644821167
1751620540012580400,14.910580322265625,9.89850902557373,-0.0975075215101242,0.20937198400497437
1751620540031404000,14.929404052734375,9.778867721557617,-0.8009973764419556,0.7501499056816101
1751620540050227500,14.9482275390625,10.209575653076172,-2.193620204925537,1.2813565731048584
1751620540069051100,14.967051025390624,10.080363273620605,-3.208176851272583,3.4061830043792725
1751620540087874800,14.985874755859374,9.77408218383789,-2.6147570610046387,3.3439695835113525
1751620540106698500,15.004698486328126,10.099506378173828,-0.32721850275993347,0.003589233849197626
1751620540125522200,15.023522216796875,9.903294563293457,2.290529489517212,-3.5952160358428955
1751620540144345900,15.042345947265625,9.88415241241455,4.032504558563232,-5.026124000549316
1751620540163169500,15.06116943359375,9.91286563873291,1.922034740447998,-3.6909289360046387
1751620540181993000,15.079992919921875,9.946365356445312,1.252044439315796,-1.4943177700042725
1751620540200816600,15.098816650390624,10.018150329589844,1.5391831398010254,-2.283949136734009
1751620540219640300,15.117640380859376,9.81236743927002,1.5056836605072021,-2.6668007373809814
1751620540238464000,15.136464111328126,9.582656860351562,0.5485545992851257,-2.221735715866089
1751620540257287700,15.15528759765625,10.233504295349121,-0.9302098155021667,-1.9872392416000366
1751620540276111400,15.174111328125,10.04686450958252,-1.662413477897644,-0.3601198196411133
1751620540294935000,15.19293505859375,9.965508460998535,-2.097907304763794,1.4727823734283447
1751620540313758700,15.2117587890625,10.042078018188477,-1.944766640663147,3.229114055633545
1751620540332582400,15.23058251953125,9.888937950134277,-1.7964116334915161,3.4923245906829834
1751620540351405800,15.24940576171875,10.003793716430664,-0.2267199456691742,0.30508488416671753
1751620540370229500,15.2682294921875,10.190433502197266,0.26620152592658997,0.4342973232269287
1751620540389053200,15.28705322265625,9.77408218383789,-1.0977073907852173,1.1473584175109863
1751620540407876900,15.305876953125,9.879366874694824,-2.9306094646453857,1.4488540887832642
1751620540426700500,15.324700439453125,9.874580383300781,-3.3230323791503906,0.9990034699440002
1751620540445524200,15.343524169921874,10.290931701660156,-1.9399809837341309,0.003589233849197626
1751620540464348000,15.362347900390626,9.573084831237793,-0.5234299302101135,-0.5611169338226318
1751620540483171600,15.381171630859376,10.00857925415039,1.6875381469726562,-1.7958134412765503
1751620540501995000,15.3999951171875,9.855438232421875,3.8745779991149902,-3.8871402740478516
1751620540520818700,15.418818603515625,9.865009307861328,1.6396816968917847,-1.451246976852417
1751620540539642400,15.437642333984375,9.89850902557373,1.49611234664917,-0.8578268885612488
1751620540558466000,15.456466064453124,10.032506942749023,1.3812568187713623,-1.412961721420288
1751620540577289700,15.475289794921874,9.989436149597168,1.2233306169509888,-2.1068804264068604
1751620540596113400,15.494113525390626,10.233504295349121,0.9888339638710022,-3.1788649559020996
1751620540614937000,15.51293701171875,9.946365356445312,0.17527425289154053,-2.623729944229126
1751620540633760800,15.5317607421875,10.176076889038086,-1.1072787046432495,-1.4799607992172241
1751620540652584400,15.55058447265625,9.984650611877441,-1.5571293830871582,0.1950150430202484
1751620540671407900,15.569407958984375,9.22851848602295,-1.5236297845840454,2.142772674560547
1751620540690231600,15.5882314453125,9.778867721557617,-2.9449665546417236,4.7605204582214355
1751620540709055200,15.60705517578125,9.592227935791016,-2.5429723262786865,3.205185890197754
1751620540727879000,15.62587890625,9.879366874694824,-2.4951157569885254,3.827319860458374
1751620540746702600,15.64470263671875,10.27178955078125,-2.231905221939087,1.5014961957931519
1751620540765526300,15.6635263671875,10.104291915893555,-1.9974087476730347,-1.168893814086914
1751620540784350000,15.682349853515625,10.099506378173828,-1.1599208116531372,-2.3461625576019287
1751620540803173400,15.70117333984375,9.845867156982422,0.21355941891670227,-2.7768707275390625
1751620540821997000,15.7199970703125,10.018150329589844,1.6588243246078491,-2.5471596717834473
1751620540840820700,15.73882080078125,9.908080101013184,3.2333016395568848,-2.733799934387207
1751620540859644400,15.75764453125,9.831509590148926,1.2999008893966675,-0.21655045449733734
1751620540878468000,15.776468017578125,9.960722923278809,1.6588243246078491,-1.5469598770141602
1751620540897291800,15.795291748046875,10.180862426757812,1.8263218402862549,-1.8580267429351807
1751620540916115500,15.814115478515625,9.893723487854004,1.3764712810516357,-1.7240287065505981
1751620540934939100,15.832939208984374,9.89850902557373,-0.13100704550743103,-1.6713865995407104
1751620540953762800,15.8517626953125,9.989436149597168,-2.3228325843811035,-0.6759724020957947
1751620540972586200,15.870586181640626,10.2478609085083,-2.877967357635498,0.5491527915000916
1751620540991410000,15.889409912109375,8.611170768737793,-0.600000262260437,0.7884350419044495
1751620541010233600,15.908233642578125,10.817353248596191,-0.13579268753528595,2.7218358516693115
1751620541029057300,15.927057373046875,10.018150329589844,-0.29850462079048157,1.085145115852356
1751620541047881000,15.945880859375,9.960722923278809,0.0029910283628851175,1.195214867591858
1751620541066704600,15.96470458984375,9.79801082611084,-1.571486234664917,1.3148560523986816
1751620541085528300,15.9835283203125,10.032506942749023,-3.4331023693084717,0.9798609018325806
1751620541104352000,16.00235205078125,10.219147682189941,-3.4474592208862305,-0.1543370634317398
1751620541123175400,16.021175537109375,9.932008743286133,-2.2749760150909424,0.39601215720176697
1751620541141999000,16.0399990234375,10.2478609085083,-1.064207911491394,0.20937198400497437
1751620541160822800,16.05882275390625,9.893723487854004,2.0895323753356934,-3.2745778560638428
1751620541179646500,16.077646484375,9.821938514709473,4.826921463012695,-5.533402442932129
1751620541198470100,16.09647021484375,9.879366874694824,2.108675003051758,-0.42711883783340454
1751620541217293800,16.1152939453125,9.841081619262695,1.7784653902053833,-1.0301101207733154
1751620541236117500,16.134117431640625,9.960722923278809,1.3621143102645874,-1.8580267429351807
1751620541254941000,16.15294091796875,9.927223205566406,0.9505487680435181,-2.307877540588379
1751620541273764600,16.1717646484375,10.214361190795898,0.6921239495277405,-2.9252257347106934
1751620541292588300,16.19058837890625,10.13300609588623,0.2805584669113159,-2.853440999984741
1751620541311412000,16.209411865234376,9.558728218078613,-1.0737791061401367,-1.2885349988937378
1751620541330235600,16.228235595703126,10.00857925415039,-2.3563320636749268,0.3194418251514435
1751620541349059300,16.247059326171875,9.850652694702148,-3.002394199371338,3.008974552154541
1751620541367883000,16.265883056640625,9.769296646118164,-2.3324038982391357,4.277170658111572
1751620541386706700,16.284706787109375,9.582656860351562,-0.5856433510780334,0.008374879136681557
1751620541405530400,16.3035302734375,10.219147682189941,-0.03529413416981697,-0.2356930375099182
1751620541424353800,16.322353759765626,9.855438232421875,-0.9541380405426025,1.415354609489441
1751620541443177500,16.341177490234376,9.807581901550293,-1.5284154415130615,1.3674981594085693
1751620541462001200,16.360001220703126,9.989436149597168,-1.2652050256729126,0.5108676552772522
1751620541480824800,16.378824951171875,9.970293998718262,-1.327418327331543,0.50129634141922
1751620541499648500,16.3976484375,10.032506942749023,-0.7674978375434875,0.5587241053581238
1751620541518472200,16.41647216796875,9.88415241241455,0.8548358678817749,-0.4127618968486786
1751620541537296000,16.4352958984375,9.874580383300781,2.400599241256714,-1.4416756629943848
1751620541556119600,16.45411962890625,9.955936431884766,3.094517946243286,-2.8486554622650146
1751620541574943000,16.47294287109375,9.970293998718262,1.017547845840454,-1.604387640953064
1751620541593766700,16.4917666015625,9.946365356445312,1.2185449600219727,-1.0205388069152832
1751620541612590300,16.51059033203125,9.984650611877441,0.8500502705574036,-1.1162517070770264
1751620541631414000,16.5294140625,10.080363273620605,0.6299105882644653,-2.011167526245117
1751620541650237700,16.54823779296875,10.003793716430664,0.29012975096702576,-3.394218921661377
1751620541669061400,16.567061279296876,9.046664237976074,-0.48035913705825806,-4.9160542488098145
1751620541687885000,16.585885009765626,10.113862991333008,-1.7964116334915161,-1.934597134590149
1751620541706708500,16.60470849609375,10.367502212524414,-2.9353952407836914,3.3104701042175293
1751620541725532200,16.6235322265625,8.501100540161133,-2.490330219268799,7.062416076660156
1751620541744355800,16.64235595703125,9.496515274047852,-0.666999340057373,3.0041887760162354
1751620541763179500,16.661179443359377,9.908080101013184,-0.9924231767654419,2.0853450298309326
1751620541782003200,16.680003173828126,9.865009307861328,-1.2029916048049927,0.4582255482673645
1751620541800827000,16.698826904296876,10.668997764587402,-0.8823533654212952,-1.29810631275177
1751620541819650600,16.717650634765626,10.238289833068848,-0.5473581552505493,-1.8915263414382935
1751620541838474200,16.73647412109375,10.027721405029297,0.357128769159317,-0.9535398483276367
1751620541857297700,16.755297607421873,9.754940032958984,0.6873382925987244,0.9798609018325806
1751620541876121300,16.774121337890627,9.994221687316895,0.7447660565376282,0.061016976833343506
1751620541894945000,16.792945068359376,9.78843879699707,1.4769697189331055,-1.5086746215820312
1751620541913768700,16.811768798828126,9.817152976989746,0.9649057388305664,-1.6426727771759033
1751620541932592400,16.83059228515625,9.941579818725586,0.5868397355079651,-0.5563312768936157
1751620541951416000,16.849416015625,9.984650611877441,0.5868397355079651,-0.1543370634317398
1751620541970239700,16.86823974609375,9.955936431884766,0.4384847581386566,-0.16390834748744965
1751620541989063200,16.887063232421873,9.893723487854004,1.170688509941101,-0.9726824164390564
1751620542007886800,16.905886962890627,10.180862426757812,1.0462616682052612,-2.3700907230377197
1751620542026710500,16.92471044921875,9.640084266662598,0.9601200819015503,-4.18863582611084
1751620542045534200,16.9435341796875,9.91286563873291,0.09391828626394272,-1.6522440910339355
1751620542064358000,16.96235791015625,10.37228775024414,-1.5284154415130615,1.2430713176727295
1751620542083181600,16.981181640625,9.625727653503418,-2.815753936767578,4.353740692138672
1751620542102005200,17.000005126953123,9.77408218383789,-2.270190477371216,2.568695068359375
1751620542120829000,17.018828857421877,9.764511108398438,-2.1266210079193115,3.1477582454681396
1751620542139652400,17.03765234375,9.89850902557373,-2.547757863998413,2.1571295261383057
1751620542158476000,17.05647607421875,9.860223770141602,-1.2987045049667358,-0.22612173855304718
1751620542177299700,17.0752998046875,10.00857925415039,-0.25064817070961,-1.5804593563079834
1751620542196123400,17.094123291015624,9.783653259277344,0.07956135272979736,-1.2789636850357056
1751620542214947000,17.112947021484374,10.089935302734375,0.6825526356697083,-1.0875378847122192
1751620542233770800,17.131770751953123,9.821938514709473,1.3860424757003784,-1.2215359210968018
1751620542252594200,17.15059423828125,10.018150329589844,2.3431715965270996,-2.915654420852661
1751620542271417900,17.16941796875,9.960722923278809,0.6538388133049011,-1.7766708135604858
1751620542290241500,17.188241455078124,9.88415241241455,1.414756417274475,-1.3794622421264648
1751620542309065200,17.207065185546874,9.93679428100586,1.5726827383041382,-2.14516544342041
1751620542327889000,17.225888916015624,10.02293586730957,0.9553344249725342,-2.638087034225464
1751620542346712600,17.244712646484373,10.233504295349121,0.1657029688358307,-2.4705893993377686
1751620542365536300,17.263536376953127,10.080363273620605,-0.8679963946342468,-1.144965648651123
1751620542384359700,17.282359619140625,10.89392375946045,-1.4901303052902222,0.5587241053581238
1751620542403183400,17.301183349609374,10.2478609085083,-0.753140926361084,1.6115660667419434
1751620542422007000,17.320007080078124,9.989436149597168,-1.2556337118148804,2.4634108543395996
1751620542440830700,17.338830810546874,9.975079536437988,-1.8729819059371948,2.42512583732605
1751620542459654400,17.357654296875,10.02293586730957,-0.32721850275993347,0.3529413342475891
1751620542478478000,17.37647802734375,9.941579818725586,-0.6191428303718567,0.745364248752594
1751620542497301800,17.3953017578125,9.93679428100586,-2.1170499324798584,2.2097716331481934
1751620542516125200,17.414125244140624,9.769296646118164,-3.4857444763183594,2.946761131286621
1751620542534948900,17.432948974609374,9.764511108398438,-3.9595232009887695,1.534995675086975
1751620542553772500,17.4517724609375,10.429716110229492,-2.179263114929199,-0.776470959186554
1751620542572596200,17.47059619140625,9.927223205566406,0.7016952633857727,-2.39401912689209
1751620542591420000,17.489419921875,9.860223770141602,3.204587697982788,-3.4947173595428467
1751620542610243600,17.50824365234375,9.91286563873291,4.386641979217529,-3.686143398284912
1751620542629067300,17.5270673828125,9.845867156982422,0.8069794178009033,-0.11126625537872314
1751620542647891000,17.545890869140624,9.917651176452637,0.012562318705022335,-0.09212367236614227
1751620542666714400,17.56471435546875,9.908080101013184,-0.3080759048461914,-0.08733802288770676
1751620542685538000,17.5835380859375,9.903294563293457,0.19920247793197632,0.28115665912628174
1751620542704361700,17.60236181640625,9.927223205566406,0.8261220455169678,-0.10169496387243271
1751620542723185400,17.621185302734375,9.93679428100586,1.8454644680023193,-2.025524377822876
1751620542742009000,17.640009033203125,9.979865074157715,2.0656042098999023,-3.2315070629119873
1751620542760832800,17.658832763671874,9.955936431884766,1.414756417274475,-3.2410783767700195
1751620542779656400,17.677656494140624,10.37228775024414,0.16091732680797577,-2.3365912437438965
1751620542798480000,17.69647998046875,7.8693952560424805,-1.3465609550476074,0.14715859293937683
1751620542817303600,17.715303466796875,9.458230018615723,-2.3611178398132324,2.9515466690063477
1751620542836127200,17.734127197265625,9.553942680358887,-1.5810575485229492,3.324826955795288
1751620542854951000,17.752950927734375,9.750154495239258,-0.8153542876243591,0.5156532526016235
1751620542873774600,17.771774658203125,9.874580383300781,-1.155135154724121,0.23808585107326508
1751620542892598300,17.790598388671874,9.999007225036621,-0.6957131624221802,-0.22612173855304718
1751620542911421700,17.809421630859376,10.02293586730957,-0.45643091201782227,0.1136590763926506
1751620542930245400,17.828245361328126,10.003793716430664,-2.954537868499756,1.439282774925232
1751620542949069000,17.847069091796875,9.893723487854004,-4.026522159576416,3.8464624881744385
1751620542967892700,17.865892822265625,9.501300811767578,-2.571686029434204,2.5016961097717285
1751620542986716400,17.88471630859375,10.41057300567627,-0.42771705985069275,-0.24047867953777313
1751620543005540000,17.9035400390625,9.975079536437988,1.3668999671936035,-2.0685951709747314
1751620543033775600,17.931775634765625,9.821938514709473,3.1040892601013184,-2.6189444065093994
1751620543052599000,17.95059912109375,9.946365356445312,3.965505361557007,-3.59043025970459
1751620543071422700,17.969422607421876,9.975079536437988,2.1613171100616455,-2.9826533794403076
1751620543090246400,17.988246337890626,9.965508460998535,1.8454644680023193,-2.0398812294006348
1751620543109070000,18.007070068359376,10.051650047302246,1.4003994464874268,-2.480160713195801
1751620543127893800,18.025893798828125,10.080363273620605,0.6825526356697083,-3.2889347076416016
1751620543146717400,18.044717529296875,10.166504859924316,-0.7579265832901001,-3.4133615493774414
1751620543165540900,18.063540771484377,9.946365356445312,-1.9399809837341309,-2.5902304649353027
1751620543184364500,18.082364501953126,9.965508460998535,-1.9256240129470825,-1.0396814346313477
1751620543203188200,18.101188232421876,10.28614616394043,-2.193620204925537,0.7310073375701904
1751620543222012000,18.120011962890626,10.066006660461426,-2.5334010124206543,3.377469062805176
1751620543240835600,18.138835693359376,10.03729248046875,-2.916252613067627,4.444668292999268
1751620543259659300,18.1576591796875,9.802796363830566,-1.174277663230896,0.8937192559242249
1751620543278483000,18.17648291015625,10.018150329589844,-1.571486234664917,1.6689938306808472
1751620543297306600,18.195306640625,9.821938514709473,-0.9349954724311829,1.5014961957931519
1751620543316130000,18.214130126953126,9.78843879699707,-0.633499801158905,-0.27397820353507996
1751620543334953700,18.23295361328125,10.324431419372559,-0.4899304509162903,-0.747757077217102
1751620543353777400,18.25177734375,9.855438232421875,-1.9878374338150024,1.2574282884597778
1751620543372601000,18.27060107421875,10.113862991333008,-1.6145570278167725,1.7216359376907349
1751620543391424800,18.2894248046875,10.00857925415039,0.26620152592658997,-0.3696911036968231
1751620543410248400,18.30824853515625,9.91286563873291,1.4865410327911377,-1.451246976852417
1751620543429072000,18.32707177734375,9.865009307861328,1.4913266897201538,-0.98703932762146
1751620543447895600,18.3458955078125,9.831509590148926,1.8263218402862549,-1.0205388069152832
1751620543466719200,18.36471923828125,9.821938514709473,2.0656042098999023,-0.8243274092674255
1751620543485543000,18.38354296875,9.903294563293457,0.8691928386688232,-1.633101463317871
1751620543504366600,18.40236669921875,9.970293998718262,0.20877377688884735,-1.542174220085144
1751620543523190300,18.421190185546877,9.999007225036621,0.33798620104789734,-1.657029628753662
1751620543542014000,18.440013916015626,9.979865074157715,1.6971094608306885,-3.049652576446533
1751620543560837400,18.45883740234375,10.027721405029297,1.835893154144287,-3.8009986877441406
1751620543579661000,18.4776611328125,10.214361190795898,0.9601200819015503,-3.2410783767700195
1751620543598484700,18.496484619140624,9.668798446655273,-0.8009973764419556,-0.2787638306617737
1751620543617308400,18.515308349609374,10.075577735900879,-2.6291139125823975,3.1621150970458984
1751620543636132000,18.534132080078123,9.78843879699707,-3.61017107963562,4.320241451263428
1751620543654955800,18.552955810546877,10.16171932220459,-0.7627122402191162,0.31465616822242737
1751620543673779200,18.571779296875,9.927223205566406,0.251844584941864,-0.8195417523384094
1751620543692603000,18.590602783203124,9.879366874694824,-0.45164528489112854,-0.16390834748744965
1751620543711426600,18.609426513671874,9.93679428100586,0.1944168359041214,-0.029910283163189888
1751620543730250200,18.628250244140624,9.88415241241455,-2.1649062633514404,1.994417667388916
1751620543749074000,18.647073974609373,9.855438232421875,-3.0167510509490967,3.5736806392669678
1751620543767897600,18.665897705078127,10.094720840454102,-1.7964116334915161,1.511067509651184
1751620543786721000,18.684720947265625,9.984650611877441,-0.13579268753528595,-1.5469598770141602
1751620543805544700,18.703544677734374,9.979865074157715,0.7304090857505798,-2.6811578273773193
1751620543824368400,18.722368408203124,9.946365356445312,1.0271191596984863,-1.9489539861679077
1751620543843192000,18.741192138671874,9.927223205566406,0.5772684812545776,0.6305087804794312
1751620543862015700,18.760015625,9.89850902557373,1.319043517112732,0.22372891008853912
1751620543880839400,18.77883935546875,9.91286563873291,1.721037745475769,-2.441875457763672
1751620543899663000,18.7976630859375,9.92243766784668,0.9314061999320984,-1.1497513055801392
1751620543918486800,18.81648681640625,9.91286563873291,1.6588243246078491,-1.456032633781433
1751620543937310200,18.835310302734374,9.917651176452637,1.9459630250930786,-2.7864420413970947
1751620543956134000,18.8541337890625,9.984650611877441,1.074975609779358,-3.269792079925537
1751620543974957600,18.87295751953125,9.8267240524292,0.22791635990142822,-3.504288673400879
1751620543993781200,18.89178125,10.070792198181152,-0.389431893825531,-2.6572296619415283
1751620544012605000,18.91060498046875,10.233504295349121,-1.571486234664917,-0.13040883839130402
1751620544031428600,18.9294287109375,9.778867721557617,-3.208176851272583,3.559323787689209
1751620544050252000,18.948251953125,9.802796363830566,-3.4091739654541016,4.956732273101807
1751620544069075700,18.96707568359375,10.066006660461426,-1.1455638408660889,1.022931694984436
1751620544087899400,18.9858994140625,9.855438232421875,-1.0354939699172974,1.7599210739135742
1751620544106723000,19.00472314453125,10.066006660461426,0.2997010350227356,-0.8147560954093933
1751620544125546800,19.023546630859375,9.89850902557373,1.280758261680603,-3.542573928833008
1751620544144370400,19.042370361328125,9.802796363830566,0.23748764395713806,-0.6664010882377625
1751620544163193900,19.06119384765625,9.903294563293457,-0.42293140292167664,0.41994038224220276
1751620544182017500,19.080017578125,9.903294563293457,-0.32721850275993347,1.1282159090042114
1751620544200841200,19.09884130859375,9.888937950134277,-0.8488538265228271,2.066202402114868
1751620544219665000,19.117664794921875,9.92243766784668,-0.5473581552505493,1.26699960231781
1751620544238488600,19.136488525390625,9.927223205566406,0.1704886108636856,-0.27397820353507996
1751620544257312300,19.155312255859375,9.951150894165039,-0.4133601188659668,-0.1543370634317398
1751620544276135700,19.1741357421875,9.984650611877441,-0.4420739710330963,0.625723123550415
1751620544294959400,19.19295947265625,9.951150894165039,0.4289134442806244,-0.13998012244701385
1751620544313783000,19.211782958984376,9.917651176452637,1.1276177167892456,-1.1832507848739624
1751620544332606700,19.230606689453126,9.91286563873291,1.103689432144165,-1.29810631275177
1751620544351430400,19.249430419921875,9.917651176452637,1.103689432144165,-1.389033555984497
1751620544370254000,19.268254150390625,9.874580383300781,0.5102694034576416,-0.6951149702072144
1751620544389077800,19.287077880859375,9.908080101013184,0.14656038582324982,-0.1782652884721756
1751620544407901200,19.305901123046876,9.89850902557373,0.17527425289154053,-0.6711867451667786
1751620544426724900,19.324724853515626,9.927223205566406,-0.24586252868175507,-0.8961120843887329
1751620544445548500,19.343548583984376,9.908080101013184,0.26620152592658997,0.17587246000766754
1751620544464372200,19.362372314453125,9.965508460998535,0.12263216078281403,-0.039481572806835175
1751620544483196000,19.38119580078125,9.946365356445312,0.18963119387626648,0.2763710021972656
1751620544502019600,19.40001953125,9.955936431884766,0.34277185797691345,-0.5467599630355835
1751620544520843000,19.418843017578126,9.979865074157715,1.2616157531738281,-2.963510751724243
1751620544539666700,19.437666748046876,9.927223205566406,1.9411773681640625,-3.269792079925537
1751620544558490400,19.456490478515626,9.927223205566406,1.3046865463256836,-2.748156785964966
1751620544577314000,19.47531396484375,9.946365356445312,0.2757728099822998,-1.9010975360870361
1751620544596137700,19.4941376953125,9.845867156982422,-0.39900317788124084,-0.25004997849464417
1751620544614961400,19.51296142578125,10.013364791870117,-1.5140584707260132,2.396411895751953
1751620544633784800,19.531784912109377,10.032506942749023,-2.2654049396514893,3.7363924980163574
1751620544652608500,19.5506083984375,9.266803741455078,-1.6959130764007568,2.276770830154419
1751620544671432200,19.56943212890625,10.252646446228027,-0.8344969153404236,-0.503689169883728
1751620544690256000,19.588255859375,9.903294563293457,-0.10229317098855972,-0.4701896607875824
1751620544709079600,19.60707958984375,9.979865074157715,-0.39900317788124084,0.1902294009923935
1751620544727903200,19.6259033203125,9.726225852966309,-1.7916259765625,2.4155545234680176
1751620544746726700,19.6447265625,9.979865074157715,-2.815753936767578,3.2004003524780273
1751620544765550300,19.66355029296875,10.0612211227417,-2.9593234062194824,1.357926845550537
1751620544784374000,19.6823740234375,10.137791633605957,-1.7676976919174194,-0.45104706287384033
1751620544803197700,19.70119775390625,9.893723487854004,-0.5904290080070496,-1.561316728591919
1751620544822021400,19.720021484375,10.027721405029297,1.3094722032546997,-2.6572296619415283
1751620544840845000,19.738844970703123,9.984650611877441,3.50129771232605,-4.2795634269714355
1751620544859668500,19.75766845703125,9.941579818725586,2.4388844966888428,-3.236292600631714
1751620544878492200,19.7764921875,9.908080101013184,2.108675003051758,-1.4895321130752563
1751620544897315800,19.79531591796875,9.93679428100586,1.5726827383041382,-1.6235301494598389
1751620544916139500,19.814139404296874,9.970293998718262,0.97926265001297,-1.939382791519165
1751620544934963200,19.832963134765624,9.979865074157715,0.3236292600631714,-2.5232315063476562
1751620544953787000,19.851786865234374,10.042078018188477,-0.2793620526790619,-2.441875457763672
1751620544972610300,19.8706103515625,9.946365356445312,-1.0211371183395386,-1.140179991722107
1751620544991434000,19.88943408203125,9.716654777526855,-1.4087743759155273,1.200000524520874
1751620545010257700,19.908257568359375,10.16171932220459,-2.8588249683380127,3.8847475051879883
1751620545029081300,19.927081298828124,9.400801658630371,-3.1316065788269043,3.70767879486084
1751620545047905000,19.945905029296874,10.128219604492188,-0.13579268753528595,0.865005373954773
1751620545066728700,19.964728759765624,9.735796928405762,0.3858426511287689,-0.2787638306617737
1751620545085552000,19.98355224609375,9.860223770141602,-0.20757736265659332,-1.0923235416412354
1751620545104375800,20.002375732421875,9.91286563873291,-0.7722834944725037,-0.9774680733680725
1751620545123199500,20.021199462890625,10.032506942749023,-1.7150555849075317,0.5300102233886719
1751620545142023200,20.040023193359374,9.999007225036621,-2.7966115474700928,2.606980323791504
1751620545160846800,20.058846923828124,9.946365356445312,-2.4233310222625732,2.5878376960754395
1751620545179670500,20.07767041015625,9.888937950134277,-0.13579268753528595,-0.4654040038585663
1751620545198494200,20.096494140625,9.92243766784668,2.9557342529296875,-3.1310083866119385
1751620545217317600,20.115317626953125,9.850652694702148,3.865006685256958,-3.2506494522094727
1751620545236141300,20.134141357421875,9.92243766784668,0.6538388133049011,-0.6759724020957947
1751620545254965000,20.152965087890625,9.960722923278809,0.39541393518447876,-0.2883351147174835
1751620545273788700,20.17178857421875,9.93679428100586,0.4289134442806244,-0.19262222945690155
1751620545292612400,20.1906123046875,9.917651176452637,0.529412031173706,-0.24047867953777313
1751620545311436000,20.20943603515625,9.893723487854004,0.2231307178735733,-0.2787638306617737
1751620545330259500,20.228259521484375,9.89850902557373,-0.12622138857841492,0.3529413342475891
1751620545349083100,20.247083251953125,9.908080101013184,0.1178465187549591,0.23808585107326508
1751620545367906800,20.26590673828125,9.927223205566406,0.5150550603866577,-0.7525427341461182
1751620545386730500,20.28473046875,9.960722923278809,1.1419745683670044,-2.5184457302093506
1751620545405554200,20.30355419921875,9.865009307861328,1.409970760345459,-3.1214370727539062
1751620545424377900,20.3223779296875,10.099506378173828,0.97926265001297,-2.317448616027832
1751620545443201300,20.341201171875,9.888937950134277,-0.04007977992296219,0.2955136001110077
1751620545462025000,20.36002490234375,9.778867721557617,-1.2556337118148804,2.3820550441741943
1751620545480848600,20.3788486328125,9.903294563293457,-2.0787646770477295,3.1956145763397217
1751620545499672300,20.39767236328125,9.93679428100586,-1.1168500185012817,0.9176474809646606
1751620545518496000,20.41649609375,9.759725570678711,-0.6526423692703247,0.1663011759519577
1751620545537319700,20.435319580078126,9.850652694702148,-1.2747762203216553,0.5778666734695435
1751620545556143000,20.45414306640625,9.92243766784668,-2.5812573432922363,1.932204246520996
1751620545574966800,20.472966796875,9.941579818725586,-2.815753936767578,1.597209095954895
1751620545593790500,20.49179052734375,10.042078018188477,-2.8827531337738037,0.8937192559242249
1751620545612614100,20.5106142578125,9.960722923278809,-1.7916259765625,-0.2356930375099182
1751620545631437800,20.529437744140626,9.865009307861328,0.3188436031341553,-2.097309112548828
1751620545650261500,20.548261474609376,9.91286563873291,2.132603168487549,-3.0687949657440186
1751620545669085000,20.5670849609375,9.955936431884766,3.032304525375366,-3.7770705223083496
1751620545687908600,20.58590869140625,9.93679428100586,3.0131618976593018,-1.8388842344284058
1751620545706732300,20.604732177734373,9.932008743286133,0.3762713670730591,0.7214360237121582
1751620545725556000,20.623555908203127,9.927223205566406,0.4001995921134949,0.6879364848136902
1751620545744379600,20.642379638671876,9.92243766784668,0.46719861030578613,-0.005982056725770235
1751620545763203300,20.661203369140626,9.941579818725586,0.17527425289154053,-0.4941178858280182
1751620545782026800,20.68002685546875,9.893723487854004,1.0558329820632935,-1.164108157157898
1751620545800850400,20.698850341796874,9.917651176452637,1.6636099815368652,-3.2267212867736816
1751620545819674000,20.717674072265623,9.855438232421875,1.3381860256195068,-3.8488552570343018
1751620545838497800,20.736497802734377,9.917651176452637,0.768694281578064,-3.466003656387329
1751620545857321500,20.755321533203126,9.941579818725586,0.4145565330982208,-2.0925233364105225
1751620545876145200,20.774145263671876,9.908080101013184,-0.11665010452270508,-0.5994020700454712
1751620545894968600,20.792968505859374,9.893723487854004,-1.6576279401779175,2.2480568885803223
1751620545913792300,20.811792236328124,9.91286563873291,-3.696312665939331,5.507081508636475
1751620545932616000,20.830615966796874,9.57787036895752,-3.8877387046813965,3.6885361671447754
1751620545951439600,20.849439697265623,10.200004577636719,-2.624328136444092,3.0616166591644287
1751620545970263300,20.86826318359375,10.080363273620605,-2.2031915187835693,1.1856436729431152
1751620545989087000,20.8870869140625,9.965508460998535,-1.212562918663025,-1.23589289188385
1751620546007910400,20.905910400390624,9.951150894165039,0.16091732680797577,-2.9252257347106934
1751620546026734000,20.924734130859374,9.946365356445312,1.0079765319824219,-2.073380708694458
1751620546045557800,20.943557861328124,9.850652694702148,1.4769697189331055,-1.7288143634796143
1751620546064381400,20.96238134765625,9.893723487854004,1.8598214387893677,-2.80558443069458
1751620546083205000,20.981205078125,9.865009307861328,0.2470589429140091,0.4342973232269287
1751620546102028800,21.00002880859375,9.89850902557373,0.16091732680797577,-0.09212367236614227
1751620546120852200,21.018852294921874,9.946365356445312,0.5533402562141418,0.05623133108019829
1751620546139676000,21.037676025390624,9.932008743286133,0.8309076428413391,-0.0011964113218709826
1751620546158499600,21.05649951171875,9.92243766784668,1.2233306169509888,-1.0301101207733154
1751620546177323300,21.0753232421875,9.850652694702148,1.3381860256195068,-3.198007345199585
1751620546196147000,21.09414697265625,9.960722923278809,1.1754741668701172,-4.289134502410889
1751620546214970600,21.112970703125,10.118648529052734,1.012762188911438,-3.1453654766082764
1751620546233794000,21.1317939453125,10.166504859924316,0.4624129831790924,-0.3170489966869354
1751620546252617700,21.15061767578125,9.965508460998535,-0.9158528447151184,3.0999016761779785
1751620546271441400,21.16944140625,9.013164520263672,-3.586242914199829,5.698507308959961
1751620546290265000,21.18826513671875,9.88415241241455,-3.9595232009887695,4.564309120178223
1751620546309088800,21.2070888671875,9.946365356445312,-4.002593994140625,3.056830883026123
1751620546327912200,21.225912109375,10.334002494812012,-2.830111026763916,-0.14476576447486877
1751620546346735900,21.24473583984375,10.032506942749023,-0.633499801158905,-2.551945447921753
1751620546365559600,21.2635595703125,10.003793716430664,0.5629115104675293,-3.379862070083618
1751620546384383200,21.28238330078125,9.951150894165039,0.97926265001297,-2.1068804264068604
1751620546403207000,21.30120703125,9.865009307861328,1.43389892578125,-1.2502498626708984
1751620546422030600,21.320030517578125,9.908080101013184,1.8454644680023193,-1.3794622421264648
1751620546440854000,21.33885400390625,9.955936431884766,0.31405797600746155,0.22851456701755524
1751620546459677700,21.357677734375,9.888937950134277,0.12263216078281403,-0.020338991656899452
1751620546478501400,21.37650146484375,9.92243766784668,0.4289134442806244,0.22372891008853912
1751620546497325000,21.395324951171876,9.778867721557617,0.7830511927604675,-0.5946164131164551
1751620546516148700,21.414148681640626,10.262218475341797,0.5054838061332703,-1.8771693706512451
1751620546534972400,21.432972412109375,9.539586067199707,1.1324033737182617,-3.59043025970459
1751620546553795800,21.4517958984375,9.855438232421875,0.9409775137901306,-2.7385854721069336
1751620546572619500,21.47061962890625,10.453643798828125,0.0029910283628851175,-0.8386843204498291
1751620546591443200,21.489443115234376,7.58225679397583,0.0029910283628851175,2.726621389389038
1751620546610267000,21.508266845703126,9.635298728942871,-1.2843475341796875,4.320241451263428
1751620546629090600,21.527090576171876,9.841081619262695,-2.207977056503296,2.664407968521118
1751620546647914200,21.545914306640626,9.587442398071289,-2.341975212097168,2.166700839996338
1751620546666737700,21.564737548828123,9.79801082611084,-2.2031915187835693,0.6400800347328186
1751620546685561300,21.583561279296877,10.405787467956543,-2.1649062633514404,-0.9152546525001526
1751620546713796900,21.611796875,10.04686450958252,-2.0644078254699707,-0.3840480446815491
1751620546732620500,21.63062060546875,10.099506378173828,-0.4181457459926605,-0.48454657196998596
1751620546751444200,21.6494443359375,9.984650611877441,1.1994023323059082,-1.2646067142486572
1751620546770267600,21.668267578125,9.932008743286133,2.0751755237579346,-1.9010975360870361
1751620546789091300,21.68709130859375,9.893723487854004,2.630310297012329,-2.1930220127105713
1751620546807915000,21.7059150390625,9.970293998718262,1.2424731254577637,-0.8769695162773132
1751620546826738700,21.72473876953125,9.91286563873291,-0.12622138857841492,0.22851456701755524
1751620546845562400,21.743562255859374,9.89850902557373,0.24227328598499298,0.3577269911766052
1751620546864386000,21.762385986328123,9.888937950134277,0.649053156375885,-0.04426721855998039
1751620546883209500,21.78120947265625,9.879366874694824,1.1611171960830688,-1.2023934125900269
1751620546902033200,21.800033203125,9.917651176452637,1.103689432144165,-1.719243049621582
1751620546920856800,21.81885693359375,9.917651176452637,0.39541393518447876,-3.3846476078033447
1751620546939680500,21.837680419921874,10.056435585021973,0.33798620104789734,-3.6335012912750244
1751620546958504200,21.856504150390624,10.013364791870117,-0.3367897868156433,-2.073380708694458
1751620546977327900,21.875327880859373,9.893723487854004,-0.9493523836135864,1.6498512029647827
1751620546996151300,21.8941513671875,10.027721405029297,-2.169692039489746,3.631108283996582
1751620547014975000,21.91297509765625,9.697511672973633,-1.7437695264816284,4.411168575286865
1751620547033798700,21.931798583984374,10.295717239379883,-1.3369896411895752,2.142772674560547
1751620547052622300,21.950622314453124,9.917651176452637,-2.94975209236145,2.640479803085327
1751620547071446000,21.969446044921874,9.91286563873291,-3.0550363063812256,0.5778666734695435
1751620547090269400,21.98826953125,9.89850902557373,-1.7724833488464355,-1.8197416067123413
1751620547109093000,22.007093017578125,9.927223205566406,-0.20757736265659332,-2.3461625576019287
1751620547127916800,22.025916748046875,9.831509590148926,0.5006981492042542,-1.1210373640060425
1751620547146740500,22.044740478515624,9.893723487854004,0.649053156375885,-0.21176479756832123
1751620547165564200,22.063564208984374,9.869794845581055,1.9411773681640625,-2.0542383193969727
1751620547184387600,22.0823876953125,9.888937950134277,2.974876642227173,-2.5471596717834473
1751620547203211300,22.101211181640625,9.91286563873291,0.46719861030578613,0.6640082597732544
1751620547222035000,22.120034912109375,9.989436149597168,1.5056836605072021,-1.0013962984085083
1751620547240858600,22.138858642578125,9.984650611877441,2.1134605407714844,-2.4227328300476074
1751620547259682300,22.157682373046875,9.92243766784668,1.984248161315918,-3.0927233695983887
1751620547278506000,22.176506103515624,10.118648529052734,1.1467602252960205,-3.4277184009552
1751620547297329400,22.195329345703126,9.78843879699707,-0.10707881301641464,-2.365305185317993
1751620547316153000,22.214153076171876,9.999007225036621,-1.308275818824768,-0.259621262550354
1751620547334976800,22.232976806640625,9.740582466125488,-1.8299111127853394,2.42512583732605
1751620547353800400,22.251800537109375,9.932008743286133,-2.035693883895874,3.5880374908447266
1751620547372624100,22.2706240234375,10.018150329589844,-1.3561322689056396,1.6450655460357666
1751620547391447800,22.28944775390625,9.888937950134277,-2.1888344287872314,1.4775680303573608
1751620547410271200,22.308271240234376,9.965508460998535,-3.648456335067749,2.7553353309631348
1751620547429095000,22.327094970703126,9.845867156982422,-4.174877166748047,1.6689938306808472
1751620547447918600,22.345918701171875,9.989436149597168,-3.3469607830047607,-0.7716853022575378
1751620547466742300,22.3647421875,9.93679428100586,-1.3992030620574951,-1.1593226194381714
1751620547485566000,22.38356591796875,9.965508460998535,0.49591249227523804,-1.9776679277420044
1751620547504389600,22.4023896484375,9.841081619262695,3.1519455909729004,-3.2650065422058105
1751620547523213000,22.421213134765626,9.879366874694824,4.5206403732299805,-3.8057844638824463
1751620547542036700,22.44003662109375,9.869794845581055,0.7399803996086121,-0.058624155819416046
1751620547560860400,22.4588603515625,9.893723487854004,0.8691928386688232,-0.04905286431312561
1751620547579684000,22.47768408203125,9.874580383300781,0.4624129831790924,0.23330020904541016
1751620547598507800,22.4965078125,9.869794845581055,0.8548358678817749,-0.7094719409942627
1751620547617331200,22.515331298828126,9.874580383300781,1.4769697189331055,-2.3988046646118164
1751620547636155000,22.53415478515625,9.807581901550293,1.567897081375122,-3.9828531742095947
1751620547654978600,22.552978515625,9.893723487854004,1.2855439186096191,-3.968496322631836
1751620547673802200,22.57180224609375,9.955936431884766,0.9074779748916626,-2.700300455093384
1751620547692626000,22.5906259765625,9.965508460998535,-0.355932354927063,-1.0444670915603638
1751620547711449600,22.60944970703125,10.013364791870117,-2.767897605895996,2.630908489227295
1751620547730273000,22.62827294921875,9.42473030090332,-4.217947959899902,5.48793888092041
1751620547749096700,22.6470966796875,10.664212226867676,-2.2893331050872803,2.6979074478149414
1751620547777332200,22.675332275390623,10.080363273620605,-2.2127628326416016,2.1571295261383057
1751620547796156000,22.694156005859377,10.142577171325684,-2.1984057426452637,0.8841479420661926
1751620547814979600,22.7129794921875,10.104291915893555,-1.3465609550476074,-1.1545369625091553
1751620547833803000,22.731802978515624,10.032506942749023,-0.5808576941490173,-1.1880364418029785
1751620547852626700,22.750626708984374,9.850652694702148,-0.4181457459926605,-0.7046862840652466
1751620547871450400,22.769450439453124,9.960722923278809,0.22791635990142822,-0.11605189740657806
1751620547890274000,22.788274169921873,9.903294563293457,1.1132607460021973,-0.714257538318634
1751620547909097700,22.80709765625,9.91286563873291,1.6109678745269775,-1.7623138427734375
1751620547927921400,22.82592138671875,9.908080101013184,1.4482558965682983,-2.3461625576019287
1751620547946744800,22.844744873046874,9.850652694702148,0.7782655358314514,-1.451246976852417
1751620547965568500,22.863568603515624,9.869794845581055,0.2231307178735733,-0.09690931439399719
1751620547984392200,22.88239208984375,9.869794845581055,0.15134602785110474,-0.06340979784727097
1751620548003216000,22.9012158203125,9.917651176452637,0.09391828626394272,-0.029910283163189888
1751620548022039600,22.92003955078125,9.908080101013184,0.26141586899757385,0.4007977843284607
1751620548040863000,22.938863037109375,9.960722923278809,1.3142578601837158,-1.1497513055801392
1751620548059686700,22.957686767578124,9.975079536437988,1.5726827383041382,-2.5950162410736084
1751620548078510300,22.97651025390625,9.965508460998535,1.342971682548523,-4.509274482727051
1751620548097334000,22.995333984375,10.00857925415039,0.8787640929222107,-3.867997884750366
1751620548116157700,23.01415771484375,9.903294563293457,-0.3032902777194977,-2.2121646404266357
1751620548134981400,23.0329814453125,9.975079536437988,-2.3228325843811035,1.7168502807617188
1751620548153804800,23.0518046875,9.88415241241455,-4.524229526519775,6.445067882537842
1751620548172628500,23.07062841796875,9.903294563293457,-1.810768485069275,2.932404041290283
1751620548191452200,23.0894521484375,9.984650611877441,-0.9541380405426025,1.4871392250061035
1751620548210275800,23.10827587890625,9.888937950134277,-1.3465609550476074,0.4534398913383484
1751620548229099500,23.127099609375,9.888937950134277,-1.877767562866211,0.003589233849197626
1751620548247923200,23.145923095703125,10.04686450958252,-2.9688947200775146,0.7645068168640137
1751620548266746600,23.16474658203125,9.908080101013184,-3.648456335067749,1.7694923877716064
1751620548285570300,23.1835703125,10.099506378173828,-1.7916259765625,-0.11605189740657806
1751620548304394000,23.20239404296875,9.874580383300781,1.079761266708374,-3.6574294567108154
1751620548323217700,23.2212177734375,10.056435585021973,2.974876642227173,-4.102494239807129
1751620548342041300,23.240041259765626,9.874580383300781,3.9559340476989746,-3.298506021499634
1751620548360864800,23.25886474609375,9.917651176452637,1.2711870670318604,-1.0253244638442993
1751620548379688400,23.2776884765625,9.903294563293457,1.2759727239608765,-1.0492527484893799
1751620548398512000,23.29651220703125,9.91286563873291,1.3525429964065552,-1.5852450132369995
1751620548417335800,23.315335693359376,9.903294563293457,1.4291132688522339,-2.2265214920043945
1751620548436159500,23.334159423828126,9.855438232421875,1.0845468044281006,-2.977867841720581
1751620548454983000,23.35298291015625,9.802796363830566,0.0891326442360878,-3.442075490951538
1751620548473806600,23.371806640625,9.941579818725586,-0.8297112584114075,-2.8725836277008057
1751620548492629500,23.39062939453125,9.874580383300781,-1.8394824266433716,-0.6999006271362305
1751620548511453200,23.409453125,9.979865074157715,-2.2606191635131836,2.3150558471679688
1751620548530276900,23.42827685546875,9.960722923278809,-1.7341982126235962,2.9802606105804443
1751620548549100500,23.4471005859375,9.989436149597168,-1.2508480548858643,3.3678979873657227
1751620548567924200,23.46592431640625,10.104291915893555,-2.0548365116119385,1.9752750396728516
1751620548586748000,23.484747802734375,9.903294563293457,-3.222533941268921,2.6500511169433594
1751620548605571300,23.5035712890625,9.975079536437988,-3.4713873863220215,1.4775680303573608
1751620548624395000,23.52239501953125,10.16171932220459,-2.8348965644836426,-0.13040883839130402
1751620548643218700,23.54121875,10.066006660461426,-1.5571293830871582,-0.3026920557022095
1751620548662042400,23.56004248046875,9.831509590148926,-0.5569294691085815,-1.2646067142486572
1751620548680866000,23.578865966796876,10.032506942749023,0.8069794178009033,-2.0781664848327637
1751620548699689700,23.597689697265626,9.845867156982422,2.2953150272369385,-3.0448668003082275
1751620548718513200,23.61651318359375,9.860223770141602,3.391227960586548,-3.576073408126831
1751620548737336800,23.6353369140625,10.00857925415039,1.989033818244934,-1.2406785488128662
1751620548756160500,23.654160400390627,9.91286563873291,1.2616157531738281,-0.7812566161155701
1751620548784396000,23.68239599609375,9.951150894165039,1.3812568187713623,-2.2121646404266357
1751620548803219500,23.701219482421877,9.836296081542969,1.5296118259429932,-2.3461625576019287
1751620548822043100,23.720043212890626,9.999007225036621,0.1704886108636856,-2.944368362426758
1751620548840866800,23.73886669921875,10.214361190795898,-1.906481385231018,-3.5808591842651367
1751620548859690500,23.7576904296875,10.113862991333008,-3.3373894691467285,-1.810170292854309
1751620548878514200,23.77651416015625,9.721440315246582,-3.6340994834899902,1.8795621395111084
1751620548897337900,23.795337890625,10.128219604492188,-2.8013970851898193,4.033102512359619
1751620548916161300,23.814161376953123,9.721440315246582,0.0364905446767807,5.866004943847656
1751620548934985000,23.83298486328125,9.941579818725586,0.7543373107910156,2.334198474884033
1751620548953808600,23.85180859375,9.908080101013184,-0.7100701332092285,2.6596224308013916
1751620548972632300,23.87063232421875,9.888937950134277,-2.035693883895874,1.511067509651184
1751620548991456000,23.8894560546875,10.0612211227417,-2.8636105060577393,-0.06819544732570648
1751620549010279700,23.90827978515625,10.118648529052734,-2.7631118297576904,-1.23589289188385
1751620549029103000,23.92710302734375,9.783653259277344,-2.7726831436157227,-0.7381857633590698
1751620549047926800,23.9459267578125,9.888937950134277,-1.9639091491699219,-0.27397820353507996
1751620549066750500,23.96475048828125,10.123434066772461,0.44805604219436646,-2.5663022994995117
1751620549085574100,23.98357421875,9.750154495239258,3.171088218688965,-4.719842433929443
1751620549104397800,24.002397705078124,10.142577171325684,4.204787731170654,-4.447061061859131
1751620549123221200,24.02122119140625,9.984650611877441,2.103889226913452,-1.1066805124282837
1751620549142045000,24.040044921875,9.979865074157715,1.280758261680603,-1.1880364418029785
1751620549160868600,24.05886865234375,10.02293586730957,1.0223335027694702,-1.2741780281066895
1751620549179692300,24.0776923828125,9.778867721557617,0.735194742679596,-2.475374937057495
1751620549198516000,24.096515869140624,9.92243766784668,0.5389832854270935,-4.045066833496094
1751620549217339400,24.11533935546875,10.200004577636719,-0.15493527054786682,-3.7052857875823975
