time,seconds_elapsed,z,y,x
1751620525340086500,0.23808642578125,29.775001525878906,28.42500114440918,26.868751525878906
1751620525380086500,0.27808642578125,30.318750381469727,27.600000381469727,27.39375114440918
1751620525410086400,0.30808642578125,30.187501907348633,27.412500381469727,27.318750381469727
1751620525420086500,0.31808642578125,30.20625114440918,27.225000381469727,27.39375114440918
1751620525430086400,0.32808642578125,30.037500381469727,27.243751525878906,27.281251907348633
1751620525440086500,0.33808642578125,30.150001525878906,27.337501525878906,27.225000381469727
1751620525450086400,0.34808642578125,30.11250114440918,27.318750381469727,27.037500381469727
1751620525460086500,0.35808642578125,30.056251525878906,27.356250762939453,27.11250114440918
1751620525470086400,0.36808642578125,30.225000381469727,27.187501907348633,27.093751907348633
1751620525480086500,0.37808642578125,29.962501525878906,27.262500762939453,27.225000381469727
1751620525490086400,0.38808642578125,30.168750762939453,27.318750381469727,27.225000381469727
1751620525500086500,0.39808642578125,30.150001525878906,27.468751907348633,27.262500762939453
1751620525510086400,0.40808642578125,29.887500762939453,27.468751907348633,27.39375114440918
1751620525520086500,0.41808642578125,29.981250762939453,27.450000762939453,27.48750114440918
1751620525530086400,0.42808642578125,29.812501907348633,27.431251525878906,27.656251907348633
1751620525540086500,0.43808642578125,29.756250381469727,27.39375114440918,27.48750114440918
1751620525550086400,0.44808642578125,29.662500381469727,27.468751907348633,27.468751907348633
1751620525560086500,0.45808642578125,29.700000762939453,27.337501525878906,27.225000381469727
1751620525570086400,0.46808642578125,29.606250762939453,27.412500381469727,27.30000114440918
1751620525580086500,0.47808642578125,29.418750762939453,27.318750381469727,27.187501907348633
1751620525590086400,0.48808642578125,29.493751525878906,27.243751525878906,27.093751907348633
1751620525600086500,0.49808642578125,29.55000114440918,27.225000381469727,27.056251525878906
1751620525610086400,0.50808642578125,29.812501907348633,27.225000381469727,27.000001907348633
1751620525620086500,0.51808642578125,29.887500762939453,27.262500762939453,27.093751907348633
1751620525630086400,0.52808642578125,29.92500114440918,27.281251907348633,27.075000762939453
1751620525640086500,0.53808642578125,29.906251907348633,27.281251907348633,27.375001907348633
1751620525650086400,0.54808642578125,30.037500381469727,27.168750762939453,27.11250114440918
1751620525660086500,0.55808642578125,30.093751907348633,27.243751525878906,27.150001525878906
1751620525670086400,0.56808642578125,30.075000762939453,27.337501525878906,27.30000114440918
1751620525680086500,0.57808642578125,29.943750381469727,27.281251907348633,27.318750381469727
1751620525690086400,0.58808642578125,29.906251907348633,27.20625114440918,27.318750381469727
1751620525700086500,0.59808642578125,29.868751525878906,27.187501907348633,27.262500762939453
1751620525710086400,0.60808642578125,29.887500762939453,27.168750762939453,27.281251907348633
1751620525720086500,0.61808642578125,30.01875114440918,27.356250762939453,26.943750381469727
1751620525730086400,0.62808642578125,29.92500114440918,27.30000114440918,27.01875114440918
1751620525740086500,0.63808642578125,30.093751907348633,27.262500762939453,26.793750762939453
1751620525750086400,0.64808642578125,30.262500762939453,27.30000114440918,26.793750762939453
1751620525760086500,0.65808642578125,30.281251907348633,27.375001907348633,26.868751525878906
1751620525770086400,0.66808642578125,30.58125114440918,27.525001525878906,27.150001525878906
1751620525780086500,0.67808642578125,30.562501907348633,27.543750762939453,27.093751907348633
1751620525790086400,0.68808642578125,30.543750762939453,27.712501525878906,27.093751907348633
1751620525800086500,0.69808642578125,30.468751907348633,27.58125114440918,27.225000381469727
1751620525810086400,0.70808642578125,30.58125114440918,27.562501907348633,27.468751907348633
1751620525820086500,0.71808642578125,30.618751525878906,27.637500762939453,27.637500762939453
1751620525830086400,0.72808642578125,30.712501525878906,27.450000762939453,27.506250381469727
1751620525840086500,0.73808642578125,30.693750381469727,27.450000762939453,27.39375114440918
1751620525850086400,0.74808642578125,30.431251525878906,27.431251525878906,27.337501525878906
1751620525860086500,0.75808642578125,30.337501525878906,27.225000381469727,27.412500381469727
1751620525870086400,0.76808642578125,30.30000114440918,27.056251525878906,27.506250381469727
1751620525880086500,0.77808642578125,30.168750762939453,27.225000381469727,27.76875114440918
1751620525890086400,0.78808642578125,30.187501907348633,27.431251525878906,27.468751907348633
1751620525900086500,0.79808642578125,30.187501907348633,27.281251907348633,27.506250381469727
1751620525910086400,0.80808642578125,30.11250114440918,27.356250762939453,27.525001525878906
1751620525920086500,0.81808642578125,30.243751525878906,27.356250762939453,27.450000762939453
1751620525930086400,0.82808642578125,30.243751525878906,27.20625114440918,27.337501525878906
1751620525940086500,0.83808642578125,30.225000381469727,27.450000762939453,27.48750114440918
1751620525950086400,0.84808642578125,30.20625114440918,27.525001525878906,27.468751907348633
1751620525960086500,0.85808642578125,30.281251907348633,27.39375114440918,27.412500381469727
1751620525970086400,0.86808642578125,29.868751525878906,27.225000381469727,27.525001525878906
1751620525980086500,0.87808642578125,29.92500114440918,27.39375114440918,27.67500114440918
1751620525990086400,0.88808642578125,29.793750762939453,27.356250762939453,27.76875114440918
1751620526000086500,0.89808642578125,30.000001907348633,27.243751525878906,27.76875114440918
1751620526010086400,0.90808642578125,29.906251907348633,27.543750762939453,27.618751525878906
1751620526020086500,0.91808642578125,30.037500381469727,27.281251907348633,27.39375114440918
1751620526030086400,0.92808642578125,29.83125114440918,27.11250114440918,27.20625114440918
1751620526040086500,0.93808642578125,29.850000381469727,26.962501525878906,27.000001907348633
1751620526050086400,0.94808642578125,30.150001525878906,27.056251525878906,27.037500381469727
1751620526060086500,0.95808642578125,30.037500381469727,27.000001907348633,27.01875114440918
1751620526070086400,0.96808642578125,30.037500381469727,27.037500381469727,26.887500762939453
1751620526080086500,0.97808642578125,29.568750381469727,27.11250114440918,27.01875114440918
1751620526090086400,0.98808642578125,29.625001907348633,26.906251907348633,27.075000762939453
1751620526100086500,0.99808642578125,29.493751525878906,27.131250381469727,27.01875114440918
1751620526110086400,1.00808642578125,29.962501525878906,27.450000762939453,27.318750381469727
1751620526120086500,1.01808642578125,29.793750762939453,27.693750381469727,27.337501525878906
1751620526130086400,1.02808642578125,29.606250762939453,27.712501525878906,27.225000381469727
1751620526140086500,1.03808642578125,29.718751907348633,27.712501525878906,27.225000381469727
1751620526150086400,1.04808642578125,29.83125114440918,27.618751525878906,27.262500762939453
1751620526160086500,1.05808642578125,29.962501525878906,27.58125114440918,27.20625114440918
1751620526170086400,1.06808642578125,30.037500381469727,27.468751907348633,27.39375114440918
1751620526180086500,1.07808642578125,30.056251525878906,27.356250762939453,27.39375114440918
1751620526190086400,1.08808642578125,30.187501907348633,27.150001525878906,27.168750762939453
1751620526200086500,1.09808642578125,30.525001525878906,27.11250114440918,27.337501525878906
1751620526210086400,1.10808642578125,30.600000381469727,27.20625114440918,27.262500762939453
1751620526220086500,1.11808642578125,30.693750381469727,27.093751907348633,27.30000114440918
1751620526230086400,1.12808642578125,30.543750762939453,27.262500762939453,27.243751525878906
1751620526240086500,1.13808642578125,30.543750762939453,27.318750381469727,27.337501525878906
1751620526250086400,1.14808642578125,30.543750762939453,27.356250762939453,27.337501525878906
1751620526260086500,1.15808642578125,30.67500114440918,27.337501525878906,27.431251525878906
1751620526270086400,1.16808642578125,30.468751907348633,27.39375114440918,27.30000114440918
1751620526280086500,1.17808642578125,30.150001525878906,27.39375114440918,27.412500381469727
1751620526290086400,1.18808642578125,29.943750381469727,27.337501525878906,27.693750381469727
1751620526300086500,1.19808642578125,29.681251525878906,27.412500381469727,27.562501907348633
1751620526310086400,1.20808642578125,29.718751907348633,27.337501525878906,27.450000762939453
1751620526320086500,1.21808642578125,29.868751525878906,27.318750381469727,27.356250762939453
1751620526330086400,1.22808642578125,29.55000114440918,27.39375114440918,27.262500762939453
1751620526340086500,1.23808642578125,29.625001907348633,27.468751907348633,27.337501525878906
1751620526350086400,1.24808642578125,29.73750114440918,27.30000114440918,27.58125114440918
1751620526360086500,1.25808642578125,29.868751525878906,27.318750381469727,27.412500381469727
1751620526370086400,1.26808642578125,30.075000762939453,27.356250762939453,27.20625114440918
1751620526380086500,1.27808642578125,30.318750381469727,27.375001907348633,27.262500762939453
1751620526390086400,1.28808642578125,30.468751907348633,27.337501525878906,27.58125114440918
1751620526400086500,1.29808642578125,30.243751525878906,27.431251525878906,27.712501525878906
1751620526410086400,1.30808642578125,30.450000762939453,27.637500762939453,27.86250114440918
1751620526420086500,1.31808642578125,30.337501525878906,27.637500762939453,27.86250114440918
1751620526430086400,1.32808642578125,30.000001907348633,27.712501525878906,27.787500381469727
1751620526440086500,1.33808642578125,29.962501525878906,27.637500762939453,27.600000381469727
1751620526450086400,1.34808642578125,30.000001907348633,27.693750381469727,27.693750381469727
1751620526460086500,1.35808642578125,29.887500762939453,27.67500114440918,27.600000381469727
1751620526470086400,1.36808642578125,29.73750114440918,27.881250381469727,27.375001907348633
1751620526480086500,1.37808642578125,29.83125114440918,27.618751525878906,27.262500762939453
1751620526490086400,1.38808642578125,29.943750381469727,27.337501525878906,27.037500381469727
1751620526500086500,1.39808642578125,29.662500381469727,27.337501525878906,27.150001525878906
1751620526510086400,1.40808642578125,29.868751525878906,27.337501525878906,27.150001525878906
1751620526520086500,1.41808642578125,30.000001907348633,27.243751525878906,27.037500381469727
1751620526530086400,1.42808642578125,30.056251525878906,27.131250381469727,27.01875114440918
1751620526540086500,1.43808642578125,30.056251525878906,26.981250762939453,27.093751907348633
1751620526550086400,1.44808642578125,30.150001525878906,26.868751525878906,27.168750762939453
1751620526560086500,1.45808642578125,30.01875114440918,26.981250762939453,27.30000114440918
1751620526570086400,1.46808642578125,29.92500114440918,27.20625114440918,27.450000762939453
1751620526580086500,1.47808642578125,30.30000114440918,27.075000762939453,27.318750381469727
1751620526590086400,1.48808642578125,30.281251907348633,27.037500381469727,27.618751525878906
1751620526600086500,1.49808642578125,30.056251525878906,27.243751525878906,27.993751525878906
1751620526610086400,1.50808642578125,30.20625114440918,27.337501525878906,28.012500762939453
1751620526620086500,1.51808642578125,30.000001907348633,27.48750114440918,28.031251907348633
1751620526630086400,1.52808642578125,30.037500381469727,27.318750381469727,27.975000381469727
1751620526640086500,1.53808642578125,30.187501907348633,27.431251525878906,27.693750381469727
1751620526650086400,1.54808642578125,30.075000762939453,27.375001907348633,27.76875114440918
1751620526660086500,1.55808642578125,29.812501907348633,27.637500762939453,28.031251907348633
1751620526670086400,1.56808642578125,29.793750762939453,27.67500114440918,27.900001525878906
1751620526680086500,1.57808642578125,29.887500762939453,27.67500114440918,27.731250762939453
1751620526690086400,1.58808642578125,29.793750762939453,27.506250381469727,27.731250762939453
1751620526700086500,1.59808642578125,30.000001907348633,27.431251525878906,27.731250762939453
1751620526710086400,1.60808642578125,29.981250762939453,27.825000762939453,27.86250114440918
1751620526720086500,1.61808642578125,30.056251525878906,27.600000381469727,27.918750762939453
1751620526730086400,1.62808642578125,30.187501907348633,27.412500381469727,27.600000381469727
1751620526740086500,1.63808642578125,30.281251907348633,27.450000762939453,27.30000114440918
1751620526750086400,1.64808642578125,30.187501907348633,27.712501525878906,27.318750381469727
1751620526760086500,1.65808642578125,30.39375114440918,27.750001907348633,27.431251525878906
1751620526770086400,1.66808642578125,30.468751907348633,27.86250114440918,27.431251525878906
1751620526780086500,1.67808642578125,30.262500762939453,27.881250381469727,27.431251525878906
1751620526790086400,1.68808642578125,30.318750381469727,27.48750114440918,27.337501525878906
1751620526800086500,1.69808642578125,30.318750381469727,27.48750114440918,27.337501525878906
1751620526810086400,1.70808642578125,30.468751907348633,27.506250381469727,27.525001525878906
1751620526820086500,1.71808642578125,30.506250381469727,27.337501525878906,27.468751907348633
1751620526830086400,1.72808642578125,30.375001907348633,27.11250114440918,27.318750381469727
1751620526840086500,1.73808642578125,29.943750381469727,27.093751907348633,27.093751907348633
1751620526850086400,1.74808642578125,29.606250762939453,27.037500381469727,27.150001525878906
1751620526860086500,1.75808642578125,29.775001525878906,27.131250381469727,27.01875114440918
1751620526870086400,1.76808642578125,29.64375114440918,27.412500381469727,27.356250762939453
1751620526880086500,1.77808642578125,29.64375114440918,27.506250381469727,27.468751907348633
1751620526890086400,1.78808642578125,29.981250762939453,27.600000381469727,27.375001907348633
1751620526900086500,1.79808642578125,29.943750381469727,27.468751907348633,27.375001907348633
1751620526910086400,1.80808642578125,30.000001907348633,27.356250762939453,27.48750114440918
1751620526920086500,1.81808642578125,30.168750762939453,27.262500762939453,27.712501525878906
1751620526930086400,1.82808642578125,30.281251907348633,27.281251907348633,27.525001525878906
1751620526940086500,1.83808642578125,30.056251525878906,27.11250114440918,27.693750381469727
1751620526950086400,1.84808642578125,30.01875114440918,27.056251525878906,27.543750762939453
1751620526960086500,1.85808642578125,30.000001907348633,27.056251525878906,27.562501907348633
1751620526970086400,1.86808642578125,29.662500381469727,26.906251907348633,27.48750114440918
1751620526980086500,1.87808642578125,29.606250762939453,27.01875114440918,27.450000762939453
1751620526990086400,1.88808642578125,29.850000381469727,27.056251525878906,27.412500381469727
1751620527000086500,1.89808642578125,30.01875114440918,27.056251525878906,27.543750762939453
1751620527010086400,1.90808642578125,30.093751907348633,26.962501525878906,27.693750381469727
1751620527020086500,1.91808642578125,30.375001907348633,27.000001907348633,27.656251907348633
1751620527030086400,1.92808642578125,30.356250762939453,26.981250762939453,27.450000762939453
1751620527040086500,1.93808642578125,30.375001907348633,27.037500381469727,27.262500762939453
1751620527050086400,1.94808642578125,30.150001525878906,27.243751525878906,27.356250762939453
1751620527060086500,1.95808642578125,30.337501525878906,27.337501525878906,27.412500381469727
1751620527070086400,1.96808642578125,30.243751525878906,27.356250762939453,27.562501907348633
1751620527080086500,1.97808642578125,30.000001907348633,27.356250762939453,27.187501907348633
1751620527090086400,1.98808642578125,29.83125114440918,27.375001907348633,27.187501907348633
1751620527100086500,1.99808642578125,29.812501907348633,27.30000114440918,27.150001525878906
1751620527110086400,2.00808642578125,30.075000762939453,27.375001907348633,27.150001525878906
1751620527120086500,2.01808642578125,30.000001907348633,27.20625114440918,27.150001525878906
1751620527130086400,2.02808642578125,30.187501907348633,27.056251525878906,27.39375114440918
1751620527140086500,2.03808642578125,30.075000762939453,26.981250762939453,27.48750114440918
1751620527150086400,2.04808642578125,30.11250114440918,27.20625114440918,27.525001525878906
1751620527160086500,2.05808642578125,30.20625114440918,27.093751907348633,27.637500762939453
1751620527170086400,2.06808642578125,30.281251907348633,27.20625114440918,27.562501907348633
1751620527180086500,2.07808642578125,30.150001525878906,27.375001907348633,27.712501525878906
1751620527190086400,2.08808642578125,30.243751525878906,27.431251525878906,27.600000381469727
1751620527200086500,2.09808642578125,30.337501525878906,27.693750381469727,27.712501525878906
1751620527210086400,2.10808642578125,30.281251907348633,27.787500381469727,27.562501907348633
1751620527220086500,2.11808642578125,30.20625114440918,27.806251525878906,27.825000762939453
1751620527230086400,2.12808642578125,30.243751525878906,27.450000762939453,27.600000381469727
1751620527240086500,2.13808642578125,30.450000762939453,27.337501525878906,27.693750381469727
1751620527250086400,2.14808642578125,30.600000381469727,27.20625114440918,27.67500114440918
1751620527260086500,2.15808642578125,30.731250762939453,27.168750762939453,27.86250114440918
1751620527270086400,2.16808642578125,30.600000381469727,27.131250381469727,28.087501525878906
1751620527280086500,2.17808642578125,30.543750762939453,26.906251907348633,28.14375114440918
1751620527290086400,2.18808642578125,30.525001525878906,26.906251907348633,27.918750762939453
1751620527300086500,2.19808642578125,30.468751907348633,26.887500762939453,27.656251907348633
1751620527310086400,2.20808642578125,30.48750114440918,27.056251525878906,27.693750381469727
1751620527320086500,2.21808642578125,30.525001525878906,27.30000114440918,27.618751525878906
1751620527330086400,2.22808642578125,30.562501907348633,27.431251525878906,27.656251907348633
1751620527340086500,2.23808642578125,30.693750381469727,27.375001907348633,27.30000114440918
1751620527350086400,2.24808642578125,30.48750114440918,27.468751907348633,27.30000114440918
1751620527360086500,2.25808642578125,30.412500381469727,27.506250381469727,27.30000114440918
1751620527370086400,2.26808642578125,30.506250381469727,27.506250381469727,27.618751525878906
1751620527380086500,2.27808642578125,30.618751525878906,27.450000762939453,27.656251907348633
1751620527390086400,2.28808642578125,30.600000381469727,27.468751907348633,27.543750762939453
1751620527400086500,2.29808642578125,30.056251525878906,27.431251525878906,27.525001525878906
1751620527410086400,2.30808642578125,30.037500381469727,27.48750114440918,27.48750114440918
1751620527420086500,2.31808642578125,30.150001525878906,27.450000762939453,27.506250381469727
1751620527430086400,2.32808642578125,29.943750381469727,27.225000381469727,27.468751907348633
1751620527440086500,2.33808642578125,30.20625114440918,27.281251907348633,27.431251525878906
1751620527450086400,2.34808642578125,30.243751525878906,27.356250762939453,27.168750762939453
1751620527460086500,2.35808642578125,30.20625114440918,27.562501907348633,27.262500762939453
1751620527470086400,2.36808642578125,30.168750762939453,27.543750762939453,27.375001907348633
1751620527480086500,2.37808642578125,30.562501907348633,27.543750762939453,27.506250381469727
1751620527490086400,2.38808642578125,30.48750114440918,27.412500381469727,27.637500762939453
1751620527500086500,2.39808642578125,30.168750762939453,27.431251525878906,27.76875114440918
1751620527510086400,2.40808642578125,30.30000114440918,27.412500381469727,27.750001907348633
1751620527520086500,2.41808642578125,30.11250114440918,27.431251525878906,27.900001525878906
1751620527530086400,2.42808642578125,29.906251907348633,27.450000762939453,27.86250114440918
1751620527540086500,2.43808642578125,30.037500381469727,27.281251907348633,27.731250762939453
1751620527550086400,2.44808642578125,29.73750114440918,27.225000381469727,27.58125114440918
1751620527560086500,2.45808642578125,29.812501907348633,27.225000381469727,27.525001525878906
1751620527570086400,2.46808642578125,29.887500762939453,27.225000381469727,27.375001907348633
1751620527580086500,2.47808642578125,29.981250762939453,27.318750381469727,27.225000381469727
1751620527590086400,2.48808642578125,29.981250762939453,27.375001907348633,27.318750381469727
1751620527600086500,2.49808642578125,29.812501907348633,27.281251907348633,27.337501525878906
1751620527610086400,2.50808642578125,29.83125114440918,27.281251907348633,27.39375114440918
1751620527620086500,2.51808642578125,29.793750762939453,27.20625114440918,27.48750114440918
1751620527630086400,2.52808642578125,30.075000762939453,27.356250762939453,27.450000762939453
1751620527640086500,2.53808642578125,30.037500381469727,27.450000762939453,27.318750381469727
1751620527650086400,2.54808642578125,29.775001525878906,27.731250762939453,27.356250762939453
1751620527660086500,2.55808642578125,29.625001907348633,27.656251907348633,27.356250762939453
1751620527670086400,2.56808642578125,29.756250381469727,27.600000381469727,27.450000762939453
1751620527680086500,2.57808642578125,29.906251907348633,27.58125114440918,27.525001525878906
1751620527690086400,2.58808642578125,29.793750762939453,27.506250381469727,27.506250381469727
1751620527700086500,2.59808642578125,29.700000762939453,27.39375114440918,27.262500762939453
1751620527710086400,2.60808642578125,29.606250762939453,27.187501907348633,27.356250762939453
1751620527720086500,2.61808642578125,29.381250381469727,27.131250381469727,27.637500762939453
1751620527730086400,2.62808642578125,29.531251907348633,26.793750762939453,27.543750762939453
1751620527740086500,2.63808642578125,29.587501525878906,27.037500381469727,27.693750381469727
1751620527750086400,2.64808642578125,29.587501525878906,27.01875114440918,27.506250381469727
1751620527760086500,2.65808642578125,29.418750762939453,27.075000762939453,27.243751525878906
1751620527770086400,2.66808642578125,29.64375114440918,27.150001525878906,27.30000114440918
1751620527780086500,2.67808642578125,29.437501907348633,27.262500762939453,27.562501907348633
1751620527790086400,2.68808642578125,29.343751907348633,27.356250762939453,27.618751525878906
1751620527800086500,2.69808642578125,29.531251907348633,27.281251907348633,27.506250381469727
1751620527810086400,2.70808642578125,29.493751525878906,27.30000114440918,27.731250762939453
1751620527820086500,2.71808642578125,29.64375114440918,27.093751907348633,27.525001525878906
1751620527830086400,2.72808642578125,29.55000114440918,27.187501907348633,27.525001525878906
1751620527840086500,2.73808642578125,29.625001907348633,27.056251525878906,27.600000381469727
1751620527850086400,2.74808642578125,29.73750114440918,27.056251525878906,27.562501907348633
1751620527860086500,2.75808642578125,29.92500114440918,27.037500381469727,27.375001907348633
1751620527870086400,2.76808642578125,30.243751525878906,26.962501525878906,27.525001525878906
1751620527880086500,2.77808642578125,30.150001525878906,27.037500381469727,27.543750762939453
1751620527890086400,2.78808642578125,30.168750762939453,27.037500381469727,27.375001907348633
1751620527900086500,2.79808642578125,29.981250762939453,26.906251907348633,27.58125114440918
1751620527910086400,2.80808642578125,29.906251907348633,26.962501525878906,27.562501907348633
1751620527920086500,2.81808642578125,29.887500762939453,27.243751525878906,27.750001907348633
1751620527930086400,2.82808642578125,29.718751907348633,27.20625114440918,27.67500114440918
1751620527940086500,2.83808642578125,29.943750381469727,27.20625114440918,27.843751907348633
1751620527950086400,2.84808642578125,29.83125114440918,27.39375114440918,27.881250381469727
1751620527960086500,2.85808642578125,29.868751525878906,27.412500381469727,27.881250381469727
1751620527970086400,2.86808642578125,29.943750381469727,27.562501907348633,27.843751907348633
1751620527980086500,2.87808642578125,30.225000381469727,27.637500762939453,27.825000762939453
1751620527990086400,2.88808642578125,30.375001907348633,27.693750381469727,27.825000762939453
1751620528000086500,2.89808642578125,30.412500381469727,27.600000381469727,27.787500381469727
1751620528010086400,2.90808642578125,30.431251525878906,27.731250762939453,27.900001525878906
1751620528020086500,2.91808642578125,30.506250381469727,27.825000762939453,28.012500762939453
1751620528030086400,2.92808642578125,30.262500762939453,27.825000762939453,27.86250114440918
1751620528040086500,2.93808642578125,30.318750381469727,27.76875114440918,27.731250762939453
1751620528050086400,2.94808642578125,30.150001525878906,27.637500762939453,27.806251525878906
1751620528060086500,2.95808642578125,30.01875114440918,27.750001907348633,27.618751525878906
1751620528070086400,2.96808642578125,30.131250381469727,27.67500114440918,27.618751525878906
1751620528080086500,2.97808642578125,30.20625114440918,27.656251907348633,27.375001907348633
1751620528090086400,2.98808642578125,30.168750762939453,27.412500381469727,27.318750381469727
1751620528100086500,2.99808642578125,29.906251907348633,27.39375114440918,27.11250114440918
1751620528110086400,3.00808642578125,30.262500762939453,27.450000762939453,27.11250114440918
1751620528120086500,3.01808642578125,30.281251907348633,27.48750114440918,27.225000381469727
1751620528130086400,3.02808642578125,30.431251525878906,27.656251907348633,27.225000381469727
1751620528140086500,3.03808642578125,30.281251907348633,27.543750762939453,27.375001907348633
1751620528150086400,3.04808642578125,30.30000114440918,27.525001525878906,27.39375114440918
1751620528160086500,3.05808642578125,30.11250114440918,27.318750381469727,27.543750762939453
1751620528170086400,3.06808642578125,30.037500381469727,27.48750114440918,27.76875114440918
1751620528180086500,3.07808642578125,30.150001525878906,27.48750114440918,27.918750762939453
1751620528190086400,3.08808642578125,29.718751907348633,27.356250762939453,27.712501525878906
1751620528200086500,3.09808642578125,29.83125114440918,27.450000762939453,27.67500114440918
1751620528210086400,3.10808642578125,29.793750762939453,27.262500762939453,27.431251525878906
1751620528220086500,3.11808642578125,29.887500762939453,27.225000381469727,27.318750381469727
1751620528230086400,3.12808642578125,29.606250762939453,27.150001525878906,27.431251525878906
1751620528240086500,3.13808642578125,29.793750762939453,27.262500762939453,27.356250762939453
1751620528250086400,3.14808642578125,30.150001525878906,27.11250114440918,27.243751525878906
1751620528260086500,3.15808642578125,29.906251907348633,27.131250381469727,27.131250381469727
1751620528270086400,3.16808642578125,30.262500762939453,27.225000381469727,27.412500381469727
1751620528280086500,3.17808642578125,29.943750381469727,27.150001525878906,27.48750114440918
1751620528290086400,3.18808642578125,30.225000381469727,27.337501525878906,27.712501525878906
1751620528300086500,3.19808642578125,30.281251907348633,27.318750381469727,27.825000762939453
1751620528310086400,3.20808642578125,30.412500381469727,27.48750114440918,27.787500381469727
1751620528320086500,3.21808642578125,30.318750381469727,27.562501907348633,27.76875114440918
1751620528330086400,3.22808642578125,30.20625114440918,27.637500762939453,27.67500114440918
1751620528340086500,3.23808642578125,30.075000762939453,27.58125114440918,27.600000381469727
1751620528350086400,3.24808642578125,30.037500381469727,27.450000762939453,27.281251907348633
1751620528360086500,3.25808642578125,30.20625114440918,27.375001907348633,27.356250762939453
1751620528370086400,3.26808642578125,30.037500381469727,27.39375114440918,27.468751907348633
1751620528380086500,3.27808642578125,30.000001907348633,27.58125114440918,27.48750114440918
1751620528390086400,3.28808642578125,30.225000381469727,27.618751525878906,27.262500762939453
1751620528400086500,3.29808642578125,30.337501525878906,27.543750762939453,27.450000762939453
1751620528410086400,3.30808642578125,30.037500381469727,27.618751525878906,27.543750762939453
1751620528420086500,3.31808642578125,30.281251907348633,27.58125114440918,27.525001525878906
1751620528430086400,3.32808642578125,30.318750381469727,27.600000381469727,27.843751907348633
1751620528440086500,3.33808642578125,30.20625114440918,27.67500114440918,27.750001907348633
1751620528450086400,3.34808642578125,30.262500762939453,27.468751907348633,27.431251525878906
1751620528460086500,3.35808642578125,30.01875114440918,27.30000114440918,27.431251525878906
1751620528470086400,3.36808642578125,29.92500114440918,27.168750762939453,27.48750114440918
1751620528480086500,3.37808642578125,29.981250762939453,27.20625114440918,27.412500381469727
1751620528490086400,3.38808642578125,30.243751525878906,27.131250381469727,27.318750381469727
1751620528500086500,3.39808642578125,30.468751907348633,27.131250381469727,27.375001907348633
1751620528510086400,3.40808642578125,30.318750381469727,27.01875114440918,27.150001525878906
1751620528520086500,3.41808642578125,30.525001525878906,27.075000762939453,27.01875114440918
1751620528530086400,3.42808642578125,30.375001907348633,27.20625114440918,27.281251907348633
1751620528540086500,3.43808642578125,30.76875114440918,27.168750762939453,27.262500762939453
1751620528550086400,3.44808642578125,30.76875114440918,27.243751525878906,27.39375114440918
1751620528560086500,3.45808642578125,30.750001907348633,27.318750381469727,27.431251525878906
1751620528570086400,3.46808642578125,30.900001525878906,27.356250762939453,27.468751907348633
1751620528580086500,3.47808642578125,30.656251907348633,27.39375114440918,27.58125114440918
1751620528590086400,3.48808642578125,31.031251907348633,27.468751907348633,27.600000381469727
1751620528600086500,3.49808642578125,30.900001525878906,27.337501525878906,27.656251907348633
1751620528610086400,3.50808642578125,30.900001525878906,27.318750381469727,27.525001525878906
1751620528620086500,3.51808642578125,30.543750762939453,27.337501525878906,27.281251907348633
1751620528630086400,3.52808642578125,30.506250381469727,27.356250762939453,27.168750762939453
1751620528640086500,3.53808642578125,30.337501525878906,27.187501907348633,27.150001525878906
1751620528650086400,3.54808642578125,30.075000762939453,27.187501907348633,27.281251907348633
1751620528660086500,3.55808642578125,29.962501525878906,27.225000381469727,27.131250381469727
1751620528670086400,3.56808642578125,29.681251525878906,27.356250762939453,27.243751525878906
1751620528680086500,3.57808642578125,29.850000381469727,27.412500381469727,27.375001907348633
1751620528690086400,3.58808642578125,29.812501907348633,27.450000762939453,27.543750762939453
1751620528700086500,3.59808642578125,29.92500114440918,27.525001525878906,27.693750381469727
1751620528710086400,3.60808642578125,29.962501525878906,27.562501907348633,27.750001907348633
1751620528720086500,3.61808642578125,30.150001525878906,27.637500762939453,27.618751525878906
1751620528730086400,3.62808642578125,29.962501525878906,27.731250762939453,27.375001907348633
1751620528740086500,3.63808642578125,30.093751907348633,27.600000381469727,27.525001525878906
1751620528750086400,3.64808642578125,29.850000381469727,27.506250381469727,27.262500762939453
1751620528760086500,3.65808642578125,29.64375114440918,27.543750762939453,27.225000381469727
1751620528770086400,3.66808642578125,29.625001907348633,27.356250762939453,27.20625114440918
1751620528780086500,3.67808642578125,29.64375114440918,27.375001907348633,27.150001525878906
1751620528790086400,3.68808642578125,29.343751907348633,27.30000114440918,27.225000381469727
1751620528800086500,3.69808642578125,29.343751907348633,27.337501525878906,27.39375114440918
1751620528810086400,3.70808642578125,29.493751525878906,27.337501525878906,27.337501525878906
1751620528820086500,3.71808642578125,29.625001907348633,27.318750381469727,27.356250762939453
1751620528830086400,3.72808642578125,29.64375114440918,27.337501525878906,27.693750381469727
1751620528840086500,3.73808642578125,29.718751907348633,27.225000381469727,27.618751525878906
1751620528850086400,3.74808642578125,29.662500381469727,27.356250762939453,27.712501525878906
1751620528860086500,3.75808642578125,29.662500381469727,27.187501907348633,27.731250762939453
1751620528870086400,3.76808642578125,29.700000762939453,27.150001525878906,27.656251907348633
1751620528880086500,3.77808642578125,29.700000762939453,27.168750762939453,27.525001525878906
1751620528890086400,3.78808642578125,29.92500114440918,27.187501907348633,27.843751907348633
1751620528900086500,3.79808642578125,29.718751907348633,27.337501525878906,27.731250762939453
1751620528910086400,3.80808642578125,30.075000762939453,27.412500381469727,27.731250762939453
1751620528920086500,3.81808642578125,30.150001525878906,27.48750114440918,28.012500762939453
1751620528930086400,3.82808642578125,30.30000114440918,27.58125114440918,28.068750381469727
1751620528940086500,3.83808642578125,30.375001907348633,27.825000762939453,28.312501907348633
1751620528950086400,3.84808642578125,30.543750762939453,27.787500381469727,28.368751525878906
1751620528960086500,3.85808642578125,30.468751907348633,27.562501907348633,28.368751525878906
1751620528970086400,3.86808642578125,30.39375114440918,27.48750114440918,28.181251525878906
1751620528980086500,3.87808642578125,30.543750762939453,27.431251525878906,28.218751907348633
1751620528990086400,3.88808642578125,30.468751907348633,27.412500381469727,28.106250762939453
1751620529000086500,3.89808642578125,30.412500381469727,27.48750114440918,27.918750762939453
1751620529010086400,3.90808642578125,30.356250762939453,27.431251525878906,27.731250762939453
1751620529020086500,3.91808642578125,30.375001907348633,27.375001907348633,27.468751907348633
1751620529030086400,3.92808642578125,30.375001907348633,27.412500381469727,27.600000381469727
1751620529040086500,3.93808642578125,30.412500381469727,27.67500114440918,27.656251907348633
1751620529050086400,3.94808642578125,30.337501525878906,27.543750762939453,27.656251907348633
1751620529060086500,3.95808642578125,30.243751525878906,27.656251907348633,27.58125114440918
1751620529070086400,3.96808642578125,30.075000762939453,27.600000381469727,27.656251907348633
1751620529080086500,3.97808642578125,30.01875114440918,27.562501907348633,27.656251907348633
1751620529090086400,3.98808642578125,30.11250114440918,27.48750114440918,27.356250762939453
1751620529100086500,3.99808642578125,30.337501525878906,27.39375114440918,27.375001907348633
1751620529110086400,4.00808642578125,30.281251907348633,27.412500381469727,27.20625114440918
1751620529120086500,4.01808642578125,30.01875114440918,27.337501525878906,27.187501907348633
1751620529130086400,4.02808642578125,30.11250114440918,27.412500381469727,27.375001907348633
1751620529140086500,4.03808642578125,30.30000114440918,27.562501907348633,27.39375114440918
1751620529150086400,4.04808642578125,30.468751907348633,27.58125114440918,27.450000762939453
1751620529160086500,4.05808642578125,30.525001525878906,27.337501525878906,27.431251525878906
1751620529170086400,4.06808642578125,30.39375114440918,27.337501525878906,27.600000381469727
1751620529180086500,4.07808642578125,30.262500762939453,27.337501525878906,27.693750381469727
1751620529190086400,4.08808642578125,30.412500381469727,27.375001907348633,27.937501907348633
1751620529200086500,4.09808642578125,30.618751525878906,27.356250762939453,27.900001525878906
1751620529210086400,4.10808642578125,30.431251525878906,27.30000114440918,27.750001907348633
1751620529220086500,4.11808642578125,30.375001907348633,26.850000381469727,27.750001907348633
1751620529230086400,4.12808642578125,30.412500381469727,26.981250762939453,27.712501525878906
1751620529240086500,4.13808642578125,30.468751907348633,27.318750381469727,27.787500381469727
1751620529250086400,4.14808642578125,30.525001525878906,27.225000381469727,27.900001525878906
1751620529260086500,4.15808642578125,30.431251525878906,27.318750381469727,27.900001525878906
1751620529270086400,4.16808642578125,30.187501907348633,27.281251907348633,27.39375114440918
1751620529280086500,4.17808642578125,30.318750381469727,27.412500381469727,27.39375114440918
1751620529290086400,4.18808642578125,30.562501907348633,27.375001907348633,27.281251907348633
1751620529300086500,4.19808642578125,30.58125114440918,27.58125114440918,27.375001907348633
1751620529310086400,4.20808642578125,30.30000114440918,27.562501907348633,27.243751525878906
1751620529320086500,4.21808642578125,30.168750762939453,27.39375114440918,27.01875114440918
1751620529330086400,4.22808642578125,30.000001907348633,27.243751525878906,27.056251525878906
1751620529340086500,4.23808642578125,30.131250381469727,27.168750762939453,26.981250762939453
1751620529350086400,4.24808642578125,30.243751525878906,27.187501907348633,27.281251907348633
1751620529360086500,4.25808642578125,30.131250381469727,27.11250114440918,27.318750381469727
1751620529370086400,4.26808642578125,30.000001907348633,27.243751525878906,27.431251525878906
1751620529380086500,4.27808642578125,29.756250381469727,27.20625114440918,27.468751907348633
1751620529390086400,4.28808642578125,29.793750762939453,26.962501525878906,27.431251525878906
1751620529400086500,4.29808642578125,29.887500762939453,27.000001907348633,27.431251525878906
1751620529410086400,4.30808642578125,30.037500381469727,27.262500762939453,27.243751525878906
1751620529420086500,4.31808642578125,30.056251525878906,27.262500762939453,27.225000381469727
1751620529430086400,4.32808642578125,30.01875114440918,27.243751525878906,27.262500762939453
1751620529440086500,4.33808642578125,29.887500762939453,27.168750762939453,27.131250381469727
1751620529450086400,4.34808642578125,29.83125114440918,27.243751525878906,27.11250114440918
1751620529460086500,4.35808642578125,29.850000381469727,27.243751525878906,27.000001907348633
1751620529470086400,4.36808642578125,29.793750762939453,27.48750114440918,26.92500114440918
1751620529480086500,4.37808642578125,29.775001525878906,27.468751907348633,27.075000762939453
1751620529490086400,4.38808642578125,29.868751525878906,27.48750114440918,27.225000381469727
1751620529500086500,4.39808642578125,29.850000381469727,27.525001525878906,27.30000114440918
1751620529510086400,4.40808642578125,29.962501525878906,27.543750762939453,27.262500762939453
1751620529520086500,4.41808642578125,30.187501907348633,27.543750762939453,27.431251525878906
1751620529530086400,4.42808642578125,30.30000114440918,27.525001525878906,27.281251907348633
1751620529540086500,4.43808642578125,30.67500114440918,27.48750114440918,27.225000381469727
1751620529550086400,4.44808642578125,30.731250762939453,27.468751907348633,27.468751907348633
1751620529560086500,4.45808642578125,30.656251907348633,27.506250381469727,27.412500381469727
1751620529570086400,4.46808642578125,30.750001907348633,27.637500762939453,27.412500381469727
1751620529580086500,4.47808642578125,30.637500762939453,27.58125114440918,27.356250762939453
1751620529590086400,4.48808642578125,30.731250762939453,27.562501907348633,27.48750114440918
1751620529600086500,4.49808642578125,30.693750381469727,27.543750762939453,27.412500381469727
1751620529610086400,4.50808642578125,30.693750381469727,27.450000762939453,27.543750762939453
1751620529620086500,4.51808642578125,30.412500381469727,27.39375114440918,27.58125114440918
1751620529630086400,4.52808642578125,30.450000762939453,27.431251525878906,27.562501907348633
1751620529640086500,4.53808642578125,30.450000762939453,27.48750114440918,27.48750114440918
1751620529650086400,4.54808642578125,30.39375114440918,27.375001907348633,27.48750114440918
1751620529660086500,4.55808642578125,30.39375114440918,27.318750381469727,27.637500762939453
1751620529670086400,4.56808642578125,30.431251525878906,27.093751907348633,27.506250381469727
1751620529680086500,4.57808642578125,30.58125114440918,27.11250114440918,27.600000381469727
1751620529690086400,4.58808642578125,30.431251525878906,27.20625114440918,27.637500762939453
1751620529700086500,4.59808642578125,30.243751525878906,27.243751525878906,27.618751525878906
1751620529710086400,4.60808642578125,30.281251907348633,27.225000381469727,27.806251525878906
1751620529720086500,4.61808642578125,30.412500381469727,27.187501907348633,28.068750381469727
1751620529730086400,4.62808642578125,30.168750762939453,27.243751525878906,28.14375114440918
1751620529740086500,4.63808642578125,30.318750381469727,27.337501525878906,27.937501907348633
1751620529750086400,4.64808642578125,30.243751525878906,27.562501907348633,27.881250381469727
1751620529760086500,4.65808642578125,29.962501525878906,27.600000381469727,27.806251525878906
1751620529770086400,4.66808642578125,29.92500114440918,27.48750114440918,27.637500762939453
1751620529780086500,4.67808642578125,30.131250381469727,27.431251525878906,27.67500114440918
1751620529790086400,4.68808642578125,30.093751907348633,27.48750114440918,27.281251907348633
1751620529800086500,4.69808642578125,29.981250762939453,27.450000762939453,27.375001907348633
1751620529810086400,4.70808642578125,30.318750381469727,27.30000114440918,27.131250381469727
1751620529820086500,4.71808642578125,29.850000381469727,27.412500381469727,27.281251907348633
1751620529830086400,4.72808642578125,29.756250381469727,27.281251907348633,27.150001525878906
1751620529840086500,4.73808642578125,29.64375114440918,27.337501525878906,27.168750762939453
1751620529850086400,4.74808642578125,29.718751907348633,27.450000762939453,27.412500381469727
1751620529860086500,4.75808642578125,29.850000381469727,27.506250381469727,27.356250762939453
1751620529870086400,4.76808642578125,29.850000381469727,27.450000762939453,27.525001525878906
1751620529880086500,4.77808642578125,29.83125114440918,27.356250762939453,27.356250762939453
1751620529890086400,4.78808642578125,29.587501525878906,27.543750762939453,27.543750762939453
1751620529900086500,4.79808642578125,30.01875114440918,27.562501907348633,27.637500762939453
1751620529910086400,4.80808642578125,29.83125114440918,27.76875114440918,27.918750762939453
1751620529920086500,4.81808642578125,30.168750762939453,27.825000762939453,28.031251907348633
1751620529930086400,4.82808642578125,30.187501907348633,27.693750381469727,27.637500762939453
1751620529940086500,4.83808642578125,30.131250381469727,27.76875114440918,27.67500114440918
1751620529950086400,4.84808642578125,30.318750381469727,27.731250762939453,27.67500114440918
1751620529960086500,4.85808642578125,30.356250762939453,27.86250114440918,27.618751525878906
1751620529970086400,4.86808642578125,30.58125114440918,27.750001907348633,27.58125114440918
1751620529980086500,4.87808642578125,30.356250762939453,27.637500762939453,27.412500381469727
1751620529990086400,4.88808642578125,30.30000114440918,27.450000762939453,27.431251525878906
1751620530000086500,4.89808642578125,30.150001525878906,27.562501907348633,27.337501525878906
1751620530010086400,4.90808642578125,30.037500381469727,27.58125114440918,27.618751525878906
1751620530020086500,4.91808642578125,30.150001525878906,27.58125114440918,27.468751907348633
1751620530030086400,4.92808642578125,29.868751525878906,27.600000381469727,27.356250762939453
1751620530040086500,4.93808642578125,29.962501525878906,27.525001525878906,27.525001525878906
1751620530050086400,4.94808642578125,29.662500381469727,27.525001525878906,27.543750762939453
1751620530060086500,4.95808642578125,29.887500762939453,27.600000381469727,27.637500762939453
1751620530070086400,4.96808642578125,30.168750762939453,27.618751525878906,27.67500114440918
1751620530080086500,4.97808642578125,30.075000762939453,27.431251525878906,27.825000762939453
1751620530090086400,4.98808642578125,30.525001525878906,27.48750114440918,27.993751525878906
1751620530100086500,4.99808642578125,30.375001907348633,27.468751907348633,28.33125114440918
1751620530110086400,5.00808642578125,30.450000762939453,27.412500381469727,28.443750381469727
1751620530120086500,5.01808642578125,30.468751907348633,27.337501525878906,28.162500381469727
1751620530130086400,5.02808642578125,30.48750114440918,27.337501525878906,28.14375114440918
1751620530140086500,5.03808642578125,30.412500381469727,27.262500762939453,28.087501525878906
1751620530150086400,5.04808642578125,30.262500762939453,27.243751525878906,27.95625114440918
1751620530160086500,5.05808642578125,30.318750381469727,27.150001525878906,27.618751525878906
1751620530170086400,5.06808642578125,29.868751525878906,27.225000381469727,27.450000762939453
1751620530180086500,5.07808642578125,29.906251907348633,27.168750762939453,27.281251907348633
1751620530190086400,5.08808642578125,30.168750762939453,27.30000114440918,27.356250762939453
1751620530200086500,5.09808642578125,30.131250381469727,27.450000762939453,27.618751525878906
1751620530210086400,5.10808642578125,30.168750762939453,27.375001907348633,27.600000381469727
1751620530230086400,5.12808642578125,30.168750762939453,27.58125114440918,27.618751525878906
1751620530240086500,5.13808642578125,30.20625114440918,27.48750114440918,27.637500762939453
1751620530250086400,5.14808642578125,30.225000381469727,27.693750381469727,27.618751525878906
1751620530260086500,5.15808642578125,30.093751907348633,27.67500114440918,27.600000381469727
1751620530270086400,5.16808642578125,29.943750381469727,27.562501907348633,27.656251907348633
1751620530280086500,5.17808642578125,29.83125114440918,27.543750762939453,27.431251525878906
1751620530290086400,5.18808642578125,29.887500762939453,27.543750762939453,27.431251525878906
1751620530300086500,5.19808642578125,29.887500762939453,27.48750114440918,27.375001907348633
1751620530310086400,5.20808642578125,29.906251907348633,27.431251525878906,27.375001907348633
1751620530320086500,5.21808642578125,29.887500762939453,27.637500762939453,27.356250762939453
1751620530330086400,5.22808642578125,29.868751525878906,27.356250762939453,27.318750381469727
1751620530340086500,5.23808642578125,29.981250762939453,27.543750762939453,27.562501907348633
1751620530350086400,5.24808642578125,29.981250762939453,27.693750381469727,27.48750114440918
1751620530360086500,5.25808642578125,30.000001907348633,27.506250381469727,27.412500381469727
1751620530370086400,5.26808642578125,29.775001525878906,27.431251525878906,27.525001525878906
1751620530380086500,5.27808642578125,29.662500381469727,27.337501525878906,27.693750381469727
1751620530390086400,5.28808642578125,29.793750762939453,27.412500381469727,27.600000381469727
1751620530400086500,5.29808642578125,29.868751525878906,27.375001907348633,27.787500381469727
1751620530410086400,5.30808642578125,30.01875114440918,27.337501525878906,27.750001907348633
1751620530420086500,5.31808642578125,30.093751907348633,27.225000381469727,27.600000381469727
1751620530430086400,5.32808642578125,30.075000762939453,27.150001525878906,27.67500114440918
1751620530440086500,5.33808642578125,30.168750762939453,27.356250762939453,27.843751907348633
1751620530450086400,5.34808642578125,30.412500381469727,27.412500381469727,27.656251907348633
1751620530460086500,5.35808642578125,30.48750114440918,27.543750762939453,27.543750762939453
1751620530470086400,5.36808642578125,30.39375114440918,27.543750762939453,27.731250762939453
1751620530480086500,5.37808642578125,30.243751525878906,27.318750381469727,27.731250762939453
1751620530490086400,5.38808642578125,30.168750762939453,27.48750114440918,27.806251525878906
1751620530500086500,5.39808642578125,29.793750762939453,27.562501907348633,27.825000762939453
1751620530510086400,5.40808642578125,29.906251907348633,27.600000381469727,27.656251907348633
1751620530520086500,5.41808642578125,29.718751907348633,27.600000381469727,27.825000762939453
1751620530530086400,5.42808642578125,29.625001907348633,27.693750381469727,27.881250381469727
1751620530540086500,5.43808642578125,29.625001907348633,27.39375114440918,27.918750762939453
1751620530550086400,5.44808642578125,29.531251907348633,27.39375114440918,27.67500114440918
1751620530560086500,5.45808642578125,29.662500381469727,27.562501907348633,27.656251907348633
1751620530570086400,5.46808642578125,29.756250381469727,27.39375114440918,27.525001525878906
1751620530580086500,5.47808642578125,30.01875114440918,27.412500381469727,27.375001907348633
1751620530590086400,5.48808642578125,30.11250114440918,27.056251525878906,27.337501525878906
1751620530600086500,5.49808642578125,30.337501525878906,26.981250762939453,27.150001525878906
1751620530610086400,5.50808642578125,30.468751907348633,27.037500381469727,27.20625114440918
1751620530620086500,5.51808642578125,30.450000762939453,27.11250114440918,27.225000381469727
1751620530630086400,5.52808642578125,30.468751907348633,27.01875114440918,27.281251907348633
1751620530640086500,5.53808642578125,30.431251525878906,27.150001525878906,27.506250381469727
1751620530650086400,5.54808642578125,30.468751907348633,27.150001525878906,27.76875114440918
1751620530660086500,5.55808642578125,30.58125114440918,27.168750762939453,27.86250114440918
1751620530670086400,5.56808642578125,30.58125114440918,27.506250381469727,27.843751907348633
1751620530680086500,5.57808642578125,30.712501525878906,27.562501907348633,27.731250762939453
1751620530690086400,5.58808642578125,30.693750381469727,27.58125114440918,27.86250114440918
1751620530700086500,5.59808642578125,30.712501525878906,27.806251525878906,27.825000762939453
1751620530710086400,5.60808642578125,30.618751525878906,27.937501907348633,28.05000114440918
1751620530720086500,5.61808642578125,30.543750762939453,27.881250381469727,27.881250381469727
1751620530730086400,5.62808642578125,30.67500114440918,27.787500381469727,27.787500381469727
1751620530740086500,5.63808642578125,30.318750381469727,27.881250381469727,27.843751907348633
1751620530750086400,5.64808642578125,29.887500762939453,27.806251525878906,27.787500381469727
1751620530760086500,5.65808642578125,29.625001907348633,27.843751907348633,27.881250381469727
1751620530770086400,5.66808642578125,29.45625114440918,27.67500114440918,27.656251907348633
1751620530780086500,5.67808642578125,29.193750381469727,27.712501525878906,27.637500762939453
1751620530790086400,5.68808642578125,29.193750381469727,27.543750762939453,27.58125114440918
1751620530800086500,5.69808642578125,29.118751525878906,27.543750762939453,27.468751907348633
1751620530810086400,5.70808642578125,28.818750381469727,27.58125114440918,27.39375114440918
1751620530820086500,5.71808642578125,28.950000762939453,27.431251525878906,27.20625114440918
1751620530830086400,5.72808642578125,29.26875114440918,27.318750381469727,27.318750381469727
1751620530840086500,5.73808642578125,29.437501907348633,27.375001907348633,27.318750381469727
1751620530850086400,5.74808642578125,29.493751525878906,27.39375114440918,27.30000114440918
1751620530860086500,5.75808642578125,29.568750381469727,27.225000381469727,27.281251907348633
1751620530870086400,5.76808642578125,29.73750114440918,27.337501525878906,27.243751525878906
1751620530880086500,5.77808642578125,29.812501907348633,27.243751525878906,27.243751525878906
1751620530890086400,5.78808642578125,30.000001907348633,27.431251525878906,27.356250762939453
1751620530900086500,5.79808642578125,30.093751907348633,27.356250762939453,27.431251525878906
1751620530910086400,5.80808642578125,29.700000762939453,27.30000114440918,27.356250762939453
1751620530920086500,5.81808642578125,29.662500381469727,27.150001525878906,27.262500762939453
1751620530930086400,5.82808642578125,29.437501907348633,27.262500762939453,27.58125114440918
1751620530940086500,5.83808642578125,29.55000114440918,27.412500381469727,27.562501907348633
1751620530950086400,5.84808642578125,29.606250762939453,27.337501525878906,27.468751907348633
1751620530960086500,5.85808642578125,29.756250381469727,27.375001907348633,27.525001525878906
1751620530970086400,5.86808642578125,29.512500762939453,27.243751525878906,27.525001525878906
1751620530980086500,5.87808642578125,29.700000762939453,27.30000114440918,27.543750762939453
1751620530990086400,5.88808642578125,29.906251907348633,27.30000114440918,27.525001525878906
1751620531000086500,5.89808642578125,29.981250762939453,27.337501525878906,27.637500762939453
1751620531010086400,5.90808642578125,30.318750381469727,27.356250762939453,27.375001907348633
1751620531020086500,5.91808642578125,30.48750114440918,27.337501525878906,27.431251525878906
1751620531030086400,5.92808642578125,30.39375114440918,27.225000381469727,27.48750114440918
1751620531040086500,5.93808642578125,30.225000381469727,27.30000114440918,27.337501525878906
1751620531050086400,5.94808642578125,30.356250762939453,27.39375114440918,27.20625114440918
1751620531060086500,5.95808642578125,30.150001525878906,27.375001907348633,27.093751907348633
1751620531070086400,5.96808642578125,30.375001907348633,27.356250762939453,27.093751907348633
1751620531080086500,5.97808642578125,30.243751525878906,27.262500762939453,27.000001907348633
1751620531090086400,5.98808642578125,30.187501907348633,27.243751525878906,27.150001525878906
1751620531100086500,5.99808642578125,30.093751907348633,26.943750381469727,26.981250762939453
1751620531110086400,6.00808642578125,30.075000762939453,27.037500381469727,27.01875114440918
1751620531120086500,6.01808642578125,30.093751907348633,26.793750762939453,27.093751907348633
1751620531130086400,6.02808642578125,30.056251525878906,26.850000381469727,27.225000381469727
1751620531140086500,6.03808642578125,30.168750762939453,26.887500762939453,27.356250762939453
1751620531150086400,6.04808642578125,29.906251907348633,27.11250114440918,27.375001907348633
1751620531160086500,6.05808642578125,29.962501525878906,27.337501525878906,27.39375114440918
1751620531170086400,6.06808642578125,29.906251907348633,27.168750762939453,27.281251907348633
1751620531180086500,6.07808642578125,30.000001907348633,27.48750114440918,27.412500381469727
1751620531190086400,6.08808642578125,30.01875114440918,27.58125114440918,27.356250762939453
1751620531200086500,6.09808642578125,30.037500381469727,27.787500381469727,27.39375114440918
1751620531210086400,6.10808642578125,30.281251907348633,27.843751907348633,27.225000381469727
1751620531220086500,6.11808642578125,30.318750381469727,27.881250381469727,27.131250381469727
1751620531230086400,6.12808642578125,30.731250762939453,27.506250381469727,27.093751907348633
1751620531240086500,6.13808642578125,30.656251907348633,27.468751907348633,27.11250114440918
1751620531250086400,6.14808642578125,30.750001907348633,27.693750381469727,27.187501907348633
1751620531260086500,6.15808642578125,30.656251907348633,27.562501907348633,27.262500762939453
1751620531270086400,6.16808642578125,30.600000381469727,27.412500381469727,27.281251907348633
1751620531280086500,6.17808642578125,30.618751525878906,27.337501525878906,27.243751525878906
1751620531290086400,6.18808642578125,30.356250762939453,27.056251525878906,27.39375114440918
1751620531300086500,6.19808642578125,30.20625114440918,26.981250762939453,27.468751907348633
1751620531310086400,6.20808642578125,29.775001525878906,27.131250381469727,27.39375114440918
1751620531320086500,6.21808642578125,29.718751907348633,27.168750762939453,27.450000762939453
1751620531330086400,6.22808642578125,29.587501525878906,27.056251525878906,27.600000381469727
1751620531340086500,6.23808642578125,29.475000381469727,27.168750762939453,27.693750381469727
1751620531350086400,6.24808642578125,29.45625114440918,27.337501525878906,27.731250762939453
1751620531360086500,6.25808642578125,29.625001907348633,27.48750114440918,27.656251907348633
1751620531370086400,6.26808642578125,29.662500381469727,27.506250381469727,27.600000381469727
1751620531380086500,6.27808642578125,29.662500381469727,27.58125114440918,27.618751525878906
1751620531390086400,6.28808642578125,29.850000381469727,27.750001907348633,27.825000762939453
1751620531400086500,6.29808642578125,30.056251525878906,27.712501525878906,27.843751907348633
1751620531410086400,6.30808642578125,30.150001525878906,27.787500381469727,27.843751907348633
1751620531420086500,6.31808642578125,30.431251525878906,27.825000762939453,27.918750762939453
1751620531430086400,6.32808642578125,30.450000762939453,27.637500762939453,27.993751525878906
1751620531440086500,6.33808642578125,30.39375114440918,27.600000381469727,28.087501525878906
1751620531450086400,6.34808642578125,30.30000114440918,27.562501907348633,28.162500381469727
1751620531460086500,6.35808642578125,30.243751525878906,27.318750381469727,28.14375114440918
1751620531470086400,6.36808642578125,30.168750762939453,27.39375114440918,28.087501525878906
1751620531480086500,6.37808642578125,29.943750381469727,27.375001907348633,27.900001525878906
1751620531490086400,6.38808642578125,30.01875114440918,27.243751525878906,27.86250114440918
1751620531500086500,6.39808642578125,29.868751525878906,27.131250381469727,27.431251525878906
1751620531510086400,6.40808642578125,29.943750381469727,27.281251907348633,27.412500381469727
1751620531520086500,6.41808642578125,29.756250381469727,27.225000381469727,27.731250762939453
1751620531530086400,6.42808642578125,29.83125114440918,27.262500762939453,27.712501525878906
1751620531540086500,6.43808642578125,29.981250762939453,27.262500762939453,27.843751907348633
1751620531550086400,6.44808642578125,30.000001907348633,26.981250762939453,28.031251907348633
1751620531560086500,6.45808642578125,29.73750114440918,26.775001525878906,28.350000381469727
1751620531570086400,6.46808642578125,29.92500114440918,26.64375114440918,28.256250381469727
1751620531580086500,6.47808642578125,29.92500114440918,26.606250762939453,28.687501907348633
1751620531590086400,6.48808642578125,29.756250381469727,26.418750762939453,28.875001907348633
1751620531600086500,6.49808642578125,29.868751525878906,26.100000381469727,28.781251907348633
1751620531610086400,6.50808642578125,29.981250762939453,26.043750762939453,28.912500381469727
1751620531620086500,6.51808642578125,30.20625114440918,25.80000114440918,29.062501907348633
1751620531630086400,6.52808642578125,29.962501525878906,25.593751907348633,29.043750762939453
1751620531640086500,6.53808642578125,30.262500762939453,25.23750114440918,28.968751907348633
1751620531650086400,6.54808642578125,30.075000762939453,25.031251907348633,29.062501907348633
1751620531660086500,6.55808642578125,29.92500114440918,24.712501525878906,28.968751907348633
1751620531670086400,6.56808642578125,30.11250114440918,24.431251525878906,28.781251907348633
1751620531680086500,6.57808642578125,30.150001525878906,24.525001525878906,28.89375114440918
1751620531690086400,6.58808642578125,30.187501907348633,24.168750762939453,28.725000381469727
1751620531700086500,6.59808642578125,29.868751525878906,24.225000381469727,28.556251525878906
1751620531710086400,6.60808642578125,29.962501525878906,24.450000762939453,28.61250114440918
1751620531720086500,6.61808642578125,29.981250762939453,24.731250762939453,28.650001525878906
1751620531730086400,6.62808642578125,29.981250762939453,25.012500762939453,28.537500381469727
1751620531740086500,6.63808642578125,30.056251525878906,25.218751907348633,28.218751907348633
1751620531750086400,6.64808642578125,29.83125114440918,25.725000381469727,28.106250762939453
1751620531760086500,6.65808642578125,29.700000762939453,25.837501525878906,27.637500762939453
1751620531770086400,6.66808642578125,29.531251907348633,26.36250114440918,27.431251525878906
1751620531780086500,6.67808642578125,29.400001525878906,27.000001907348633,27.243751525878906
1751620531790086400,6.68808642578125,29.625001907348633,27.375001907348633,26.887500762939453
1751620531800086500,6.69808642578125,29.400001525878906,27.843751907348633,26.868751525878906
1751620531810086400,6.70808642578125,29.381250381469727,28.275001525878906,26.493751525878906
1751620531820086500,6.71808642578125,29.437501907348633,28.762500762939453,26.512500762939453
1751620531830086400,6.72808642578125,29.73750114440918,28.837501525878906,26.287500381469727
1751620531840086500,6.73808642578125,29.92500114440918,29.381250381469727,26.400001525878906
1751620531850086400,6.74808642578125,30.056251525878906,29.64375114440918,26.531251907348633
1751620531860086500,6.75808642578125,30.412500381469727,29.718751907348633,26.718751907348633
1751620531870086400,6.76808642578125,30.412500381469727,29.775001525878906,26.775001525878906
1751620531880086500,6.77808642578125,30.468751907348633,29.868751525878906,26.55000114440918
1751620531890086400,6.78808642578125,30.543750762939453,29.887500762939453,26.73750114440918
1751620531900086500,6.79808642578125,30.48750114440918,29.606250762939453,26.55000114440918
1751620531910086400,6.80808642578125,30.356250762939453,29.700000762939453,26.812501907348633
1751620531920086500,6.81808642578125,30.375001907348633,29.381250381469727,26.812501907348633
1751620531930086400,6.82808642578125,30.150001525878906,29.043750762939453,26.793750762939453
1751620531940086500,6.83808642578125,30.000001907348633,28.500001907348633,26.943750381469727
1751620531950086400,6.84808642578125,29.812501907348633,27.881250381469727,26.943750381469727
1751620531960086500,6.85808642578125,30.225000381469727,27.187501907348633,27.39375114440918
1751620531970086400,6.86808642578125,30.01875114440918,26.325000762939453,27.562501907348633
1751620531980086500,6.87808642578125,29.92500114440918,25.575000762939453,28.068750381469727
1751620531990086400,6.88808642578125,30.093751907348633,24.656251907348633,28.293750762939453
1751620532000086500,6.89808642578125,30.150001525878906,23.887500762939453,28.368751525878906
1751620532010086400,6.90808642578125,30.375001907348633,23.287500381469727,28.631250381469727
1751620532020086500,6.91808642578125,30.693750381469727,22.837501525878906,28.668750762939453
1751620532030086400,6.92808642578125,30.843751907348633,22.275001525878906,28.725000381469727
1751620532040086500,6.93808642578125,30.412500381469727,21.86250114440918,28.631250381469727
1751620532050086400,6.94808642578125,30.48750114440918,21.65625,28.762500762939453
1751620532060086500,6.95808642578125,30.76875114440918,21.48750114440918,28.631250381469727
1751620532070086400,6.96808642578125,30.637500762939453,21.58125114440918,28.481250762939453
1751620532080086500,6.97808642578125,30.562501907348633,21.806251525878906,28.51875114440918
1751620532090086400,6.98808642578125,30.506250381469727,21.975000381469727,28.443750381469727
1751620532100086500,6.99808642578125,30.225000381469727,22.256250381469727,28.481250762939453
1751620532110086400,7.00808642578125,30.262500762939453,22.950000762939453,28.575000762939453
1751620532120086500,7.01808642578125,30.412500381469727,23.568750381469727,28.462501525878906
1751620532130086400,7.02808642578125,30.262500762939453,24.150001525878906,28.387500762939453
1751620532140086500,7.03808642578125,30.131250381469727,25.125001907348633,28.387500762939453
1751620532150086400,7.04808642578125,30.20625114440918,25.743751525878906,28.368751525878906
1751620532160086500,7.05808642578125,30.243751525878906,26.343751907348633,28.162500381469727
1751620532170086400,7.06808642578125,30.150001525878906,27.075000762939453,27.843751907348633
1751620532180086500,7.07808642578125,30.11250114440918,27.562501907348633,27.20625114440918
1751620532190086400,7.08808642578125,30.11250114440918,28.087501525878906,26.943750381469727
1751620532200086500,7.09808642578125,29.962501525878906,28.537500381469727,26.606250762939453
1751620532210086400,7.10808642578125,30.20625114440918,29.100000381469727,26.400001525878906
1751620532220086500,7.11808642578125,30.000001907348633,29.212501525878906,26.231250762939453
1751620532230086400,7.12808642578125,29.793750762939453,29.568750381469727,26.231250762939453
1751620532240086500,7.13808642578125,29.64375114440918,29.625001907348633,26.250001907348633
1751620532250086400,7.14808642578125,29.606250762939453,29.64375114440918,26.325000762939453
1751620532260086500,7.15808642578125,29.475000381469727,29.64375114440918,26.775001525878906
1751620532270086400,7.16808642578125,29.45625114440918,29.493751525878906,26.850000381469727
1751620532280086500,7.17808642578125,29.36250114440918,29.287500381469727,26.793750762939453
1751620532290086400,7.18808642578125,29.212501525878906,28.950000762939453,26.981250762939453
1751620532300086500,7.19808642578125,29.17500114440918,28.762500762939453,27.150001525878906
1751620532310086400,7.20808642578125,29.437501907348633,28.33125114440918,27.243751525878906
1751620532320086500,7.21808642578125,29.587501525878906,27.975000381469727,27.375001907348633
1751620532330086400,7.22808642578125,29.868751525878906,27.281251907348633,27.618751525878906
1751620532340086500,7.23808642578125,30.056251525878906,26.700000762939453,27.693750381469727
1751620532350086400,7.24808642578125,30.01875114440918,26.118751525878906,27.975000381469727
1751620532360086500,7.25808642578125,30.318750381469727,25.387500762939453,28.406251907348633
1751620532370086400,7.26808642578125,30.262500762939453,24.58125114440918,28.42500114440918
1751620532380086500,7.27808642578125,30.525001525878906,23.793750762939453,28.387500762939453
1751620532390086400,7.28808642578125,30.187501907348633,23.17500114440918,28.575000762939453
1751620532400086500,7.29808642578125,30.093751907348633,22.556251525878906,28.781251907348633
1751620532410086400,7.30808642578125,30.01875114440918,22.275001525878906,29.025001525878906
1751620532420086500,7.31808642578125,30.037500381469727,22.03125,28.931251525878906
1751620532430086400,7.32808642578125,30.056251525878906,21.86250114440918,28.743751525878906
1751620532440086500,7.33808642578125,30.11250114440918,21.86250114440918,28.781251907348633
1751620532450086400,7.34808642578125,30.131250381469727,22.087501525878906,28.875001907348633
1751620532460086500,7.35808642578125,30.056251525878906,22.387500762939453,29.006250381469727
1751620532470086400,7.36808642578125,30.168750762939453,22.80000114440918,28.856250762939453
1751620532480086500,7.37808642578125,30.281251907348633,23.45625114440918,28.743751525878906
1751620532490086400,7.38808642578125,30.243751525878906,24,28.275001525878906
1751620532500086500,7.39808642578125,30.150001525878906,24.76875114440918,28.256250381469727
1751620532510086400,7.40808642578125,29.962501525878906,25.593751907348633,28.33125114440918
1751620532520086500,7.41808642578125,30.243751525878906,26.400001525878906,27.881250381469727
1751620532530086400,7.42808642578125,30.375001907348633,27.225000381469727,27.450000762939453
1751620532540086500,7.43808642578125,30.562501907348633,27.937501907348633,26.887500762939453
1751620532550086400,7.44808642578125,30.750001907348633,28.443750381469727,26.437501907348633
1751620532560086500,7.45808642578125,30.618751525878906,29.025001525878906,26.08125114440918
1751620532570086400,7.46808642578125,30.543750762939453,29.64375114440918,25.781251907348633
1751620532580086500,7.47808642578125,30.76875114440918,30.075000762939453,25.443750381469727
1751620532590086400,7.48808642578125,30.95625114440918,30.337501525878906,25.087501525878906
1751620532600086500,7.49808642578125,30.618751525878906,30.656251907348633,25.125001907348633
1751620532610086400,7.50808642578125,30.58125114440918,30.900001525878906,24.825000762939453
1751620532620086500,7.51808642578125,30.412500381469727,30.993751525878906,24.937501907348633
1751620532630086400,7.52808642578125,30.337501525878906,30.975000381469727,24.86250114440918
1751620532640086500,7.53808642578125,30.225000381469727,30.825000762939453,25.14375114440918
1751620532650086400,7.54808642578125,30.168750762939453,30.450000762939453,25.350000381469727
1751620532660086500,7.55808642578125,29.92500114440918,30.11250114440918,25.781251907348633
1751620532670086400,7.56808642578125,30.000001907348633,29.568750381469727,25.98750114440918
1751620532680086500,7.57808642578125,29.887500762939453,28.931251525878906,26.493751525878906
1751620532690086400,7.58808642578125,29.906251907348633,27.975000381469727,27.093751907348633
1751620532700086500,7.59808642578125,29.962501525878906,27.075000762939453,27.506250381469727
1751620532720086500,7.61808642578125,30.375001907348633,25.856250762939453,28.087501525878906
1751620532730086400,7.62808642578125,30.506250381469727,25.200000762939453,28.575000762939453
1751620532740086500,7.63808642578125,30.543750762939453,24.20625114440918,28.725000381469727
1751620532750086400,7.64808642578125,30.356250762939453,23.34375,28.912500381469727
1751620532760086500,7.65808642578125,30.356250762939453,22.837501525878906,28.80000114440918
1751620532770086400,7.66808642578125,30.637500762939453,22.668750762939453,28.762500762939453
1751620532780086500,7.67808642578125,30.76875114440918,22.631250381469727,28.912500381469727
1751620532790086400,7.68808642578125,30.48750114440918,22.575000762939453,29.062501907348633
1751620532800086500,7.69808642578125,30.562501907348633,22.575000762939453,28.89375114440918
1751620532810086400,7.70808642578125,30.656251907348633,22.837501525878906,28.650001525878906
1751620532820086500,7.71808642578125,30.750001907348633,23.587501525878906,28.42500114440918
1751620532830086400,7.72808642578125,30.918750762939453,24.356250762939453,28.42500114440918
1751620532840086500,7.73808642578125,30.975000381469727,25.275001525878906,28.293750762939453
1751620532850086400,7.74808642578125,30.750001907348633,25.931251525878906,28.181251525878906
1751620532860086500,7.75808642578125,30.600000381469727,26.793750762939453,27.693750381469727
1751620532870086400,7.76808642578125,30.506250381469727,27.750001907348633,27.262500762939453
1751620532880086500,7.77808642578125,30.67500114440918,28.537500381469727,26.943750381469727
1751620532890086400,7.78808642578125,30.806251525878906,29.36250114440918,26.512500762939453
1751620532900086500,7.79808642578125,30.900001525878906,29.868751525878906,26.100000381469727
1751620532910086400,7.80808642578125,30.656251907348633,30.562501907348633,25.556251525878906
1751620532920086500,7.81808642578125,30.806251525878906,30.993751525878906,25.23750114440918
1751620532930086400,7.82808642578125,30.712501525878906,31.537500381469727,24.918750762939453
1751620532940086500,7.83808642578125,30.67500114440918,31.725000381469727,24.750001907348633
1751620532950086400,7.84808642578125,30.712501525878906,31.968751907348633,24.656251907348633
1751620532960086500,7.85808642578125,30.637500762939453,32.08125305175781,24.693750381469727
1751620532970086400,7.86808642578125,30.187501907348633,31.856250762939453,24.656251907348633
1751620532980086500,7.87808642578125,29.962501525878906,31.743751525878906,24.881250381469727
1751620532990086400,7.88808642578125,30.11250114440918,31.500001907348633,24.825000762939453
1751620533000086500,7.89808642578125,30.093751907348633,30.975000381469727,24.918750762939453
1751620533010086400,7.90808642578125,30.187501907348633,30.543750762939453,25.23750114440918
1751620533020086500,7.91808642578125,30.262500762939453,29.962501525878906,25.593751907348633
1751620533030086400,7.92808642578125,30.168750762939453,29.231250762939453,25.968751907348633
1751620533040086500,7.93808642578125,30.131250381469727,28.51875114440918,26.475000381469727
1751620533050086400,7.94808642578125,30.562501907348633,27.95625114440918,26.83125114440918
1751620533060086500,7.95808642578125,30.637500762939453,27.281251907348633,27.11250114440918
1751620533070086400,7.96808642578125,30.600000381469727,26.531251907348633,27.750001907348633
1751620533080086500,7.97808642578125,30.600000381469727,25.80000114440918,28.05000114440918
1751620533090086400,7.98808642578125,30.431251525878906,24.95625114440918,28.218751907348633
1751620533100086500,7.99808642578125,30.243751525878906,24.318750381469727,28.481250762939453
1751620533110086400,8.00808642578125,30.243751525878906,23.775001525878906,28.556251525878906
1751620533120086500,8.01808642578125,30.187501907348633,23.212501525878906,28.631250381469727
1751620533130086400,8.02808642578125,29.943750381469727,22.762500762939453,28.968751907348633
1751620533140086500,8.03808642578125,30.056251525878906,22.368751525878906,29.156251907348633
1751620533150086400,8.04808642578125,30.037500381469727,22.087501525878906,29.043750762939453
1751620533160086500,8.05808642578125,29.962501525878906,22.012500762939453,29.08125114440918
1751620533170086400,8.06808642578125,29.981250762939453,22.181251525878906,29.137500762939453
1751620533180086500,8.07808642578125,30.000001907348633,22.537500381469727,29.137500762939453
1751620533190086400,8.08808642578125,30.20625114440918,22.837501525878906,28.931251525878906
1751620533200086500,8.09808642578125,30.281251907348633,23.400001525878906,28.575000762939453
1751620533210086400,8.10808642578125,30.318750381469727,24.056251525878906,28.087501525878906
1751620533220086500,8.11808642578125,30.468751907348633,24.95625114440918,27.67500114440918
1751620533230086400,8.12808642578125,30.262500762939453,25.912500381469727,27.525001525878906
1751620533240086500,8.13808642578125,30.225000381469727,26.868751525878906,27.037500381469727
1751620533250086400,8.14808642578125,30.187501907348633,27.712501525878906,26.64375114440918
1751620533260086500,8.15808642578125,30.39375114440918,28.537500381469727,26.250001907348633
1751620533270086400,8.16808642578125,30.281251907348633,29.418750762939453,25.80000114440918
1751620533280086500,8.17808642578125,30.318750381469727,30.037500381469727,25.687501907348633
1751620533290086400,8.18808642578125,30.318750381469727,30.76875114440918,25.575000762939453
1751620533300086500,8.19808642578125,30.262500762939453,31.181251525878906,25.275001525878906
1751620533310086400,8.20808642578125,30.39375114440918,31.537500381469727,24.881250381469727
1751620533320086500,8.21808642578125,30.262500762939453,31.650001525878906,24.693750381469727
1751620533330086400,8.22808642578125,30.39375114440918,31.931251525878906,24.450000762939453
1751620533340086500,8.23808642578125,30.281251907348633,31.968751907348633,24.30000114440918
1751620533350086400,8.24808642578125,30.281251907348633,31.950000762939453,24.375001907348633
1751620533360086500,8.25808642578125,30.243751525878906,31.837501525878906,24.30000114440918
1751620533370086400,8.26808642578125,30.168750762939453,31.556251525878906,24.356250762939453
1751620533380086500,8.27808642578125,29.962501525878906,31.218751907348633,24.562501907348633
1751620533390086400,8.28808642578125,29.962501525878906,30.918750762939453,24.787500381469727
1751620533400086500,8.29808642578125,30.168750762939453,30.600000381469727,25.23750114440918
1751620533410086400,8.30808642578125,30.187501907348633,29.981250762939453,25.650001525878906
1751620533420086500,8.31808642578125,30.01875114440918,29.343751907348633,26.118751525878906
1751620533430086400,8.32808642578125,30.037500381469727,28.575000762939453,26.587501525878906
1751620533440086500,8.33808642578125,29.625001907348633,27.900001525878906,26.92500114440918
1751620533450086400,8.34808642578125,29.45625114440918,27.093751907348633,27.20625114440918
1751620533460086500,8.35808642578125,29.400001525878906,26.418750762939453,27.58125114440918
1751620533470086400,8.36808642578125,29.512500762939453,25.61250114440918,28.181251525878906
1751620533480086500,8.37808642578125,29.36250114440918,24.712501525878906,28.406251907348633
1751620533490086400,8.38808642578125,29.212501525878906,23.92500114440918,28.575000762939453
1751620533500086500,8.39808642578125,29.418750762939453,23.193750381469727,28.61250114440918
1751620533510086400,8.40808642578125,29.418750762939453,22.650001525878906,28.856250762939453
1751620533520086500,8.41808642578125,29.681251525878906,22.256250381469727,29.118751525878906
1751620533530086400,8.42808642578125,29.812501907348633,21.76875114440918,29.36250114440918
1751620533540086500,8.43808642578125,29.868751525878906,21.39375114440918,29.418750762939453
1751620533550086400,8.44808642578125,29.906251907348633,21.075000762939453,29.250001907348633
1751620533560086500,8.45808642578125,30.037500381469727,21.09375,29.306251525878906
1751620533570086400,8.46808642578125,29.981250762939453,21.11250114440918,29.26875114440918
1751620533580086500,8.47808642578125,29.906251907348633,21.28125,29.325000762939453
1751620533590086400,8.48808642578125,29.812501907348633,21.39375114440918,29.043750762939453
1751620533600086500,8.49808642578125,30.000001907348633,21.46875,28.781251907348633
1751620533610086400,8.50808642578125,29.850000381469727,22.087501525878906,28.51875114440918
1751620533620086500,8.51808642578125,29.887500762939453,22.762500762939453,28.256250381469727
1751620533630086400,8.52808642578125,29.83125114440918,23.493751525878906,28.23750114440918
1751620533640086500,8.53808642578125,29.812501907348633,24.20625114440918,27.843751907348633
1751620533650086400,8.54808642578125,29.700000762939453,25.031251907348633,27.693750381469727
1751620533660086500,8.55808642578125,29.850000381469727,25.743751525878906,27.225000381469727
1751620533670086400,8.56808642578125,29.92500114440918,26.55000114440918,26.981250762939453
1751620533680086500,8.57808642578125,29.73750114440918,27.356250762939453,26.625001907348633
1751620533690086400,8.58808642578125,29.868751525878906,27.86250114440918,26.437501907348633
1751620533700086500,8.59808642578125,29.92500114440918,28.406251907348633,26.062501907348633
1751620533710086400,8.60808642578125,29.793750762939453,28.875001907348633,25.575000762939453
1751620533720086500,8.61808642578125,29.793750762939453,29.250001907348633,25.368751525878906
1751620533730086400,8.62808642578125,29.812501907348633,29.568750381469727,25.368751525878906
1751620533740086500,8.63808642578125,29.793750762939453,29.756250381469727,25.462501525878906
1751620533750086400,8.64808642578125,29.64375114440918,29.887500762939453,25.406251907348633
1751620533760086500,8.65808642578125,29.662500381469727,30.056251525878906,25.537500381469727
1751620533770086400,8.66808642578125,29.587501525878906,30.11250114440918,25.537500381469727
1751620533780086500,8.67808642578125,29.325000762939453,30.150001525878906,25.968751907348633
1751620533790086400,8.68808642578125,29.381250381469727,29.83125114440918,26.100000381469727
1751620533800086500,8.69808642578125,29.306251525878906,29.437501907348633,26.36250114440918
1751620533810086400,8.70808642578125,29.400001525878906,28.968751907348633,26.306251525878906
1751620533820086500,8.71808642578125,29.343751907348633,28.312501907348633,26.568750381469727
1751620533830086400,8.72808642578125,29.156251907348633,27.712501525878906,27.056251525878906
1751620533840086500,8.73808642578125,28.98750114440918,26.812501907348633,27.412500381469727
1751620533850086400,8.74808642578125,29.025001525878906,25.875001907348633,27.637500762939453
1751620533860086500,8.75808642578125,29.006250381469727,24.731250762939453,27.618751525878906
1751620533870086400,8.76808642578125,29.043750762939453,23.92500114440918,27.937501907348633
1751620533880086500,8.77808642578125,29.062501907348633,23.025001525878906,28.23750114440918
1751620533890086400,8.78808642578125,29.212501525878906,22.181251525878906,28.556251525878906
1751620533900086500,8.79808642578125,29.306251525878906,21.787500381469727,28.593751907348633
1751620533910086400,8.80808642578125,29.45625114440918,21.168750762939453,28.781251907348633
1751620533920086500,8.81808642578125,29.531251907348633,20.868751525878906,28.837501525878906
1751620533930086400,8.82808642578125,29.756250381469727,20.625,28.968751907348633
1751620533940086500,8.83808642578125,29.73750114440918,20.71875,29.231250762939453
1751620533950086400,8.84808642578125,29.64375114440918,20.850000381469727,29.381250381469727
1751620533960086500,8.85808642578125,29.83125114440918,21.318750381469727,29.306251525878906
1751620533970086400,8.86808642578125,29.981250762939453,21.900001525878906,29.212501525878906
1751620533980086500,8.87808642578125,29.943750381469727,22.42500114440918,29.137500762939453
1751620533990086400,8.88808642578125,30.037500381469727,23.381250381469727,28.725000381469727
1751620534000086500,8.89808642578125,30.168750762939453,23.962501525878906,28.275001525878906
1751620534010086400,8.90808642578125,30.01875114440918,25.012500762939453,27.937501907348633
1751620534020086500,8.91808642578125,30.318750381469727,25.950000762939453,27.412500381469727
1751620534030086400,8.92808642578125,30.262500762939453,27.000001907348633,26.775001525878906
1751620534040086500,8.93808642578125,30.281251907348633,28.05000114440918,26.287500381469727
1751620534050086400,8.94808642578125,30.187501907348633,28.837501525878906,26.006250381469727
1751620534060086500,8.95808642578125,30.168750762939453,29.400001525878906,25.462501525878906
1751620534070086400,8.96808642578125,30.150001525878906,29.887500762939453,25.23750114440918
1751620534080086500,8.97808642578125,30.150001525878906,30.825000762939453,25.05000114440918
1751620534090086400,8.98808642578125,30.225000381469727,31.162500381469727,24.881250381469727
1751620534100086500,8.99808642578125,30.281251907348633,31.23750114440918,24.693750381469727
1751620534110086400,9.00808642578125,30.281251907348633,31.293750762939453,24.76875114440918
1751620534120086500,9.01808642578125,29.962501525878906,31.218751907348633,24.86250114440918
1751620534130086400,9.02808642578125,29.868751525878906,30.975000381469727,24.86250114440918
1751620534140086500,9.03808642578125,29.962501525878906,30.86250114440918,25.275001525878906
1751620534150086400,9.04808642578125,29.943750381469727,30.318750381469727,25.368751525878906
1751620534160086500,9.05808642578125,29.756250381469727,29.437501907348633,25.687501907348633
1751620534170086400,9.06808642578125,29.568750381469727,28.668750762939453,26.100000381469727
1751620534180086500,9.07808642578125,29.325000762939453,28.106250762939453,26.493751525878906
1751620534190086400,9.08808642578125,29.437501907348633,27.093751907348633,26.92500114440918
1751620534200086500,9.09808642578125,29.437501907348633,26.025001525878906,27.39375114440918
1751620534210086400,9.10808642578125,29.493751525878906,25.106250762939453,28.087501525878906
1751620534220086500,9.11808642578125,29.306251525878906,24.01875114440918,28.350000381469727
1751620534230086400,9.12808642578125,29.36250114440918,23.17500114440918,28.856250762939453
1751620534240086500,9.13808642578125,29.493751525878906,22.51875114440918,29.231250762939453
1751620534250086400,9.14808642578125,29.437501907348633,21.900001525878906,29.36250114440918
1751620534260086500,9.15808642578125,29.587501525878906,21.262500762939453,29.662500381469727
1751620534270086400,9.16808642578125,29.493751525878906,21.1875,29.812501907348633
1751620534280086500,9.17808642578125,29.681251525878906,21.318750381469727,29.756250381469727
1751620534290086400,9.18808642578125,29.681251525878906,21.48750114440918,29.381250381469727
1751620534300086500,9.19808642578125,29.73750114440918,22.05000114440918,29.55000114440918
1751620534310086400,9.20808642578125,29.756250381469727,22.78125,29.137500762939453
1751620534320086500,9.21808642578125,29.625001907348633,23.53125,28.61250114440918
1751620534330086400,9.22808642578125,29.83125114440918,24.39375114440918,28.162500381469727
1751620534340086500,9.23808642578125,29.775001525878906,25.537500381469727,27.693750381469727
1751620534350086400,9.24808642578125,30.075000762939453,26.475000381469727,27.000001907348633
1751620534360086500,9.25808642578125,30.168750762939453,27.525001525878906,26.55000114440918
1751620534370086400,9.26808642578125,30.131250381469727,28.631250381469727,26.006250381469727
1751620534380086500,9.27808642578125,30.075000762939453,29.512500762939453,25.087501525878906
1751620534390086400,9.28808642578125,29.943750381469727,30.281251907348633,24.67500114440918
1751620534400086500,9.29808642578125,30.075000762939453,30.881250381469727,24.412500381469727
1751620534410086400,9.30808642578125,29.962501525878906,31.42500114440918,24.281251907348633
1751620534420086500,9.31808642578125,29.906251907348633,31.631250381469727,24
1751620534430086400,9.32808642578125,29.793750762939453,31.818750381469727,23.943750381469727
1751620534440086500,9.33808642578125,29.625001907348633,31.80000114440918,23.775001525878906
1751620534450086400,9.34808642578125,29.718751907348633,31.537500381469727,23.868751525878906
1751620534460086500,9.35808642578125,29.73750114440918,31.312501907348633,24.243751525878906
1751620534470086400,9.36808642578125,29.662500381469727,31.106250762939453,24.67500114440918
1751620534480086500,9.37808642578125,29.587501525878906,30.67500114440918,25.068750381469727
1751620534490086400,9.38808642578125,29.512500762939453,30.093751907348633,25.350000381469727
1751620534500086500,9.39808642578125,29.493751525878906,29.437501907348633,25.875001907348633
1751620534510086400,9.40808642578125,29.26875114440918,28.51875114440918,26.306251525878906
1751620534520086500,9.41808642578125,29.250001907348633,27.562501907348633,26.812501907348633
1751620534530086400,9.42808642578125,29.193750381469727,26.606250762939453,27.543750762939453
1751620534540086500,9.43808642578125,29.250001907348633,25.462501525878906,28.031251907348633
1751620534550086400,9.44808642578125,29.100000381469727,24.450000762939453,28.537500381469727
1751620534560086500,9.45808642578125,29.118751525878906,23.587501525878906,29.08125114440918
1751620534570086400,9.46808642578125,29.325000762939453,22.59375,29.568750381469727
1751620534580086500,9.47808642578125,29.400001525878906,21.76875114440918,29.73750114440918
1751620534590086400,9.48808642578125,29.606250762939453,21.037500381469727,30.093751907348633
1751620534600086500,9.49808642578125,29.437501907348633,20.681251525878906,30.337501525878906
1751620534610086400,9.50808642578125,29.381250381469727,20.4375,30.262500762939453
1751620534620086500,9.51808642578125,29.36250114440918,20.45625114440918,30.30000114440918
1751620534630086400,9.52808642578125,29.512500762939453,20.36250114440918,30.131250381469727
1751620534640086500,9.53808642578125,29.625001907348633,20.493751525878906,29.887500762939453
1751620534650086400,9.54808642578125,29.83125114440918,21.20625114440918,29.625001907348633
1751620534660086500,9.55808642578125,29.887500762939453,21.993751525878906,29.531251907348633
1751620534670086400,9.56808642578125,29.906251907348633,22.875,29.156251907348633
1751620534680086500,9.57808642578125,30.131250381469727,23.568750381469727,28.80000114440918
1751620534690086400,9.58808642578125,30.243751525878906,24.543750762939453,28.125001907348633
1751620534700086500,9.59808642578125,30.375001907348633,25.387500762939453,27.637500762939453
1751620534710086400,9.60808642578125,30.600000381469727,26.306251525878906,27.187501907348633
1751620534720086500,9.61808642578125,30.656251907348633,27.337501525878906,26.64375114440918
1751620534730086400,9.62808642578125,30.375001907348633,27.993751525878906,26.025001525878906
1751620534740086500,9.63808642578125,30.375001907348633,28.33125114440918,25.42500114440918
1751620534750086400,9.64808642578125,30.39375114440918,29.100000381469727,25.275001525878906
1751620534760086500,9.65808642578125,30.262500762939453,29.756250381469727,24.975000381469727
1751620534770086400,9.66808642578125,30.243751525878906,30.168750762939453,24.843751907348633
1751620534780086500,9.67808642578125,30.056251525878906,30.618751525878906,24.712501525878906
1751620534790086400,9.68808642578125,29.887500762939453,30.76875114440918,24.543750762939453
1751620534800086500,9.69808642578125,29.64375114440918,30.900001525878906,24.58125114440918
1751620534810086400,9.70808642578125,29.83125114440918,30.95625114440918,24.562501907348633
1751620534820086500,9.71808642578125,29.662500381469727,30.937501907348633,24.67500114440918
1751620534830086400,9.72808642578125,29.512500762939453,30.843751907348633,24.76875114440918
1751620534840086500,9.73808642578125,29.343751907348633,30.075000762939453,24.975000381469727
1751620534850086400,9.74808642578125,29.006250381469727,29.287500381469727,25.23750114440918
1751620534860086500,9.75808642578125,29.118751525878906,28.650001525878906,25.631250381469727
1751620534870086400,9.76808642578125,28.950000762939453,27.86250114440918,25.80000114440918
1751620534880086500,9.77808642578125,29.006250381469727,26.793750762939453,26.17500114440918
1751620534890086400,9.78808642578125,28.556251525878906,25.80000114440918,26.681251525878906
1751620534900086500,9.79808642578125,28.70625114440918,24.76875114440918,27.20625114440918
1751620534910086400,9.80808642578125,28.631250381469727,23.512500762939453,27.600000381469727
1751620534920086500,9.81808642578125,28.818750381469727,23.006250381469727,28.162500381469727
1751620534930086400,9.82808642578125,28.968751907348633,22.387500762939453,28.575000762939453
1751620534940086500,9.83808642578125,28.80000114440918,21.806251525878906,28.80000114440918
1751620534950086400,9.84808642578125,28.98750114440918,21.356250762939453,29.212501525878906
1751620534960086500,9.85808642578125,29.118751525878906,21.1875,29.568750381469727
1751620534970086400,9.86808642578125,29.343751907348633,21.1875,29.83125114440918
1751620534980086500,9.87808642578125,29.531251907348633,21.431251525878906,29.756250381469727
1751620534990086400,9.88808642578125,29.64375114440918,21.95625114440918,29.662500381469727
1751620535000086500,9.89808642578125,29.887500762939453,22.725000381469727,29.231250762939453
1751620535010086400,9.90808642578125,29.850000381469727,23.64375114440918,29.08125114440918
1751620535020086500,9.91808642578125,29.756250381469727,24.337501525878906,28.818750381469727
1751620535030086400,9.92808642578125,29.981250762939453,25.556251525878906,28.350000381469727
1751620535040086500,9.93808642578125,29.850000381469727,26.568750381469727,27.76875114440918
1751620535050086400,9.94808642578125,30.093751907348633,27.76875114440918,27.131250381469727
1751620535060086500,9.95808642578125,29.700000762939453,28.781251907348633,26.531251907348633
1751620535070086400,9.96808642578125,29.681251525878906,29.92500114440918,26.062501907348633
1751620535080086500,9.97808642578125,29.343751907348633,30.48750114440918,25.537500381469727
1751620535090086400,9.98808642578125,29.55000114440918,31.14375114440918,24.825000762939453
1751620535100086500,9.99808642578125,29.906251907348633,31.743751525878906,24.337501525878906
1751620535110086400,10.00808642578125,29.756250381469727,32.15625,24.150001525878906
1751620535120086500,10.01808642578125,29.718751907348633,32.55000305175781,23.943750381469727
1751620535130086400,10.02808642578125,29.64375114440918,32.75625228881836,23.92500114440918
1751620535140086500,10.03808642578125,29.681251525878906,32.73750305175781,23.83125114440918
1751620535150086400,10.04808642578125,29.868751525878906,32.4375,23.568750381469727
1751620535160086500,10.05808642578125,29.962501525878906,32.15625,23.90625
1751620535170086400,10.06808642578125,29.775001525878906,31.687501907348633,24.225000381469727
1751620535180086500,10.07808642578125,29.512500762939453,31.256250381469727,24.450000762939453
1751620535190086400,10.08808642578125,29.36250114440918,30.58125114440918,24.656251907348633
1751620535200086500,10.09808642578125,29.475000381469727,29.756250381469727,25.068750381469727
1751620535210086400,10.10808642578125,29.531251907348633,28.837501525878906,25.61250114440918
1751620535220086500,10.11808642578125,29.531251907348633,28.05000114440918,26.118751525878906
1751620535230086400,10.12808642578125,29.531251907348633,27.20625114440918,26.83125114440918
1751620535240086500,10.13808642578125,29.64375114440918,26.250001907348633,27.262500762939453
1751620535250086400,10.14808642578125,29.962501525878906,25.181251525878906,27.76875114440918
1751620535260086500,10.15808642578125,30.01875114440918,24.150001525878906,28.293750762939453
1751620535270086400,10.16808642578125,29.981250762939453,23.193750381469727,28.51875114440918
1751620535280086500,10.17808642578125,29.962501525878906,22.5,28.725000381469727
1751620535290086400,10.18808642578125,29.943750381469727,21.806251525878906,28.875001907348633
1751620535300086500,10.19808642578125,30.01875114440918,21.28125,29.193750381469727
1751620535310086400,10.20808642578125,29.812501907348633,20.868751525878906,29.568750381469727
1751620535320086500,10.21808642578125,29.793750762939453,20.73750114440918,29.775001525878906
1751620535330086400,10.22808642578125,29.606250762939453,20.887500762939453,30.01875114440918
1751620535340086500,10.23808642578125,29.343751907348633,21.1875,29.868751525878906
1751620535350086400,10.24808642578125,29.531251907348633,21.30000114440918,29.850000381469727
1751620535360086500,10.25808642578125,29.55000114440918,21.450000762939453,29.868751525878906
1751620535370086400,10.26808642578125,29.437501907348633,21.881250381469727,29.587501525878906
1751620535380086500,10.27808642578125,29.55000114440918,22.537500381469727,29.381250381469727
1751620535390086400,10.28808642578125,29.700000762939453,23.193750381469727,28.818750381469727
1751620535400086500,10.29808642578125,29.625001907348633,23.92500114440918,28.33125114440918
1751620535410086400,10.30808642578125,29.400001525878906,24.787500381469727,27.881250381469727
1751620535420086500,10.31808642578125,29.73750114440918,25.556251525878906,27.562501907348633
1751620535430086400,10.32808642578125,29.718751907348633,26.64375114440918,27.506250381469727
1751620535440086500,10.33808642578125,29.850000381469727,27.58125114440918,26.83125114440918
1751620535450086400,10.34808642578125,29.793750762939453,28.42500114440918,26.418750762939453
1751620535460086500,10.35808642578125,29.850000381469727,28.968751907348633,26.26875114440918
1751620535470086400,10.36808642578125,29.850000381469727,29.343751907348633,25.781251907348633
1751620535480086500,10.37808642578125,29.775001525878906,29.568750381469727,25.725000381469727
1751620535490086400,10.38808642578125,29.868751525878906,29.606250762939453,25.537500381469727
1751620535500086500,10.39808642578125,29.793750762939453,29.681251525878906,25.575000762939453
1751620535510086400,10.40808642578125,29.606250762939453,29.418750762939453,25.650001525878906
1751620535520086500,10.41808642578125,29.587501525878906,28.98750114440918,25.968751907348633
1751620535530086400,10.42808642578125,29.83125114440918,28.387500762939453,26.36250114440918
1751620535540086500,10.43808642578125,29.662500381469727,27.656251907348633,26.493751525878906
1751620535550086400,10.44808642578125,29.45625114440918,26.775001525878906,27.11250114440918
1751620535560086500,10.45808642578125,29.45625114440918,25.950000762939453,27.375001907348633
1751620535570086400,10.46808642578125,29.606250762939453,25.031251907348633,27.975000381469727
1751620535580086500,10.47808642578125,29.512500762939453,23.775001525878906,28.350000381469727
1751620535590086400,10.48808642578125,29.64375114440918,22.78125,28.500001907348633
1751620535600086500,10.49808642578125,29.493751525878906,21.975000381469727,28.931251525878906
1751620535610086400,10.50808642578125,29.343751907348633,21.225000381469727,29.212501525878906
1751620535620086500,10.51808642578125,29.418750762939453,20.568750381469727,29.325000762939453
1751620535630086400,10.52808642578125,29.400001525878906,20.325000762939453,29.512500762939453
1751620535640086500,10.53808642578125,29.531251907348633,20.118751525878906,29.700000762939453
1751620535650086400,10.54808642578125,29.587501525878906,19.98750114440918,29.587501525878906
1751620535660086500,10.55808642578125,29.587501525878906,20.287500381469727,29.493751525878906
1751620535670086400,10.56808642578125,29.700000762939453,20.625,29.250001907348633
1751620535680086500,10.57808642578125,29.64375114440918,21.168750762939453,28.89375114440918
1751620535690086400,10.58808642578125,29.568750381469727,21.900001525878906,28.668750762939453
1751620535700086500,10.59808642578125,29.625001907348633,22.912500381469727,28.61250114440918
1751620535710086400,10.60808642578125,29.793750762939453,23.775001525878906,28.068750381469727
1751620535720086500,10.61808642578125,29.775001525878906,24.86250114440918,27.525001525878906
1751620535730086400,10.62808642578125,29.73750114440918,25.931251525878906,27.01875114440918
1751620535740086500,10.63808642578125,30.056251525878906,26.906251907348633,26.587501525878906
1751620535750086400,10.64808642578125,30.056251525878906,27.900001525878906,26.26875114440918
1751620535760086500,10.65808642578125,30.20625114440918,28.631250381469727,25.98750114440918
1751620535770086400,10.66808642578125,30.30000114440918,29.287500381469727,25.650001525878906
1751620535780086500,10.67808642578125,30.11250114440918,29.812501907348633,25.350000381469727
1751620535790086400,10.68808642578125,30.375001907348633,30.056251525878906,25.218751907348633
1751620535800086500,10.69808642578125,30.20625114440918,30.093751907348633,25.14375114440918
1751620535810086400,10.70808642578125,30.037500381469727,30.187501907348633,25.068750381469727
1751620535820086500,10.71808642578125,29.887500762939453,30.187501907348633,25.256250381469727
1751620535830086400,10.72808642578125,29.812501907348633,29.92500114440918,25.537500381469727
1751620535840086500,10.73808642578125,29.718751907348633,29.606250762939453,25.556251525878906
1751620535850086400,10.74808642578125,29.64375114440918,29.043750762939453,25.818750381469727
1751620535860086500,10.75808642578125,29.587501525878906,28.350000381469727,26.193750381469727
1751620535870086400,10.76808642578125,29.400001525878906,27.750001907348633,26.400001525878906
1751620535880086500,10.77808642578125,29.568750381469727,26.92500114440918,26.756250381469727
1751620535890086400,10.78808642578125,29.437501907348633,26.062501907348633,27.30000114440918
1751620535900086500,10.79808642578125,29.325000762939453,24.95625114440918,27.543750762939453
1751620535910086400,10.80808642578125,29.250001907348633,23.962501525878906,27.806251525878906
1751620535920086500,10.81808642578125,29.156251907348633,22.931251525878906,28.275001525878906
1751620535930086400,10.82808642578125,29.193750381469727,21.9375,28.537500381469727
1751620535940086500,10.83808642578125,29.437501907348633,21.337501525878906,28.837501525878906
1751620535950086400,10.84808642578125,29.118751525878906,20.662500381469727,29.08125114440918
1751620535960086500,10.85808642578125,28.875001907348633,20.36250114440918,29.36250114440918
1751620535970086400,10.86808642578125,28.98750114440918,20.15625,29.36250114440918
1751620535980086500,10.87808642578125,29.118751525878906,20.26875114440918,29.606250762939453
1751620535990086400,10.88808642578125,29.17500114440918,20.34375,29.662500381469727
1751620536000086500,10.89808642578125,29.17500114440918,20.775001525878906,29.756250381469727
1751620536010086400,10.90808642578125,29.156251907348633,21.506250381469727,29.73750114440918
1751620536020086500,10.91808642578125,29.043750762939453,22.21875,29.45625114440918
1751620536030086400,10.92808642578125,29.26875114440918,23.025001525878906,29.287500381469727
1751620536040086500,10.93808642578125,29.64375114440918,23.73750114440918,28.912500381469727
1751620536050086400,10.94808642578125,29.756250381469727,24.618751525878906,28.51875114440918
1751620536060086500,10.95808642578125,29.73750114440918,25.481250762939453,27.900001525878906
1751620536070086400,10.96808642578125,29.606250762939453,26.531251907348633,27.48750114440918
1751620536080086500,10.97808642578125,29.718751907348633,27.600000381469727,26.756250381469727
1751620536090086400,10.98808642578125,29.493751525878906,28.443750381469727,25.98750114440918
1751620536100086500,10.99808642578125,29.418750762939453,29.006250381469727,25.687501907348633
1751620536110086400,11.00808642578125,29.587501525878906,29.681251525878906,25.368751525878906
1751620536120086500,11.01808642578125,29.306251525878906,30.262500762939453,25.106250762939453
1751620536130086400,11.02808642578125,29.36250114440918,30.48750114440918,25.05000114440918
1751620536140086500,11.03808642578125,29.325000762939453,30.712501525878906,25.05000114440918
1751620536150086400,11.04808642578125,29.587501525878906,30.67500114440918,25.181251525878906
1751620536160086500,11.05808642578125,29.662500381469727,30.39375114440918,25.462501525878906
1751620536170086400,11.06808642578125,29.83125114440918,30.01875114440918,25.875001907348633
1751620536180086500,11.07808642578125,29.681251525878906,29.700000762939453,25.98750114440918
1751620536190086400,11.08808642578125,29.662500381469727,29.118751525878906,26.475000381469727
1751620536200086500,11.09808642578125,29.718751907348633,28.350000381469727,26.662500381469727
1751620536210086400,11.10808642578125,29.45625114440918,27.450000762939453,26.962501525878906
1751620536220086500,11.11808642578125,29.231250762939453,26.493751525878906,27.243751525878906
1751620536230086400,11.12808642578125,29.118751525878906,25.725000381469727,27.48750114440918
1751620536240086500,11.13808642578125,28.931251525878906,24.86250114440918,27.787500381469727
1751620536250086400,11.14808642578125,28.968751907348633,24.093751907348633,28.14375114440918
1751620536260086500,11.15808642578125,29.250001907348633,23.08125114440918,28.275001525878906
1751620536270086400,11.16808642578125,29.025001525878906,22.40625,28.42500114440918
1751620536280086500,11.17808642578125,29.043750762939453,21.900001525878906,28.80000114440918
1751620536290086400,11.18808642578125,29.287500381469727,21.543750762939453,28.837501525878906
1751620536300086500,11.19808642578125,29.26875114440918,21.262500762939453,28.80000114440918
1751620536310086400,11.20808642578125,29.306251525878906,21.168750762939453,29.006250381469727
1751620536320086500,11.21808642578125,29.512500762939453,21,28.98750114440918
1751620536330086400,11.22808642578125,29.718751907348633,21.168750762939453,28.931251525878906
1751620536340086500,11.23808642578125,29.64375114440918,21.46875,28.950000762939453
1751620536350086400,11.24808642578125,29.812501907348633,21.825000762939453,28.89375114440918
1751620536360086500,11.25808642578125,30.187501907348633,22.368751525878906,28.931251525878906
1751620536370086400,11.26808642578125,30.281251907348633,23.025001525878906,28.931251525878906
1751620536380086500,11.27808642578125,30.431251525878906,23.850000381469727,28.931251525878906
1751620536390086400,11.28808642578125,30.412500381469727,24.76875114440918,28.293750762939453
1751620536400086500,11.29808642578125,30.468751907348633,26.006250381469727,27.975000381469727
1751620536410086400,11.30808642578125,30.187501907348633,27.11250114440918,27.712501525878906
1751620536420086500,11.31808642578125,30.337501525878906,28.256250381469727,27.225000381469727
1751620536430086400,11.32808642578125,30.48750114440918,29.062501907348633,26.606250762939453
1751620536440086500,11.33808642578125,30.225000381469727,29.962501525878906,25.968751907348633
1751620536450086400,11.34808642578125,30.243751525878906,30.693750381469727,25.33125114440918
1751620536460086500,11.35808642578125,30.58125114440918,31.162500381469727,24.843751907348633
1751620536470086400,11.36808642578125,30.731250762939453,31.631250381469727,24.58125114440918
1751620536480086500,11.37808642578125,30.787500381469727,31.593751907348633,24.318750381469727
1751620536490086400,11.38808642578125,31.012500762939453,31.350000381469727,24.262500762939453
1751620536500086500,11.39808642578125,30.843751907348633,31.05000114440918,24.67500114440918
1751620536510086400,11.40808642578125,30.618751525878906,30.918750762939453,24.750001907348633
1751620536520086500,11.41808642578125,30.506250381469727,30.318750381469727,25.068750381469727
1751620536530086400,11.42808642578125,30.318750381469727,29.850000381469727,25.725000381469727
1751620536540086500,11.43808642578125,29.981250762939453,29.306251525878906,26.212501525878906
1751620536550086400,11.44808642578125,29.700000762939453,28.14375114440918,26.568750381469727
1751620536560086500,11.45808642578125,29.587501525878906,27.20625114440918,27.131250381469727
1751620536570086400,11.46808642578125,29.437501907348633,26.250001907348633,27.543750762939453
1751620536580086500,11.47808642578125,29.475000381469727,25.350000381469727,27.76875114440918
1751620536590086400,11.48808642578125,29.437501907348633,24.262500762939453,28.293750762939453
1751620536600086500,11.49808642578125,29.475000381469727,23.418750762939453,28.593751907348633
1751620536610086400,11.50808642578125,29.45625114440918,22.462501525878906,28.837501525878906
1751620536620086500,11.51808642578125,29.55000114440918,21.67500114440918,28.968751907348633
1751620536630086400,11.52808642578125,29.718751907348633,21.056251525878906,29.625001907348633
1751620536640086500,11.53808642578125,29.73750114440918,20.64375114440918,29.64375114440918
1751620536650086400,11.54808642578125,29.700000762939453,20.325000762939453,29.681251525878906
1751620536660086500,11.55808642578125,29.83125114440918,20.118751525878906,29.756250381469727
1751620536670086400,11.56808642578125,29.700000762939453,20.34375,29.775001525878906
1751620536680086500,11.57808642578125,29.775001525878906,20.400001525878906,29.681251525878906
1751620536690086400,11.58808642578125,29.568750381469727,20.625,29.531251907348633
1751620536700086500,11.59808642578125,29.493751525878906,20.887500762939453,29.493751525878906
1751620536710086400,11.60808642578125,29.400001525878906,21.67500114440918,29.118751525878906
1751620536720086500,11.61808642578125,29.287500381469727,22.256250381469727,28.818750381469727
1751620536730086400,11.62808642578125,29.437501907348633,23.043750762939453,28.500001907348633
1751620536740086500,11.63808642578125,29.26875114440918,23.887500762939453,28.23750114440918
1751620536750086400,11.64808642578125,29.681251525878906,24.618751525878906,27.918750762939453
1751620536760086500,11.65808642578125,29.73750114440918,25.593751907348633,27.618751525878906
1751620536770086400,11.66808642578125,29.981250762939453,26.606250762939453,27.093751907348633
1751620536780086500,11.67808642578125,29.887500762939453,27.468751907348633,26.756250381469727
1751620536790086400,11.68808642578125,29.850000381469727,28.068750381469727,26.475000381469727
1751620536800086500,11.69808642578125,29.775001525878906,28.818750381469727,26.381250381469727
1751620536810086400,11.70808642578125,29.73750114440918,29.343751907348633,26.193750381469727
1751620536820086500,11.71808642578125,29.868751525878906,29.475000381469727,25.931251525878906
1751620536830086400,11.72808642578125,29.568750381469727,29.531251907348633,25.875001907348633
1751620536840086500,11.73808642578125,29.625001907348633,29.45625114440918,25.80000114440918
1751620536850086400,11.74808642578125,29.756250381469727,29.118751525878906,26.17500114440918
1751620536860086500,11.75808642578125,29.868751525878906,28.70625114440918,26.45625114440918
1751620536870086400,11.76808642578125,29.700000762939453,28.012500762939453,26.587501525878906
1751620536880086500,11.77808642578125,29.756250381469727,27.225000381469727,26.887500762939453
1751620536890086400,11.78808642578125,29.793750762939453,26.231250762939453,27.187501907348633
1751620536900086500,11.79808642578125,29.756250381469727,25.481250762939453,27.618751525878906
1751620536910086400,11.80808642578125,29.906251907348633,24.48750114440918,27.95625114440918
1751620536920086500,11.81808642578125,29.568750381469727,23.55000114440918,28.368751525878906
1751620536930086400,11.82808642578125,29.512500762939453,22.631250381469727,28.687501907348633
1751620536940086500,11.83808642578125,29.306251525878906,21.76875114440918,28.818750381469727
1751620536950086400,11.84808642578125,29.606250762939453,21.1875,29.137500762939453
1751620536960086500,11.85808642578125,29.587501525878906,20.568750381469727,29.325000762939453
1751620536970086400,11.86808642578125,29.418750762939453,20.15625,29.493751525878906
1751620536980086500,11.87808642578125,29.250001907348633,19.89375114440918,29.55000114440918
1751620536990086400,11.88808642578125,29.343751907348633,19.762500762939453,29.718751907348633
1751620537000086500,11.89808642578125,29.568750381469727,19.537500381469727,29.73750114440918
1751620537010086400,11.90808642578125,29.512500762939453,19.743751525878906,29.55000114440918
1751620537020086500,11.91808642578125,29.64375114440918,20.231250762939453,29.493751525878906
1751620537030086400,11.92808642578125,29.662500381469727,20.625,29.343751907348633
1751620537040086500,11.93808642578125,29.775001525878906,21.30000114440918,29.212501525878906
1751620537050086400,11.94808642578125,29.906251907348633,22.125,29.100000381469727
1751620537060086500,11.95808642578125,29.943750381469727,22.96875,28.950000762939453
1751620537070086400,11.96808642578125,29.662500381469727,23.981250762939453,28.593751907348633
1751620537080086500,11.97808642578125,29.756250381469727,25.05000114440918,28.275001525878906
1751620537090086400,11.98808642578125,29.887500762939453,26.137500762939453,28.14375114440918
1751620537100086500,11.99808642578125,29.981250762939453,26.943750381469727,27.637500762939453
1751620537110086400,12.00808642578125,29.850000381469727,27.750001907348633,27.01875114440918
1751620537120086500,12.01808642578125,29.793750762939453,28.481250762939453,26.55000114440918
1751620537130086400,12.02808642578125,29.868751525878906,29.062501907348633,26.137500762939453
1751620537140086500,12.03808642578125,29.943750381469727,29.606250762939453,25.725000381469727
1751620537150086400,12.04808642578125,30.056251525878906,30.093751907348633,25.42500114440918
1751620537160086500,12.05808642578125,29.887500762939453,30.243751525878906,25.14375114440918
1751620537170086400,12.06808642578125,29.812501907348633,30.11250114440918,24.937501907348633
1751620537180086500,12.07808642578125,29.868751525878906,29.943750381469727,25.162500381469727
1751620537190086400,12.08808642578125,30.150001525878906,29.587501525878906,25.05000114440918
1751620537200086500,12.09808642578125,30.243751525878906,29.287500381469727,25.275001525878906
1751620537210086400,12.10808642578125,30.225000381469727,28.80000114440918,25.387500762939453
1751620537220086500,12.11808642578125,30.168750762939453,28.275001525878906,25.687501907348633
1751620537230086400,12.12808642578125,30.225000381469727,27.39375114440918,25.950000762939453
1751620537240086500,12.13808642578125,30.337501525878906,26.662500381469727,26.531251907348633
1751620537250086400,12.14808642578125,30.468751907348633,25.818750381469727,26.850000381469727
1751620537260086500,12.15808642578125,30.39375114440918,24.787500381469727,27.20625114440918
1751620537270086400,12.16808642578125,30.11250114440918,24.037500381469727,27.900001525878906
1751620537280086500,12.17808642578125,29.981250762939453,22.931251525878906,28.200000762939453
1751620537290086400,12.18808642578125,30.093751907348633,21.975000381469727,28.687501907348633
1751620537300086500,12.19808642578125,30.075000762939453,21.168750762939453,28.98750114440918
1751620537310086400,12.20808642578125,30.093751907348633,20.700000762939453,29.400001525878906
1751620537320086500,12.21808642578125,29.962501525878906,20.306251525878906,29.400001525878906
1751620537330086400,12.22808642578125,29.625001907348633,19.98750114440918,29.606250762939453
1751620537340086500,12.23808642578125,29.55000114440918,19.89375114440918,29.73750114440918
1751620537350086400,12.24808642578125,29.64375114440918,19.78125,29.943750381469727
1751620537360086500,12.25808642578125,29.475000381469727,19.89375114440918,30.01875114440918
1751620537370086400,12.26808642578125,29.287500381469727,20.137500762939453,29.906251907348633
1751620537380086500,12.27808642578125,29.36250114440918,20.34375,29.756250381469727
1751620537390086400,12.28808642578125,29.45625114440918,20.756250381469727,29.587501525878906
1751620537400086500,12.29808642578125,29.64375114440918,21.243751525878906,29.26875114440918
1751620537410086400,12.30808642578125,29.850000381469727,22.068750381469727,29.006250381469727
1751620537420086500,12.31808642578125,30.093751907348633,22.950000762939453,28.762500762939453
1751620537430086400,12.32808642578125,30.075000762939453,23.92500114440918,28.368751525878906
1751620537440086500,12.33808642578125,30.262500762939453,25.068750381469727,28.106250762939453
1751620537450086400,12.34808642578125,30.318750381469727,26.193750381469727,27.506250381469727
1751620537460086500,12.35808642578125,30.337501525878906,27.318750381469727,27.075000762939453
1751620537470086400,12.36808642578125,29.906251907348633,28.23750114440918,26.587501525878906
1751620537480086500,12.37808642578125,29.812501907348633,28.89375114440918,26.100000381469727
1751620537490086400,12.38808642578125,29.775001525878906,29.212501525878906,25.650001525878906
1751620537500086500,12.39808642578125,29.625001907348633,29.793750762939453,25.14375114440918
1751620537510086400,12.40808642578125,29.850000381469727,30.168750762939453,24.975000381469727
1751620537520086500,12.41808642578125,29.981250762939453,30.281251907348633,24.712501525878906
1751620537530086400,12.42808642578125,29.981250762939453,30.20625114440918,24.825000762939453
1751620537540086500,12.43808642578125,29.83125114440918,29.887500762939453,24.86250114440918
1751620537550086400,12.44808642578125,30.000001907348633,29.606250762939453,24.900001525878906
1751620537560086500,12.45808642578125,30.11250114440918,29.437501907348633,25.350000381469727
1751620537570086400,12.46808642578125,30.20625114440918,29.231250762939453,25.762500762939453
1751620537580086500,12.47808642578125,30.131250381469727,28.631250381469727,26.156251907348633
1751620537590086400,12.48808642578125,29.812501907348633,27.787500381469727,26.381250381469727
1751620537600086500,12.49808642578125,29.700000762939453,26.943750381469727,26.73750114440918
1751620537610086400,12.50808642578125,29.531251907348633,26.17500114440918,26.943750381469727
1751620537620086500,12.51808642578125,29.475000381469727,25.23750114440918,27.30000114440918
1751620537630086400,12.52808642578125,29.512500762939453,24.093751907348633,27.58125114440918
1751620537640086500,12.53808642578125,29.64375114440918,23.08125114440918,27.95625114440918
1751620537650086400,12.54808642578125,29.606250762939453,22.087501525878906,28.106250762939453
1751620537660086500,12.55808642578125,29.662500381469727,21.450000762939453,28.443750381469727
1751620537670086400,12.56808642578125,29.83125114440918,20.943750381469727,28.61250114440918
1751620537680086500,12.57808642578125,29.83125114440918,20.662500381469727,28.912500381469727
1751620537690086400,12.58808642578125,29.73750114440918,20.493751525878906,29.343751907348633
1751620537700086500,12.59808642578125,29.943750381469727,20.512500762939453,29.662500381469727
1751620537710086400,12.60808642578125,29.981250762939453,20.756250381469727,29.887500762939453
1751620537720086500,12.61808642578125,29.700000762939453,21.11250114440918,29.775001525878906
1751620537730086400,12.62808642578125,29.756250381469727,21.543750762939453,29.700000762939453
1751620537740086500,12.63808642578125,29.700000762939453,21.9375,29.45625114440918
1751620537750086400,12.64808642578125,29.568750381469727,22.743751525878906,29.343751907348633
1751620537760086500,12.65808642578125,29.64375114440918,23.34375,28.837501525878906
1751620537770086400,12.66808642578125,30.056251525878906,23.981250762939453,28.256250381469727
1751620537780086500,12.67808642578125,29.962501525878906,24.825000762939453,27.95625114440918
1751620537790086400,12.68808642578125,30.01875114440918,25.837501525878906,27.562501907348633
1751620537800086500,12.69808642578125,29.981250762939453,26.64375114440918,27.243751525878906
1751620537810086400,12.70808642578125,30.131250381469727,27.506250381469727,26.775001525878906
1751620537820086500,12.71808642578125,30.20625114440918,28.33125114440918,26.400001525878906
1751620537830086400,12.72808642578125,30.225000381469727,28.912500381469727,25.89375114440918
1751620537840086500,12.73808642578125,30.318750381469727,29.45625114440918,25.593751907348633
1751620537850086400,12.74808642578125,30.168750762939453,29.981250762939453,25.387500762939453
1751620537860086500,12.75808642578125,30.48750114440918,30.318750381469727,24.881250381469727
1751620537870086400,12.76808642578125,30.375001907348633,30.431251525878906,24.881250381469727
1751620537880086500,12.77808642578125,30.337501525878906,30.337501525878906,24.787500381469727
1751620537890086400,12.78808642578125,30.187501907348633,30.150001525878906,24.993751525878906
1751620537900086500,12.79808642578125,29.943750381469727,29.73750114440918,25.256250381469727
1751620537910086400,12.80808642578125,29.83125114440918,29.287500381469727,25.556251525878906
1751620537920086500,12.81808642578125,29.587501525878906,28.725000381469727,25.89375114440918
1751620537930086400,12.82808642578125,29.568750381469727,27.825000762939453,26.512500762939453
1751620537940086500,12.83808642578125,29.325000762939453,26.756250381469727,27.075000762939453
1751620537950086400,12.84808642578125,29.400001525878906,25.668750762939453,27.543750762939453
1751620537960086500,12.85808642578125,29.475000381469727,24.76875114440918,28.162500381469727
1751620537970086400,12.86808642578125,29.343751907348633,23.943750381469727,28.51875114440918
1751620537980086500,12.87808642578125,29.437501907348633,23.306251525878906,28.70625114440918
1751620537990086400,12.88808642578125,29.625001907348633,22.293750762939453,29.006250381469727
1751620538000086500,12.89808642578125,29.718751907348633,21.618751525878906,29.437501907348633
1751620538010086400,12.90808642578125,29.587501525878906,21.056251525878906,29.250001907348633
1751620538020086500,12.91808642578125,29.606250762939453,20.92500114440918,29.400001525878906
1751620538030086400,12.92808642578125,29.887500762939453,20.887500762939453,29.418750762939453
1751620538040086500,12.93808642578125,29.962501525878906,20.850000381469727,29.26875114440918
1751620538050086400,12.94808642578125,30.056251525878906,21.09375,29.193750381469727
1751620538060086500,12.95808642578125,30.11250114440918,21.28125,29.100000381469727
1751620538070086400,12.96808642578125,30.187501907348633,22.125,29.156251907348633
1751620538080086500,12.97808642578125,30.318750381469727,22.725000381469727,28.818750381469727
1751620538090086400,12.98808642578125,30.58125114440918,23.793750762939453,28.668750762939453
1751620538100086500,12.99808642578125,30.412500381469727,24.95625114440918,28.33125114440918
1751620538110086400,13.00808642578125,30.356250762939453,25.743751525878906,27.731250762939453
1751620538120086500,13.01808642578125,30.243751525878906,26.850000381469727,27.281251907348633
1751620538130086400,13.02808642578125,30.093751907348633,27.975000381469727,26.906251907348633
1751620538140086500,13.03808642578125,30.262500762939453,28.80000114440918,26.306251525878906
1751620538150086400,13.04808642578125,30.131250381469727,29.568750381469727,25.687501907348633
1751620538160086500,13.05808642578125,30.131250381469727,30.506250381469727,25.406251907348633
1751620538170086400,13.06808642578125,30.056251525878906,31.012500762939453,24.937501907348633
1751620538180086500,13.07808642578125,30.01875114440918,31.275001525878906,24.787500381469727
1751620538190086400,13.08808642578125,29.437501907348633,31.743751525878906,24.637500762939453
1751620538200086500,13.09808642578125,29.400001525878906,31.725000381469727,24.48750114440918
1751620538210086400,13.10808642578125,29.381250381469727,31.256250381469727,24.525001525878906
1751620538220086500,13.11808642578125,29.26875114440918,31.181251525878906,24.95625114440918
1751620538230086400,13.12808642578125,29.381250381469727,30.506250381469727,25.33125114440918
1751620538240086500,13.13808642578125,29.26875114440918,29.718751907348633,25.556251525878906
1751620538250086400,13.14808642578125,29.231250762939453,28.856250762939453,25.98750114440918
1751620538260086500,13.15808642578125,29.36250114440918,27.693750381469727,26.306251525878906
