t,gx,gy,gz,ax,ay,az,temp
3,102.00,-28.00,-145.00,964.00,-40.00,18388.00,-4192.00
59,115.00,-37.00,-172.00,924.00,-108.00,18380.00,-4224.00
115,103.00,-21.00,-167.00,1024.00,24.00,18324.00,-4208.00
172,69.00,-15.00,-141.00,932.00,-108.00,18500.00,-4224.00
228,113.00,-17.00,-183.00,1060.00,-92.00,18412.00,-4208.00
284,107.00,32.00,-175.00,904.00,-96.00,18428.00,-4224.00
340,100.00,7.00,-162.00,1012.00,-40.00,18356.00,-4240.00
397,110.00,-13.00,-154.00,948.00,-144.00,18468.00,-4224.00
453,106.00,-12.00,-156.00,900.00,-16.00,18384.00,-4224.00
509,101.00,-3.00,-184.00,932.00,-88.00,18436.00,-4256.00
566,113.00,-22.00,-157.00,956.00,-64.00,18356.00,-4240.00
622,112.00,-25.00,-149.00,992.00,-188.00,18396.00,-4224.00
678,111.00,-34.00,-138.00,956.00,-72.00,18440.00,-4240.00
735,85.00,1.00,-148.00,948.00,-192.00,18472.00,-4224.00
791,106.00,13.00,-176.00,956.00,-96.00,18464.00,-4224.00
847,107.00,-28.00,-163.00,924.00,-40.00,18316.00,-4256.00
904,92.00,4.00,-161.00,916.00,-140.00,18404.00,-4256.00
960,93.00,-7.00,-182.00,884.00,-108.00,18476.00,-4240.00
1015,99.00,25.00,-169.00,916.00,-160.00,18396.00,-4224.00
1073,94.00,-9.00,-180.00,948.00,-216.00,18416.00,-4208.00
1129,90.00,-4.00,-182.00,932.00,-68.00,18428.00,-4224.00
1184,123.00,2.00,-165.00,1004.00,-164.00,18436.00,-4224.00
1242,111.00,6.00,-184.00,956.00,-172.00,18452.00,-4224.00
1298,109.00,10.00,-175.00,932.00,-232.00,18424.00,-4192.00
1354,105.00,11.00,-164.00,884.00,-200.00,18388.00,-4240.00
1411,115.00,-1.00,-188.00,836.00,-124.00,18496.00,-4240.00
1467,104.00,-1.00,-169.00,980.00,-112.00,18440.00,-4256.00
1523,98.00,-10.00,-186.00,828.00,-76.00,18424.00,-4208.00
1580,99.00,5.00,-166.00,936.00,-220.00,18332.00,-4224.00
1636,88.00,-5.00,-167.00,844.00,-52.00,18328.00,-4208.00
1692,100.00,-9.00,-160.00,1000.00,-160.00,18476.00,-4256.00
1748,113.00,-4.00,-160.00,972.00,12.00,18548.00,-4208.00
1805,120.00,-3.00,-173.00,872.00,-36.00,18416.00,-4224.00
1861,102.00,-25.00,-173.00,928.00,0.00,18392.00,-4240.00
1917,115.00,-25.00,-160.00,956.00,-132.00,18368.00,-4224.00
1974,112.00,-25.00,-160.00,856.00,-44.00,18420.00,-4208.00
2030,97.00,-6.00,-176.00,908.00,-72.00,18412.00,-4224.00
2086,98.00,-7.00,-172.00,884.00,-84.00,18320.00,-4208.00
2143,94.00,-33.00,-161.00,980.00,-140.00,18380.00,-4192.00
2199,112.00,9.00,-171.00,900.00,-84.00,18468.00,-4208.00
2255,115.00,-3.00,-176.00,880.00,-124.00,18460.00,-4224.00
2312,106.00,-12.00,-179.00,856.00,-136.00,18440.00,-4240.00
2368,105.00,-32.00,-175.00,960.00,-72.00,18536.00,-4176.00
2424,105.00,-16.00,-167.00,1008.00,-124.00,18332.00,-4192.00
2481,83.00,-10.00,-174.00,1012.00,-152.00,18356.00,-4192.00
2537,119.00,6.00,-168.00,864.00,-60.00,18276.00,-4256.00
2593,105.00,-9.00,-175.00,924.00,-64.00,18384.00,-4208.00
2650,99.00,-13.00,-188.00,924.00,-196.00,18540.00,-4224.00
2706,115.00,-13.00,-162.00,904.00,-132.00,18392.00,-4208.00
2762,104.00,18.00,-186.00,884.00,-52.00,18400.00,-4240.00
2819,99.00,2.00,-170.00,792.00,-68.00,18380.00,-4240.00
2875,99.00,50.00,-163.00,1028.00,-228.00,18528.00,-4240.00
2931,94.00,-2.00,-156.00,920.00,-104.00,18460.00,-4240.00
2988,94.00,-8.00,-164.00,892.00,-100.00,18360.00,-4224.00
3044,103.00,2.00,-189.00,884.00,-116.00,18376.00,-4240.00
3100,111.00,-7.00,-150.00,852.00,-152.00,18484.00,-4256.00
3158,94.00,16.00,-175.00,988.00,-156.00,18268.00,-4256.00
3214,93.00,0.00,-181.00,936.00,-152.00,18404.00,-4208.00
3270,86.00,-24.00,-185.00,932.00,-64.00,18400.00,-4208.00
3326,105.00,-15.00,-150.00,1012.00,-56.00,18356.00,-4256.00
3383,108.00,1.00,-175.00,932.00,-60.00,18404.00,-4224.00
3439,112.00,5.00,-137.00,804.00,-164.00,18376.00,-4224.00
3495,85.00,-12.00,-173.00,980.00,-76.00,18396.00,-4224.00
3552,87.00,-16.00,-176.00,936.00,-104.00,18396.00,-4192.00
3608,106.00,-8.00,-177.00,896.00,-108.00,18508.00,-4224.00
3664,101.00,1.00,-179.00,936.00,-64.00,18384.00,-4240.00
3721,108.00,2.00,-150.00,920.00,-140.00,18316.00,-4256.00
3777,87.00,-9.00,-185.00,928.00,-44.00,18492.00,-4224.00
3833,95.00,2.00,-186.00,864.00,-96.00,18524.00,-4256.00
3890,103.00,-6.00,-159.00,900.00,-212.00,18396.00,-4240.00
3946,92.00,-2.00,-159.00,844.00,-96.00,18484.00,-4224.00
4002,100.00,-34.00,-182.00,848.00,-124.00,18448.00,-4224.00
4059,115.00,-1.00,-180.00,912.00,-44.00,18452.00,-4240.00
4115,103.00,16.00,-155.00,964.00,-68.00,18348.00,-4224.00
4171,84.00,11.00,-158.00,868.00,-140.00,18396.00,-4240.00
4228,93.00,-2.00,-184.00,820.00,-84.00,18420.00,-4224.00
4284,88.00,-7.00,-143.00,968.00,-88.00,18400.00,-4240.00
4340,106.00,5.00,-170.00,952.00,-104.00,18464.00,-4208.00
4397,92.00,6.00,-160.00,916.00,-120.00,18336.00,-4224.00
4453,117.00,-15.00,-180.00,872.00,32.00,18404.00,-4208.00
4509,101.00,9.00,-185.00,880.00,-24.00,18300.00,-4240.00
4566,86.00,-2.00,-179.00,888.00,-132.00,18416.00,-4224.00
4622,107.00,-15.00,-177.00,880.00,-96.00,18348.00,-4224.00
4678,105.00,-10.00,-163.00,896.00,-168.00,18548.00,-4224.00
4734,99.00,27.00,-191.00,940.00,-84.00,18552.00,-4208.00
4791,88.00,20.00,-205.00,888.00,-84.00,18440.00,-4224.00
4847,100.00,21.00,-132.00,1004.00,-184.00,18444.00,-4208.00
4903,88.00,-28.00,-162.00,808.00,-124.00,18236.00,-4208.00
4960,94.00,-18.00,-159.00,944.00,-120.00,18424.00,-4224.00
5016,110.00,1.00,-139.00,908.00,-64.00,18588.00,-4224.00
5072,120.00,5.00,-192.00,804.00,-100.00,18288.00,-4240.00
5129,111.00,-15.00,-157.00,900.00,-76.00,18424.00,-4224.00
5185,86.00,-7.00,-181.00,896.00,-124.00,18332.00,-4240.00
5241,96.00,11.00,-164.00,964.00,-72.00,18344.00,-4256.00
5298,108.00,13.00,-156.00,996.00,-268.00,18376.00,-4208.00
5354,100.00,15.00,-171.00,916.00,-112.00,18404.00,-4208.00
5410,108.00,2.00,-152.00,1040.00,-116.00,18300.00,-4192.00
5467,93.00,-1.00,-185.00,888.00,-204.00,18408.00,-4224.00
5523,93.00,-8.00,-162.00,940.00,-164.00,18432.00,-4192.00
5579,116.00,17.00,-175.00,988.00,-104.00,18480.00,-4224.00
5636,108.00,-18.00,-154.00,856.00,-104.00,18328.00,-4208.00
5693,102.00,-6.00,-182.00,1040.00,-124.00,18368.00,-4208.00
5749,113.00,-2.00,-173.00,880.00,-168.00,18412.00,-4224.00
5806,90.00,-10.00,-147.00,884.00,-8.00,18356.00,-4224.00
5862,108.00,-12.00,-153.00,892.00,-204.00,18468.00,-4224.00
5918,110.00,-31.00,-162.00,864.00,-128.00,18348.00,-4224.00
5975,116.00,-16.00,-183.00,928.00,-68.00,18404.00,-4240.00
6031,98.00,9.00,-172.00,944.00,-104.00,18476.00,-4224.00
6087,107.00,-20.00,-150.00,916.00,-164.00,18452.00,-4240.00
6144,110.00,-21.00,-153.00,932.00,-144.00,18480.00,-4208.00
6200,96.00,-9.00,-152.00,1008.00,20.00,18444.00,-4192.00
6256,84.00,6.00,-163.00,944.00,-20.00,18536.00,-4224.00
6312,117.00,-38.00,-164.00,912.00,-132.00,18260.00,-4224.00
6369,105.00,2.00,-170.00,848.00,-32.00,18440.00,-4224.00
6425,103.00,-22.00,-185.00,1008.00,-136.00,18436.00,-4240.00
6481,97.00,1.00,-170.00,1012.00,-56.00,18368.00,-4240.00
6538,107.00,4.00,-174.00,884.00,-128.00,18492.00,-4224.00
6594,96.00,9.00,-168.00,952.00,-20.00,18368.00,-4208.00
6650,121.00,-22.00,-200.00,940.00,-96.00,18316.00,-4256.00
6707,118.00,-5.00,-177.00,912.00,-188.00,18488.00,-4208.00
6763,111.00,5.00,-162.00,1000.00,-144.00,18532.00,-4208.00
6819,67.00,-19.00,-182.00,944.00,-72.00,18364.00,-4224.00
6876,98.00,-7.00,-172.00,916.00,-108.00,18548.00,-4208.00
6932,99.00,-12.00,-172.00,956.00,-120.00,18504.00,-4192.00
6988,93.00,-25.00,-163.00,848.00,-132.00,18420.00,-4192.00
7045,107.00,9.00,-163.00,864.00,-108.00,18468.00,-4240.00
7101,111.00,-39.00,-176.00,968.00,-128.00,18316.00,-4224.00
7157,79.00,21.00,-173.00,880.00,-104.00,18444.00,-4224.00
7215,121.00,-18.00,-169.00,956.00,-148.00,18508.00,-4224.00
7271,106.00,1.00,-168.00,928.00,-92.00,18424.00,-4240.00
7327,99.00,2.00,-173.00,892.00,-76.00,18384.00,-4224.00
7384,111.00,-5.00,-204.00,968.00,-96.00,18364.00,-4208.00
7440,109.00,-30.00,-191.00,940.00,-180.00,18432.00,-4224.00
7496,98.00,-18.00,-196.00,804.00,-108.00,18452.00,-4224.00
7553,105.00,-16.00,-176.00,916.00,-84.00,18456.00,-4240.00
7609,109.00,-1.00,-162.00,892.00,-204.00,18596.00,-4224.00
7665,92.00,-9.00,-162.00,928.00,-192.00,18376.00,-4224.00
7721,86.00,-14.00,-166.00,852.00,-156.00,18520.00,-4208.00
7778,111.00,-3.00,-169.00,820.00,-120.00,18376.00,-4224.00
7834,101.00,-13.00,-167.00,928.00,-192.00,18672.00,-4208.00
7890,94.00,-2.00,-197.00,908.00,-132.00,18308.00,-4208.00
7947,80.00,-11.00,-156.00,884.00,-140.00,18420.00,-4224.00
8003,110.00,-8.00,-143.00,892.00,-132.00,18388.00,-4192.00
8059,111.00,-9.00,-174.00,876.00,-84.00,18428.00,-4240.00
8116,104.00,-23.00,-174.00,928.00,-104.00,18388.00,-4224.00
8172,91.00,-13.00,-179.00,808.00,-72.00,18432.00,-4224.00
8228,105.00,13.00,-192.00,876.00,-140.00,18404.00,-4240.00
8285,121.00,-7.00,-159.00,932.00,-244.00,18420.00,-4208.00
8341,102.00,17.00,-159.00,940.00,-184.00,18604.00,-4192.00
8397,95.00,23.00,-160.00,812.00,-96.00,18540.00,-4224.00
8454,94.00,-6.00,-146.00,1004.00,-120.00,18448.00,-4208.00
8510,104.00,-34.00,-193.00,916.00,-116.00,18452.00,-4208.00
8566,88.00,-25.00,-169.00,812.00,-144.00,18312.00,-4224.00
8623,96.00,-7.00,-161.00,904.00,-44.00,18464.00,-4224.00
8679,96.00,-12.00,-170.00,868.00,-84.00,18288.00,-4192.00
8735,111.00,5.00,-171.00,1004.00,-152.00,18388.00,-4240.00
8793,105.00,11.00,-163.00,816.00,-120.00,18364.00,-4240.00
8849,81.00,-1.00,-161.00,960.00,-168.00,18248.00,-4208.00
8905,106.00,-7.00,-183.00,856.00,-40.00,18480.00,-4192.00
8962,111.00,-10.00,-160.00,916.00,-96.00,18444.00,-4176.00
9018,108.00,-7.00,-165.00,888.00,-164.00,18472.00,-4256.00
9074,92.00,-1.00,-161.00,932.00,-124.00,18368.00,-4256.00
9131,94.00,3.00,-165.00,868.00,-128.00,18404.00,-4208.00
9187,91.00,-4.00,-182.00,980.00,-180.00,18488.00,-4224.00
9243,91.00,-3.00,-170.00,800.00,-136.00,18380.00,-4208.00
9299,89.00,13.00,-166.00,920.00,-32.00,18344.00,-4224.00
9356,104.00,-9.00,-153.00,936.00,-116.00,18384.00,-4224.00
9412,110.00,22.00,-178.00,900.00,-140.00,18520.00,-4224.00
9468,106.00,-19.00,-179.00,888.00,-116.00,18412.00,-4192.00
9525,112.00,-22.00,-175.00,880.00,-100.00,18488.00,-4208.00
9581,106.00,1.00,-167.00,940.00,-64.00,18376.00,-4240.00
9637,100.00,9.00,-170.00,968.00,-112.00,18404.00,-4224.00
9694,111.00,1.00,-157.00,892.00,-140.00,18440.00,-4240.00
9750,104.00,-25.00,-188.00,856.00,-48.00,18368.00,-4240.00
9806,99.00,-1.00,-146.00,904.00,-32.00,18316.00,-4192.00
9863,109.00,-17.00,-161.00,928.00,-88.00,18440.00,-4208.00
9919,95.00,-11.00,-155.00,952.00,-224.00,18536.00,-4224.00
9975,110.00,-22.00,-193.00,916.00,-104.00,18388.00,-4208.00
10032,91.00,14.00,-179.00,868.00,-124.00,18228.00,-4208.00
10088,99.00,-29.00,-183.00,952.00,-156.00,18240.00,-4208.00
10144,99.00,-25.00,-165.00,836.00,-140.00,18380.00,-4208.00
10201,81.00,-15.00,-173.00,956.00,-156.00,18312.00,-4208.00
10258,106.00,-6.00,-168.00,864.00,-40.00,18504.00,-4224.00
10314,107.00,-30.00,-154.00,964.00,-104.00,18388.00,-4224.00
10371,98.00,-10.00,-161.00,888.00,-88.00,18464.00,-4224.00
10427,109.00,16.00,-174.00,928.00,-248.00,18512.00,-4224.00
10483,98.00,-22.00,-174.00,928.00,-104.00,18436.00,-4224.00
10540,97.00,-23.00,-162.00,944.00,-80.00,18388.00,-4224.00
10596,101.00,12.00,-180.00,940.00,-156.00,18472.00,-4240.00
10652,102.00,13.00,-185.00,952.00,-116.00,18412.00,-4240.00
10708,105.00,-5.00,-166.00,976.00,-208.00,18428.00,-4224.00
10765,100.00,-10.00,-155.00,928.00,-80.00,18432.00,-4240.00
10821,92.00,5.00,-194.00,932.00,-124.00,18544.00,-4208.00
10877,125.00,-4.00,-171.00,832.00,-32.00,18388.00,-4208.00
10935,101.00,-19.00,-154.00,956.00,-84.00,18456.00,-4256.00
10991,104.00,-10.00,-186.00,940.00,-80.00,18400.00,-4224.00
11047,101.00,-11.00,-162.00,1012.00,-168.00,18384.00,-4208.00
11104,127.00,-11.00,-181.00,900.00,-124.00,18420.00,-4224.00
11160,113.00,-1.00,-157.00,912.00,-52.00,18432.00,-4224.00
11216,100.00,-7.00,-179.00,824.00,-48.00,18348.00,-4208.00
11273,110.00,0.00,-161.00,888.00,-96.00,18360.00,-4224.00
11329,102.00,-2.00,-170.00,952.00,-96.00,18572.00,-4224.00
11385,95.00,-5.00,-159.00,932.00,-120.00,18492.00,-4240.00
11442,96.00,-5.00,-169.00,876.00,-96.00,18468.00,-4240.00
11498,102.00,-16.00,-154.00,856.00,-48.00,18280.00,-4224.00
11554,113.00,-4.00,-155.00,900.00,-104.00,18472.00,-4224.00
11611,102.00,0.00,-153.00,952.00,-96.00,18492.00,-4208.00
11667,112.00,-14.00,-195.00,976.00,-144.00,18376.00,-4208.00
11724,95.00,-37.00,-156.00,856.00,-92.00,18408.00,-4240.00
11781,108.00,-10.00,-159.00,908.00,-172.00,18364.00,-4208.00
