time,seconds_elapsed,z,y,x
1751620571138108700,0.268108642578125,9.989436149597168,-0.03529413416981697,-0.21655045449733734
1751620571156932000,0.28693212890625,9.927223205566406,0.11306086927652359,-0.09690931439399719
1751620571175755500,0.305755615234375,9.850652694702148,0.3188436031341553,0.003589233849197626
1751620571194579000,0.324578857421875,9.879366874694824,0.1944168359041214,-0.029910283163189888
1751620571213402400,0.34340234375,9.89850902557373,-0.030508488416671753,-0.14476576447486877
1751620571232226000,0.36222607421875,9.903294563293457,0.01734796352684498,-0.14476576447486877
1751620571251049500,0.381049560546875,9.869794845581055,0.2805584669113159,-0.08255238085985184
1751620571269873000,0.399872802734375,9.860223770141602,0.30927231907844543,-0.058624155819416046
1751620571288696300,0.4186962890625,9.932008743286133,0.1178465187549591,-0.15912270545959473
1751620571307519700,0.437519775390625,9.970293998718262,0.06041877344250679,-0.1782652884721756
1751620571326343400,0.456343505859375,9.965508460998535,0.21355941891670227,-0.12083754688501358
1751620571345166800,0.475166748046875,9.932008743286133,0.3236292600631714,-0.058624155819416046
1751620571363990300,0.493990234375,9.951150894165039,0.16091732680797577,-0.10169496387243271
1751620571382813700,0.512813720703125,9.984650611877441,0.01734796352684498,-0.13519448041915894
1751620571401637000,0.53163720703125,9.932008743286133,0.0891326442360878,-0.11126625537872314
1751620571420460800,0.550460693359375,9.888937950134277,0.251844584941864,-0.058624155819416046
1751620571439284200,0.5692841796875,9.879366874694824,0.2183450609445572,-0.0729810893535614
1751620571458107600,0.588107666015625,9.89850902557373,0.09391828626394272,-0.13040883839130402
1751620571476931000,0.60693115234375,9.888937950134277,0.0891326442360878,-0.1543370634317398
1751620571495754800,0.625754638671875,9.888937950134277,0.2566302418708801,-0.09212367236614227
1751620571514578200,0.644578125,9.88415241241455,0.2949153780937195,-0.08255238085985184
1751620571533401600,0.663401611328125,9.946365356445312,0.13698910176753998,-0.13998012244701385
1751620571552225000,0.68222509765625,9.955936431884766,0.0891326442360878,-0.13519448041915894
1751620571571048400,0.70104833984375,9.975079536437988,0.15134602785110474,-0.09690931439399719
1751620571589872000,0.7198720703125,9.93679428100586,0.23748764395713806,-0.039481572806835175
1751620571608695600,0.738695556640625,9.960722923278809,0.16091732680797577,-0.08255238085985184
1751620571627519000,0.75751904296875,9.960722923278809,0.05563312768936157,-0.1256231814622879
1751620571646342400,0.77634228515625,9.927223205566406,0.15134602785110474,-0.11605189740657806
1751620571665165800,0.795165771484375,9.89850902557373,0.23270200192928314,-0.09212367236614227
1751620571683989500,0.813989501953125,9.869794845581055,0.22791635990142822,-0.1256231814622879
1751620571702813000,0.83281298828125,9.893723487854004,0.12741780281066895,-0.13040883839130402
1751620571721636400,0.85163623046875,9.903294563293457,0.11306086927652359,-0.13519448041915894
1751620571740459800,0.870459716796875,9.888937950134277,0.19920247793197632,-0.09690931439399719
1751620571759283200,0.889283203125,9.888937950134277,0.20877377688884735,-0.07776673883199692
1751620571778107000,0.90810693359375,9.93679428100586,0.1417747437953949,-0.09690931439399719
1751620571796930300,0.926930419921875,9.960722923278809,0.07956135272979736,-0.1256231814622879
1751620571815753700,0.945753662109375,9.941579818725586,0.16091732680797577,-0.09212367236614227
1751620571834577200,0.9645771484375,9.955936431884766,0.2231307178735733,-0.09690931439399719
1751620571853400800,0.98340087890625,9.946365356445312,0.19920247793197632,-0.10648060590028763
1751620571872224300,1.002224365234375,9.941579818725586,0.13220344483852386,-0.14476576447486877
1751620571891047700,1.021047607421875,9.92243766784668,0.15613168478012085,-0.1256231814622879
1751620571909871000,1.03987109375,9.89850902557373,0.2231307178735733,-0.10169496387243271
1751620571928694500,1.058694580078125,9.88415241241455,0.18484555184841156,-0.11126625537872314
1751620571947518200,1.077518310546875,9.903294563293457,0.10827522724866867,-0.12083754688501358
1751620571966341600,1.096341552734375,9.903294563293457,0.13220344483852386,-0.1256231814622879
1751620571985165000,1.1151650390625,9.89850902557373,0.18005990982055664,-0.08255238085985184
1751620572003988500,1.133988525390625,9.917651176452637,0.20398813486099243,-0.10169496387243271
1751620572022812200,1.152812255859375,9.946365356445312,0.1417747437953949,-0.12083754688501358
1751620572041635600,1.171635498046875,9.975079536437988,0.12741780281066895,-0.1256231814622879
1751620572060459000,1.190458984375,9.941579818725586,0.17527425289154053,-0.10169496387243271
1751620572079282400,1.209282470703125,9.955936431884766,0.20398813486099243,-0.10648060590028763
1751620572098105900,1.22810595703125,9.951150894165039,0.18005990982055664,-0.1256231814622879
1751620572116929500,1.246929443359375,9.941579818725586,0.13698910176753998,-0.13040883839130402
1751620572135753000,1.2657529296875,9.908080101013184,0.15134602785110474,-0.12083754688501358
1751620572154576400,1.284576416015625,9.903294563293457,0.18005990982055664,-0.09212367236614227
1751620572173400000,1.303400146484375,9.888937950134277,0.1657029688358307,-0.09690931439399719
1751620572192223500,1.322223388671875,9.89850902557373,0.12741780281066895,-0.13040883839130402
1751620572211047000,1.341046875,9.903294563293457,0.15134602785110474,-0.11126625537872314
1751620572229870300,1.359870361328125,9.893723487854004,0.1944168359041214,-0.10648060590028763
1751620572248693800,1.37869384765625,9.92243766784668,0.18963119387626648,-0.10648060590028763
1751620572267517400,1.397517333984375,9.946365356445312,0.15613168478012085,-0.12083754688501358
1751620572286340900,1.4163408203125,9.965508460998535,0.14656038582324982,-0.12083754688501358
1751620572305164300,1.435164306640625,9.955936431884766,0.1704886108636856,-0.10169496387243271
1751620572323987700,1.45398779296875,9.955936431884766,0.18963119387626648,-0.08733802288770676
1751620572342811100,1.47281103515625,9.941579818725586,0.15134602785110474,-0.10169496387243271
1751620572361634800,1.491634765625,9.927223205566406,0.13220344483852386,-0.11605189740657806
1751620572380458200,1.510458251953125,9.917651176452637,0.15613168478012085,-0.11126625537872314
1751620572399281700,1.52928173828125,9.888937950134277,0.1704886108636856,-0.11605189740657806
1751620572418105000,1.54810498046875,9.888937950134277,0.1657029688358307,-0.10169496387243271
1751620572436928500,1.566928466796875,9.893723487854004,0.14656038582324982,-0.13998012244701385
1751620572455752200,1.585752197265625,9.903294563293457,0.15613168478012085,-0.13040883839130402
1751620572474575600,1.60457568359375,9.91286563873291,0.18963119387626648,-0.09690931439399719
1751620572493399000,1.62339892578125,9.927223205566406,0.17527425289154053,-0.11605189740657806
1751620572512222700,1.64222265625,9.960722923278809,0.15613168478012085,-0.09212367236614227
1751620572531046100,1.661046142578125,9.960722923278809,0.12263216078281403,-0.11605189740657806
1751620572549869600,1.67986962890625,9.941579818725586,0.1704886108636856,-0.09212367236614227
1751620572568693000,1.69869287109375,9.951150894165039,0.18005990982055664,-0.11126625537872314
1751620572587516400,1.717516357421875,9.946365356445312,0.16091732680797577,-0.10169496387243271
1751620572606340000,1.736340087890625,9.93679428100586,0.15613168478012085,-0.11126625537872314
1751620572625163500,1.75516357421875,9.908080101013184,0.1704886108636856,-0.11126625537872314
1751620572643987000,1.773987060546875,9.88415241241455,0.18005990982055664,-0.11126625537872314
1751620572662810400,1.792810302734375,9.908080101013184,0.16091732680797577,-0.1256231814622879
1751620572681633800,1.8116337890625,9.893723487854004,0.15613168478012085,-0.10648060590028763
1751620572700457500,1.83045751953125,9.917651176452637,0.16091732680797577,-0.11605189740657806
1751620572719281000,1.849281005859375,9.927223205566406,0.18963119387626648,-0.09212367236614227
1751620572738104300,1.868104248046875,9.917651176452637,0.16091732680797577,-0.09690931439399719
1751620572756927700,1.886927734375,9.965508460998535,0.1657029688358307,-0.10169496387243271
1751620572775751400,1.90575146484375,9.946365356445312,0.15613168478012085,-0.12083754688501358
1751620572794574800,1.924574951171875,9.951150894165039,0.17527425289154053,-0.10169496387243271
1751620572813398300,1.943398193359375,9.93679428100586,0.17527425289154053,-0.10648060590028763
1751620572832221700,1.9622216796875,9.93679428100586,0.17527425289154053,-0.11126625537872314
1751620572851045400,1.98104541015625,9.917651176452637,0.15134602785110474,-0.10169496387243271
1751620572869868800,1.999868896484375,9.89850902557373,0.16091732680797577,-0.10169496387243271
1751620572888692200,2.018692138671875,9.89850902557373,0.17527425289154053,-0.10648060590028763
1751620572907515600,2.037515625,9.908080101013184,0.16091732680797577,-0.10648060590028763
1751620572926339000,2.056339111328125,9.903294563293457,0.15613168478012085,-0.11126625537872314
1751620572945162800,2.075162841796875,9.908080101013184,0.15134602785110474,-0.11605189740657806
1751620572963986200,2.093986083984375,9.93679428100586,0.18963119387626648,-0.10169496387243271
1751620572982809600,2.1128095703125,9.946365356445312,0.16091732680797577,-0.10648060590028763
1751620573001633000,2.131633056640625,9.960722923278809,0.16091732680797577,-0.10648060590028763
1751620573020456400,2.15045654296875,9.965508460998535,0.1704886108636856,-0.11605189740657806
1751620573039280000,2.169280029296875,9.970293998718262,0.18484555184841156,-0.09212367236614227
1751620573058103600,2.188103515625,9.941579818725586,0.18005990982055664,-0.09212367236614227
1751620573076927000,2.206927001953125,9.927223205566406,0.1704886108636856,-0.11605189740657806
1751620573095750400,2.22575048828125,9.927223205566406,0.1657029688358307,-0.11605189740657806
1751620573114573800,2.24457373046875,9.89850902557373,0.15613168478012085,-0.11605189740657806
1751620573133397500,2.2633974609375,9.888937950134277,0.1704886108636856,-0.10648060590028763
1751620573152221000,2.282220947265625,9.903294563293457,0.16091732680797577,-0.11126625537872314
1751620573171044400,2.30104443359375,9.893723487854004,0.14656038582324982,-0.12083754688501358
1751620573189868000,2.319867919921875,9.92243766784668,0.1704886108636856,-0.10648060590028763
1751620573208691500,2.33869140625,9.941579818725586,0.1657029688358307,-0.11605189740657806
1751620573227515000,2.357514892578125,9.951150894165039,0.18005990982055664,-0.1256231814622879
1751620573246338300,2.37633837890625,9.965508460998535,0.15134602785110474,-0.12083754688501358
1751620573265161700,2.39516162109375,9.965508460998535,0.1657029688358307,-0.11605189740657806
1751620573283985400,2.4139853515625,9.965508460998535,0.17527425289154053,-0.11605189740657806
1751620573302808800,2.432808837890625,9.941579818725586,0.17527425289154053,-0.12083754688501358
1751620573321632300,2.45163232421875,9.927223205566406,0.14656038582324982,-0.11126625537872314
1751620573340455700,2.47045556640625,9.89850902557373,0.16091732680797577,-0.10169496387243271
1751620573359279000,2.489279052734375,9.89850902557373,0.1704886108636856,-0.13519448041915894
1751620573378102800,2.508102783203125,9.893723487854004,0.18005990982055664,-0.09212367236614227
1751620573396926200,2.52692626953125,9.893723487854004,0.1657029688358307,-0.11605189740657806
1751620573415749600,2.54574951171875,9.908080101013184,0.1704886108636856,-0.09690931439399719
1751620573434573000,2.564572998046875,9.91286563873291,0.17527425289154053,-0.10648060590028763
1751620573453396500,2.583396484375,9.946365356445312,0.1417747437953949,-0.11126625537872314
1751620573472220200,2.60222021484375,9.965508460998535,0.15134602785110474,-0.13519448041915894
1751620573491043600,2.621043701171875,9.965508460998535,0.1704886108636856,-0.10648060590028763
1751620573509867000,2.639866943359375,9.955936431884766,0.21355941891670227,-0.09690931439399719
1751620573528690400,2.6586904296875,9.93679428100586,0.1944168359041214,-0.11126625537872314
1751620573547514000,2.67751416015625,9.93679428100586,0.14656038582324982,-0.11126625537872314
1751620573566337500,2.696337646484375,9.91286563873291,0.15134602785110474,-0.11126625537872314
1751620573585161000,2.715160888671875,9.893723487854004,0.1657029688358307,-0.08733802288770676
1751620573603984400,2.733984375,9.88415241241455,0.1704886108636856,-0.10169496387243271
1751620573622807800,2.752807861328125,9.88415241241455,0.12741780281066895,-0.11605189740657806
1751620573641631500,2.771631591796875,9.917651176452637,0.1417747437953949,-0.1256231814622879
1751620573660455000,2.790454833984375,9.908080101013184,0.15613168478012085,-0.11126625537872314
1751620573679278300,2.8092783203125,9.92243766784668,0.1944168359041214,-0.10169496387243271
1751620573698101800,2.828101806640625,9.951150894165039,0.18005990982055664,-0.11605189740657806
1751620573716925200,2.84692529296875,9.965508460998535,0.13698910176753998,-0.11605189740657806
1751620573735748900,2.865748779296875,9.965508460998535,0.18484555184841156,-0.10169496387243271
1751620573754572300,2.884572265625,9.951150894165039,0.18963119387626648,-0.09212367236614227
1751620573773395700,2.903395751953125,9.955936431884766,0.1657029688358307,-0.09690931439399719
1751620573792219100,2.92221923828125,9.932008743286133,0.13220344483852386,-0.10648060590028763
1751620573811042800,2.941042724609375,9.908080101013184,0.16091732680797577,-0.1256231814622879
1751620573829866200,2.9598662109375,9.903294563293457,0.18005990982055664,-0.10169496387243271
1751620573848689700,2.978689697265625,9.893723487854004,0.18484555184841156,-0.10169496387243271
1751620573867513000,2.99751318359375,9.903294563293457,0.16091732680797577,-0.12083754688501358
1751620573886336500,3.01633642578125,9.903294563293457,0.1657029688358307,-0.13519448041915894
1751620573905160200,3.03516015625,9.92243766784668,0.18963119387626648,-0.10648060590028763
1751620573923983600,3.053983642578125,9.951150894165039,0.1944168359041214,-0.09212367236614227
1751620573942807000,3.07280712890625,9.951150894165039,0.1704886108636856,-0.11605189740657806
1751620573961630500,3.09163037109375,9.951150894165039,0.1417747437953949,-0.10169496387243271
1751620573980454000,3.110453857421875,9.955936431884766,0.15613168478012085,-0.10169496387243271
1751620573999277600,3.129277587890625,9.932008743286133,0.17527425289154053,-0.09212367236614227
1751620574018101000,3.14810107421875,9.932008743286133,0.15134602785110474,-0.08733802288770676
1751620574036924400,3.16692431640625,9.927223205566406,0.15134602785110474,-0.12083754688501358
1751620574055747800,3.185747802734375,9.89850902557373,0.1704886108636856,-0.11126625537872314
1751620574074571500,3.204571533203125,9.89850902557373,0.18963119387626648,-0.1256231814622879
1751620574093395000,3.22339501953125,9.88415241241455,0.18005990982055664,-0.10648060590028763
1751620574121630000,3.2516298828125,9.946365356445312,0.16091732680797577,-0.12083754688501358
1751620574140453600,3.27045361328125,9.93679428100586,0.1417747437953949,-0.10169496387243271
1751620574159277000,3.289277099609375,9.932008743286133,0.14656038582324982,-0.09212367236614227
1751620574178100500,3.3081005859375,9.91286563873291,0.15134602785110474,-0.10648060590028763
1751620574196924000,3.326923828125,9.89850902557373,0.14656038582324982,-0.09212367236614227
1751620574215747300,3.345747314453125,9.89850902557373,0.16091732680797577,-0.12083754688501358
1751620574234571000,3.364571044921875,9.903294563293457,0.18005990982055664,-0.11126625537872314
1751620574253394400,3.38339453125,9.92243766784668,0.18005990982055664,-0.12083754688501358
1751620574272217900,3.4022177734375,9.92243766784668,0.1704886108636856,-0.12083754688501358
1751620574291041300,3.421041259765625,9.951150894165039,0.1944168359041214,-0.11605189740657806
1751620574309865000,3.439864990234375,9.951150894165039,0.1657029688358307,-0.09690931439399719
1751620574328688400,3.4586884765625,9.965508460998535,0.15613168478012085,-0.10169496387243271
1751620574347511800,3.47751171875,9.960722923278809,0.15134602785110474,-0.11126625537872314
1751620574366335200,3.496335205078125,9.946365356445312,0.15613168478012085,-0.09690931439399719
1751620574385158700,3.51515869140625,9.927223205566406,0.14656038582324982,-0.10648060590028763
1751620574403982000,3.533982177734375,9.903294563293457,0.15613168478012085,-0.11605189740657806
1751620574422805800,3.5528056640625,9.888937950134277,0.17527425289154053,-0.11605189740657806
1751620574441629200,3.571629150390625,9.91286563873291,0.1704886108636856,-0.13519448041915894
1751620574460452600,3.59045263671875,9.893723487854004,0.1704886108636856,-0.10648060590028763
1751620574479276000,3.609276123046875,9.903294563293457,0.16091732680797577,-0.11605189740657806
1751620574498099500,3.628099365234375,9.92243766784668,0.1704886108636856,-0.10648060590028763
1751620574516923100,3.646923095703125,9.941579818725586,0.16091732680797577,-0.10169496387243271
1751620574535746600,3.66574658203125,9.941579818725586,0.15134602785110474,-0.09212367236614227
1751620574554570000,3.684570068359375,9.960722923278809,0.1704886108636856,-0.10169496387243271
1751620574573393400,3.703393310546875,9.946365356445312,0.16091732680797577,-0.09212367236614227
1751620574592217000,3.722217041015625,9.960722923278809,0.1704886108636856,-0.1256231814622879
1751620574611040500,3.74104052734375,9.941579818725586,0.15134602785110474,-0.09690931439399719
1751620574629864000,3.759864013671875,9.927223205566406,0.17527425289154053,-0.10169496387243271
1751620574648687400,3.778687255859375,9.89850902557373,0.16091732680797577,-0.11126625537872314
1751620574667510800,3.7975107421875,9.893723487854004,0.16091732680797577,-0.10648060590028763
1751620574686334200,3.816334228515625,9.89850902557373,0.16091732680797577,-0.11605189740657806
1751620574705158000,3.835157958984375,9.893723487854004,0.16091732680797577,-0.1256231814622879
1751620574723981300,3.853981201171875,9.927223205566406,0.1657029688358307,-0.09690931439399719
1751620574742804700,3.8728046875,9.92243766784668,0.15134602785110474,-0.11126625537872314
1751620574761628200,3.891628173828125,9.941579818725586,0.1704886108636856,-0.10169496387243271
1751620574780451600,3.91045166015625,9.946365356445312,0.15134602785110474,-0.10169496387243271
1751620574799275300,3.929275146484375,9.965508460998535,0.1704886108636856,-0.11605189740657806
1751620574818098700,3.9480986328125,9.970293998718262,0.17527425289154053,-0.11126625537872314
1751620574836922000,3.966922119140625,9.93679428100586,0.14656038582324982,-0.13040883839130402
1751620574855745500,3.98574560546875,9.932008743286133,0.15134602785110474,-0.12083754688501358
1751620574874569200,4.0045693359375,9.908080101013184,0.18484555184841156,-0.11605189740657806
1751620574893392600,4.023392578125,9.893723487854004,0.18005990982055664,-0.10169496387243271
1751620574912216000,4.042216064453125,9.888937950134277,0.14656038582324982,-0.12083754688501358
1751620574931039500,4.06103955078125,9.89850902557373,0.14656038582324982,-0.10648060590028763
1751620574949863000,4.07986279296875,9.88415241241455,0.16091732680797577,-0.10648060590028763
1751620574968686300,4.098686279296875,9.91286563873291,0.1704886108636856,-0.10169496387243271
1751620574987510000,4.117510009765625,9.946365356445312,0.1657029688358307,-0.11126625537872314
1751620575006333400,4.13633349609375,9.941579818725586,0.17527425289154053,-0.11126625537872314
1751620575025156900,4.155156982421875,9.955936431884766,0.1704886108636856,-0.10648060590028763
1751620575043980300,4.173980224609375,9.951150894165039,0.1657029688358307,-0.11126625537872314
1751620575062804000,4.192803955078125,9.946365356445312,0.1657029688358307,-0.11126625537872314
1751620575081627400,4.21162744140625,9.932008743286133,0.15134602785110474,-0.09690931439399719
1751620575100450800,4.230450927734375,9.927223205566406,0.14656038582324982,-0.07776673883199692
1751620575119274200,4.249274169921875,9.908080101013184,0.1657029688358307,-0.08733802288770676
1751620575138097700,4.26809765625,9.89850902557373,0.16091732680797577,-0.11605189740657806
1751620575156921000,4.286921142578125,9.903294563293457,0.13698910176753998,-0.11126625537872314
1751620575175744800,4.305744873046875,9.888937950134277,0.1657029688358307,-0.11605189740657806
1751620575194568200,4.324568115234375,9.908080101013184,0.18484555184841156,-0.11126625537872314
1751620575213391600,4.3433916015625,9.908080101013184,0.18484555184841156,-0.10648060590028763
1751620575232215000,4.362215087890625,9.932008743286133,0.15134602785110474,-0.1256231814622879
1751620575251038500,4.38103857421875,9.951150894165039,0.15134602785110474,-0.08733802288770676
1751620575269862100,4.399862060546875,9.941579818725586,0.1657029688358307,-0.10169496387243271
1751620575288685600,4.418685546875,9.951150894165039,0.16091732680797577,-0.10169496387243271
1751620575307509000,4.437509033203125,9.946365356445312,0.13698910176753998,-0.10648060590028763
1751620575326332400,4.45633251953125,9.92243766784668,0.15613168478012085,-0.10648060590028763
1751620575345155800,4.47515576171875,9.91286563873291,0.18484555184841156,-0.10169496387243271
1751620575363979500,4.4939794921875,9.903294563293457,0.18963119387626648,-0.11605189740657806
1751620575382803000,4.512802978515625,9.89850902557373,0.15613168478012085,-0.1256231814622879
1751620575401626400,4.53162646484375,9.908080101013184,0.1704886108636856,-0.10648060590028763
1751620575420449800,4.55044970703125,9.89850902557373,0.18005990982055664,-0.11605189740657806
1751620575439273200,4.569273193359375,9.917651176452637,0.18484555184841156,-0.10169496387243271
1751620575458096600,4.5880966796875,9.917651176452637,0.15613168478012085,-0.09690931439399719
1751620575476920300,4.60692041015625,9.951150894165039,0.15134602785110474,-0.08733802288770676
1751620575495743700,4.62574365234375,9.951150894165039,0.1657029688358307,-0.09690931439399719
1751620575514567200,4.644567138671875,9.951150894165039,0.1657029688358307,-0.10169496387243271
1751620575533390600,4.663390625,9.941579818725586,0.15613168478012085,-0.10648060590028763
1751620575552214300,4.68221435546875,9.941579818725586,0.15613168478012085,-0.1256231814622879
1751620575571037700,4.70103759765625,9.932008743286133,0.1657029688358307,-0.11605189740657806
1751620575589861000,4.719861083984375,9.92243766784668,0.1944168359041214,-0.09690931439399719
1751620575608684500,4.7386845703125,9.903294563293457,0.1657029688358307,-0.1256231814622879
1751620575627508000,4.757508056640625,9.893723487854004,0.15613168478012085,-0.11605189740657806
1751620575646331400,4.776331298828125,9.903294563293457,0.1657029688358307,-0.11126625537872314
1751620575665155000,4.795155029296875,9.893723487854004,0.1657029688358307,-0.09690931439399719
1751620575683978500,4.813978515625,9.917651176452637,0.1704886108636856,-0.09212367236614227
1751620575702802000,4.832802001953125,9.93679428100586,0.15613168478012085,-0.10648060590028763
1751620575721625300,4.851625244140625,9.946365356445312,0.15134602785110474,-0.13040883839130402
1751620575740448800,4.87044873046875,9.946365356445312,0.17527425289154053,-0.11605189740657806
1751620575759272400,4.8892724609375,9.951150894165039,0.18963119387626648,-0.10169496387243271
1751620575778095900,4.908095947265625,9.965508460998535,0.1657029688358307,-0.10169496387243271
1751620575796919300,4.926919189453125,9.93679428100586,0.15134602785110474,-0.10648060590028763
1751620575815742700,4.94574267578125,9.92243766784668,0.15613168478012085,-0.10169496387243271
1751620575834566100,4.964566162109375,9.89850902557373,0.1657029688358307,-0.11605189740657806
1751620575853389800,4.983389892578125,9.908080101013184,0.14656038582324982,-0.12083754688501358
1751620575872213200,5.002213134765625,9.893723487854004,0.12263216078281403,-0.09690931439399719
1751620575891036700,5.02103662109375,9.893723487854004,0.15613168478012085,-0.10648060590028763
1751620575909860000,5.039860107421875,9.89850902557373,0.18005990982055664,-0.09690931439399719
1751620575928683500,5.05868359375,9.92243766784668,0.1704886108636856,-0.12083754688501358
1751620575947507200,5.077507080078125,9.941579818725586,0.16091732680797577,-0.09690931439399719
1751620575966330600,5.09633056640625,9.946365356445312,0.1657029688358307,-0.11126625537872314
1751620575985154000,5.115154052734375,9.951150894165039,0.18005990982055664,-0.11126625537872314
1751620576003977500,5.1339775390625,9.93679428100586,0.17527425289154053,-0.11126625537872314
1751620576022801000,5.15280078125,9.941579818725586,0.15613168478012085,-0.10169496387243271
1751620576041624600,5.17162451171875,9.946365356445312,0.1417747437953949,-0.11605189740657806
1751620576069859600,5.199859619140625,9.93679428100586,0.1704886108636856,-0.10648060590028763
1751620576088683000,5.21868310546875,9.965508460998535,0.16091732680797577,-0.11605189740657806
1751620576107506700,5.237506591796875,9.955936431884766,0.15613168478012085,-0.11126625537872314
1751620576126330000,5.256330078125,9.955936431884766,0.15613168478012085,-0.13040883839130402
1751620576145153500,5.275153564453125,9.941579818725586,0.18484555184841156,-0.10648060590028763
1751620576163977000,5.29397705078125,9.93679428100586,0.18963119387626648,-0.09212367236614227
1751620576182800400,5.31280029296875,9.908080101013184,0.14656038582324982,-0.10648060590028763
1751620576201624000,5.3316240234375,9.903294563293457,0.13698910176753998,-0.11126625537872314
1751620576220447500,5.350447509765625,9.88415241241455,0.16091732680797577,-0.1256231814622879
1751620576239271000,5.36927099609375,9.893723487854004,0.1657029688358307,-0.09690931439399719
1751620576258094300,5.38809423828125,9.903294563293457,0.17527425289154053,-0.10169496387243271
1751620576276917800,5.406917724609375,9.91286563873291,0.15134602785110474,-0.11605189740657806
1751620576295741400,5.425741455078125,9.946365356445312,0.18005990982055664,-0.10169496387243271
1751620576314564900,5.44456494140625,9.955936431884766,0.18963119387626648,-0.1256231814622879
1751620576333388300,5.46338818359375,9.946365356445312,0.18484555184841156,-0.11126625537872314
1751620576352211700,5.482211669921875,9.955936431884766,0.1657029688358307,-0.11126625537872314
1751620576371035100,5.50103515625,9.941579818725586,0.16091732680797577,-0.12083754688501358
1751620576389858600,5.519858642578125,9.946365356445312,0.1704886108636856,-0.12083754688501358
1751620576408682200,5.53868212890625,9.917651176452637,0.1704886108636856,-0.1256231814622879
1751620576427505700,5.557505615234375,9.903294563293457,0.1657029688358307,-0.11126625537872314
1751620576446329000,5.5763291015625,9.888937950134277,0.15613168478012085,-0.12083754688501358
1751620576465152500,5.595152587890625,9.879366874694824,0.17527425289154053,-0.11126625537872314
1751620576483976000,5.613975830078125,9.903294563293457,0.1657029688358307,-0.10648060590028763
1751620576502799600,5.632799560546875,9.917651176452637,0.1704886108636856,-0.11605189740657806
1751620576521623000,5.651623046875,9.91286563873291,0.16091732680797577,-0.1256231814622879
1751620576540446500,5.670446533203125,9.932008743286133,0.1657029688358307,-0.10169496387243271
1751620576559270000,5.689269775390625,9.951150894165039,0.18005990982055664,-0.12083754688501358
1751620576578093300,5.70809326171875,9.951150894165039,0.15613168478012085,-0.10648060590028763
1751620576596916700,5.726916748046875,9.951150894165039,0.1657029688358307,-0.10648060590028763
1751620576615740400,5.745740478515625,9.955936431884766,0.15134602785110474,-0.11605189740657806
1751620576634563800,5.764563720703125,9.93679428100586,0.15613168478012085,-0.10169496387243271
1751620576653387300,5.78338720703125,9.92243766784668,0.16091732680797577,-0.12083754688501358
1751620576672210700,5.802210693359375,9.908080101013184,0.1657029688358307,-0.11126625537872314
1751620576691034400,5.821034423828125,9.893723487854004,0.1704886108636856,-0.10169496387243271
1751620576709857800,5.83985791015625,9.903294563293457,0.17527425289154053,-0.11126625537872314
1751620576728681200,5.85868115234375,9.908080101013184,0.1704886108636856,-0.09690931439399719
1751620576747504600,5.877504638671875,9.908080101013184,0.14656038582324982,-0.08733802288770676
1751620576766328000,5.896328125,9.917651176452637,0.1657029688358307,-0.09690931439399719
1751620576785151500,5.9151513671875,9.941579818725586,0.16091732680797577,-0.09690931439399719
1751620576803975200,5.93397509765625,9.955936431884766,0.1704886108636856,-0.10169496387243271
1751620576822798600,5.952798583984375,9.965508460998535,0.17527425289154053,-0.09212367236614227
1751620576841622000,5.9716220703125,9.946365356445312,0.18005990982055664,-0.11126625537872314
1751620576860445400,5.990445556640625,9.93679428100586,0.1704886108636856,-0.11126625537872314
1751620576879268900,6.009268798828125,9.927223205566406,0.18005990982055664,-0.09690931439399719
1751620576898092500,6.028092529296875,9.91286563873291,0.15134602785110474,-0.10648060590028763
1751620576916916000,6.046916015625,9.908080101013184,0.16091732680797577,-0.12083754688501358
1751620576935739400,6.065739501953125,9.88415241241455,0.13698910176753998,-0.11126625537872314
1751620576954562800,6.084562744140625,9.888937950134277,0.16091732680797577,-0.09690931439399719
1751620576973386200,6.10338623046875,9.903294563293457,0.16091732680797577,-0.11605189740657806
1751620576992209700,6.122209716796875,9.932008743286133,0.1417747437953949,-0.12083754688501358
1751620577011033300,6.141033447265625,9.932008743286133,0.1657029688358307,-0.10169496387243271
1751620577029856800,6.159856689453125,9.946365356445312,0.15613168478012085,-0.09690931439399719
1751620577048680200,6.17868017578125,9.927223205566406,0.18005990982055664,-0.11126625537872314
1751620577076915500,6.20691552734375,9.89850902557373,0.16091732680797577,-0.1256231814622879
1751620577095739000,6.22573876953125,9.908080101013184,0.15134602785110474,-0.10648060590028763
1751620577114562300,6.244562255859375,9.917651176452637,0.1657029688358307,-0.11126625537872314
1751620577133385700,6.2633857421875,9.927223205566406,0.1657029688358307,-0.11126625537872314
1751620577152209400,6.28220947265625,9.946365356445312,0.15613168478012085,-0.09690931439399719
1751620577171032800,6.30103271484375,9.955936431884766,0.17527425289154053,-0.09212367236614227
1751620577189856300,6.319856201171875,9.951150894165039,0.18963119387626648,-0.09690931439399719
1751620577208679700,6.3386796875,9.970293998718262,0.1704886108636856,-0.10648060590028763
1751620577227503000,6.357503173828125,9.927223205566406,0.15613168478012085,-0.11605189740657806
1751620577246326500,6.376326416015625,9.903294563293457,0.1657029688358307,-0.11126625537872314
1751620577265150200,6.395150146484375,9.91286563873291,0.1657029688358307,-0.09690931439399719
1751620577283973600,6.4139736328125,9.888937950134277,0.1704886108636856,-0.11126625537872314
1751620577302797000,6.432797119140625,9.908080101013184,0.1417747437953949,-0.11605189740657806
1751620577321620500,6.451620361328125,9.89850902557373,0.1417747437953949,-0.10169496387243271
1751620577340444200,6.470444091796875,9.89850902557373,0.17527425289154053,-0.09212367236614227
1751620577359267600,6.489267578125,9.927223205566406,0.1657029688358307,-0.1256231814622879
1751620577378091000,6.508091064453125,9.93679428100586,0.1704886108636856,-0.12083754688501358
1751620577396914400,6.52691455078125,9.941579818725586,0.16091732680797577,-0.11126625537872314
1751620577415737900,6.54573779296875,9.960722923278809,0.1704886108636856,-0.11605189740657806
1751620577434561300,6.564561279296875,9.951150894165039,0.1657029688358307,-0.11605189740657806
1751620577453385000,6.583385009765625,9.927223205566406,0.16091732680797577,-0.09690931439399719
1751620577472208400,6.60220849609375,9.927223205566406,0.13698910176753998,-0.10648060590028763
1751620577491031800,6.62103173828125,9.917651176452637,0.16091732680797577,-0.10169496387243271
1751620577509855200,6.639855224609375,9.893723487854004,0.17527425289154053,-0.11605189740657806
1751620577528678700,6.6586787109375,9.89850902557373,0.15613168478012085,-0.10169496387243271
1751620577547502300,6.67750244140625,9.893723487854004,0.1657029688358307,-0.10648060590028763
1751620577566325800,6.69632568359375,9.89850902557373,0.1704886108636856,-0.12083754688501358
1751620577585149200,6.715149169921875,9.92243766784668,0.1657029688358307,-0.10648060590028763
1751620577603972600,6.73397265625,9.932008743286133,0.15613168478012085,-0.09690931439399719
1751620577622796000,6.752796142578125,9.93679428100586,0.1657029688358307,-0.10648060590028763
1751620577641619500,6.771619384765625,9.951150894165039,0.18484555184841156,-0.09690931439399719
1751620577660443100,6.790443115234375,9.955936431884766,0.1657029688358307,-0.09690931439399719
1751620577679266600,6.8092666015625,9.946365356445312,0.15613168478012085,-0.10169496387243271
1751620577698090000,6.828090087890625,9.927223205566406,0.16091732680797577,-0.11126625537872314
1751620577716913400,6.846913330078125,9.917651176452637,0.1657029688358307,-0.09690931439399719
1751620577735737000,6.865737060546875,9.908080101013184,0.16091732680797577,-0.09690931439399719
1751620577754560500,6.884560546875,9.893723487854004,0.15613168478012085,-0.11126625537872314
1751620577773384000,6.903384033203125,9.893723487854004,0.1704886108636856,-0.09212367236614227
1751620577792207400,6.922207275390625,9.908080101013184,0.1657029688358307,-0.11126625537872314
1751620577811030800,6.94103076171875,9.89850902557373,0.1657029688358307,-0.11605189740657806
1751620577829854200,6.959854248046875,9.92243766784668,0.1657029688358307,-0.11605189740657806
1751620577848677600,6.978677734375,9.946365356445312,0.1417747437953949,-0.09690931439399719
1751620577867501300,6.997501220703125,9.941579818725586,0.14656038582324982,-0.08255238085985184
1751620577886324700,7.01632470703125,9.955936431884766,0.15613168478012085,-0.11126625537872314
1751620577905148200,7.035148193359375,9.955936431884766,0.17527425289154053,-0.11605189740657806
1751620577923971600,7.0539716796875,9.946365356445312,0.1657029688358307,-0.12083754688501358
1751620577942795300,7.072795166015625,9.917651176452637,0.17527425289154053,-0.11605189740657806
1751620577961618700,7.09161865234375,9.908080101013184,0.1704886108636856,-0.12083754688501358
1751620577980442000,7.110442138671875,9.89850902557373,0.1657029688358307,-0.12083754688501358
1751620577999265500,7.129265625,9.89850902557373,0.1704886108636856,-0.10648060590028763
1751620578018089000,7.1480888671875,9.893723487854004,0.1704886108636856,-0.11605189740657806
1751620578036912400,7.166912353515625,9.903294563293457,0.15134602785110474,-0.10169496387243271
1751620578055736000,7.185736083984375,9.908080101013184,0.15134602785110474,-0.09212367236614227
1751620578074559500,7.2045595703125,9.932008743286133,0.1657029688358307,-0.10648060590028763
1751620578093383000,7.2233828125,9.941579818725586,0.1704886108636856,-0.10648060590028763
1751620578112206300,7.242206298828125,9.941579818725586,0.1657029688358307,-0.11126625537872314
1751620578131029800,7.26102978515625,9.951150894165039,0.1657029688358307,-0.12083754688501358
1751620578149853400,7.279853515625,9.941579818725586,0.1704886108636856,-0.10169496387243271
1751620578168676900,7.2986767578125,9.927223205566406,0.1657029688358307,-0.09690931439399719
1751620578187500300,7.317500244140625,9.927223205566406,0.16091732680797577,-0.09212367236614227
1751620578206323700,7.33632373046875,9.903294563293457,0.15134602785110474,-0.10169496387243271
1751620578225147100,7.355147216796875,9.893723487854004,0.16091732680797577,-0.11126625537872314
1751620578243970800,7.373970703125,9.89850902557373,0.16091732680797577,-0.12083754688501358
1751620578262794200,7.392794189453125,9.89850902557373,0.15613168478012085,-0.11126625537872314
1751620578281617700,7.41161767578125,9.89850902557373,0.17527425289154053,-0.11605189740657806
1751620578300441000,7.430441162109375,9.917651176452637,0.18005990982055664,-0.10169496387243271
1751620578319264500,7.449264404296875,9.917651176452637,0.1657029688358307,-0.11605189740657806
1751620578338088200,7.468088134765625,9.946365356445312,0.18005990982055664,-0.10648060590028763
1751620578356911600,7.48691162109375,9.955936431884766,0.1657029688358307,-0.11126625537872314
1751620578375735000,7.505735107421875,9.955936431884766,0.15134602785110474,-0.1256231814622879
1751620578394558500,7.524558349609375,9.941579818725586,0.17527425289154053,-0.09690931439399719
1751620578413382000,7.5433818359375,9.932008743286133,0.15613168478012085,-0.11126625537872314
1751620578432205600,7.56220556640625,9.917651176452637,0.1657029688358307,-0.10169496387243271
1751620578451029000,7.581029052734375,9.888937950134277,0.16091732680797577,-0.10648060590028763
1751620578469852400,7.599852294921875,9.941579818725586,0.19920247793197632,-0.11126625537872314
1751620578488675800,7.61867578125,9.91286563873291,0.15613168478012085,-0.1256231814622879
1751620578507499300,7.637499267578125,9.879366874694824,0.15613168478012085,-0.10169496387243271
1751620578526323000,7.656322998046875,9.869794845581055,0.17527425289154053,-0.10169496387243271
1751620578545146400,7.675146484375,9.869794845581055,0.1704886108636856,-0.05383851006627083
1751620578563969800,7.6939697265625,9.92243766784668,0.1944168359041214,-0.10648060590028763
1751620578582793200,7.712793212890625,9.91286563873291,0.14656038582324982,-0.08255238085985184
1751620578601616600,7.73161669921875,9.999007225036621,0.17527425289154053,-0.15912270545959473
1751620578620440300,7.7504404296875,9.802796363830566,0.1178465187549591,0.008374879136681557
1751620578639263700,7.769263671875,9.941579818725586,0.14656038582324982,-0.08255238085985184
1751620578658087200,7.788087158203125,9.941579818725586,0.12263216078281403,-0.12083754688501358
1751620578676910600,7.80691064453125,9.91286563873291,0.12263216078281403,-0.11605189740657806
1751620578695734300,7.825734375,9.927223205566406,0.18484555184841156,-0.12083754688501358
1751620578714557700,7.8445576171875,9.860223770141602,0.17527425289154053,-0.09212367236614227
1751620578733381000,7.863381103515625,9.793225288391113,0.16091732680797577,-0.039481572806835175
1751620578752204500,7.88220458984375,9.955936431884766,0.17527425289154053,-0.11126625537872314
1751620578771028000,7.901028076171875,9.927223205566406,0.18963119387626648,-0.09690931439399719
1751620578789851600,7.9198515625,9.932008743286133,0.18005990982055664,-0.0729810893535614
1751620578808675000,7.938675048828125,9.927223205566406,0.15613168478012085,-0.06340979784727097
1751620578827498500,7.95749853515625,9.93679428100586,0.09391828626394272,-0.04905286431312561
1751620578846322000,7.976322021484375,9.946365356445312,0.12741780281066895,-0.04905286431312561
1751620578865145300,7.995145263671875,9.932008743286133,0.1417747437953949,-0.06819544732570648
1751620578883969000,8.013968994140624,9.93679428100586,0.17527425289154053,-0.09212367236614227
1751620578902792400,8.03279248046875,9.927223205566406,0.14656038582324982,-0.08255238085985184
1751620578921616000,8.051615966796875,9.888937950134277,0.13220344483852386,-0.08733802288770676
1751620578940439300,8.070439208984375,9.908080101013184,0.19920247793197632,-0.13519448041915894
1751620578959263000,8.089262939453125,9.874580383300781,0.17527425289154053,-0.1495514214038849
1751620578978086400,8.10808642578125,9.917651176452637,0.16091732680797577,-0.17347964644432068
1751620578996909800,8.126909912109374,9.903294563293457,0.1657029688358307,-0.11126625537872314
1751620579015733200,8.145733154296876,9.92243766784668,0.14656038582324982,-0.08733802288770676
1751620579034557000,8.164556884765625,9.927223205566406,0.13220344483852386,-0.07776673883199692
1751620579053380400,8.18338037109375,9.93679428100586,-0.2315055876970291,0.30508488416671753
1751620579072203800,8.202203857421875,9.946365356445312,-0.20757736265659332,0.4342973232269287
1751620579091027200,8.221027099609374,9.941579818725586,0.17527425289154053,0.17108681797981262
1751620579109850600,8.2398505859375,9.932008743286133,0.34277185797691345,-0.07776673883199692
1751620579138086000,8.2680859375,9.932008743286133,0.3236292600631714,-0.35054850578308105
1751620579156909300,8.286909423828124,9.941579818725586,0.2183450609445572,-0.37926238775253296
1751620579175733000,8.30573291015625,9.955936431884766,0.03170489892363548,-0.09690931439399719
1751620579194556400,8.324556396484375,9.960722923278809,-0.2793620526790619,0.30987054109573364
1751620579213379800,8.3433798828125,9.917651176452637,-0.28893333673477173,0.41994038224220276
1751620579232203300,8.362203369140625,9.917651176452637,-0.049651071429252625,0.17108681797981262
1751620579251026700,8.381026611328124,9.975079536437988,0.20398813486099243,-0.29312077164649963
1751620579269850400,8.399850341796874,9.91286563873291,0.36191442608833313,-0.45104706287384033
1751620579288673800,8.418673828125,9.903294563293457,0.4624129831790924,-0.4989035129547119
1751620579307497200,8.437497314453125,9.88415241241455,0.39541393518447876,-0.2835494875907898
1751620579326321000,8.45632080078125,9.89850902557373,0.17527425289154053,0.061016976833343506
1751620579345144300,8.475144287109375,9.917651176452637,-0.030508488416671753,0.2476571500301361
1751620579363967700,8.4939677734375,9.908080101013184,-0.15972091257572174,0.25244277715682983
1751620579382791200,8.512791259765624,9.927223205566406,-0.049651071429252625,0.07058826833963394
1751620579401614800,8.53161474609375,9.93679428100586,0.18484555184841156,-0.18783657252788544
1751620579420438300,8.550438232421875,9.955936431884766,0.29012975096702576,-0.22612173855304718
1751620579439261700,8.56926171875,9.917651176452637,0.2231307178735733,-0.13519448041915894
1751620579458085000,8.588085205078125,9.951150894165039,0.24227328598499298,-0.2021935135126114
1751620579476908500,8.606908447265624,9.917651176452637,0.1178465187549591,-0.04905286431312561
1751620579495732200,8.625732177734376,9.879366874694824,0.04127619042992592,0.21415762603282928
1751620579514555600,8.6445556640625,9.893723487854004,-0.001794616924598813,0.17587246000766754
1751620579533379000,8.663379150390625,9.869794845581055,0.14656038582324982,-0.058624155819416046
1751620579552202500,8.682202392578125,9.879366874694824,0.3332005441188812,-0.29790642857551575
1751620579571026200,8.701026123046875,9.903294563293457,0.3332005441188812,-0.259621262550354
1751620579589849600,8.719849609375,9.869794845581055,0.2183450609445572,-0.15912270545959473
1751620579608673000,8.738673095703126,9.941579818725586,0.15613168478012085,-0.10648060590028763
1751620579627496400,8.757496337890625,9.927223205566406,0.1178465187549591,-0.1495514214038849
1751620579646320000,8.776320068359375,9.989436149597168,0.012562318705022335,-0.09690931439399719
1751620579665143600,8.7951435546875,9.975079536437988,-0.001794616924598813,-0.08255238085985184
1751620579683967000,8.813967041015625,9.960722923278809,-0.030508488416671753,0.06580262631177902
1751620579702790400,8.832790283203124,9.970293998718262,-0.01136590726673603,0.3768695592880249
1751620579721614000,8.851614013671876,9.908080101013184,0.0029910283628851175,0.3290131092071533
1751620579740437500,8.8704375,9.903294563293457,0.10827522724866867,-0.16390834748744965
1751620579759261000,8.889260986328125,9.908080101013184,0.18005990982055664,-0.48454657196998596
1751620579778084400,8.90808447265625,9.893723487854004,0.26141586899757385,-0.4366901218891144
1751620579796908000,8.926907958984375,9.89850902557373,0.41934216022491455,-0.46061834692955017
1751620579815731500,8.9457314453125,9.89850902557373,0.37148571014404297,-0.3409772217273712
1751620579834555000,8.964554931640626,9.893723487854004,0.07477571070194244,0.2667997181415558
1751620579853378300,8.98337841796875,9.93679428100586,-0.09272187948226929,0.6305087804794312
1751620579872202000,9.002201904296875,9.93679428100586,-0.020937198773026466,0.47258245944976807
1751620579891025400,9.021025390625,9.941579818725586,0.046061836183071136,0.3720839321613312
1751620579909848800,9.039848876953124,9.951150894165039,-0.04486542567610741,0.4486542344093323
1751620579928672300,9.05867236328125,9.917651176452637,0.050847481936216354,0.11844471842050552
1751620579947496000,9.077495849609376,9.91286563873291,0.251844584941864,-0.29790642857551575
1751620579966319400,9.0963193359375,9.908080101013184,0.36670008301734924,-0.37447673082351685
1751620579985142800,9.115142822265625,9.89850902557373,0.4097708761692047,-0.37447673082351685
1751620580003966200,9.13396630859375,9.893723487854004,0.19920247793197632,-0.2309073805809021
1751620580022790000,9.152789794921874,9.908080101013184,0.01734796352684498,-0.08255238085985184
1751620580041613300,9.17161328125,9.89850902557373,-0.15493527054786682,-0.020338991656899452
1751620580060436700,9.190436767578126,9.91286563873291,-0.3032902777194977,-0.07776673883199692
1751620580079260200,9.20926025390625,9.93679428100586,-0.0687936544418335,-0.5419743061065674
1751620580098083800,9.228083740234375,9.941579818725586,0.09870393574237823,-0.5946164131164551
1751620580116907300,9.2469072265625,9.955936431884766,0.05563312768936157,-0.2069791555404663
1751620580135730700,9.265730712890624,9.946365356445312,0.08434699475765228,0.07058826833963394
1751620580154554000,9.28455419921875,9.955936431884766,0.13220344483852386,0.3194418251514435
1751620580173377800,9.303377685546875,9.92243766784668,0.0077766734175384045,0.3577269911766052
1751620580192201200,9.322201171875,9.917651176452637,0.01734796352684498,-0.08733802288770676
1751620580211024600,9.341024658203125,9.92243766784668,-0.025722842663526535,-0.48454657196998596
1751620580229848000,9.35984814453125,9.92243766784668,-0.12143574655056,-0.5084748268127441
1751620580248671700,9.378671630859374,9.879366874694824,-0.054436713457107544,-0.2548356056213379
1751620580267495200,9.3974951171875,9.89850902557373,0.16091732680797577,-0.3074777126312256
1751620580286318600,9.416318603515625,9.91286563873291,0.15613168478012085,-0.24047867953777313
1751620580305142300,9.435142333984375,9.917651176452637,0.10348957777023315,-0.09212367236614227
1751620580323965700,9.453965576171875,9.941579818725586,0.09870393574237823,-0.1543370634317398
1751620580342789000,9.4727890625,9.941579818725586,0.1178465187549591,-0.10648060590028763
1751620580361612500,9.491612548828124,9.960722923278809,0.026919255033135414,-0.02512463741004467
1751620580380436200,9.510436279296876,9.975079536437988,0.18963119387626648,0.2907279431819916
1751620580399259600,9.529259765625,9.951150894165039,0.2805584669113159,0.19980068504810333
1751620580418083000,9.5480830078125,9.93679428100586,0.2231307178735733,-0.16390834748744965
1751620580436906500,9.566906494140625,9.908080101013184,0.1417747437953949,-0.3170489966869354
1751620580455730200,9.585730224609375,9.903294563293457,0.1178465187549591,-0.3170489966869354
1751620580474553600,9.6045537109375,9.893723487854004,0.23270200192928314,-0.1543370634317398
1751620580493377000,9.623376953125,9.893723487854004,0.21355941891670227,-0.06819544732570648
1751620580512200400,9.642200439453125,9.888937950134277,0.26141586899757385,-0.04905286431312561
1751620580531024100,9.661024169921875,9.908080101013184,0.17527425289154053,-0.15912270545959473
1751620580549847600,9.67984765625,9.92243766784668,0.05563312768936157,-0.02512463741004467
1751620580568671000,9.6986708984375,9.927223205566406,0.08434699475765228,0.2189432680606842
1751620580587494700,9.71749462890625,9.927223205566406,0.14656038582324982,0.10408778488636017
1751620580606318000,9.736318115234376,9.955936431884766,0.07477571070194244,0.04187439754605293
1751620580625141500,9.7551416015625,9.951150894165039,0.1178465187549591,-0.020338991656899452
1751620580643965000,9.77396484375,9.917651176452637,0.07956135272979736,-0.04905286431312561
1751620580662788600,9.79278857421875,9.941579818725586,0.06999006122350693,-0.2021935135126114
1751620580681612000,9.811612060546874,9.893723487854004,-0.01136590726673603,0.017946170642971992
1751620580700435500,9.830435546875,9.917651176452637,-0.04486542567610741,0.24287149310112
1751620580719259000,9.8492587890625,9.88415241241455,0.06999006122350693,0.12323036789894104
1751620580738082600,9.86808251953125,9.88415241241455,0.20398813486099243,0.05144568532705307
1751620580756906000,9.886906005859375,9.888937950134277,0.18005990982055664,-0.06340979784727097
1751620580775729400,9.9057294921875,9.91286563873291,0.11306086927652359,-0.3074777126312256
1751620580794553000,9.924552978515624,9.908080101013184,-0.07836493849754333,-0.1495514214038849
1751620580813376500,9.94337646484375,9.970293998718262,-0.11665010452270508,0.4582255482673645
1751620580832200000,9.962199951171876,9.93679428100586,-0.020937198773026466,0.3290131092071533
1751620580851023400,9.9810234375,9.941579818725586,0.15134602785110474,-0.020338991656899452
1751620580869847000,9.999846923828125,9.946365356445312,0.26141586899757385,-0.26919254660606384
1751620580888670500,10.01867041015625,9.941579818725586,0.11306086927652359,-0.46061834692955017
1751620580907494000,10.037493896484374,9.93679428100586,0.10827522724866867,-0.22133609652519226
1751620580926317600,10.056317626953126,9.893723487854004,0.1944168359041214,0.5204389095306396
1751620580945141000,10.07514111328125,9.88415241241455,-0.12143574655056,1.2095718383789062
1751620580963964400,10.09396435546875,9.888937950134277,-0.025722842663526535,0.7166503667831421
1751620580982787800,10.112787841796875,9.903294563293457,0.13220344483852386,-0.25004997849464417
1751620581001611500,10.131611572265625,9.989436149597168,0.07477571070194244,-0.6951149702072144
1751620581020435000,10.15043505859375,9.965508460998535,0.07956135272979736,-0.8147560954093933
1751620581039258400,10.16925830078125,9.92243766784668,0.251844584941864,-0.19740787148475647
1751620581058082000,10.18808203125,9.965508460998535,0.33798620104789734,-0.1495514214038849
1751620581076905500,10.206905517578125,9.941579818725586,0.13220344483852386,-0.010767702013254166
1751620581095729000,10.22572900390625,9.946365356445312,0.01734796352684498,0.2189432680606842
1751620581114552300,10.24455224609375,9.932008743286133,0.13220344483852386,0.17587246000766754
1751620581133376000,10.2633759765625,9.927223205566406,0.2997010350227356,0.25722843408584595
1751620581152199400,10.282199462890626,9.92243766784668,0.5198407173156738,0.008374879136681557
1751620581171022800,10.30102294921875,9.903294563293457,0.3475574851036072,-0.26919254660606384
1751620581189846500,10.319846435546875,9.903294563293457,0.19920247793197632,-0.25004997849464417
1751620581208670000,10.338669921875,9.836296081542969,0.2566302418708801,0.09930214285850525
1751620581227493400,10.357493408203124,9.908080101013184,0.12741780281066895,-0.07776673883199692
1751620581246317000,10.376317138671874,9.91286563873291,-0.12622138857841492,0.14715859293937683
1751620581265140500,10.395140380859376,9.92243766784668,0.026919255033135414,0.4486542344093323
1751620581283964000,10.4139638671875,9.941579818725586,0.30927231907844543,0.061016976833343506
1751620581302787300,10.432787353515625,9.946365356445312,0.18484555184841156,-0.37447673082351685
1751620581321611000,10.451611083984375,9.965508460998535,0.08434699475765228,-0.25004997849464417
1751620581340434400,10.470434326171874,9.927223205566406,0.022133609279990196,0.04666004329919815
1751620581359257900,10.4892578125,9.932008743286133,-0.06400800496339798,0.22372891008853912
1751620581378081500,10.50808154296875,9.91286563873291,0.3044866919517517,0.33858439326286316
1751620581396905000,10.526905029296875,9.888937950134277,0.2566302418708801,0.16151553392410278
1751620581415728400,10.545728271484375,9.89850902557373,0.13698910176753998,-0.3840480446815491
1751620581434551800,10.5645517578125,9.893723487854004,0.2709871530532837,-0.5180460810661316
1751620581453375500,10.58337548828125,9.888937950134277,0.14656038582324982,-0.06819544732570648
1751620581472199000,10.602198974609376,9.908080101013184,-0.06400800496339798,0.18544375896453857
1751620581491022300,10.621022216796876,9.92243766784668,-0.08793623000383377,0.1423729509115219
1751620581509846000,10.639845947265625,9.89850902557373,0.4336991012096405,0.1663011759519577
1751620581528669400,10.65866943359375,9.932008743286133,0.5102694034576416,-0.35533416271209717
1751620581547492900,10.677492919921875,9.955936431884766,0.21355941891670227,-0.5419743061065674
1751620581566316500,10.696316650390624,9.951150894165039,0.23270200192928314,-0.32183465361595154
1751620581585140000,10.715139892578126,9.946365356445312,0.03170489892363548,0.19980068504810333
1751620581603963400,10.73396337890625,9.927223205566406,0.12741780281066895,0.3433700501918793
1751620581622786800,10.752786865234375,9.908080101013184,0.2709871530532837,0.15672987699508667
1751620581641610500,10.771610595703125,9.879366874694824,0.2566302418708801,-0.06819544732570648
1751620581660434000,10.790433837890625,9.888937950134277,0.07956135272979736,0.0849452018737793
1751620581679257300,10.80925732421875,9.893723487854004,0.04127619042992592,0.30987054109573364
1751620581698081000,10.8280810546875,9.893723487854004,0.18484555184841156,0.15672987699508667
1751620581716904400,10.846904541015626,9.91286563873291,0.2709871530532837,0.05623133108019829
1751620581735727900,10.865727783203125,9.91286563873291,0.09391828626394272,0.017946170642971992
1751620581754551600,10.884551513671875,9.927223205566406,-0.006580262444913387,0.08015955984592438
1751620581773375000,10.903375,9.941579818725586,0.09391828626394272,0.1423729509115219
1751620581792198400,10.922198486328124,9.955936431884766,0.29012975096702576,-0.2069791555404663
1751620581811022000,10.94102197265625,9.951150894165039,0.36670008301734924,-0.18783657252788544
1751620581829845500,10.959845458984375,9.92243766784668,0.3236292600631714,-0.14476576447486877
1751620581848669000,10.9786689453125,9.917651176452637,0.06520441919565201,0.08973085135221481
1751620581867492600,10.99749267578125,9.89850902557373,0.06041877344250679,0.15672987699508667
1751620581886316000,11.01631591796875,9.893723487854004,0.2997010350227356,0.17587246000766754
1751620581905139500,11.035139404296874,9.879366874694824,0.44805604219436646,-0.07776673883199692
1751620581923963000,11.053962890625,9.888937950134277,0.10348957777023315,-0.03469592705368996
1751620581942786600,11.07278662109375,9.927223205566406,-0.28893333673477173,0.2955136001110077
1751620581961610000,11.09160986328125,9.927223205566406,-0.1740778535604477,0.3720839321613312
1751620581980433400,11.110433349609375,9.965508460998535,-0.2267199456691742,0.5874379873275757
1751620581999257000,11.129257080078125,9.955936431884766,0.0029910283628851175,0.5539384484291077
1751620582018080500,11.14808056640625,10.405787467956543,0.8644071817398071,-0.29312077164649963
1751620582036904000,11.166904052734376,9.793225288391113,0.6107679605484009,-0.8051848411560059
1751620582055727600,11.1857275390625,9.726225852966309,0.17527425289154053,-0.2835494875907898
1751620582074551000,11.204551025390625,9.79801082611084,0.10348957777023315,0.10408778488636017
1751620582093374500,11.22337451171875,9.874580383300781,0.6251249313354492,0.10408778488636017
1751620582112198000,11.242197998046874,9.89850902557373,0.44327038526535034,0.05144568532705307
1751620582131021600,11.261021484375,9.908080101013184,0.06999006122350693,0.1663011759519577
1751620582149845000,11.279844970703126,9.888937950134277,0.0077766734175384045,0.02273181453347206
1751620582168668400,11.29866845703125,9.879366874694824,0.28534409403800964,-0.13040883839130402
1751620582187492000,11.3174921875,9.888937950134277,0.34277185797691345,0.0323031060397625
1751620582206315500,11.3363154296875,9.88415241241455,0.0891326442360878,0.36729827523231506
1751620582225139000,11.355138916015624,9.932008743286133,0.022133609279990196,0.2955136001110077
1751620582243962600,11.373962646484374,9.92243766784668,0.050847481936216354,0.16151553392410278
1751620582262786000,11.3927861328125,9.941579818725586,0.2805584669113159,-0.10169496387243271
1751620582281609500,11.411609375,9.941579818725586,0.31405797600746155,-0.12083754688501358
1751620582300433200,11.43043310546875,9.946365356445312,0.41934216022491455,-0.2309073805809021
1751620582319256600,11.449256591796875,9.946365356445312,0.4336991012096405,-0.2021935135126114
1751620582338080000,11.468080078125,9.893723487854004,0.18005990982055664,0.10887342691421509
1751620582356903400,11.4869033203125,9.91286563873291,-0.3415754437446594,0.592223584651947
1751620582375727000,11.50572705078125,9.932008743286133,-0.001794616924598813,0.47258245944976807
1751620582394550500,11.524550537109375,9.807581901550293,0.4049852192401886,-0.010767702013254166
1751620582413374000,11.5433740234375,9.888937950134277,0.11306086927652359,-0.09690931439399719
1751620582432197600,11.56219775390625,9.927223205566406,0.3332005441188812,-0.09690931439399719
1751620582451021000,11.58102099609375,9.92243766784668,0.5916253924369812,-0.09690931439399719
1751620582469844500,11.599844482421876,9.927223205566406,0.4815555512905121,0.04666004329919815
1751620582498079700,11.628079833984375,9.88415241241455,0.33798620104789734,0.17587246000766754
1751620582516903400,11.6469033203125,9.879366874694824,0.47676992416381836,0.10408778488636017
1751620582535726800,11.665726806640626,9.893723487854004,0.31405797600746155,0.7357929348945618
1751620582554550300,11.68455029296875,9.903294563293457,-0.11665010452270508,0.38644084334373474
1751620582573374000,11.7033740234375,9.927223205566406,-0.24586252868175507,0.4007977843284607
1751620582592197400,11.722197265625,9.927223205566406,0.18005990982055664,0.18544375896453857
1751620582611020800,11.741020751953124,9.93679428100586,0.47198426723480225,-0.13519448041915894
1751620582629844500,11.759844482421874,9.965508460998535,0.01734796352684498,0.20458634197711945
1751620582648668000,11.77866796875,10.003793716430664,0.03170489892363548,0.4055834412574768
1751620582667491300,11.7974912109375,9.975079536437988,0.22791635990142822,0.19980068504810333
1751620582686315000,11.81631494140625,9.879366874694824,0.7782655358314514,-1.3363914489746094
1751620582705138400,11.835138427734375,9.88415241241455,0.5102694034576416,-0.8578268885612488
1751620582723961900,11.8539619140625,9.91286563873291,0.2566302418708801,0.008374879136681557
1751620582742785300,11.872785400390624,9.850652694702148,0.2183450609445572,0.137587308883667
1751620582761609000,11.89160888671875,9.831509590148926,0.1704886108636856,0.1902294009923935
1751620582780432400,11.910432373046875,9.941579818725586,0.19920247793197632,0.137587308883667
1751620582799255800,11.929255859375,9.888937950134277,0.22791635990142822,0.12323036789894104
1751620582818079500,11.94807958984375,9.932008743286133,0.23270200192928314,0.07537391036748886
1751620582836903000,11.96690283203125,9.941579818725586,0.22791635990142822,0.008374879136681557
1751620582855726300,11.985726318359376,9.946365356445312,0.31405797600746155,0.18544375896453857
1751620582874550000,12.004550048828126,9.965508460998535,0.2805584669113159,0.5539384484291077
1751620582893373400,12.02337353515625,9.941579818725586,0.1178465187549591,0.31465616822242737
1751620582912196900,12.04219677734375,9.93679428100586,0.26620152592658997,0.17108681797981262
1751620582931020500,12.0610205078125,9.91286563873291,0.3188436031341553,-0.05383851006627083
1751620582959255800,12.089255859375,9.984650611877441,0.3284149169921875,0.04187439754605293
1751620582978079200,12.108079345703125,9.932008743286133,0.2183450609445572,0.24287149310112
1751620582996902700,12.126902587890624,9.941579818725586,0.0077766734175384045,0.09930214285850525
1751620583015726300,12.145726318359374,9.932008743286133,0.09870393574237823,-0.005982056725770235
1751620583034549800,12.1645498046875,9.951150894165039,0.357128769159317,-0.27397820353507996
1751620583053373200,12.183373291015625,9.92243766784668,0.3475574851036072,-0.27397820353507996
1751620583072196900,12.20219677734375,9.89850902557373,0.251844584941864,-0.04905286431312561
1751620583091020300,12.221020263671875,9.893723487854004,0.20877377688884735,0.30508488416671753
1751620583109843700,12.23984375,9.879366874694824,0.07956135272979736,0.7549355626106262
1751620583128667400,12.25866748046875,9.88415241241455,-0.08793623000383377,1.0085747241973877
1751620583147490800,12.27749072265625,9.903294563293457,0.022133609279990196,0.898504912853241
1751620583166314200,12.296314208984375,9.89850902557373,0.3762713670730591,-0.06819544732570648
1751620583185138000,12.315137939453125,9.946365356445312,0.6921239495277405,-0.8913264274597168
1751620583203961300,12.33396142578125,9.941579818725586,0.5389832854270935,-1.0301101207733154
1751620583222784800,12.35278466796875,9.951150894165039,0.2566302418708801,-0.5228317379951477
1751620583241608400,12.3716083984375,9.932008743286133,0.20398813486099243,0.1136590763926506
1751620583260432000,12.390431884765626,9.91286563873291,0.022133609279990196,0.5778666734695435
1751620583279255300,12.40925537109375,9.92243766784668,0.08434699475765228,0.6831508874893188
1751620583298078700,12.42807861328125,9.89850902557373,0.12741780281066895,0.4534398913383484
1751620583316902400,12.44690234375,9.879366874694824,0.20877377688884735,-0.0011964113218709826
1751620583335725800,12.465725830078124,9.89850902557373,0.3236292600631714,-0.364905446767807
1751620583354549200,12.48454931640625,9.888937950134277,0.3044866919517517,-0.3936193287372589
1751620583373373000,12.503373046875,9.908080101013184,0.45284169912338257,0.07058826833963394
1751620583392196400,12.5221962890625,9.903294563293457,0.2805584669113159,0.5395814776420593
1751620583411019800,12.541019775390625,9.908080101013184,0.20398813486099243,0.5395814776420593
1751620583429843500,12.559843505859375,9.927223205566406,0.21355941891670227,0.25244277715682983
1751620583448667000,12.5786669921875,9.951150894165039,0.357128769159317,-0.22133609652519226
1751620583467490300,12.597490234375,9.927223205566406,0.4576273262500763,-0.3840480446815491
1751620583486314000,12.61631396484375,9.941579818725586,0.3188436031341553,-0.10648060590028763
1751620583505137400,12.635137451171875,9.932008743286133,0.12263216078281403,0.05144568532705307
1751620583523960800,12.6539609375,9.93679428100586,0.026919255033135414,0.08973085135221481
1751620583542784500,12.672784423828125,9.89850902557373,0.12741780281066895,0.0323031060397625
1751620583561608000,12.69160791015625,9.879366874694824,0.23748764395713806,-0.02512463741004467
1751620583580431400,12.710431396484376,9.88415241241455,0.3762713670730591,-0.1782652884721756
1751620583599255000,12.729255126953126,9.903294563293457,0.36191442608833313,-0.13998012244701385
1751620583618078500,12.748078369140625,9.908080101013184,0.3188436031341553,-0.12083754688501358
1751620583636902100,12.766902099609375,9.92243766784668,0.18963119387626648,0.06580262631177902
1751620583655725600,12.7857255859375,9.932008743286133,0.07956135272979736,0.28115665912628174
1751620583674549000,12.804549072265624,9.932008743286133,0.0891326442360878,0.28115665912628174
1751620583693372400,12.823372314453126,9.93679428100586,0.30927231907844543,0.04666004329919815
1751620583712196000,12.842196044921875,9.932008743286133,0.42412781715393066,-0.15912270545959473
1751620583731019500,12.86101953125,9.927223205566406,0.4049852192401886,-0.1782652884721756
1751620583749843000,12.879843017578125,9.92243766784668,0.36670008301734924,-0.2069791555404663
1751620583768666600,12.89866650390625,9.903294563293457,0.31405797600746155,-0.2069791555404663
1751620583787490000,12.917489990234374,9.903294563293457,0.357128769159317,-0.15912270545959473
1751620583806313500,12.9363134765625,9.88415241241455,0.3188436031341553,-0.015553346835076809
1751620583825137200,12.95513720703125,9.888937950134277,0.3810569941997528,-0.005982056725770235
1751620583843960600,12.973960693359375,9.88415241241455,0.3475574851036072,-0.015553346835076809
1751620583862784000,12.992783935546875,9.908080101013184,0.3188436031341553,0.02751746028661728
1751620583881607700,13.011607666015625,9.927223205566406,0.251844584941864,0.10887342691421509
1751620583900431000,13.03043115234375,9.93679428100586,0.17527425289154053,0.1663011759519577
1751620583919254500,13.049254638671876,9.93679428100586,0.10827522724866867,0.33379876613616943
1751620583938078200,13.068078125,9.941579818725586,0.06999006122350693,0.30987054109573364
1751620583956901600,13.086901611328125,9.941579818725586,0.18484555184841156,0.22851456701755524
1751620583975725000,13.10572509765625,9.941579818725586,0.24227328598499298,0.1136590763926506
1751620583994548700,13.124548828125,9.917651176452637,0.2709871530532837,0.07058826833963394
1751620584013372200,13.1433720703125,9.908080101013184,0.42412781715393066,0.04187439754605293
1751620584032195600,13.162195556640626,9.88415241241455,0.3284149169921875,0.11844471842050552
1751620584051019300,13.181019287109375,9.88415241241455,0.2949153780937195,0.15672987699508667
1751620584069842700,13.1998427734375,9.888937950134277,0.2470589429140091,0.17587246000766754
1751620584088666000,13.218666015625,9.89850902557373,0.4576273262500763,0.037088751792907715
1751620584107489800,13.23748974609375,9.91286563873291,0.4815555512905121,-0.039481572806835175
1751620584126313200,13.256313232421874,9.927223205566406,0.3332005441188812,-0.039481572806835175
1751620584145136600,13.27513671875,9.92243766784668,0.3523431420326233,-0.02512463741004467
1751620584163960300,13.293960205078125,9.93679428100586,0.30927231907844543,0.02751746028661728
1751620584182783700,13.31278369140625,9.951150894165039,0.357128769159317,0.02751746028661728
1751620584201607200,13.331607177734375,9.92243766784668,0.4049852192401886,-0.04905286431312561
1751620584220430800,13.350430908203125,9.92243766784668,0.33798620104789734,-0.04426721855998039
1751620584239254300,13.369254150390624,9.89850902557373,0.2183450609445572,0.20937198400497437
1751620584258077700,13.38807763671875,9.888937950134277,0.15134602785110474,0.41515472531318665
1751620584276901400,13.4069013671875,9.89850902557373,0.18005990982055664,0.4007977843284607
1751620584295724800,13.425724853515625,9.874580383300781,0.2183450609445572,0.31465616822242737
1751620584314548200,13.44454833984375,9.903294563293457,0.10348957777023315,0.4486542344093323
1751620584333372000,13.463371826171874,9.888937950134277,0.22791635990142822,-0.1495514214038849
1751620584352195300,13.4821953125,9.92243766784668,0.3332005441188812,-0.5994020700454712
1751620584371018800,13.501018798828126,9.932008743286133,0.22791635990142822,-0.4223332107067108
1751620584389842400,13.519842529296875,9.951150894165039,0.13698910176753998,0.06580262631177902
1751620584408665900,13.538665771484375,9.93679428100586,0.17527425289154053,0.4007977843284607
1751620584427489300,13.5574892578125,9.932008743286133,0.2183450609445572,0.1902294009923935
1751620584446313000,13.57631298828125,9.932008743286133,0.529412031173706,-0.3170489966869354
1751620584465136400,13.595136474609374,9.92243766784668,0.582054078578949,-0.5419743061065674
1751620584483959800,13.613959716796876,9.908080101013184,0.4289134442806244,-0.45104706287384033
1751620584502783500,13.632783447265625,9.91286563873291,0.23748764395713806,-0.11126625537872314
1751620584521607000,13.65160693359375,9.908080101013184,0.050847481936216354,0.30987054109573364
1751620584540430300,13.670430419921875,9.903294563293457,0.06041877344250679,0.3002992272377014
1751620584559254000,13.68925390625,9.89850902557373,0.2805584669113159,0.04666004329919815
1751620584578077400,13.708077392578126,9.91286563873291,0.4384847581386566,-0.13998012244701385
1751620584596900900,13.72690087890625,9.92243766784668,0.42412781715393066,-0.015553346835076809
1751620584615724500,13.745724609375,9.932008743286133,0.3044866919517517,0.22851456701755524
1751620584634548000,13.7645478515625,9.93679428100586,0.20877377688884735,0.17587246000766754
1751620584653371400,13.783371337890625,9.951150894165039,0.4001995921134949,-0.015553346835076809
1751620584672195000,13.802195068359374,9.946365356445312,0.4863412082195282,-0.04905286431312561
1751620584691018500,13.8210185546875,9.917651176452637,0.37148571014404297,0.25244277715682983
1751620584709842000,13.839842041015626,9.927223205566406,0.47198426723480225,0.25722843408584595
1751620584728665600,13.85866552734375,9.893723487854004,0.09391828626394272,0.2763710021972656
1751620584747489000,13.877489013671875,9.893723487854004,0.21355941891670227,-0.04905286431312561
1751620584766312400,13.8963125,9.874580383300781,0.2805584669113159,-0.2021935135126114
1751620584785136000,13.91513623046875,9.903294563293457,0.4289134442806244,-0.1543370634317398
1751620584803959600,13.93395947265625,9.89850902557373,0.42412781715393066,0.06580262631177902
1751620584822783000,13.952782958984375,9.92243766784668,0.3475574851036072,0.1902294009923935
1751620584841606700,13.971606689453125,9.92243766784668,0.3284149169921875,-0.020338991656899452
1751620584860430000,13.99043017578125,9.932008743286133,0.5246263742446899,-0.18783657252788544
1751620584879253500,14.00925341796875,9.941579818725586,0.2757728099822998,-0.08255238085985184
1751620584898077200,14.0280771484375,9.946365356445312,0.1657029688358307,-0.010767702013254166
1751620584916900600,14.046900634765626,9.93679428100586,0.23270200192928314,-0.1543370634317398
1751620584935724000,14.06572412109375,9.941579818725586,0.39062830805778503,-0.3314059376716614
1751620584954547700,14.084547607421875,9.927223205566406,0.41934216022491455,-0.40797626972198486
1751620584973371100,14.10337109375,9.91286563873291,0.3284149169921875,-0.029910283163189888
1751620584992194600,14.122194580078125,9.888937950134277,0.30927231907844543,0.037088751792907715
1751620585011018200,14.141018310546874,9.88415241241455,0.3044866919517517,0.008374879136681557
1751620585029841700,14.159841552734376,9.893723487854004,0.3284149169921875,0.037088751792907715
1751620585048665000,14.1786650390625,9.893723487854004,0.3044866919517517,0.02751746028661728
1751620585067488500,14.197488525390625,9.908080101013184,0.3188436031341553,0.037088751792907715
1751620585086312200,14.216312255859375,9.92243766784668,0.3236292600631714,0.04187439754605293
1751620585105135600,14.235135498046875,9.93679428100586,-0.8249256014823914,3.8368911743164062
1751620585123959000,14.253958984375,9.960722923278809,-0.13579268753528595,2.0231316089630127
1751620585142782700,14.27278271484375,9.88415241241455,0.706480860710144,0.12323036789894104
1751620585161606100,14.291606201171875,9.92243766784668,0.7926225066184998,-0.747757077217102
1751620585180429800,14.310429931640625,9.917651176452637,0.6634100675582886,-1.3411771059036255
1751620585199253200,14.329253173828125,9.93679428100586,0.4289134442806244,-0.7238288521766663
1751620585218076700,14.34807666015625,9.903294563293457,0.357128769159317,-0.43190449476242065
1751620585236900400,14.366900390625,9.908080101013184,0.2709871530532837,-0.029910283163189888
1751620585255723800,14.385723876953126,9.908080101013184,0.18484555184841156,-0.18783657252788544
1751620585274547200,14.404547119140625,9.89850902557373,0.0364905446767807,0.1136590763926506
1751620585293371000,14.423370849609375,9.91286563873291,0.05563312768936157,0.17108681797981262
1751620585312194300,14.4421943359375,9.92243766784668,0.1704886108636856,0.36729827523231506
1751620585331017700,14.461017822265624,9.93679428100586,0.34277185797691345,0.14715859293937683
1751620585349841400,14.47984130859375,9.941579818725586,0.28534409403800964,0.21415762603282928
1751620585368664800,14.498664794921876,9.955936431884766,0.2566302418708801,0.037088751792907715
1751620585387488300,14.51748828125,9.93679428100586,0.26141586899757385,-0.04905286431312561
1751620585406312000,14.53631201171875,9.93679428100586,0.251844584941864,-0.13040883839130402
1751620585425135400,14.55513525390625,9.917651176452637,0.1657029688358307,0.013160524889826775
1751620585443958800,14.573958740234374,9.89850902557373,0.1417747437953949,0.07058826833963394
1751620585462782200,14.5927822265625,9.89850902557373,0.30927231907844543,-0.1256231814622879
1751620585481606000,14.61160595703125,9.88415241241455,0.3188436031341553,-0.06340979784727097
1751620585500429300,14.63042919921875,9.893723487854004,0.3858426511287689,-0.15912270545959473
1751620585519252700,14.649252685546875,9.88415241241455,0.36191442608833313,-0.015553346835076809
1751620585538076400,14.668076416015625,9.932008743286133,0.3475574851036072,-0.010767702013254166
1751620585556899800,14.68689990234375,9.932008743286133,0.26620152592658997,0.08973085135221481
1751620585575723500,14.7057236328125,9.927223205566406,0.20398813486099243,0.2189432680606842
1751620585594547000,14.724546875,9.93679428100586,0.23270200192928314,0.16151553392410278
1751620585613370400,14.743370361328125,9.93679428100586,0.41934216022491455,-0.05383851006627083
1751620585632194000,14.762194091796875,9.92243766784668,0.4097708761692047,0.02273181453347206
1751620585651017500,14.781017578125,9.917651176452637,0.3762713670730591,0.04666004329919815
1751620585669841000,14.7998408203125,9.965508460998535,0.1944168359041214,0.06580262631177902
1751620585688664600,14.81866455078125,9.89850902557373,0.2566302418708801,-0.12083754688501358
1751620585707488000,14.837488037109376,9.893723487854004,0.3332005441188812,-0.1543370634317398
1751620585726311400,14.8563115234375,9.917651176452637,0.42412781715393066,-0.22133609652519226
1751620585745135000,14.875135009765625,9.88415241241455,0.4097708761692047,-0.06819544732570648
1751620585763958500,14.89395849609375,9.888937950134277,0.37148571014404297,0.008374879136681557
1751620585782782000,14.912781982421874,9.970293998718262,0.2757728099822998,0.003589233849197626
1751620585801605600,14.931605712890626,9.932008743286133,0.2231307178735733,-0.005982056725770235
1751620585820429000,14.950428955078126,9.927223205566406,0.29012975096702576,-0.029910283163189888
1751620585839252500,14.96925244140625,9.941579818725586,0.3475574851036072,-0.02512463741004467
1751620585858076000,14.988075927734375,9.927223205566406,0.3236292600631714,0.0323031060397625
1751620585876899600,15.006899658203125,9.917651176452637,0.2757728099822998,0.037088751792907715
1751620585895723000,15.025722900390624,9.92243766784668,0.33798620104789734,-0.24526432156562805
1751620585914546400,15.04454638671875,9.927223205566406,0.4049852192401886,-0.2309073805809021
1751620585933370000,15.0633701171875,9.903294563293457,0.31405797600746155,-0.1543370634317398
1751620585952193500,15.082193603515625,9.888937950134277,0.28534409403800964,-0.05383851006627083
1751620585971017000,15.101016845703125,9.879366874694824,0.2949153780937195,-0.06819544732570648
1751620585989840600,15.119840576171875,9.893723487854004,0.30927231907844543,0.07537391036748886
1751620586008664000,15.1386640625,9.917651176452637,0.3284149169921875,0.04666004329919815
1751620586027487700,15.15748779296875,9.903294563293457,0.36191442608833313,0.09930214285850525
1751620586046311200,15.176311279296876,9.941579818725586,0.357128769159317,0.061016976833343506
1751620586065134600,15.195134521484375,9.93679428100586,0.3236292600631714,0.02273181453347206
1751620586083958300,15.213958251953125,9.93679428100586,0.28534409403800964,-0.06340979784727097
1751620586102781700,15.23278173828125,9.951150894165039,0.30927231907844543,-0.21655045449733734
1751620586121605000,15.251605224609374,9.927223205566406,0.36670008301734924,-0.08733802288770676
1751620586140428800,15.2704287109375,9.903294563293457,0.2949153780937195,0.037088751792907715
1751620586159252200,15.289252197265625,9.908080101013184,0.2757728099822998,0.08973085135221481
1751620586178075600,15.30807568359375,9.93679428100586,0.24227328598499298,0.02751746028661728
1751620586196899300,15.3268994140625,9.888937950134277,0.3044866919517517,-0.005982056725770235
1751620586215722800,15.34572265625,9.89850902557373,0.33798620104789734,-0.12083754688501358
1751620586234546200,15.364546142578124,9.92243766784668,0.26141586899757385,0.003589233849197626
1751620586253369900,15.383369873046876,9.917651176452637,0.22791635990142822,0.017946170642971992
1751620586272193300,15.402193359375,9.927223205566406,0.24227328598499298,0.10408778488636017
1751620586291016700,15.4210166015625,9.932008743286133,0.3044866919517517,-0.02512463741004467
1751620586309840100,15.439840087890625,9.965508460998535,0.4097708761692047,-0.2356930375099182
1751620586328663800,15.458663818359375,9.91286563873291,0.39541393518447876,-0.21655045449733734
1751620586347487200,15.4774873046875,10.051650047302246,0.4145565330982208,-0.11605189740657806
1751620586366310700,15.496310546875,9.960722923278809,0.33798620104789734,-0.45583271980285645
1751620586385134300,15.51513427734375,9.89850902557373,0.3475574851036072,-0.1782652884721756
1751620586403957800,15.533957763671875,9.903294563293457,0.3332005441188812,-0.058624155819416046
1751620586422781200,15.55278125,9.888937950134277,0.3475574851036072,-0.04905286431312561
1751620586441604900,15.57160498046875,9.888937950134277,0.37148571014404297,-0.010767702013254166
1751620586460428300,15.59042822265625,9.893723487854004,0.3188436031341553,-0.08733802288770676
1751620586479251700,15.609251708984376,9.893723487854004,0.30927231907844543,-0.08255238085985184
1751620586507487000,15.637487060546874,9.932008743286133,0.2566302418708801,-0.0011964113218709826
1751620586526310700,15.656310546875,9.908080101013184,0.2805584669113159,-0.029910283163189888
1751620586545134000,15.675134033203125,9.91286563873291,0.26620152592658997,-0.1782652884721756
1751620586563957500,15.69395751953125,9.908080101013184,0.26141586899757385,-0.11126625537872314
1751620586582781200,15.71278125,9.888937950134277,0.19920247793197632,0.008374879136681557
1751620586601604600,15.7316044921875,9.91286563873291,0.16091732680797577,0.17587246000766754
1751620586620428000,15.750427978515624,9.89850902557373,0.20398813486099243,0.3290131092071533
1751620586639251700,15.769251708984376,9.951150894165039,0.2997010350227356,0.10887342691421509
1751620586658075100,15.7880751953125,9.91286563873291,0.4815555512905121,-0.3601198196411133
1751620586676898600,15.806898681640625,9.92243766784668,0.5581258535385132,-0.35533416271209717
1751620586695722200,15.82572216796875,9.93679428100586,0.46719861030578613,-0.12083754688501358
1751620586714545700,15.844545654296875,9.951150894165039,0.34277185797691345,-0.09212367236614227
1751620586733369000,15.863369140625,9.927223205566406,0.28534409403800964,-0.020338991656899452
1751620586752192800,15.88219287109375,9.927223205566406,0.26141586899757385,-0.03469592705368996
1751620586771016200,15.90101611328125,9.91286563873291,0.23748764395713806,-0.058624155819416046
1751620586789839600,15.919839599609375,9.874580383300781,0.2997010350227356,-0.25004997849464417
1751620586808663300,15.938663330078125,9.89850902557373,0.2997010350227356,-0.2309073805809021
1751620586827486700,15.95748681640625,9.908080101013184,0.357128769159317,-0.19740787148475647
1751620586846310100,15.97631005859375,9.970293998718262,0.18484555184841156,0.1423729509115219
1751620586865133800,15.9951337890625,9.89850902557373,0.18005990982055664,-0.015553346835076809
1751620586883957200,16.013957275390624,9.92243766784668,0.3044866919517517,-0.22133609652519226
1751620586902780700,16.03278076171875,9.89850902557373,0.33798620104789734,-0.1543370634317398
1751620586921604400,16.051604248046875,9.941579818725586,0.2757728099822998,-0.19740787148475647
1751620586940427800,16.070427734375,9.927223205566406,0.2997010350227356,-0.010767702013254166
1751620586959251200,16.089251220703126,9.92243766784668,0.2997010350227356,-0.11605189740657806
1751620586978075000,16.108074951171876,9.92243766784668,0.3188436031341553,-0.15912270545959473
1751620586996898300,16.126898193359374,9.917651176452637,0.3188436031341553,-0.09690931439399719
1751620587015721700,16.1457216796875,9.89850902557373,0.2709871530532837,-0.13519448041915894
1751620587034545400,16.16454541015625,9.903294563293457,0.23748764395713806,-0.039481572806835175
1751620587053368800,16.183368896484374,9.89850902557373,0.28534409403800964,0.07058826833963394
1751620587072192300,16.202192138671876,9.903294563293457,0.30927231907844543,0.13280165195465088
1751620587091016000,16.221015869140626,9.91286563873291,0.28534409403800964,0.14715859293937683
1751620587109839400,16.23983935546875,9.917651176452637,0.3284149169921875,0.008374879136681557
1751620587128662800,16.258662841796873,9.93679428100586,0.3762713670730591,0.008374879136681557
1751620587147486500,16.277486572265627,9.955936431884766,0.42412781715393066,-0.03469592705368996
1751620587166310000,16.296309814453124,9.93679428100586,0.357128769159317,-0.14476576447486877
1751620587185133300,16.31513330078125,9.927223205566406,0.28534409403800964,-0.16869398951530457
1751620587203956700,16.333956787109376,9.927223205566406,0.28534409403800964,-0.19740787148475647
1751620587222780400,16.352780517578125,9.908080101013184,0.39062830805778503,-0.039481572806835175
1751620587241603800,16.371603759765627,9.908080101013184,0.41934216022491455,0.017946170642971992
1751620587260427300,16.39042724609375,9.888937950134277,0.4289134442806244,-0.010767702013254166
1751620587279251000,16.4092509765625,9.865009307861328,0.3475574851036072,-0.08733802288770676
1751620587298074400,16.428074462890624,9.927223205566406,0.3810569941997528,-0.25004997849464417
1751620587316897800,16.446897705078126,9.845867156982422,0.34277185797691345,-0.3696911036968231
1751620587335721500,16.465721435546875,9.970293998718262,0.30927231907844543,-0.4366901218891144
1751620587354545000,16.484544921875,9.927223205566406,0.26141586899757385,-0.25004997849464417
1751620587373368300,16.503368408203126,9.960722923278809,0.2470589429140091,-0.10169496387243271
1751620587392192000,16.52219189453125,9.946365356445312,0.24227328598499298,-0.039481572806835175
1751620587411015400,16.541015380859374,9.93679428100586,0.2231307178735733,-0.02512463741004467
1751620587429838800,16.5598388671875,9.932008743286133,0.26620152592658997,-0.2069791555404663
1751620587448662500,16.57866259765625,9.955936431884766,0.2949153780937195,-0.1782652884721756
1751620587467486000,16.59748583984375,9.893723487854004,0.251844584941864,-0.07776673883199692
1751620587486309400,16.616309326171876,9.893723487854004,0.2997010350227356,-0.2069791555404663
1751620587505133000,16.635133056640626,9.888937950134277,0.36191442608833313,-0.22133609652519226
1751620587523956500,16.65395654296875,9.888937950134277,0.251844584941864,-0.08255238085985184
1751620587542780000,16.67277978515625,9.893723487854004,0.26141586899757385,-0.19740787148475647
1751620587561603600,16.691603515625,9.893723487854004,0.2566302418708801,-0.22133609652519226
1751620587580427000,16.710427001953125,9.927223205566406,0.2757728099822998,-0.2356930375099182
1751620587599250400,16.72925048828125,9.932008743286133,0.2949153780937195,-0.26440688967704773
1751620587618074000,16.74807421875,9.93679428100586,0.30927231907844543,-0.2548356056213379
1751620587636897500,16.7668974609375,9.941579818725586,0.2757728099822998,-0.058624155819416046
1751620587655721000,16.785720947265624,9.93679428100586,0.2566302418708801,0.04666004329919815
1751620587674544600,16.804544677734373,9.927223205566406,0.23270200192928314,0.02273181453347206
1751620587693368000,16.8233681640625,9.932008743286133,0.2566302418708801,-0.09690931439399719
1751620587712191500,16.84219140625,9.917651176452637,0.26141586899757385,-0.1782652884721756
1751620587731015200,16.86101513671875,9.908080101013184,0.251844584941864,-0.2069791555404663
1751620587749838600,16.879838623046876,9.888937950134277,0.23270200192928314,-0.09690931439399719
1751620587768662000,16.898662109375,9.903294563293457,0.251844584941864,-0.03469592705368996
1751620587787485400,16.9174853515625,9.903294563293457,0.2231307178735733,-0.07776673883199692
1751620587806309000,16.93630908203125,9.91286563873291,0.24227328598499298,-0.1782652884721756
1751620587825132500,16.955132568359375,9.917651176452637,0.3284149169921875,-0.1782652884721756
1751620587843956000,16.9739560546875,9.941579818725586,0.3810569941997528,-0.14476576447486877
1751620587862779600,16.992779541015626,9.946365356445312,0.30927231907844543,-0.1495514214038849
1751620587881603000,17.01160302734375,9.932008743286133,0.2470589429140091,-0.1543370634317398
1751620587900426500,17.030426513671873,9.92243766784668,0.2470589429140091,-0.13998012244701385
1751620587938073600,17.068073486328124,9.89850902557373,0.21355941891670227,-0.04905286431312561
1751620587956897000,17.08689697265625,9.92243766784668,0.2566302418708801,-0.058624155819416046
1751620587975720700,17.105720703125,9.89850902557373,0.2997010350227356,-0.11605189740657806
1751620587994544000,17.124544189453125,9.91286563873291,0.3188436031341553,-0.13998012244701385
1751620588013367600,17.143367431640623,9.893723487854004,0.30927231907844543,-0.1495514214038849
1751620588032191200,17.162191162109377,9.91286563873291,0.26620152592658997,-0.06819544732570648
1751620588051014700,17.1810146484375,9.908080101013184,0.2709871530532837,-0.058624155819416046
1751620588069838000,17.199838134765624,9.932008743286133,0.30927231907844543,-0.09212367236614227
1751620588088661800,17.218661865234374,9.941579818725586,0.357128769159317,-0.13998012244701385
1751620588107485200,17.237485107421875,9.951150894165039,0.3236292600631714,-0.19740787148475647
1751620588126308600,17.25630859375,9.941579818725586,0.2949153780937195,-0.21655045449733734
1751620588145132300,17.27513232421875,9.941579818725586,0.26620152592658997,-0.16390834748744965
1751620588163955700,17.293955810546876,9.917651176452637,0.2997010350227356,-0.21176479756832123
1751620588182779100,17.312779052734374,9.89850902557373,0.34277185797691345,-0.2021935135126114
1751620588201602800,17.331602783203124,9.903294563293457,0.3475574851036072,-0.22133609652519226
1751620588220426200,17.35042626953125,9.893723487854004,0.26141586899757385,-0.058624155819416046
1751620588239249700,17.369249755859375,9.903294563293457,0.23270200192928314,-0.13040883839130402
1751620588267485000,17.39748486328125,9.93679428100586,0.23748764395713806,-0.09212367236614227
1751620588286308400,17.416308349609373,9.927223205566406,0.3044866919517517,-0.14476576447486877
1751620588305132000,17.435132080078127,9.92243766784668,0.3284149169921875,-0.25004997849464417
1751620588323955500,17.45395556640625,9.903294563293457,0.3236292600631714,-0.17347964644432068
1751620588342779000,17.47277880859375,9.903294563293457,0.3332005441188812,-0.2069791555404663
1751620588361602600,17.4916025390625,9.888937950134277,0.28534409403800964,-0.09212367236614227
1751620588380426000,17.510426025390625,9.903294563293457,0.23270200192928314,0.008374879136681557
1751620588399249400,17.52924951171875,9.917651176452637,0.251844584941864,-0.06340979784727097
1751620588418073000,17.548072998046877,9.932008743286133,0.26620152592658997,-0.18783657252788544
1751620588436896500,17.566896484375,9.951150894165039,0.23748764395713806,-0.11605189740657806
1751620588455720000,17.585719970703124,9.951150894165039,0.17527425289154053,0.06580262631177902
1751620588474543400,17.60454345703125,9.93679428100586,0.1178465187549591,0.061016976833343506
1751620588493367000,17.623366943359375,9.93679428100586,0.13698910176753998,-0.13519448041915894
1751620588512190500,17.6421904296875,9.917651176452637,0.24227328598499298,-0.2835494875907898
1751620588531014000,17.661013916015627,9.932008743286133,0.24227328598499298,-0.18783657252788544
1751620588549837600,17.679837646484376,9.89850902557373,0.2997010350227356,-0.2021935135126114
1751620588568661000,17.698660888671874,9.903294563293457,0.3044866919517517,-0.19740787148475647
1751620588587484400,17.717484375,9.888937950134277,0.2997010350227356,-0.17347964644432068
1751620588606308000,17.73630810546875,9.903294563293457,0.2470589429140091,-0.05383851006627083
1751620588625131500,17.755131591796875,9.91286563873291,0.2231307178735733,0.013160524889826775
1751620588643955000,17.773954833984376,9.908080101013184,0.13220344483852386,-0.005982056725770235
1751620588662778600,17.792778564453126,9.941579818725586,0.0364905446767807,0.04187439754605293
1751620588681602000,17.81160205078125,9.955936431884766,0.06999006122350693,-0.08255238085985184
1751620588700425500,17.830425537109374,9.946365356445312,0.15613168478012085,-0.15912270545959473
1751620588719249200,17.849249267578124,9.960722923278809,0.21355941891670227,-0.09212367236614227
1751620588738072600,17.868072509765625,9.955936431884766,0.2566302418708801,-0.11605189740657806
1751620588756896000,17.88689599609375,9.91286563873291,0.21355941891670227,-0.13040883839130402
1751620588775719700,17.9057197265625,9.874580383300781,0.2709871530532837,-0.12083754688501358
1751620588794543000,17.924543212890626,9.888937950134277,0.357128769159317,-0.2021935135126114
1751620588813366500,17.943366455078124,9.908080101013184,0.26141586899757385,-0.21655045449733734
1751620588832190000,17.96218994140625,9.908080101013184,0.12263216078281403,0.003589233849197626
1751620588851013600,17.981013671875,9.91286563873291,0.16091732680797577,-0.06340979784727097
1751620588869837000,17.999837158203125,9.917651176452637,0.18005990982055664,-0.039481572806835175
1751620588888660500,18.018660400390626,9.93679428100586,0.29012975096702576,-0.18783657252788544
1751620588907484200,18.037484130859376,9.941579818725586,0.3810569941997528,-0.3122633695602417
1751620588926307600,18.0563076171875,9.941579818725586,0.47676992416381836,-0.29312077164649963
1751620588945131000,18.075131103515623,9.941579818725586,0.45284169912338257,-0.2356930375099182
1751620588963954700,18.09395458984375,9.946365356445312,0.44327038526535034,-0.3026920557022095
1751620588982778000,18.112778076171875,9.932008743286133,0.41934216022491455,-0.35054850578308105
1751620589001601500,18.1316015625,9.91286563873291,0.36670008301734924,-0.32183465361595154
1751620589020425200,18.15042529296875,9.91286563873291,0.28534409403800964,-0.27397820353507996
1751620589039248600,18.16924853515625,9.89850902557373,0.1944168359041214,-0.1782652884721756
1751620589058072000,18.188072021484373,9.89850902557373,0.20877377688884735,-0.26919254660606384
1751620589076895500,18.2068955078125,9.893723487854004,0.2231307178735733,-0.21176479756832123
1751620589095719200,18.22571923828125,9.908080101013184,0.18963119387626648,-0.12083754688501358
1751620589114542600,18.24454248046875,9.908080101013184,0.14656038582324982,0.008374879136681557
1751620589133366000,18.263365966796876,9.941579818725586,0.09870393574237823,0.07058826833963394
1751620589152189700,18.282189697265625,9.93679428100586,0.12741780281066895,-0.039481572806835175
1751620589171013000,18.30101318359375,9.955936431884766,0.1178465187549591,-0.03469592705368996
1751620589189836500,18.31983642578125,9.955936431884766,0.06041877344250679,-0.039481572806835175
1751620589208660000,18.338659912109375,9.955936431884766,0.0077766734175384045,-0.010767702013254166
1751620589227483600,18.357483642578124,9.93679428100586,0.08434699475765228,-0.11126625537872314
1751620589246307000,18.37630712890625,9.93679428100586,0.17527425289154053,-0.12083754688501358
1751620589265130500,18.395130615234375,9.91286563873291,0.2757728099822998,-0.13040883839130402
1751620589283954200,18.4139541015625,9.89850902557373,0.29012975096702576,-0.16390834748744965
1751620589302777600,18.432777587890627,9.932008743286133,0.2231307178735733,-0.13040883839130402
1751620589321601000,18.45160107421875,9.865009307861328,0.1944168359041214,-0.2021935135126114
1751620589340424700,18.4704248046875,9.927223205566406,0.3523431420326233,-0.3361915946006775
1751620589359248100,18.489248046875,9.951150894165039,0.2949153780937195,-0.26919254660606384
1751620589378071600,18.508071533203125,9.92243766784668,0.28534409403800964,-0.2309073805809021
1751620589396895200,18.526895263671875,9.941579818725586,0.37148571014404297,-0.25004997849464417
1751620589415718700,18.54571875,9.93679428100586,0.39541393518447876,-0.29312077164649963
1751620589434542000,18.5645419921875,9.941579818725586,0.4336991012096405,-0.37926238775253296
1751620589453365500,18.583365478515624,9.941579818725586,0.357128769159317,-0.2835494875907898
1751620589472189200,18.602189208984374,9.93679428100586,0.2709871530532837,-0.2021935135126114
1751620589491012600,18.6210126953125,9.91286563873291,0.20877377688884735,-0.13519448041915894
1751620589509836000,18.6398359375,9.893723487854004,0.23748764395713806,-0.11605189740657806
1751620589528659700,18.65865966796875,9.893723487854004,0.23270200192928314,-0.13040883839130402
1751620589547483100,18.677483154296876,9.88415241241455,0.20877377688884735,-0.1543370634317398
1751620589566306600,18.696306640625,9.893723487854004,0.2231307178735733,-0.15912270545959473
1751620589585130200,18.715130126953124,9.908080101013184,0.2231307178735733,-0.13040883839130402
1751620589603953700,18.73395361328125,9.92243766784668,0.21355941891670227,-0.1256231814622879
1751620589622777000,18.752777099609375,9.932008743286133,0.21355941891670227,-0.14476576447486877
1751620589641600500,18.7716005859375,9.941579818725586,0.22791635990142822,-0.11605189740657806
1751620589660424200,18.790424072265626,9.941579818725586,0.23748764395713806,-0.13519448041915894
1751620589679247600,18.80924755859375,9.951150894165039,0.22791635990142822,-0.13998012244701385
1751620589698071000,18.828071044921874,9.951150894165039,0.20877377688884735,-0.1495514214038849
1751620589716894700,18.846894775390624,9.927223205566406,0.2183450609445572,-0.13040883839130402
1751620589735718100,18.86571826171875,9.917651176452637,0.20398813486099243,-0.11605189740657806
1751620589754541600,18.88454150390625,9.888937950134277,0.22791635990142822,-0.11605189740657806
1751620589773365200,18.903365234375,9.89850902557373,0.21355941891670227,-0.13519448041915894
1751620589792188700,18.922188720703126,9.903294563293457,0.18963119387626648,-0.17347964644432068
1751620589811012000,18.94101220703125,9.903294563293457,0.20877377688884735,-0.13998012244701385
1751620589829835800,18.959835693359373,9.93679428100586,0.1704886108636856,0.013160524889826775
1751620589848659200,18.9786591796875,9.932008743286133,0.07956135272979736,0.16151553392410278
1751620589867482600,18.997482666015625,9.946365356445312,0.050847481936216354,0.2189432680606842
1751620589886306000,19.01630615234375,9.955936431884766,0.05563312768936157,0.1950150430202484
1751620589905129700,19.035129638671876,9.955936431884766,-0.04007977992296219,0.3577269911766052
1751620589923953200,19.053953125,9.946365356445312,-0.22193430364131927,0.4534398913383484
1751620589942776600,19.072776611328123,9.941579818725586,-0.2554338276386261,0.2667997181415558
1751620589961600300,19.091600341796877,9.93679428100586,-0.11665010452270508,0.09930214285850525
1751620589980423700,19.110423583984375,9.89850902557373,0.06520441919565201,0.23808585107326508
1751620589999247000,19.1292470703125,9.88415241241455,0.0891326442360878,-0.06819544732570648
1751620590018070500,19.148070556640626,9.908080101013184,0.14656038582324982,-0.13519448041915894
1751620590036894200,19.166894287109375,9.955936431884766,0.23270200192928314,-0.4749752879142761
1751620590055717600,19.185717529296873,9.78843879699707,0.3523431420326233,-0.656829833984375
1751620590074541000,19.204541015625,9.888937950134277,0.6586244106292725,-0.8291130661964417
1751620590093364700,19.22336474609375,9.927223205566406,0.735194742679596,-0.7525427341461182
1751620590112188200,19.242188232421874,9.951150894165039,0.5964110493659973,-0.3888336718082428
1751620590131011600,19.261011474609376,9.955936431884766,0.2997010350227356,-0.058624155819416046
1751620590149835300,19.279835205078125,9.951150894165039,0.15134602785110474,0.05144568532705307
1751620590168658700,19.29865869140625,9.932008743286133,0.10827522724866867,-0.13519448041915894
1751620590187482000,19.317482177734377,9.903294563293457,0.20877377688884735,-0.13519448041915894
1751620590206305500,19.336305419921874,9.917651176452637,0.1704886108636856,-0.1543370634317398
1751620590225129200,19.355129150390624,9.92243766784668,0.1178465187549591,-0.22133609652519226
1751620590243952600,19.37395263671875,9.903294563293457,0.08434699475765228,-0.22612173855304718
1751620590262776000,19.392776123046875,9.908080101013184,0.20877377688884735,-0.24526432156562805
1751620590281599700,19.411599853515625,9.91286563873291,0.3236292600631714,-0.24047867953777313
1751620590300423200,19.430423095703127,9.908080101013184,0.26141586899757385,-0.06340979784727097
1751620590319246600,19.44924658203125,9.951150894165039,0.15613168478012085,-0.04426721855998039
1751620590338070000,19.468070068359374,9.941579818725586,0.1417747437953949,-0.10648060590028763
1751620590356893700,19.486893798828124,9.951150894165039,0.16091732680797577,-0.26440688967704773
1751620590375717000,19.505717041015625,9.951150894165039,0.20877377688884735,-0.2835494875907898
1751620590394540500,19.52454052734375,9.951150894165039,0.13220344483852386,-0.13998012244701385
1751620590413364200,19.5433642578125,9.92243766784668,0.0891326442360878,-0.06819544732570648
1751620590432187600,19.562187744140626,9.917651176452637,0.11306086927652359,-0.08733802288770676
1751620590451011000,19.581010986328124,9.908080101013184,0.17527425289154053,-0.18783657252788544
1751620590469834800,19.599834716796874,9.903294563293457,0.2566302418708801,-0.11605189740657806
1751620590488658200,19.618658203125,9.893723487854004,0.22791635990142822,0.04666004329919815
1751620590507481600,19.637481689453125,9.89850902557373,0.12263216078281403,0.10887342691421509
1751620590526305000,19.656304931640626,9.917651176452637,0.10348957777023315,-0.039481572806835175
1751620590545128700,19.675128662109376,9.932008743286133,0.11306086927652359,-0.1782652884721756
1751620590563952000,19.6939521484375,9.932008743286133,0.12263216078281403,-0.259621262550354
1751620590582775600,19.712775634765624,9.951150894165039,0.1657029688358307,-0.2883351147174835
1751620590601599000,19.731598876953125,9.946365356445312,0.1704886108636856,-0.13040883839130402
1751620590620422700,19.750422607421875,9.946365356445312,0.251844584941864,-0.04426721855998039
1751620590639246000,19.76924609375,9.93679428100586,0.2949153780937195,0.24287149310112
1751620590658069500,19.788069580078126,9.917651176452637,0.18005990982055664,0.4247260093688965
1751620590676893200,19.80689306640625,9.92243766784668,0.06041877344250679,0.1902294009923935
1751620590695716600,19.825716552734374,9.908080101013184,0.07477571070194244,-0.18783657252788544
1751620590714540000,19.8445400390625,9.903294563293457,0.13698910176753998,-0.503689169883728
1751620590733363500,19.863363525390625,9.89850902557373,0.20877377688884735,-0.6041877269744873
1751620590752187100,19.882187255859375,9.893723487854004,0.26141586899757385,-0.40319061279296875
1751620590771010600,19.901010498046876,9.917651176452637,0.20877377688884735,-0.21655045449733734
1751620590789834000,19.919833984375,9.93679428100586,0.20877377688884735,-0.19262222945690155
1751620590808657700,19.93865771484375,9.927223205566406,0.2183450609445572,-0.2069791555404663
1751620590827481000,19.957481201171873,9.951150894165039,0.21355941891670227,-0.22612173855304718
1751620590846304500,19.976304443359375,9.955936431884766,0.18963119387626648,-0.3170489966869354
1751620590865128000,19.9951279296875,9.91286563873291,0.29012975096702576,-0.26919254660606384
1751620590883951600,20.01395166015625,9.970293998718262,0.22791635990142822,-0.3601198196411133
1751620590902775000,20.032775146484376,9.917651176452637,0.21355941891670227,-0.14476576447486877
1751620590921598500,20.051598388671874,9.917651176452637,0.13698910176753998,0.008374879136681557
1751620590940422100,20.070422119140623,9.893723487854004,0.13698910176753998,0.09451649338006973
1751620590959245600,20.08924560546875,9.893723487854004,0.08434699475765228,0.017946170642971992
1751620590978069000,20.108069091796875,9.893723487854004,0.11306086927652359,-0.08255238085985184
1751620590996892400,20.126892333984376,9.917651176452637,0.17527425289154053,-0.06340979784727097
1751620591015716000,20.145716064453126,9.917651176452637,0.15134602785110474,0.04666004329919815
1751620591034539500,20.16453955078125,9.93679428100586,0.15134602785110474,0.037088751792907715
1751620591053363000,20.183363037109373,9.941579818725586,0.1417747437953949,0.02273181453347206
1751620591072186600,20.2021865234375,9.946365356445312,0.18963119387626648,-0.16390834748744965
1751620591091010000,20.221010009765624,9.970293998718262,0.18005990982055664,-0.2069791555404663
1751620591109833500,20.23983349609375,9.946365356445312,0.16091732680797577,-0.11126625537872314
1751620591128657000,20.258656982421876,9.927223205566406,0.14656038582324982,-0.2309073805809021
1751620591147480600,20.27748046875,9.92243766784668,0.20398813486099243,-0.3361915946006775
1751620591166304000,20.296303955078123,9.908080101013184,0.2709871530532837,-0.4414757788181305
1751620591185127400,20.31512744140625,9.893723487854004,0.30927231907844543,-0.42711883783340454
1751620591213362700,20.34336279296875,9.960722923278809,0.18963119387626648,-0.09212367236614227
1751620591232186000,20.36218603515625,9.951150894165039,0.1944168359041214,0.1423729509115219
1751620591251009800,20.381009765625,9.917651176452637,0.15134602785110474,0.037088751792907715
1751620591269833200,20.399833251953126,9.903294563293457,0.12263216078281403,-0.11605189740657806
1751620591288656600,20.41865673828125,9.888937950134277,0.13698910176753998,-0.13519448041915894
1751620591307480300,20.437480224609374,9.879366874694824,0.23748764395713806,0.037088751792907715
1751620591326303700,20.4563037109375,9.91286563873291,0.12263216078281403,-0.005982056725770235
1751620591345127200,20.475127197265625,9.908080101013184,0.09870393574237823,-0.05383851006627083
1751620591363950600,20.49395068359375,9.93679428100586,0.07956135272979736,-0.03469592705368996
1751620591382774300,20.512774169921876,9.93679428100586,0.07956135272979736,-0.04426721855998039
1751620591401597700,20.53159765625,9.89850902557373,0.2805584669113159,-0.32183465361595154
1751620591420421000,20.550421142578124,9.989436149597168,0.2757728099822998,-0.5850451588630676
1751620591439244800,20.569244873046873,9.951150894165039,0.1944168359041214,-0.26919254660606384
1751620591458068200,20.588068115234375,9.874580383300781,0.1657029688358307,-0.015553346835076809
1751620591476891600,20.6068916015625,10.03729248046875,0.1704886108636856,-0.21655045449733734
1751620591495715000,20.625715087890626,9.888937950134277,0.1417747437953949,-0.08255238085985184
1751620591514538800,20.644538818359376,9.927223205566406,0.18484555184841156,-0.06340979784727097
1751620591533362200,20.663362060546874,9.908080101013184,0.18005990982055664,-0.11126625537872314
1751620591561597400,20.691597412109374,9.946365356445312,0.13698910176753998,-0.08255238085985184
1751620591580420900,20.7104208984375,9.941579818725586,0.16091732680797577,-0.06819544732570648
1751620591599244300,20.729244384765625,9.927223205566406,0.1704886108636856,-0.10169496387243271
1751620591618068000,20.74806787109375,9.941579818725586,0.1704886108636856,-0.09690931439399719
1751620591636891400,20.766891357421876,9.91286563873291,0.1657029688358307,-0.05383851006627083
1751620591655714800,20.78571484375,9.92243766784668,0.15613168478012085,-0.09690931439399719
1751620591674538500,20.80453857421875,9.903294563293457,0.15613168478012085,-0.08255238085985184
1751620591693362000,20.82336181640625,9.89850902557373,0.16091732680797577,-0.09212367236614227
1751620591712185300,20.842185302734375,9.903294563293457,0.12741780281066895,-0.0729810893535614
1751620591731008800,20.8610087890625,9.93679428100586,0.1657029688358307,-0.09690931439399719
1751620591749832400,20.87983251953125,9.908080101013184,0.18005990982055664,-0.03469592705368996
1751620591768656000,20.89865576171875,9.951150894165039,0.18963119387626648,-0.08733802288770676
1751620591787479300,20.917479248046874,9.965508460998535,0.14656038582324982,-0.09690931439399719
1751620591806303000,20.936302978515624,9.965508460998535,0.17527425289154053,-0.08733802288770676
1751620591825126400,20.95512646484375,9.965508460998535,0.18484555184841156,-0.10169496387243271
1751620591843949800,20.97394970703125,9.893723487854004,0.1704886108636856,-0.05383851006627083
1751620591862773200,20.992773193359376,9.92243766784668,0.13698910176753998,-0.08255238085985184
1751620591881597000,21.011596923828126,9.960722923278809,0.15134602785110474,-0.16869398951530457
1751620591900420400,21.03042041015625,9.845867156982422,0.15134602785110474,-0.05383851006627083
1751620591919243800,21.049243896484374,9.879366874694824,0.17527425289154053,-0.08733802288770676
1751620591938067200,21.068067138671875,9.941579818725586,0.1657029688358307,-0.13040883839130402
1751620591956891000,21.086890869140625,9.874580383300781,0.1417747437953949,-0.0729810893535614
1751620591975714300,21.10571435546875,9.91286563873291,0.1704886108636856,-0.08255238085985184
1751620591994537700,21.124537841796876,9.970293998718262,0.1944168359041214,-0.10169496387243271
1751620592013361400,21.143361328125,9.93679428100586,0.16091732680797577,-0.07776673883199692
1751620592032184800,21.162184814453123,9.960722923278809,0.1417747437953949,-0.10169496387243271
1751620592051008300,21.18100830078125,9.970293998718262,0.16091732680797577,-0.11126625537872314
1751620592069831700,21.199831787109375,9.91286563873291,0.1704886108636856,-0.08733802288770676
1751620592088655400,21.2186552734375,9.927223205566406,0.18005990982055664,-0.09212367236614227
1751620592107478800,21.237478759765626,9.908080101013184,0.14656038582324982,-0.10648060590028763
1751620592126302200,21.25630224609375,9.879366874694824,0.14656038582324982,-0.08733802288770676
1751620592145125600,21.275125732421873,9.893723487854004,0.1704886108636856,-0.09690931439399719
1751620592163949300,21.29394921875,9.89850902557373,0.18005990982055664,-0.10169496387243271
1751620592182772700,21.312772705078125,9.539586067199707,0.07477571070194244,0.137587308883667
1751620592201596200,21.33159619140625,9.79801082611084,0.13220344483852386,-0.17347964644432068
1751620592220419600,21.350419677734376,9.865009307861328,0.18484555184841156,-0.029910283163189888
1751620592239243300,21.3692431640625,9.970293998718262,0.20877377688884735,-0.11126625537872314
1751620592258066700,21.388066650390623,10.042078018188477,0.1417747437953949,-0.16869398951530457
1751620592276890000,21.40689013671875,9.927223205566406,0.10348957777023315,-0.06340979784727097
