time,seconds_elapsed,z,y,x
1751620571013256000,0.143255859375,-0.12203407287597656,0.36613336205482483,0.11122991144657135
1751620571032079600,0.16207958984375,-0.06938743591308594,0.17527684569358826,0.030599113553762436
1751620571069726500,0.1997265625,0.02441120147705078,-0.08595232665538788,-0.11883527785539627
1751620571107373300,0.237373291015625,-0.006493568420410156,0.2985762655735016,0.05738307163119316
1751620571135608600,0.265608642578125,0.0016965866088867188,-0.14496392011642456,-0.09501398354768753
1751620571154432000,0.284431884765625,-0.011088371276855469,-0.127008318901062,-0.04441389441490173
1751620571173255400,0.30325537109375,-0.015280723571777344,0.12203888595104218,0.07008056342601776
1751620571192079000,0.3220791015625,-0.02976703643798828,0.1412416249513626,0.11217761039733887
1751620571210902500,0.340902587890625,0.046512603759765625,-0.09581630676984787,-0.000592552125453949
1751620571229726000,0.359725830078125,0.09163284301757812,-0.17755070328712463,-0.0634346753358841
1751620571248549400,0.37854931640625,0.019796371459960938,0.013163477182388306,0.004524633288383484
1751620571267372800,0.397372802734375,-0.006953239440917969,0.20262140035629272,0.05448538064956665
1751620571286196200,0.4161962890625,0.004352569580078125,0.07536597549915314,-0.017787404358386993
1751620571305020000,0.43502001953125,0.02242755889892578,-0.09306038171052933,-0.09457551687955856
1751620571323843300,0.45384326171875,-0.012160301208496094,-0.027422606945037842,-0.057916149497032166
1751620571342666800,0.472666748046875,-0.05031871795654297,0.13492713868618011,0.03668225556612015
1751620571361490200,0.491490234375,-0.0727243423461914,0.09479346871376038,0.025332674384117126
1751620571380313900,0.51031396484375,-0.025046348571777344,-0.09430088847875595,-0.01733928918838501
1751620571399137300,0.52913720703125,-0.011919975280761719,-0.13108742237091064,-0.030690155923366547
1751620571417960700,0.547960693359375,-0.016608238220214844,0.04176156222820282,0.03071773797273636
1751620571436784000,0.5667841796875,-0.00626373291015625,0.11865086853504181,0.06192125007510185
1751620571455607600,0.585607666015625,0.04156303405761719,-0.007018923759460449,-0.0005814060568809509
1751620571474431200,0.60443115234375,0.055255889892578125,-0.08553078770637512,-0.04233609139919281
1751620571493254700,0.623254638671875,0.04071235656738281,0.01598036289215088,-0.008110485970973969
1751620571512078000,0.642078125,-0.006476402282714844,0.1315235048532486,0.01988793909549713
1751620571530901500,0.660901611328125,-0.0010633468627929688,0.04695941507816315,0.005152471363544464
1751620571549725000,0.679724853515625,0.026740074157714844,-0.07121887803077698,-0.0273066908121109
1751620571568548600,0.698548583984375,-0.021364212036132812,-0.054675161838531494,-0.0314105749130249
1751620571587372000,0.7173720703125,-0.0642690658569336,0.049949198961257935,0.05814509838819504
1751620571606195500,0.736195556640625,-0.039946556091308594,0.05719418823719025,0.042085640132427216
1751620571625019000,0.755018798828125,-0.021134376525878906,-0.0661502331495285,-0.005911767482757568
1751620571643842600,0.773842529296875,-0.0026330947875976562,-0.07267371565103531,-0.024379223585128784
1751620571662666000,0.792666015625,0.002002716064453125,0.03212626278400421,0.013767197728157043
1751620571681489400,0.811489501953125,0.0023288726806640625,0.10561104118824005,0.013232067227363586
1751620571700312800,0.830312744140625,0.036057472229003906,-0.0008263885974884033,-0.005344599485397339
1751620571719136300,0.84913623046875,0.05000019073486328,-0.04723942279815674,-0.019053615629673004
1751620571737960000,0.8679599609375,0.030618667602539062,0.020277544856071472,0.0003680586814880371
1751620571756783400,0.886783447265625,0.0070953369140625,0.06642422080039978,0.028356127440929413
1751620571775606800,0.905606689453125,0.007489204406738281,0.0033195018768310547,0.0039124563336372375
1751620571794430200,0.92443017578125,0.0023794174194335938,-0.06702716648578644,-0.0010848194360733032
1751620571813253600,0.943253662109375,-0.026561737060546875,-0.04108293354511261,-0.014927469193935394
1751620571832077300,0.962077392578125,-0.05470561981201172,0.03023165464401245,0.0038442462682724
1751620571850900700,0.980900634765625,-0.040266990661621094,0.05205969512462616,0.0036691129207611084
1751620571869724200,0.99972412109375,-0.016503334045410156,-0.02005496621131897,-0.024578645825386047
1751620571888547600,1.018547607421875,0.021059036254882812,-0.028575092554092407,-0.03302079439163208
1751620571907371300,1.037371337890625,0.01596832275390625,0.047343313694000244,-0.004117757081985474
1751620571926194700,1.056194580078125,0.020773887634277344,0.05491398274898529,0.00519145280122757
1751620571945018000,1.07501806640625,0.03514671325683594,-0.012277856469154358,0.0003853514790534973
1751620571963841500,1.093841552734375,0.04896354675292969,-0.05815550684928894,-0.01829741895198822
1751620571982665200,1.112665283203125,0.039028167724609375,-0.018983587622642517,0.005648307502269745
1751620572001488600,1.131488525390625,0.015225410461425781,0.03285187482833862,0.01918550580739975
1751620572020312000,1.15031201171875,-0.0037870407104492188,0.012742817401885986,0.014109238982200623
1751620572039135500,1.169135498046875,-0.008838653564453125,-0.029523879289627075,-0.014091521501541138
1751620572057959000,1.187958984375,-0.033097267150878906,-0.014279961585998535,-0.023037225008010864
1751620572076782600,1.206782470703125,-0.03757190704345703,0.028034120798110962,-0.004000969231128693
1751620572095606000,1.22560595703125,-0.04691505432128906,0.03142498433589935,0.0007891133427619934
1751620572114429400,1.244429443359375,-0.01838397979736328,-0.002250194549560547,-0.02242225408554077
1751620572133252900,1.2632529296875,-0.004291534423828125,-0.02042551338672638,-0.031284935772418976
1751620572152076500,1.28207666015625,0.028944969177246094,0.017810598015785217,0.021009914577007294
1751620572170900000,1.30089990234375,0.03347969055175781,0.017068803310394287,0.015495836734771729
1751620572189723400,1.319723388671875,0.0287628173828125,-0.02554480731487274,-0.00384511798620224
1751620572208546800,1.338546875,0.04279518127441406,-0.03410714864730835,-0.003373943269252777
1751620572227370200,1.357370361328125,0.023575782775878906,0.013647899031639099,0.005960799753665924
1751620572246194000,1.37619384765625,0.004833221435546875,0.022365495562553406,0.024585746228694916
1751620572265017300,1.395017333984375,0.00004673004150390625,0.007386192679405212,-0.018161065876483917
1751620572283840800,1.4138408203125,-0.009759902954101562,-0.02089761197566986,-0.02242501825094223
1751620572302664200,1.432664306640625,-0.03853416442871094,-0.010914996266365051,-0.0030970498919487
1751620572321488000,1.45148779296875,-0.033733367919921875,0.017438098788261414,0.010775811970233917
1751620572340311300,1.470311279296875,-0.024303436279296875,0.01195688545703888,0.005585432052612305
1751620572359134700,1.489134765625,-0.014795303344726562,-0.011506125330924988,0.0006131455302238464
1751620572377958100,1.507958251953125,0.013614654541015625,-0.010850489139556885,-0.004034288227558136
1751620572396781800,1.52678173828125,0.027596473693847656,0.01762540638446808,-0.003980912268161774
1751620572415605200,1.545605224609375,0.023000717163085938,0.012341916561126709,0.010266780853271484
1751620572434428700,1.5644287109375,0.04200553894042969,-0.0020695477724075317,-0.013495035469532013
1751620572453252000,1.583252197265625,0.03238201141357422,-0.01592192053794861,-0.026931017637252808
1751620572472075500,1.602075439453125,0.013347625732421875,0.022166505455970764,0.006631582975387573
1751620572490899200,1.620899169921875,-0.005526542663574219,0.012013047933578491,0.010958008468151093
1751620572509722600,1.63972265625,-0.005499839782714844,0.002163320779800415,-0.007885515689849854
1751620572528546000,1.658546142578125,-0.024849891662597656,-0.021211251616477966,-0.02221646159887314
1751620572547369500,1.677369384765625,-0.029754638671875,-0.00600801408290863,0.006437942385673523
1751620572566193000,1.69619287109375,-0.02485179901123047,0.017555415630340576,-0.0034234896302223206
1751620572585016600,1.7150166015625,-0.02959728240966797,-0.0018911510705947876,0.006131865084171295
1751620572603840000,1.733840087890625,0.008164405822753906,-0.0018682777881622314,0.005849190056324005
1751620572622663400,1.752663330078125,0.0172271728515625,-0.0063620805740356445,-0.008270889520645142
1751620572641486800,1.77148681640625,0.02191162109375,0.012508377432823181,-0.01285998523235321
1751620572660310500,1.790310546875,0.03161811828613281,0.016680851578712463,0.0061517879366874695
1751620572679134000,1.809134033203125,0.04076862335205078,0.0022846758365631104,0.0015529170632362366
1751620572697957400,1.827957275390625,0.03118419647216797,-0.006975039839744568,-0.012696042656898499
1751620572716780800,1.84678076171875,0.016660690307617188,0.0026595592498779297,0.006388753652572632
1751620572735604500,1.8656044921875,-0.011889457702636719,-0.002567887306213379,0.01546284556388855
1751620572754428000,1.884427978515625,-0.011575698852539062,0.0022923648357391357,-0.008470721542835236
1751620572773251300,1.903251220703125,-0.016760826110839844,-0.01194259524345398,-0.0038001015782356262
1751620572792074800,1.92207470703125,-0.04036521911621094,0.0025645047426223755,-0.0223071426153183
1751620572810898200,1.940898193359375,-0.030716896057128906,0.021218344569206238,-0.007888607680797577
1751620572829721900,1.959721923828125,-0.01629161834716797,-0.002784907817840576,0.006252966821193695
1751620572848545300,1.978545166015625,0.012009620666503906,-0.012269213795661926,0.006123192608356476
1751620572867368700,1.99736865234375,0.007220268249511719,0.0022143572568893433,-0.008387185633182526
1751620572886192000,2.016192138671875,0.031060218811035156,0.011590495705604553,0.015102364122867584
1751620572905015600,2.035015625,0.030975341796875,0.0017559230327606201,0.0053466930985450745
1751620572923839200,2.053839111328125,0.02602863311767578,-0.007676988840103149,-0.0042433589696884155
1751620572942662700,2.07266259765625,0.021245956420898438,-0.021579355001449585,0.0004124268889427185
1751620572961486000,2.091486083984375,-0.0070648193359375,0.0024661868810653687,0.0003652796149253845
1751620572980309500,2.1103095703125,-0.007142066955566406,0.020664185285568237,0.005011029541492462
1751620572999133200,2.12913330078125,-0.016788482666015625,-0.007901698350906372,0.00013796240091323853
1751620573017956600,2.14795654296875,-0.031213760375976562,-0.003054603934288025,0.004759296774864197
1751620573036780000,2.166780029296875,-0.04547691345214844,0.00626160204410553,0.00005140155553817749
1751620573055603500,2.185603515625,-0.0031118392944335938,0.020007669925689697,0.0045525506138801575
1751620573074427100,2.20442724609375,-0.017439842224121094,0.014679178595542908,0.004165224730968475
1751620573093250600,2.22325048828125,0.001644134521484375,-0.009107932448387146,0.004182860255241394
1751620573112074000,2.242073974609375,0.015705108642578125,0.0005199015140533447,-0.009915903210639954
1751620573130897400,2.2608974609375,0.030007362365722656,0.010142043232917786,0.01375095546245575
1751620573149720800,2.279720947265625,0.025404930114746094,0.014661788940429688,0.008745841681957245
1751620573168544500,2.29854443359375,0.025348663330078125,0.009745299816131592,-0.024329133331775665
1751620573187368000,2.317367919921875,-0.007488250732421875,0.0004404336214065552,-0.00023233145475387573
1751620573206191400,2.33619140625,0.0020923614501953125,0.014423564076423645,-0.028539925813674927
1751620573225014800,2.355014892578125,-0.017035484313964844,-0.013983741402626038,-0.004352286458015442
1751620573243838200,2.373838134765625,-0.012472152709960938,0.00008401274681091309,0.005469024181365967
1751620573262662000,2.392661865234375,-0.02704143524169922,0.009797826409339905,0.014931924641132355
1751620573281485300,2.4114853515625,-0.01783275604248047,-0.004526495933532715,0.0100446417927742
1751620573300308700,2.430308837890625,-0.027599334716796875,0.00016441941261291504,-0.013583064079284668
1751620573319132200,2.449132080078125,-0.013275146484375,-0.009449303150177002,0.0009036138653755188
1751620573337955800,2.467955810546875,0.010456085205078125,0.009914159774780273,0.0008722022175788879
1751620573356779300,2.486779296875,0.020147323608398438,-0.013636991381645203,0.0005745962262153625
1751620573375602700,2.505602783203125,0.029679298400878906,0.009877592325210571,-0.008465558290481567
1751620573394426000,2.524426025390625,0.02971649169921875,0.0001315772533416748,0.014871560037136078
1751620573413249500,2.54324951171875,0.0203399658203125,0.004903808236122131,0.005280360579490662
1751620573432073200,2.5620732421875,0.015589714050292969,0.00940607488155365,0.019175417721271515
1751620573450896600,2.580896728515625,0.015547752380371094,-0.009880289435386658,0.0000621601939201355
1751620573469720000,2.599719970703125,-0.013280868530273438,-0.018659457564353943,-0.018654614686965942
1751620573488543500,2.61854345703125,-0.03252887725830078,-0.02275264263153076,-0.027367286384105682
1751620573507367000,2.637366943359375,-0.032631874084472656,0.019954994320869446,-0.003480099141597748
1751620573526190600,2.656190673828125,-0.03257465362548828,0.037716612219810486,0.005727730691432953
1751620573545014000,2.675013916015625,-0.022790908813476562,-0.01047419011592865,0.0010179132223129272
1751620573563837400,2.69383740234375,0.010349273681640625,-0.023904606699943542,-0.013243407011032104
1751620573582660900,2.712660888671875,0.0292205810546875,-0.004375830292701721,0.0009666755795478821
1751620573601484300,2.731484375,0.01986408233642578,0.01917707920074463,0.02888668328523636
1751620573620308000,2.750307861328125,0.024932861328125,-0.004791826009750366,0.018940769135951996
1751620573639131400,2.76913134765625,0.039322853088378906,-0.02754312753677368,-0.00011824816465377808
1751620573657954800,2.787954833984375,0.024688720703125,-0.01263381540775299,-0.018702320754528046
1751620573676778200,2.8067783203125,0.010458946228027344,0.039540812373161316,0.014541804790496826
1751620573695602000,2.825601806640625,-0.01788806915283203,0.03375545144081116,-0.018803194165229797
1751620573714425300,2.84442529296875,-0.01800251007080078,-0.004736453294754028,-0.018420353531837463
1751620573733248800,2.863248779296875,-0.03246784210205078,-0.018234670162200928,-0.008636519312858582
1751620573752072200,2.882072265625,-0.041985511779785156,0.01004783809185028,0.01486494392156601
1751620573770895600,2.9008955078125,-0.04169654846191406,0.00955110788345337,0.00028818100690841675
1751620573789719300,2.91971923828125,0.000858306884765625,-0.018883898854255676,0.000039987266063690186
1751620573808542700,2.938542724609375,0.010160446166992188,-0.027364253997802734,0.004666425287723541
1751620573827366100,2.9573662109375,0.010295867919921875,0.006052032113075256,0.00964614748954773
1751620573846189600,2.976189453125,0.024621963500976562,0.01035948097705841,0.00461985170841217
1751620573865013000,2.995012939453125,0.02945423126220703,0.005224987864494324,-0.0191422700881958
1751620573883836700,3.013836669921875,0.029341697692871094,-0.008836597204208374,-0.013960152864456177
1751620573902660000,3.03266015625,0.010407447814941406,0.0290176123380661,-0.008747890591621399
1751620573921483500,3.0514833984375,-0.0038194656372070312,0.0092705637216568,0.0006020963191986084
1751620573940307000,3.070306884765625,-0.027696609497070312,0.008718714118003845,0.0001509636640548706
1751620573959130600,3.089130615234375,-0.027645111083984375,-0.02436155080795288,-0.004372656345367432
1751620573977954000,3.1079541015625,-0.03229713439941406,-0.004884630441665649,-0.013876698911190033
1751620573996777500,3.126777587890625,-0.03695392608642578,-0.009502515196800232,0.009717725217342377
1751620574015601000,3.145600830078125,-0.00820159912109375,-0.00013002753257751465,0.014056213200092316
1751620574034424300,3.16442431640625,-0.008167266845703125,-0.013937383890151978,0.004133634269237518
1751620574053248000,3.183248046875,0.024886131286621094,0.0006036758422851562,-0.005177319049835205
1751620574072071400,3.202071533203125,0.029634475708007812,0.01447342336177826,-0.005082450807094574
1751620574090894800,3.220894775390625,0.029596328735351562,0.01379847526550293,-0.0047591254115104675
1751620574119130000,3.249130126953125,-0.03203868865966797,-0.000658378005027771,-0.004801429808139801
1751620574137953500,3.26795361328125,-0.017726898193359375,-0.01931101083755493,-0.004565812647342682
1751620574156777000,3.28677685546875,-0.0034952163696289062,0.000299990177154541,0.00016640126705169678
1751620574175600400,3.305600341796875,0.015285491943359375,-0.004032552242279053,0.004661910235881805
1751620574194424000,3.324424072265625,0.03407573699951172,-0.013195708394050598,-0.00008738040924072266
1751620574213247500,3.34324755859375,0.024557113647460938,-0.02213437855243683,0.004306107759475708
1751620574232071000,3.36207080078125,0.024610519409179688,0.01107284426689148,0.004397496581077576
1751620574250894300,3.380894287109375,0.0010509490966796875,0.010586857795715332,-0.005194991827011108
1751620574269717800,3.3997177734375,-0.013025283813476562,0.010229185223579407,-0.004946388304233551
1751620574288541400,3.41854150390625,-0.017457008361816406,0.005222052335739136,-0.004705995321273804
1751620574307364900,3.43736474609375,-0.012879371643066406,0.004505366086959839,-0.004551976919174194
1751620574326188300,3.456188232421875,-0.027200698852539062,-0.019025027751922607,0.009399011731147766
1751620574345011700,3.47501171875,-0.0415191650390625,0.0003388524055480957,0.008972711861133575
1751620574363835100,3.493835205078125,-0.02258014678955078,-0.01818987727165222,-0.005286224186420441
1751620574382658800,3.512658935546875,-0.013132095336914062,-0.017674759030342102,0.008580535650253296
1751620574401482200,3.531482177734375,0.0011873245239257812,-0.0031235814094543457,-0.0104479119181633
1751620574420305700,3.5503056640625,0.025068283081054688,0.011136069893836975,0.013346873223781586
1751620574439129000,3.569129150390625,0.020554542541503906,0.020139381289482117,-0.0008979663252830505
1751620574457952800,3.587952880859375,0.015717506408691406,0.014851167798042297,-0.0007002502679824829
1751620574476776200,3.606776123046875,0.020687103271484375,0.014587804675102234,-0.014874733984470367
1751620574495599600,3.625599609375,0.006590843200683594,-0.00444813072681427,-0.009841129183769226
1751620574514423000,3.644423095703125,-0.012295722961425781,0.00502447783946991,0.0043649822473526
1751620574533246500,3.66324658203125,-0.021772384643554688,-0.013740003108978271,-0.005274750292301178
1751620574552070000,3.68206982421875,-0.03109264373779297,-0.01792101562023163,0.004028037190437317
1751620574570893600,3.7008935546875,-0.03116321563720703,0.0010642409324645996,-0.010300911962985992
1751620574589717000,3.719717041015625,-0.02158355712890625,-0.012939482927322388,-0.010209962725639343
1751620574608540400,3.73854052734375,-0.017106056213378906,0.006069943308830261,-0.004975616931915283
1751620574627363800,3.75736376953125,-0.002971649169921875,-0.0032660216093063354,0.0042890384793281555
1751620574646187300,3.776187255859375,0.01587200164794922,0.001272842288017273,-0.005232267081737518
1751620574665011000,3.795010986328125,0.02546215057373047,0.015497550368309021,-0.000433407723903656
1751620574683834400,3.81383447265625,0.030266761779785156,0.0012520253658294678,0.008912719786167145
1751620574702657800,3.83265771484375,0.030205726623535156,-0.012760281562805176,-0.019387148320674896
1751620574721481200,3.851481201171875,0.01610851287841797,-0.0031250864267349243,0.004703149199485779
1751620574740305000,3.870304931640625,0.0016946792602539062,0.001564115285873413,-0.004912152886390686
1751620574759128300,3.88912841796875,-0.0029878616333007812,-0.007705599069595337,0.00939825177192688
1751620574777951700,3.90795166015625,-0.036144256591796875,-0.012433633208274841,-0.0050316303968429565
1751620574796775200,3.926775146484375,-0.03589057922363281,-0.0026536136865615845,-0.005104005336761475
1751620574815598600,3.9455986328125,-0.021841049194335938,-0.01688195765018463,-0.00023095309734344482
1751620574834422000,3.964422119140625,-0.012805938720703125,-0.0027153193950653076,-0.004928901791572571
1751620574853245700,3.98324560546875,-0.012773513793945312,-0.002431809902191162,-0.004420004785060883
1751620574872069000,4.002069091796875,0.015570640563964844,0.016589313745498657,-0.008902907371520996
1751620574890892500,4.020892578125,0.010896682739257812,0.006620243191719055,0.0007213056087493896
1751620574909716000,4.039716064453125,0.03477001190185547,0.001606971025466919,0.009947136044502258
1751620574928539600,4.05853955078125,0.030089378356933594,0.011350050568580627,-0.008893042802810669
1751620574947363000,4.077363037109375,0.039447784423828125,-0.007419615983963013,0.014693491160869598
1751620574966186500,4.0961865234375,0.011240959167480469,0.002117440104484558,0.009657211601734161
1751620574985010000,4.115010009765625,-0.0075626373291015625,-0.012077972292900085,0.004740901291370392
1751620575003833300,4.133833251953125,-0.02660655975341797,-0.002543807029724121,-0.009346231818199158
1751620575022656800,4.15265673828125,-0.026433944702148438,-0.007330209016799927,0.005032293498516083
1751620575041480400,4.17148046875,-0.040618896484375,0.0067571550607681274,-0.009249582886695862
1751620575060304000,4.190303955078125,-0.016846656799316406,0.016093477606773376,-0.004398219287395477
1751620575079127300,4.209127197265625,-0.021623611450195312,-0.0030664056539535522,0.023902490735054016
1751620575097950700,4.22795068359375,0.006855010986328125,-0.01226148009300232,-0.00496760755777359
1751620575116774100,4.246774169921875,0.01141357421875,0.007007330656051636,-0.0006124451756477356
1751620575135597800,4.265597900390625,0.025625228881835938,0.011518493294715881,0.008538082242012024
1751620575154421200,4.284421142578125,0.03975677490234375,-0.012085720896720886,0.003783710300922394
1751620575173244700,4.30324462890625,0.025342941284179688,-0.006783515214920044,-0.010492533445358276
1751620575192068000,4.322068115234375,0.01611042022705078,0.0168839693069458,0.0037797316908836365
1751620575210891500,4.3408916015625,0.0020074844360351562,0.030435755848884583,-0.000974215567111969
1751620575229715200,4.359715087890625,-0.01656818389892578,0.0013073086738586426,-0.005621202290058136
1751620575248538600,4.37853857421875,-0.030531883239746094,-0.02666524052619934,-0.01939959079027176
1751620575267362000,4.397362060546875,-0.025758743286132812,-0.011944189667701721,0.018179476261138916
1751620575286185500,4.416185546875,-0.030315399169921875,-0.002524763345718384,0.013140201568603516
1751620575305009000,4.4350087890625,-0.006724357604980469,-0.021305695176124573,0.008187249302864075
1751620575323832300,4.453832275390625,-0.016386032104492188,-0.006334662437438965,0.00799349695444107
1751620575342656000,4.472656005859375,-0.0019636154174804688,0.008064210414886475,0.007920190691947937
1751620575361479400,4.4914794921875,0.012373924255371094,0.026457712054252625,-0.01116490364074707
1751620575380302800,4.510302734375,0.03133678436279297,0.011536121368408203,-0.024881266057491302
1751620575399126300,4.529126220703125,0.031240463256835938,-0.0025796741247177124,-0.014807283878326416
1751620575417950000,4.547949951171875,0.04040050506591797,-0.007286474108695984,-0.01003943383693695
1751620575436773400,4.5667734375,0.016630172729492188,0.016162320971488953,0.004217885434627533
1751620575455596800,4.5855966796875,0.011766433715820312,-0.0032044053077697754,0.00881289690732956
1751620575474420200,4.604420166015625,-0.007130622863769531,-0.01247335970401764,-0.0008598193526268005
1751620575493243600,4.62324365234375,-0.030973434448242188,-0.016803041100502014,0.012898065149784088
1751620575512067000,4.642067138671875,-0.04501056671142578,-0.00707775354385376,-0.0016456693410873413
1751620575530890800,4.660890869140625,-0.035286903381347656,0.011783182621002197,-0.0016374588012695312
1751620575549714200,4.679714111328125,-0.006748199462890625,-0.011751383543014526,-0.020374633371829987
1751620575568537600,4.69853759765625,-0.006916999816894531,0.007343694567680359,-0.0103674978017807
1751620575587361000,4.717361083984375,0.0024871826171875,0.011845603585243225,-0.02433277666568756
1751620575606184400,4.736184326171875,0.0071868896484375,0.015915676951408386,0.004076018929481506
1751620575625008000,4.755008056640625,0.03094768524169922,0.01569436490535736,-0.009866006672382355
1751620575643831600,4.77383154296875,0.026235580444335938,0.0062254369258880615,-0.0049158260226249695
1751620575662655000,4.792655029296875,0.016739845275878906,-0.003241807222366333,0.01399209350347519
1751620575681478400,4.811478515625,0.0028514862060546875,0.0015622824430465698,0.008820295333862305
1751620575700301800,4.8303017578125,-0.0064983367919921875,-0.008021101355552673,-0.015159092843532562
1751620575719125500,4.84912548828125,-0.006594657897949219,-0.00790664553642273,-0.014861069619655609
1751620575737949000,4.867948974609375,-0.020965576171875,0.0019155889749526978,-0.014182597398757935
1751620575756772400,4.8867724609375,-0.035096168518066406,0.011065661907196045,-0.009166315197944641
1751620575775595800,4.905595703125,-0.03025054931640625,0.01994703710079193,-0.009178578853607178
1751620575794419200,4.924419189453125,-0.02101612091064453,-0.003857359290122986,-0.004372328519821167
1751620575813242600,4.94324267578125,-0.0020494461059570312,-0.012914091348648071,0.0003215670585632324
1751620575832066300,4.96206640625,0.007428169250488281,0.006328582763671875,0.0001525282859802246
1751620575850889700,4.9808896484375,0.021851539611816406,0.006156295537948608,0.014454230666160583
1751620575869713200,4.999713134765625,0.0358734130859375,-0.02193307876586914,-0.004458345472812653
1751620575888536600,5.01853662109375,0.035785675048828125,-0.01152290403842926,-0.004624404013156891
1751620575907360300,5.0373603515625,0.02158355712890625,0.007562756538391113,0.014195390045642853
1751620575926183700,5.05618359375,-0.0018758773803710938,0.030643805861473083,-0.00980481505393982
1751620575945007000,5.075007080078125,-0.006522178649902344,0.001855999231338501,-0.004892267286777496
1751620575963830500,5.09383056640625,-0.011403083801269531,-0.007690548896789551,-0.00975169986486435
1751620575982654000,5.112654052734375,-0.04451751708984375,-0.002816632390022278,0.004529893398284912
1751620576001477400,5.131477294921875,-0.0301055908203125,0.020562857389450073,0.004457041621208191
1751620576020301000,5.150301025390625,-0.029815673828125,0.0011737197637557983,-0.009620696306228638
1751620576039124500,5.16912451171875,-0.015499114990234375,-0.012756377458572388,-0.00020800530910491943
1751620576057948000,5.187947998046875,0.007915496826171875,-0.007511615753173828,-0.000012032687664031982
1751620576076771300,5.206771240234375,0.012360572814941406,0.006735548377037048,-0.00029130280017852783
1751620576095595000,5.225594970703125,0.040813446044921875,-0.0026713311672210693,-0.00977342575788498
1751620576114418400,5.24441845703125,0.031070709228515625,-0.007375091314315796,-0.004510730504989624
1751620576133241900,5.263241943359375,0.030984878540039062,-0.007327824831008911,-0.02326514571905136
1751620576152065300,5.282065185546875,0.016860008239746094,0.020749807357788086,0.0007964819669723511
1751620576170888700,5.300888671875,0.012067794799804688,0.02472706139087677,0.014570675790309906
1751620576189712100,5.319712158203125,-0.016721725463867188,-0.01801539957523346,0.00015679001808166504
1751620576208535800,5.338535888671875,-0.02150440216064453,-0.02699628472328186,-0.00455581396818161
1751620576227359200,5.357359130859375,-0.04056072235107422,-0.002974405884742737,-0.01868128776550293
1751620576246182700,5.3761826171875,-0.031141281127929688,0.001711040735244751,0.009858131408691406
1751620576265006000,5.395006103515625,-0.0215606689453125,0.010680288076400757,0.004938878118991852
1751620576283829500,5.41382958984375,-0.012221336364746094,-0.012928128242492676,-0.009074479341506958
1751620576302653200,5.432653076171875,0.020811080932617188,0.015617653727531433,0.005186587572097778
1751620576321476600,5.4514765625,0.030084609985351562,0.02436128258705139,-0.018234029412269592
1751620576340300000,5.470300048828125,0.02069568634033203,0.019156113266944885,-0.004176415503025055
1751620576359123500,5.48912353515625,0.03028392791748047,0.00008137524127960205,-0.004122041165828705
1751620576377947000,5.50794677734375,0.016107559204101562,-0.004543796181678772,-0.013399086892604828
1751620576396770600,5.5267705078125,0.020517349243164062,0.004866257309913635,-0.013383671641349792
1751620576415594000,5.545593994140625,-0.0081634521484375,0.0050898343324661255,-0.018119297921657562
1751620576434417400,5.56441748046875,-0.022090911865234375,0.00020797550678253174,-0.003953263163566589
1751620576453240800,5.58324072265625,-0.03634357452392578,-0.009218409657478333,-0.013471193611621857
1751620576472064300,5.602064208984375,-0.04549598693847656,0.009900912642478943,-0.0039312392473220825
1751620576490887700,5.6208876953125,-0.021718978881835938,0.00046782195568084717,0.0009030625224113464
1751620576509711400,5.63971142578125,-0.00766754150390625,0.004961714148521423,-0.008663155138492584
1751620576528534800,5.65853466796875,-0.012200355529785156,-0.004310488700866699,-0.017916880548000336
1751620576547358200,5.677358154296875,0.006949424743652344,0.0004982054233551025,0.0058111101388931274
1751620576566181600,5.696181640625,0.0261688232421875,0.014905363321304321,-0.013127610087394714
1751620576585005000,5.715005126953125,0.026165008544921875,-0.008732348680496216,0.001187153160572052
1751620576603828700,5.733828857421875,0.026239395141601562,0.0010387450456619263,0.0009110793471336365
1751620576622652200,5.752652099609375,0.030783653259277344,-0.013074487447738647,-0.008722983300685883
1751620576641475600,5.7714755859375,0.011648178100585938,-0.008291676640510559,0.005210891366004944
1751620576660299000,5.790299072265625,-0.0026197433471679688,-0.003273606300354004,-0.01381836086511612
1751620576679122400,5.809122314453125,-0.017045021057128906,0.0014543086290359497,-0.004298903048038483
1751620576697945900,5.82794580078125,-0.0315399169921875,0.005913719534873962,0.005174994468688965
1751620576716769500,5.84676953125,-0.022421836853027344,0.01033678650856018,-0.004489637911319733
1751620576735593000,5.865593017578125,-0.017681121826171875,0.005169913172721863,0.009302422404289246
1751620576754416400,5.88441650390625,-0.017568588256835938,-0.01806752383708954,0.01828208565711975
1751620576773239800,5.90323974609375,-0.008047103881835938,0.0013135671615600586,0.0082644522190094
1751620576792063200,5.922063232421875,0.015593528747558594,-0.0032715648412704468,0.008105635643005371
1751620576810887000,5.940886962890625,0.02982616424560547,0.005861103534698486,0.0030518248677253723
1751620576829710300,5.95971044921875,0.03903675079345703,0.010255128145217896,0.012630268931388855
1751620576848533800,5.97853369140625,0.019941329956054688,0.014850720763206482,-0.006296753883361816
1751620576867357200,5.997357177734375,0.010573387145996094,0.005175605416297913,-0.005933292210102081
1751620576886180600,6.0161806640625,0.0012044906616210938,0.014296337962150574,0.00830051302909851
1751620576905004000,6.035004150390625,-0.013031959533691406,-0.014455467462539673,-0.00131244957447052
1751620576923827700,6.05382763671875,-0.017930984497070312,-0.004717767238616943,-0.015388257801532745
1751620576942651100,6.072651123046875,-0.041810035705566406,-0.02778524160385132,-0.005594305694103241
1751620576961474600,6.091474609375,-0.03658485412597656,-0.003692626953125,0.00847143679857254
1751620576980298000,6.110298095703125,-0.02219676971435547,-0.0037670880556106567,-0.010443009436130524
1751620576999121700,6.12912158203125,0.00606536865234375,-0.022427335381507874,-0.015040531754493713
1751620577017945000,6.147945068359375,0.006022453308105469,0.0016469061374664307,0.0043124184012413025
1751620577036768500,6.1667685546875,0.02009868621826172,-0.007702097296714783,0.008952632546424866
1751620577055592000,6.185592041015625,0.00154876708984375,0.01576046645641327,-0.005305655300617218
1751620577074415400,6.204415283203125,0.034908294677734375,0.0109168142080307,-0.024114079773426056
1751620577093238800,6.22323876953125,0.011240959167480469,0.0014489591121673584,-0.00006003677845001221
1751620577112062500,6.2420625,0.011339187622070312,0.011005386710166931,0.01868363469839096
1751620577130886000,6.260885986328125,-0.0028400421142578125,0.001345127820968628,0.004260554909706116
1751620577149709300,6.279709228515625,-0.016943931579589844,-0.008040428161621094,-0.005215175449848175
1751620577168532700,6.29853271484375,-0.021718978881835938,-0.012409865856170654,-0.014769822359085083
1751620577187356200,6.317356201171875,-0.03598308563232422,0.001796528697013855,-0.000714525580406189
1751620577206179800,6.336179931640625,-0.021696090698242188,0.006121546030044556,-0.000927753746509552
1751620577225003300,6.355003173828125,-0.012666702270507812,0.019997209310531616,-0.000977061688899994
1751620577243826700,6.37382666015625,-0.012483596801757812,0.005647554993629456,-0.005573764443397522
1751620577262650000,6.392650146484375,0.016320228576660156,0.0007925629615783691,-0.0008757933974266052
1751620577281473500,6.4114736328125,0.025664329528808594,0.0007255077362060547,0.0037325620651245117
1751620577300297000,6.430296875,0.02113056182861328,-0.013535425066947937,0.017801888287067413
1751620577319120600,6.44912060546875,0.03988075256347656,0.01537485420703888,-0.0012194812297821045
1751620577337944000,6.467944091796875,0.0067195892333984375,0.0013360679149627686,0.00337015837430954
1751620577356767500,6.486767578125,0.0023412704467773438,0.010506436228752136,-0.0015717744827270508
1751620577375591000,6.5055908203125,-0.007149696350097656,0.010387852787971497,-0.015401847660541534
1751620577394414300,6.524414306640625,-0.02605152130126953,0.0006707906723022461,0.0038527026772499084
1751620577413238000,6.543238037109375,-0.040015220642089844,-0.008611693978309631,-0.010311700403690338
1751620577432061400,6.5620615234375,-0.035243988037109375,-0.003785759210586548,0.004066847264766693
1751620577450884900,6.580884765625,-0.01627349853515625,-0.008596807718276978,0.0039774104952812195
1751620577469708300,6.599708251953125,-0.01604938507080078,0.0009798407554626465,0.013097479939460754
1751620577488531700,6.61853173828125,0.0171051025390625,-0.003218337893486023,0.008001811802387238
1751620577507355100,6.637355224609375,0.031047821044921875,0.011076346039772034,0.007735759019851685
1751620577526178800,6.6561787109375,0.03103923797607422,0.001369088888168335,0.0030079036951065063
1751620577545002200,6.675002197265625,0.02154064178466797,-0.003154546022415161,-0.0018773823976516724
1751620577563825700,6.69382568359375,0.016986846923828125,0.010837063193321228,-0.01601295918226242
1751620577582649000,6.712649169921875,0.01713275909423828,0.010515719652175903,-0.006041489541530609
1751620577601472800,6.73147265625,-0.016061782836914062,-0.0037219971418380737,-0.0011839494109153748
1751620577620296200,6.750296142578125,-0.02533435821533203,-0.003562062978744507,-0.0059771910309791565
1751620577639119600,6.76911962890625,-0.029827117919921875,0.005735963582992554,-0.0012339502573013306
1751620577657943000,6.787943115234375,-0.029784202575683594,-0.013441801071166992,0.0032758936285972595
1751620577676766500,6.806766357421875,-0.025114059448242188,-0.0038625597953796387,-0.010996229946613312
1751620577695590000,6.82558984375,-0.020360946655273438,-0.003696128726005554,-0.02035977691411972
1751620577714413600,6.84441357421875,-0.0012559890747070312,0.001092270016670227,0.013051383197307587
1751620577733237000,6.863237060546875,0.003570556640625,0.010428264737129211,-0.0014992132782936096
1751620577752060400,6.882060302734375,0.008469581604003906,-0.01784580945968628,-0.011098243296146393
1751620577770883800,6.9008837890625,0.022933006286621094,0.0014813989400863647,-0.006183892488479614
1751620577789707300,6.919707275390625,0.013625144958496094,0.006020709872245789,0.003042280673980713
1751620577808531000,6.938531005859375,0.018352508544921875,-0.008368238806724548,0.002908259630203247
1751620577827354400,6.957354248046875,0.009038925170898438,0.0012339204549789429,-0.006333969533443451
1751620577846177800,6.976177734375,-0.009928703308105469,-0.02237783372402191,-0.010944187641143799
1751620577874413000,7.0044130859375,0.018174171447753906,-0.016623347997665405,0.021793968975543976
1751620577893236500,7.023236572265625,0.032553672790527344,-0.006937086582183838,-0.0066926926374435425
1751620577912060000,7.042059814453125,0.032494544982910156,0.012186408042907715,-0.011492609977722168
1751620577930883300,7.06088330078125,0.022790908813476562,0.002834618091583252,-0.016055427491664886
1751620577949706800,7.079706787109375,-0.005570411682128906,0.012346446514129639,-0.011134102940559387
1751620577968530400,7.098530517578125,-0.014875411987304688,0.0074261873960494995,-0.015520021319389343
1751620577987353900,7.117353759765625,-0.024268150329589844,0.00262393057346344,-0.015290357172489166
1751620578006177300,7.13617724609375,-0.024251937866210938,0.007312551140785217,-0.0008275210857391357
1751620578025000700,7.155000732421875,-0.029015541076660156,0.007075846195220947,-0.010056599974632263
1751620578043824400,7.173824462890625,-0.019588470458984375,-0.011675626039505005,0.004124760627746582
1751620578062647800,7.192647705078125,-0.014626502990722656,-0.011519968509674072,0.013209886848926544
1751620578081471200,7.21147119140625,0.009230613708496094,0.0024368315935134888,-0.0011854469776153564
1751620578100294700,7.230294677734375,0.018807411193847656,0.007257819175720215,-0.0011477917432785034
1751620578119118000,7.2491181640625,0.018968582153320312,0.0025395601987838745,-0.005738839507102966
1751620578137941500,7.26794140625,0.028848648071289062,0.0021341443061828613,-0.015197724103927612
1751620578156765200,7.28676513671875,0.019422531127929688,0.006683290004730225,0.0038913562893867493
1751620578175588600,7.305588623046875,0.005366325378417969,0.0022977441549301147,0.008354902267456055
1751620578194412000,7.324412109375,0.005579948425292969,-0.0024918466806411743,0.012814976274967194
1751620578213235500,7.3432353515625,-0.017975807189941406,-0.011862799525260925,0.0030883923172950745
1751620578232059000,7.362058837890625,-0.02750110626220703,-0.0022235512733459473,-0.006583854556083679
1751620578250882600,7.380882568359375,-0.022828102111816406,-0.002270042896270752,-0.016171656548976898
1751620578269706000,7.3997060546875,-0.023095130920410156,-0.007064387202262878,-0.006695635616779327
1751620578288529400,7.418529296875,-0.023116111755371094,0.011797308921813965,-0.011179864406585693
1751620578307352800,7.437352783203125,-0.0041561126708984375,0.01626347005367279,0.0030276626348495483
1751620578326176300,7.45617626953125,-0.003939628601074219,0.0015347599983215332,-0.011223472654819489
1751620578345000000,7.475,0.02442455291748047,0.015672340989112854,-0.0014422237873077393
1751620578363823400,7.4938232421875,0.034046173095703125,0.001421019434928894,-0.006101958453655243
1751620578382646800,7.512646728515625,0.03394031524658203,-0.012628257274627686,-0.02001943439245224
1751620578401470200,7.53147021484375,0.019718170166015625,0.011233597993850708,0.008564233779907227
1751620578420293600,7.550293701171875,0.010438919067382812,-0.0078459233045578,-0.005602747201919556
1751620578439117300,7.569117431640625,-0.0037088394165039062,0.0013915300369262695,0.0037892982363700867
1751620578457940700,7.587940673828125,-0.03174591064453125,-0.0033681392669677734,-0.0011217817664146423
1751620578476764200,7.60676416015625,0.020204544067382812,0.03438366949558258,-0.005836836993694305
1751620578495587600,7.625587646484375,-0.0075244903564453125,-0.00833052396774292,-0.019686467945575714
1751620578514411000,7.644410888671875,-0.04060840606689453,-0.008173227310180664,0.00425691157579422
1751620578533234700,7.663234619140625,-0.04985332489013672,0.010567113757133484,0.004260607063770294
1751620578552058000,7.68205810546875,-0.048781394958496094,0.0033377856016159058,0.05896683409810066
1751620578570881500,7.700881591796875,0.00177764892578125,0.028203457593917847,-0.0011300519108772278
1751620578589705000,7.719705078125,-0.00606536865234375,-0.020208582282066345,0.025798678398132324
1751620578608528400,7.7385283203125,0.07909870147705078,0.009511962532997131,-0.05325684696435928
1751620578627352000,7.75735205078125,-0.11597633361816406,-0.046079665422439575,0.10825666040182114
1751620578646175500,7.776175537109375,0.022184371948242188,-0.016506731510162354,0.015309877693653107
1751620578664999000,7.7949990234375,0.022380828857421875,-0.038834258913993835,-0.024227328598499298
1751620578683822300,7.813822265625,-0.006805419921875,-0.03631801903247833,-0.02286430448293686
1751620578702645800,7.832645751953125,0.0063190460205078125,0.03035736083984375,-0.04117165505886078
1751620578721469400,7.851469482421875,-0.06078815460205078,0.026010751724243164,-0.030585162341594696
1751620578740292900,7.87029296875,-0.12411212921142578,0.009289249777793884,0.027904611080884933
1751620578759116300,7.8891162109375,0.03777790069580078,0.019303470849990845,-0.031689755618572235
1751620578777939700,7.907939697265625,0.00823211669921875,0.03224167227745056,-0.0156029611825943
1751620578796763400,7.926763427734375,0.012698173522949219,0.02283462882041931,0.004908084869384766
1751620578815586800,7.9455869140625,0.008067131042480469,0.0005026757717132568,0.009959839284420013
1751620578834410200,7.96441015625,0.017981529235839844,-0.059505000710487366,0.02248694747686386
1751620578853233700,7.983233642578125,0.027688980102539062,-0.02561996877193451,0.024134047329425812
1751620578872057300,8.002057373046876,0.013991355895996094,-0.01293279230594635,0.010706685483455658
1751620578890880800,8.020880859375,0.018998146057128906,0.018718749284744263,-0.009120635688304901
1751620578909704200,8.0397041015625,0.009120941162109375,-0.009897053241729736,0.0011964887380599976
1751620578928527600,8.058527587890625,-0.028514862060546875,-0.025349751114845276,0.0016322508454322815
1751620578947351000,8.07735107421875,-0.009726524353027344,0.039988964796066284,-0.04225786775350571
1751620578966174700,8.0961748046875,-0.04276466369628906,0.014324501156806946,-0.051185764372348785
1751620578984998100,8.114998046875,-0.00005054473876953125,-0.0007142126560211182,-0.06956075131893158
1751620579003821600,8.133821533203125,-0.014475822448730469,0.004297971725463867,-0.006209798157215118
1751620579022645000,8.15264501953125,0.004489898681640625,-0.01360371708869934,0.01658155769109726
1751620579041468400,8.171468505859375,0.009033203125,-0.026870518922805786,0.02537035197019577
1751620579060292000,8.1902919921875,0.018529891967773438,-0.38219648599624634,0.4000992774963379
1751620579079115500,8.209115478515624,0.028207778930664062,-0.34362074732780457,0.513241171836853
1751620579097939000,8.22793896484375,0.023283958435058594,0.04151090979576111,0.24172425270080566
1751620579116762400,8.246762451171875,0.013889312744140625,0.2034427970647812,-0.006906919181346893
1751620579135586000,8.2655859375,-0.00037860870361328125,0.2116905301809311,-0.1788693070411682
1751620579154409500,8.284409423828125,0.0040836334228515625,0.1262418031692505,-0.27563583850860596
1751620579173233000,8.30323291015625,-0.015238761901855469,-0.026110723614692688,-0.18016527593135834
1751620579192056300,8.322056396484374,-0.015655517578125,-0.24791330099105835,0.19096198678016663
1751620579210880000,8.3408798828125,-0.030260086059570312,-0.47454357147216797,0.45493096113204956
1751620579229703400,8.359703369140625,-0.034450531005859375,-0.3174436390399933,0.3926678001880646
1751620579248526800,8.37852685546875,-0.015026092529296875,-0.007879577577114105,-0.047202300280332565
1751620579267350300,8.397350341796875,-0.02512836456298828,0.16146385669708252,-0.32876744866371155
1751620579286173700,8.416173583984374,0.0036058425903320312,0.31615573167800903,-0.4252457022666931
1751620579304997400,8.434997314453126,0.027303695678710938,0.31139692664146423,-0.3276166319847107
1751620579323820800,8.45382080078125,0.02268218994140625,0.17613156139850616,-0.042877621948719025
1751620579342644200,8.472644287109375,0.03199291229248047,-0.05133657157421112,0.26248788833618164
1751620579361467600,8.491467529296875,0.012557029724121094,-0.21824920177459717,0.32487282156944275
1751620579380291300,8.510291259765625,-0.020465850830078125,-0.25429248809814453,0.22008314728736877
1751620579399114800,8.52911474609375,-0.00617218017578125,-0.04794205352663994,-0.013598740100860596
1751620579417938200,8.547938232421876,-0.0063934326171875,0.1559610664844513,-0.17869743704795837
1751620579436761600,8.56676171875,-0.05399322509765625,0.15305086970329285,-0.09274720400571823
1751620579455585000,8.5855849609375,0.003387451171875,0.12140114605426788,-0.12745410203933716
1751620579474408700,8.60440869140625,-0.0019474029541015625,0.06317717581987381,-0.11762231588363647
1751620579493232000,8.623232177734375,-0.02075672149658203,-0.057705819606781006,0.1052437275648117
1751620579512055600,8.6420556640625,-0.010348320007324219,-0.08784884959459305,0.2558596432209015
1751620579530879000,8.66087890625,-0.0003070831298828125,-0.03948335349559784,0.11157398670911789
1751620579549702700,8.67970263671875,0.11344623565673828,0.18624237179756165,-0.16778028011322021
1751620579568526000,8.698526123046875,0.013360977172851562,0.21405592560768127,-0.23233860731124878
1751620579587349500,8.717349609375,0.0086669921875,0.17999309301376343,-0.15032735466957092
1751620579606173200,8.736173095703125,0.009339332580566406,0.06254781037569046,-0.03455163538455963
1751620579624996600,8.75499658203125,-0.019435882568359375,0.014466635882854462,-0.06440116465091705
1751620579643820000,8.773820068359376,-0.023919105529785156,-0.08969428390264511,-0.07450387626886368
1751620579662643500,8.7926435546875,-0.052939414978027344,-0.08545847237110138,-0.0534500777721405
1751620579681467100,8.811467041015625,-0.0341949462890625,-0.13224534690380096,0.07386092096567154
1751620579700290600,8.83029052734375,-0.001430511474609375,-0.1253618448972702,0.29258257150650024
1751620579719114000,8.849114013671874,-0.054088592529296875,-0.10377699881792068,0.48051539063453674
1751620579737937400,8.8679375,0.008137702941894531,0.010019421577453613,0.11563774198293686
1751620579756760800,8.8867607421875,0.027051925659179688,0.04484143108129501,-0.34409457445144653
1751620579775584500,8.90558447265625,0.03145027160644531,0.11110401153564453,-0.4297294020652771
1751620579794408000,8.924407958984375,0.02190113067626953,0.21706543862819672,-0.3776746690273285
1751620579813231400,8.9432314453125,-0.011092185974121094,0.3609604239463806,-0.37182796001434326
1751620579832054800,8.9620546875,0.0035276412963867188,0.11721275001764297,0.01541140303015709
1751620579850878500,8.98087841796875,0.008563995361328125,-0.14084379374980927,0.598027229309082
1751620579869702000,8.999701904296876,-0.015439033508300781,-0.2034020870923996,0.6691873073577881
1751620579888525300,9.018525390625,-0.015500068664550781,-0.03139365464448929,0.3756500780582428
1751620579907348700,9.0373486328125,-0.025046348571777344,-0.11289401352405548,0.454977810382843
1751620579926172400,9.05617236328125,-0.02987957000732422,-0.1210951954126358,0.3057269752025604
1751620579944995800,9.074995849609374,-0.005839347839355469,0.06640264391899109,-0.15994586050510406
1751620579963819300,9.0938193359375,-0.000946044921875,0.24721474945545197,-0.3658290505409241
1751620579982642700,9.112642578125,0.008642196655273438,0.2916043996810913,-0.37802836298942566
1751620580001466400,9.13146630859375,0.013515472412109375,0.2362174093723297,-0.3197968900203705
1751620580020289800,9.150289794921875,0.04191112518310547,0.0018629655241966248,-0.13817356526851654
1751620580039113200,9.16911328125,0.01313018798828125,-0.1500488966703415,-0.038348689675331116
1751620580057936600,9.1879365234375,0.041454315185546875,-0.35287728905677795,0.04750509560108185
1751620580076760300,9.20676025390625,0.022025108337402344,-0.2726761996746063,-0.30939018726348877
1751620580095583700,9.225583740234375,0.0025348663330078125,-0.04752255976200104,-0.614112377166748
1751620580114407200,9.2444072265625,-0.03552436828613281,0.06715451925992966,-0.38885241746902466
1751620580133230600,9.263230712890625,-0.03083324432373047,-0.021800562739372253,0.047855861485004425
1751620580152054300,9.28205419921875,-0.026061058044433594,0.040846943855285645,0.1998160183429718
1751620580170877700,9.300877685546874,-0.045073509216308594,0.017982516437768936,0.46349722146987915
1751620580189701000,9.319701171875,-0.02085590362548828,-0.10181427001953125,0.1446843445301056
1751620580208524800,9.33852490234375,0.007747650146484375,-0.0181657113134861,-0.30430102348327637
1751620580227348200,9.35734814453125,0.021677017211914062,-0.12805864214897156,-0.5140487551689148
1751620580246171600,9.376171630859375,0.05890846252441406,-0.14042529463768005,-0.3722800016403198
1751620580264995000,9.3949951171875,0.04448413848876953,0.04354952648282051,-0.26412296295166016
1751620580283818800,9.41381884765625,0.020569801330566406,0.16498830914497375,-0.24230274558067322
1751620580302642200,9.43264208984375,0.020339012145996094,0.06840138137340546,-0.06333507597446442
1751620580321465600,9.451465576171875,-0.022317886352539062,0.04976905882358551,-0.06892099976539612
1751620580340289300,9.470289306640625,-0.022310256958007812,0.060049790889024734,-0.030976012349128723
1751620580359112700,9.48911279296875,-0.01759815216064453,0.023065805435180664,-0.06969178467988968
1751620580377936100,9.50793603515625,0.014903068542480469,0.08462460339069366,0.20151828229427338
1751620580396759600,9.526759521484376,-0.14157390594482422,0.2317906618118286,0.30637818574905396
1751620580415583200,9.545583251953126,-0.03149700164794922,0.17470628023147583,0.001507630106061697
1751620580434406700,9.56440673828125,0.001689910888671875,0.16621734201908112,-0.2769818603992462
1751620580453230000,9.58322998046875,0.011269569396972656,0.02712351083755493,-0.372971773147583
1751620580472053500,9.602053466796875,0.020766258239746094,0.168380469083786,-0.19463381171226501
1751620580490877200,9.620877197265624,0.025557518005371094,0.11711813509464264,-0.05029282346367836
1751620580509700600,9.63970068359375,0.011445045471191406,0.19859927892684937,-0.03170020133256912
1751620580528524000,9.65852392578125,0.030585289001464844,0.16974371671676636,-0.09307192265987396
1751620580547347500,9.677347412109375,0.011446952819824219,0.07205091416835785,-0.12339183688163757
1751620580566171100,9.696171142578125,-0.0076122283935546875,-0.03128020465373993,0.13121525943279266
1751620580584994600,9.71499462890625,-0.03114032745361328,0.08809685707092285,0.2546955645084381
1751620580603818000,9.73381787109375,-0.02134227752685547,0.006951048970222473,0.04324021190404892
1751620580622641700,9.7526416015625,-0.03570842742919922,0.02249385416507721,0.037894945591688156
1751620580641465000,9.771465087890626,-0.012110710144042969,0.060963261872529984,-0.034067559987306595
1751620580660288500,9.79028857421875,-0.03069782257080078,0.018578242510557175,-0.13418808579444885
1751620580679112000,9.80911181640625,0.01649951934814453,-0.017119407653808594,-0.11152656376361847
1751620580697935600,9.827935546875,0.02135753631591797,-0.09913689643144608,0.1653793752193451
1751620580716759000,9.846759033203124,0.0022172927856445312,-0.04734084755182266,0.20225375890731812
1751620580735582500,9.86558251953125,0.0404205322265625,0.06279240548610687,0.028138132765889168
1751620580754406100,9.88440625,0.012108802795410156,0.14996503293514252,0.03222472593188286
1751620580773229600,9.9032294921875,0.054775238037109375,0.13300131261348724,-0.21687452495098114
1751620580792053000,9.922052978515625,-0.021309852600097656,0.013135328888893127,-0.37412166595458984
1751620580810876400,9.94087646484375,0.0027637481689453125,-0.14592400193214417,0.21066349744796753
1751620580829700000,9.9597001953125,-0.049880027770996094,-0.13452671468257904,0.46975159645080566
1751620580848523500,9.9785234375,-0.03990650177001953,-0.021536102518439293,0.17046897113323212
1751620580867347000,9.997346923828125,-0.034893035888671875,0.1991541087627411,-0.2153320014476776
1751620580904994000,10.034994140625,0.002716064453125,0.030904773622751236,-0.4227015972137451
1751620580923817500,10.0538173828125,-0.011728286743164062,0.11551490426063538,0.0701133981347084
1751620580942641000,10.072640869140624,0.017128944396972656,0.008822288364171982,0.9149335026741028
1751620580961464600,10.091464599609376,0.02214527130126953,-0.1570681929588318,0.9670708775520325
1751620580980288000,10.1102880859375,0.055286407470703125,0.07858702540397644,0.08121500164270401
1751620580999111400,10.129111328125,-0.05359458923339844,0.06532053649425507,-0.5540759563446045
1751620581017935000,10.14793505859375,-0.0067844390869140625,-0.034877169877290726,-0.9155510067939758
1751620581036758500,10.166758544921874,-0.0026836395263671875,0.061335425823926926,-0.47915196418762207
1751620581055582000,10.18558203125,-0.06853294372558594,0.2846636474132538,-0.19139137864112854
1751620581074405400,10.2044052734375,-0.01637554168701172,0.16343586146831512,-0.1836988776922226
1751620581093229000,10.22322900390625,-0.03057384490966797,0.028830617666244507,0.07153724879026413
1751620581112052500,10.242052490234375,-0.03049945831298828,-0.05976445600390434,0.19307266175746918
1751620581130876000,10.2608759765625,0.002758026123046875,0.12915164232254028,0.13292410969734192
1751620581149699600,10.279699462890624,-0.03033161163330078,0.40659740567207336,0.10448843240737915
1751620581168523000,10.29852294921875,-0.0016193389892578125,0.34647226333618164,-0.19683143496513367
1751620581187346400,10.317346435546876,0.04105091094970703,0.18276146054267883,-0.4245731830596924
1751620581206169900,10.336169921875,0.031244277954101562,0.11862865090370178,-0.08878213167190552
1751620581224993500,10.35499365234375,0.013269424438476562,0.14686359465122223,-0.031102977693080902
1751620581243817000,10.37381689453125,0.008511543273925781,-0.13910141587257385,-0.0966857299208641
1751620581262640400,10.392640380859374,0.0413970947265625,-0.19459176063537598,0.3009750247001648
1751620581281464000,10.411464111328126,-0.02993011474609375,0.14414286613464355,0.26066991686820984
1751620581300287500,10.43028759765625,-0.03448963165283203,0.19522929191589355,-0.3020223379135132
1751620581319111000,10.44911083984375,-0.010830879211425781,0.016823962330818176,-0.44686564803123474
1751620581337934300,10.467934326171875,-0.034941673278808594,-0.030060969293117523,-0.13853269815444946
1751620581356758000,10.486758056640625,-0.015669822692871094,-0.1503175050020218,0.11757547408342361
1751620581375581400,10.50558154296875,-0.0062103271484375,0.0059928372502326965,0.24783435463905334
1751620581394404900,10.52440478515625,-0.010697364807128906,0.2665737569332123,0.21754097938537598
1751620581413228500,10.543228515625,0.008810043334960938,0.04816071689128876,-0.2233046442270279
1751620581432052000,10.562052001953125,0.02781963348388672,0.15991878509521484,-0.5942429900169373
1751620581450875400,10.58087548828125,0.04188060760498047,0.10773570090532303,-0.36837393045425415
1751620581469699000,10.599698974609375,0.02285003662109375,-0.04493170231580734,0.07161948084831238
1751620581488522500,10.6185224609375,0.017935752868652344,-0.2055492252111435,0.1236320286989212
1751620581507346000,10.637345947265626,-0.02007007598876953,0.04183754324913025,0.17011404037475586
1751620581526169300,10.65616943359375,-0.03351402282714844,0.45521724224090576,-0.12448456883430481
1751620581544993000,10.674992919921875,-0.028479576110839844,0.19697478413581848,-0.5367134809494019
1751620581563816400,10.69381640625,-0.02863788604736328,0.09367355704307556,-0.5422312021255493
1751620581582639900,10.712639892578125,-0.024008750915527344,-0.012832552194595337,-0.03790070861577988
1751620581601463600,10.731463623046874,-0.014673233032226562,-0.10463055223226547,0.30803677439689636
1751620581620287000,10.750286865234376,-0.014586448669433594,0.1421927511692047,0.1940363645553589
1751620581639110400,10.7691103515625,0.014048576354980469,0.1471334844827652,0.0002599768340587616
1751620581657933800,10.787933837890625,0.02856159210205078,0.058240488171577454,-0.10180764645338058
1751620581676757500,10.806757568359375,0.019143104553222656,-0.06854297965765,0.242254376411438
1751620581695581000,10.825580810546874,0.019211769104003906,-0.009068414568901062,0.18637575209140778
1751620581714404400,10.844404296875,0.023987770080566406,0.1269153505563736,0.06319577991962433
1751620581733228000,10.86322802734375,0.009548187255859375,0.0615515261888504,-0.04207228869199753
1751620581752051500,10.882051513671875,-0.014063835144042969,-0.060743167996406555,-0.03205374628305435
1751620581770875000,10.900875,-0.013990402221679688,-0.1418757140636444,0.06598977744579315
1751620581789698600,10.919698486328125,-0.04709815979003906,0.0919894427061081,-0.0740344226360321
1751620581808522000,10.93852197265625,-0.0234222412109375,0.18694742023944855,-0.29056864976882935
1751620581827345400,10.957345458984374,-0.023591041564941406,0.2085951715707779,-0.18384303152561188
1751620581846168800,10.9761689453125,-0.00446319580078125,0.05655747652053833,-0.09815338253974915
1751620581864992500,10.994992431640625,0.005013465881347656,-0.13571284711360931,0.12391574680805206
1751620581883816000,11.01381591796875,0.019353866577148438,-0.028380893170833588,0.17178793251514435
1751620581902639400,11.032639404296875,0.024123191833496094,0.2711138427257538,-0.008413553237915039
1751620581921463000,11.051463134765624,0.03846263885498047,0.1920267641544342,-0.17391511797904968
1751620581940286500,11.070286376953124,0.014757156372070312,-0.23362207412719727,0.09347499907016754
1751620581959110000,11.08910986328125,0.037876129150390625,-0.41967707872390747,0.2511347830295563
1751620581977933600,11.10793359375,0.008871078491210938,-0.28863656520843506,0.38262373208999634
1751620581996757000,11.126757080078125,0.012751579284667969,-0.29743802547454834,0.5201430320739746
1751620582015580400,11.145580322265625,-0.5573844909667969,0.3085530996322632,0.20749959349632263
1751620582034404000,11.164404052734374,-0.04323577880859375,0.7477071285247803,-0.733455240726471
1751620582053227500,11.1832275390625,0.25129222869873047,0.31742554903030396,-0.8420601487159729
1751620582072051000,11.202051025390626,0.1561594009399414,-0.06033647805452347,-0.10590576380491257
1751620582090874600,11.22087451171875,0.04731273651123047,0.13486884534358978,0.09633176773786545
1751620582109698000,11.239697998046875,0.00018215179443359375,0.4877808094024658,-0.04374141991138458
1751620582128521500,11.258521484375,0.009903907775878906,0.037692829966545105,0.06457896530628204
1751620582147345000,11.277344970703124,0.009889602661132812,-0.15902219712734222,0.0009102970361709595
1751620582166168600,11.29616845703125,0.061954498291015625,-0.0311288982629776,-0.18246755003929138
1751620582184992000,11.314991943359376,0.061553001403808594,0.2169009894132614,-0.21400082111358643
1751620582203815400,11.3338154296875,0.018655776977539062,0.0465480238199234,0.18321600556373596
1751620582222639000,11.35263916015625,0.004782676696777344,-0.10817302763462067,0.2836652100086212
1751620582241462500,11.371462646484375,-0.004944801330566406,-0.15562929213047028,0.11505423486232758
1751620582260286000,11.390285888671874,-0.02847576141357422,0.022622883319854736,-0.04676061123609543
1751620582279109600,11.409109619140626,-0.02840137481689453,0.11411803960800171,-0.20664164423942566
1751620582297933000,11.42793310546875,-0.018918991088867188,0.16136619448661804,-0.15674307942390442
1751620582316756500,11.446756591796875,-0.004962921142578125,0.30645328760147095,-0.35916560888290405
1751620582335580200,11.465580078125,-0.03359031677246094,0.1155170202255249,-0.15510675311088562
1751620582354403600,11.484403564453125,0.009706497192382812,-0.224700927734375,0.35477063059806824
1751620582373227000,11.50322705078125,0.08022308349609375,-0.4591708183288574,0.4694506525993347
1751620582392050700,11.52205078125,-0.0765838623046875,0.16113799810409546,0.13134481012821198
1751620582410874000,11.5408740234375,-0.01709461212158203,0.1078185886144638,-0.214302659034729
1751620582429697500,11.559697509765625,0.08241558074951172,-0.2456837296485901,-0.002293981611728668
1751620582448521000,11.57852099609375,0.02438640594482422,0.39475730061531067,-0.1421043574810028
1751620582467344600,11.5973447265625,-0.013758659362792969,0.45659178495407104,-0.15960350632667542
1751620582495580000,11.625579833984375,0.019700050354003906,0.11047922074794769,0.12123854458332062
1751620582514403300,11.6444033203125,0.029318809509277344,0.3090519309043884,-0.038111262023448944
1751620582533226800,11.663226806640624,0.010618209838867188,0.31398361921310425,0.719096302986145
1751620582552050400,11.682050537109374,0.020233154296875,-0.1302279233932495,0.5254541039466858
1751620582570873900,11.700873779296876,0.01071929931640625,-0.5031430721282959,0.12780752778053284
1751620582589697300,11.719697265625,-0.0037212371826171875,-0.28852659463882446,0.2619011402130127
1751620582608521000,11.73852099609375,-0.06029987335205078,0.2715475559234619,-0.24240469932556152
1751620582627344400,11.757344482421875,-0.022003173828125,0.08269080519676208,-0.03888269513845444
1751620582646167800,11.776167724609374,-0.06008720397949219,-0.28194308280944824,0.3436950445175171
1751620582664991500,11.794991455078126,-0.09819984436035156,-0.1482536941766739,0.39708444476127625
1751620582683815000,11.81381494140625,0.05311775207519531,0.2937879264354706,-0.8333622217178345
1751620582702638300,11.832638427734375,0.04349994659423828,0.7159386277198792,-1.5450923442840576
1751620582721462000,11.8514619140625,0.06685256958007812,-0.10655473172664642,-0.27166563272476196
1751620582740285400,11.870285400390625,0.061133384704589844,0.03212901949882507,-0.028229989111423492
1751620582759108900,11.88910888671875,-0.06582164764404297,-0.013813003897666931,0.0985938012599945
1751620582777932500,11.9079326171875,0.01663684844970703,-0.015863999724388123,0.03838731348514557
1751620582796756000,11.926755859375,-0.04998302459716797,-0.02893747389316559,0.06363450735807419
1751620582815579400,11.945579345703125,0.08773517608642578,0.06741620600223541,0.004120297729969025
1751620582834403000,11.964403076171875,-0.031640052795410156,0.003797575831413269,-0.006875783205032349
1751620582853226500,11.9832265625,-0.026833534240722656,0.04045158624649048,-0.02677353471517563
1751620582872050000,12.0020498046875,-0.05983161926269531,0.13083888590335846,0.3765042722225189
1751620582890873600,12.02087353515625,-0.012605667114257812,-0.12281307578086853,0.36165329813957214
1751620582909697000,12.039697021484375,-0.022240638732910156,0.012085065245628357,0.1853049397468567
1751620582928520400,12.0585205078125,-0.008105278015136719,0.09081852436065674,-0.010301031172275543
1751620582956755700,12.086755615234376,-0.031250953674316406,0.1275591254234314,-0.11602497100830078
1751620582975579100,12.1055791015625,-0.013047218322753906,0.08594238758087158,0.13252177834510803
1751620582994402800,12.12440283203125,-0.04133129119873047,-0.11821255832910538,0.17274868488311768
1751620583013226200,12.143226318359375,-0.012837409973144531,-0.22149020433425903,-0.08151905983686447
1751620583032049700,12.162049560546874,-0.008190155029296875,-0.01373147964477539,-0.13282597064971924
1751620583050873300,12.180873291015626,-0.008631706237792969,0.19129063189029694,-0.3875962197780609
1751620583069696800,12.19969677734375,-0.008585929870605469,0.04975661635398865,-0.18262015283107758
1751620583088520200,12.218520263671875,0.015377998352050781,0.03467103838920593,0.02898234874010086
1751620583107344000,12.23734375,0.024898529052734375,-0.07807464897632599,0.4946255683898926
1751620583126167300,12.256167236328125,0.025081634521484375,-0.22916346788406372,0.7763640880584717
1751620583144990700,12.27499072265625,-0.007760047912597656,-0.295404314994812,0.8903453946113586
1751620583163814400,12.293814453125,-0.012137413024902344,-0.010166555643081665,0.3273376226425171
1751620583182637800,12.312637939453126,-0.0069484710693359375,0.33956390619277954,-0.6672390103340149
1751620583201461200,12.331461181640625,-0.016755104064941406,0.3965342044830322,-1.0915230512619019
1751620583220285000,12.350284912109375,-0.016908645629882812,0.1590631604194641,-0.8764288425445557
1751620583239108400,12.3691083984375,-0.01721954345703125,-0.05532863736152649,-0.1892697513103485
1751620583257931800,12.387931884765624,-0.017206192016601562,-0.11473232507705688,0.3631601631641388
1751620583276755500,12.40675537109375,0.01605701446533203,-0.19843845069408417,0.626819908618927
1751620583295579000,12.425578857421876,0.0015544891357421875,-0.07024765014648438,0.5224518179893494
1751620583314402300,12.44440234375,0.01592731475830078,-0.08168931305408478,0.1366715133190155
1751620583333226000,12.46322607421875,0.01626110076904297,0.046787768602371216,-0.3200707733631134
1751620583352049400,12.48204931640625,0.03980255126953125,0.07717959582805634,-0.5143812894821167
1751620583370872800,12.500872802734374,0.02546215057373047,0.1970590353012085,-0.2819560170173645
1751620583389696500,12.519696533203126,-0.007775306701660156,0.1479378193616867,0.2915799915790558
1751620583408520000,12.53852001953125,-0.007447242736816406,-0.04327972233295441,0.5236819982528687
1751620583427343400,12.55734326171875,-0.026032447814941406,-0.07488185167312622,0.3666248321533203
1751620583446167000,12.5761669921875,-0.021097183227539062,0.03489293158054352,-0.0652829110622406
1751620583464990500,12.594990478515625,-0.030753135681152344,0.16400137543678284,-0.4167982339859009
1751620583483814000,12.61381396484375,-0.021030426025390625,0.2005140632390976,-0.3427043557167053
1751620583502637300,12.63263720703125,-0.0070056915283203125,-0.015030592679977417,-0.05410603806376457
1751620583521461000,12.6514609375,-0.0071735382080078125,-0.20986583828926086,0.06805965304374695
1751620583540284400,12.670284423828125,0.016119003295898438,-0.14592769742012024,-0.029025912284851074
1751620583559107800,12.68910791015625,0.020836830139160156,-0.024028465151786804,-0.07476423680782318
1751620583577931500,12.707931640625,0.0352020263671875,0.08416011929512024,-0.17837826907634735
1751620583596755000,12.7267548828125,0.030425071716308594,0.1275804042816162,-0.22277066111564636
1751620583615578400,12.745578369140626,0.025409698486328125,0.11426521837711334,-0.21102260053157806
1751620583634402000,12.764402099609375,0.0015783309936523438,0.008035317063331604,-0.1063385009765625
1751620583653225500,12.7832255859375,-0.003276824951171875,-0.14527477324008942,0.15993595123291016
1751620583672049000,12.802048828125,-0.031729698181152344,-0.18204186856746674,0.2892966568470001
1751620583690872600,12.82087255859375,-0.02205944061279297,-0.049511685967445374,0.1495884507894516
1751620583709696000,12.839696044921874,-0.031456947326660156,0.18547724187374115,-0.12523722648620605
1751620583728519400,12.85851953125,-0.031210899353027344,0.1560169905424118,-0.19942249357700348
1751620583747343000,12.877343017578125,-0.0120697021484375,0.15557900071144104,-0.2153371274471283
1751620583766166500,12.89616650390625,0.011533737182617188,0.07596062123775482,-0.2164795994758606
1751620583784990000,12.914989990234375,0.01624011993408203,0.09737488627433777,-0.2600170969963074
1751620583803813600,12.933813720703125,0.02086925506591797,0.0660662055015564,-0.10160361230373383
1751620583822637000,12.952636962890624,0.03985786437988281,0.10174691677093506,-0.03759990260004997
1751620583841460500,12.97146044921875,0.011393547058105469,0.11234581470489502,-0.04556659609079361
1751620583860284200,12.9902841796875,0.011714935302734375,0.0904574990272522,-0.010980486869812012
1751620583879107600,13.009107666015625,0.006927490234375,0.03181678056716919,0.05485963821411133
1751620583897931000,13.027930908203125,-0.0028009414672851562,-0.06708855926990509,0.10428651422262192
1751620583916754700,13.046754638671874,-0.017226219177246094,-0.11138322949409485,0.2462223619222641
1751620583935578000,13.065578125,-0.021999359130859375,-0.1773824691772461,0.29845350980758667
1751620583954401500,13.084401611328126,-0.022063255310058594,-0.128881573677063,0.24189208447933197
1751620583973225200,13.10322509765625,-0.026833534240722656,-0.021932214498519897,0.10766321420669556
1751620583992048600,13.122048583984375,0.006125450134277344,0.02575993537902832,0.034150563180446625
1751620584010872000,13.1408720703125,0.0012884140014648438,0.1333663910627365,-0.013802051544189453
1751620584029695700,13.15969580078125,0.006100654602050781,0.14262036979198456,0.01952095702290535
1751620584048519200,13.178519287109374,0.025342941284179688,0.05454610288143158,0.046232663094997406
1751620584067342600,13.197342529296876,0.02543926239013672,0.0014249682426452637,0.14249882102012634
1751620584086166300,13.216166259765625,0.025452613830566406,0.09582731127738953,0.01612887531518936
1751620584104989700,13.23498974609375,0.01119232177734375,0.19936710596084595,-0.016742099076509476
1751620584123813000,13.253813232421875,-0.0030670166015625,0.1361255645751953,-0.10409669578075409
1751620584142636800,13.27263671875,-0.012616157531738281,0.05755966901779175,-0.05349604785442352
1751620584161460200,13.291460205078126,-0.021928787231445312,0.04122254252433777,-0.06535384058952332
1751620584180283600,13.31028369140625,-0.02662372589111328,0.05896255373954773,0.030296973884105682
1751620584199107300,13.329107421875,-0.012654304504394531,0.12270301580429077,-0.025993645191192627
1751620584217930800,13.3479306640625,-0.017267227172851562,0.10466289520263672,-0.08459773659706116
1751620584236754200,13.366754150390625,-0.0029821395874023438,-0.02473011612892151,0.05472027510404587
1751620584255577900,13.385577880859374,0.011456489562988281,-0.10757201910018921,0.2766675651073456
1751620584274401300,13.4044013671875,0.04463386535644531,-0.07953037321567535,0.34483081102371216
1751620584293224700,13.423224609375,0.03005695343017578,-0.07104399800300598,0.29284924268722534
1751620584312048400,13.44204833984375,0.0255279541015625,-0.06881681084632874,0.31675946712493896
1751620584330871800,13.460871826171875,0.0017757415771484375,-0.13152578473091125,0.06322500109672546
1751620584349695200,13.4796953125,0.030409812927246094,0.08205902576446533,-0.46156948804855347
1751620584368519000,13.498518798828124,-0.0031480789184570312,0.02306315302848816,-0.616706371307373
1751620584387342300,13.51734228515625,-0.012776374816894531,-0.09386387467384338,-0.22343268990516663
1751620584406165800,13.536165771484375,-0.036683082580566406,-0.0893239676952362,0.23419100046157837
1751620584424989400,13.554989501953125,-0.03172016143798828,-0.07663501799106598,0.30499500036239624
1751620584443812900,13.573812744140625,-0.01735210418701172,0.11336833238601685,-0.12818317115306854
1751620584462636300,13.59263623046875,0.015601158142089844,0.33851656317710876,-0.49846598505973816
1751620584481460000,13.6114599609375,-0.008297920227050781,0.2625071406364441,-0.6092706322669983
1751620584500283400,13.630283447265626,0.020195960998535156,0.10084912180900574,-0.3892691731452942
1751620584519106800,13.64910693359375,0.015199661254882812,-0.11613929271697998,0.15083631873130798
1751620584537930500,13.667930419921875,0.02447986602783203,-0.23680634796619415,0.35478681325912476
1751620584556754000,13.68675390625,0.02898883819580078,-0.07361903786659241,0.11370590329170227
1751620584575577300,13.705577392578125,0.014680862426757812,0.12558093667030334,-0.11485393345355988
1751620584594401000,13.724401123046874,0.00037479400634765625,0.18246787786483765,-0.1439404934644699
1751620584613224400,13.743224365234376,-0.0044536590576171875,0.10305935144424438,0.04856977239251137
1751620584632047900,13.7620478515625,-0.03759574890136719,-0.07595761120319366,0.2127968668937683
1751620584650871600,13.78087158203125,-0.03260612487792969,0.026305019855499268,0.03946400061249733
1751620584669695000,13.799695068359375,-0.013815879821777344,0.18486908078193665,-0.09060577303171158
1751620584688518400,13.818518310546875,-0.042313575744628906,0.1788182556629181,0.010577145963907242
1751620584707342000,13.837342041015624,-0.013392448425292969,0.12252816557884216,0.2765659987926483
1751620584726165500,13.85616552734375,-0.003940582275390625,-0.12708386778831482,0.27807700634002686
1751620584744989000,13.874989013671875,0.02002716064453125,-0.09847600758075714,0.021659523248672485
1751620584763812600,13.8938125,0.0341796875,0.021829813718795776,-0.27199724316596985
1751620584782636000,13.912635986328125,0.02017688751220703,0.08279907703399658,-0.2721661925315857
1751620584801459500,13.93145947265625,0.024753570556640625,0.18752390146255493,-0.11837521195411682
1751620584820283100,13.950283203125,0.0010967254638671875,0.08364158868789673,0.12876537442207336
1751620584839106600,13.9691064453125,0.010380744934082031,-0.007814884185791016,0.07294120639562607
1751620584857930000,13.987929931640625,-0.02283954620361328,0.1474035382270813,-0.181380957365036
1751620584876753700,14.006753662109375,-0.022726058959960938,0.11799415946006775,-0.16498395800590515
1751620584895577000,14.0255771484375,-0.01806640625,-0.07634097337722778,-0.07012017071247101
1751620584914400500,14.044400390625,-0.01355743408203125,-0.12457247078418732,-0.08618200570344925
1751620584933224200,14.06322412109375,-0.018373489379882812,0.04804721474647522,-0.3070531189441681
1751620584952047600,14.082047607421876,0.00034427642822265625,0.1398611068725586,-0.39455151557922363
1751620584970871000,14.10087109375,0.00958251953125,0.14026734232902527,-0.44174739718437195
1751620584989694700,14.11969482421875,0.02362346649169922,0.005445122718811035,0.028173906728625298
1751620585008518100,14.13851806640625,0.0189971923828125,-0.004227429628372192,0.008578797802329063
1751620585027341600,14.157341552734374,0.023942947387695312,0.028475075960159302,0.014145555905997753
1751620585046165200,14.176165283203124,0.0286407470703125,0.03224307298660278,0.032688822597265244
1751620585064988700,14.19498876953125,0.014435768127441406,0.00812104344367981,0.027478070929646492
1751620585083812000,14.21381201171875,-0.009183883666992188,0.003102242946624756,0.05506422743201256
1751620585102635800,14.2326357421875,-0.004412651062011719,0.002684086561203003,0.12418944388628006
1751620585121459200,14.251459228515625,-0.03338623046875,-0.8512810468673706,2.416133165359497
1751620585140282600,14.27028271484375,-0.05729484558105469,0.14974865317344666,0.8026090264320374
1751620585159106300,14.289106201171874,-0.009351730346679688,0.45868992805480957,-0.34284543991088867
1751620585177929700,14.3079296875,-0.009364128112792969,0.5185383558273315,-1.3209710121154785
1751620585196753200,14.326753173828125,0.009731292724609375,0.2159229815006256,-0.9975330829620361
1751620585215576800,14.345576904296875,0.023956298828125,0.2344067394733429,-0.9763667583465576
1751620585234400300,14.364400146484375,0.023920059204101562,-0.004627138376235962,-0.12765353918075562
1751620585253223700,14.3832236328125,0.019097328186035156,-0.08994214236736298,-0.07524614036083221
1751620585272047400,14.40204736328125,0.019062042236328125,-0.0889996737241745,-0.3041006326675415
1751620585290870800,14.420870849609376,0.004730224609375,-0.2310519814491272,0.05982193350791931
1751620585309694200,14.439694091796875,-0.00005626678466796875,-0.2008964866399765,0.3082409203052521
1751620585328518000,14.458517822265625,-0.019176483154296875,0.03874850273132324,0.09335283935070038
1751620585347341300,14.47734130859375,-0.028738021850585938,0.038847893476486206,0.10348113626241684
1751620585366164700,14.496164794921874,-0.03829002380371094,-0.032430678606033325,0.1705395132303238
1751620585384988400,14.514988525390624,-0.028753280639648438,0.010907202959060669,-0.1630273014307022
1751620585403811800,14.533811767578126,-0.019195556640625,-0.012673407793045044,-0.1563771665096283
1751620585422635300,14.55263525390625,-0.000118255615234375,-0.045490264892578125,-0.07352538406848907
1751620585441459000,14.571458984375,-0.0001354217529296875,-0.11622083187103271,-0.015256579965353012
1751620585460282400,14.590282470703125,0.018987655639648438,-0.04817958176136017,-0.033416878432035446
1751620585479105800,14.609105712890624,0.02851390838623047,0.08623507618904114,-0.2041911482810974
1751620585497929500,14.627929443359376,0.03804588317871094,0.09178310632705688,-0.17079201340675354
1751620585516753000,14.6467529296875,0.01412200927734375,0.08708065748214722,-0.10707226395606995
1751620585535576300,14.665576416015625,0.03324604034423828,0.10146751999855042,-0.07206694036722183
1751620585554400000,14.68439990234375,0.023545265197753906,0.04571649432182312,0.00011602416634559631
1751620585573223400,14.703223388671875,-0.0290985107421875,-0.033291757106781006,0.11444147676229477
1751620585592046800,14.722046875,-0.03349494934082031,-0.058948248624801636,0.20336739718914032
1751620585610870500,14.74087060546875,-0.02855968475341797,0.041586339473724365,-0.01187121495604515
1751620585629694000,14.75969384765625,-0.023714065551757812,0.1329975724220276,-0.023134548217058182
1751620585648517400,14.778517333984375,-0.02811717987060547,0.11385998129844666,0.015265624970197678
1751620585667340800,14.7973408203125,-0.0041255950927734375,-0.01813700795173645,0.1121968924999237
1751620585686164500,14.81616455078125,0.02335643768310547,-0.04388055205345154,-0.12952692806720734
1751620585704988000,14.83498779296875,0.03736591339111328,0.05323439836502075,-0.16071894764900208
1751620585723811600,14.8538115234375,0.04651355743408203,0.1194920539855957,-0.24837225675582886
1751620585742635000,14.872635009765625,0.026865005493164062,0.16101467609405518,-0.18702472746372223
1751620585761458400,14.89145849609375,-0.010685920715332031,0.10106468200683594,-0.07526981085538864
1751620585780282000,14.9102822265625,-0.014723777770996094,0.045435577630996704,0.002697572112083435
1751620585799105500,14.92910546875,-0.0247802734375,-0.024750858545303345,-0.10417098551988602
1751620585817929000,14.947928955078124,-0.010498046875,-0.01800486445426941,-0.03334873914718628
1751620585836752600,14.966752685546876,-0.015193939208984375,0.039122432470321655,-0.04222710430622101
1751620585855576000,14.985576171875,-0.015344619750976562,0.03338298201560974,0.009013819508254528
1751620585874399500,15.0043994140625,-0.019962310791015625,0.042310476303100586,0.011002114042639732
1751620585893223200,15.02322314453125,-0.010229110717773438,0.033085405826568604,-0.09612680226564407
1751620585912046600,15.042046630859375,0.0039539337158203125,0.1129004955291748,-0.30762141942977905
1751620585930870000,15.0608701171875,0.0272064208984375,0.1159852147102356,-0.1349816769361496
1751620585949693700,15.079693603515626,-0.005972862243652344,-0.021413564682006836,-0.08841906487941742
1751620585968517000,15.09851708984375,0.03223896026611328,0.036233991384506226,-0.08978290855884552
1751620585987340500,15.117340576171875,0.018209457397460938,0.03620857000350952,-0.015496119856834412
1751620586006164200,15.136164306640625,0.022993087768554688,0.017249077558517456,0.08277291804552078
1751620586024987600,15.154987548828124,0.003772735595703125,0.06897202134132385,0.07166610658168793
1751620586043811000,15.17381103515625,-0.010184288024902344,0.10987657308578491,0.0463847778737545
1751620586062634500,15.192634521484376,-0.029234886169433594,0.07447752356529236,0.046965084969997406
1751620586081458200,15.211458251953125,-0.019657135009765625,0.030857086181640625,-0.00351922120898962
1751620586100281600,15.230281494140625,-0.01495361328125,-0.03455516695976257,-0.0663922131061554
1751620586119105000,15.24910498046875,-0.029405593872070312,0.08483007550239563,-0.1982240527868271
1751620586137928700,15.2679287109375,-0.0008573532104492188,0.026804447174072266,0.057300638407468796
1751620586156752100,15.286752197265624,-0.00064849853515625,-0.014267981052398682,0.10679067671298981
1751620586175575800,15.305575927734376,0.008881568908691406,-0.05417875945568085,0.1497732698917389
1751620586194399200,15.324399169921875,-0.0010623931884765625,0.020711243152618408,-0.030107548460364342
1751620586213222700,15.34322265625,0.04644584655761719,0.059547632932662964,-0.08709172904491425
1751620586232046300,15.36204638671875,0.031829833984375,0.0455264151096344,-0.06638526916503906
1751620586250869800,15.380869873046874,-0.006465911865234375,-0.032673463225364685,0.05938201770186424
1751620586269693200,15.399693115234374,0.00301361083984375,-0.029001161456108093,0.02226169966161251
1751620586288516900,15.418516845703126,-0.025449752807617188,0.006656378507614136,0.113522969186306
1751620586307340300,15.43734033203125,-0.0064563751220703125,0.09217634797096252,-0.15163064002990723
1751620586326163700,15.456163818359375,0.0022249221801757812,0.12415120005607605,-0.2161431461572647
1751620586344987400,15.4749873046875,-0.18114185333251953,0.16504919528961182,-0.08727478981018066
1751620586363810800,15.493810791015624,-0.025008201599121094,0.0563414990901947,-0.33122360706329346
1751620586382634200,15.51263427734375,0.0029420852661132812,0.06005507707595825,-0.2597235143184662
1751620586401458000,15.5314580078125,0.012630462646484375,0.05416741967201233,-0.05912023410201073
1751620586420281300,15.55028125,0.036205291748046875,0.08132931590080261,0.009618405252695084
1751620586439104800,15.569104736328125,0.021979331970214844,0.07959035038948059,0.01580314338207245
1751620586457928400,15.587928466796875,0.022103309631347656,0.04940909147262573,0.016462132334709167
1751620586476752000,15.606751953125,0.012723922729492188,0.030275702476501465,-0.03377971798181534
1751620586504987100,15.634987060546875,-0.0062198638916015625,-0.016192972660064697,0.04390650987625122
1751620586523810600,15.653810546875,0.007763862609863281,0.023301631212234497,0.028911348432302475
1751620586542634000,15.672634033203124,0.017202377319335938,-0.037083327770233154,-0.009373582899570465
1751620586561457700,15.691457763671876,0.040488243103027344,-0.015489012002944946,-0.10337308794260025
1751620586580281000,15.710281005859375,0.025791168212890625,-0.03109884262084961,-0.030113331973552704
1751620586599104500,15.7291044921875,0.0022792816162109375,-0.11203306913375854,0.14094513654708862
1751620586617928200,15.74792822265625,-0.021188735961914062,-0.08853365480899811,0.3431530296802521
1751620586636751600,15.766751708984375,-0.02043914794921875,-0.05833420157432556,0.3004729151725769
1751620586655575000,15.785574951171874,0.007580757141113281,0.15504029393196106,-0.162522092461586
1751620586674398700,15.804398681640626,-0.0018873214721679688,0.24444639682769775,-0.3107641935348511
1751620586693222100,15.82322216796875,-0.020768165588378906,0.260497510433197,-0.17457735538482666
1751620586712045600,15.842045654296875,-0.0160369873046875,0.09435227513313293,0.01769132912158966
1751620586730869200,15.860869140625,-0.016318321228027344,0.03166931867599487,0.0841229185461998
1751620586749692700,15.879692626953124,0.002620697021484375,-0.028877437114715576,0.011858124285936356
1751620586768516000,15.89851611328125,0.016538619995117188,-0.017434686422348022,0.0395379364490509
1751620586787339800,15.91733984375,0.02105712890625,0.01301160454750061,-0.12080097943544388
1751620586806163200,15.9361630859375,0.0355377197265625,0.037332892417907715,-0.2146708369255066
1751620586824986600,15.954986572265625,0.025850296020507812,0.061289191246032715,-0.1242130696773529
1751620586843810300,15.973810302734375,0.0302276611328125,-0.009170591831207275,0.049899205565452576
1751620586862633700,15.9926337890625,0.02393341064453125,-0.08603668212890625,0.13260304927825928
1751620586881457200,16.01145703125,-0.032738685607910156,-0.045216113328933716,-0.10449822247028351
1751620586900280800,16.03028076171875,-0.05112171173095703,0.09882733225822449,-0.22231383621692657
1751620586919104300,16.049104248046874,0.0018453598022460938,0.03105524182319641,-0.06405490636825562
1751620586937927700,16.067927734375,-0.017380714416503906,0.017529189586639404,-0.0635376051068306
1751620586956751400,16.08675146484375,-0.031337738037109375,0.031930357217788696,0.05657945200800896
1751620586975574800,16.10557470703125,-0.011998176574707031,0.07800519466400146,-0.08303423970937729
1751620586994398200,16.124398193359376,0.025786399841308594,0.03497543931007385,-0.04445767402648926
1751620587013222000,16.143221923828126,0.006545066833496094,0.0023769736289978027,-0.050604745745658875
1751620587032045300,16.16204541015625,0.011492729187011719,-0.01982758939266205,-0.01662594825029373
1751620587050868700,16.18086865234375,0.016259193420410156,0.0016697347164154053,0.10353069752454758
1751620587069692400,16.1996923828125,0.02572154998779297,0.059906214475631714,0.1300664246082306
1751620587088515800,16.218515869140624,0.0019826889038085938,0.027927905321121216,0.2763068974018097
1751620587107339300,16.23733935546875,0.0019998550415039062,0.025250673294067383,0.13687333464622498
1751620587126163000,16.256162841796876,-0.030991554260253906,0.07822337746620178,0.09766578674316406
1751620587144986400,16.274986328125,-0.0214080810546875,0.14378803968429565,0.08700740337371826
1751620587163809800,16.293809814453127,-0.035828590393066406,0.1463218331336975,0.0487927608191967
1751620587182633500,16.312633544921876,-0.035582542419433594,0.060609132051467896,-0.13348603248596191
1751620587201457000,16.331456787109374,-0.021060943603515625,-0.032143741846084595,-0.06248946487903595
1751620587220280300,16.3502802734375,-0.006770133972167969,0.0973881185054779,-0.07189872115850449
1751620587239104000,16.36910400390625,0.012310981750488281,0.1851036548614502,0.09965098649263382
1751620587257927400,16.387927490234375,0.007534027099609375,0.16744574904441833,0.04509689658880234
1751620587276750800,16.406750732421877,0.054851531982421875,0.13717052340507507,0.006183534860610962
1751620587295574500,16.425574462890626,-0.015816688537597656,0.09372347593307495,-0.0645306408405304
1751620587314398000,16.44439794921875,0.03125286102294922,0.1126554012298584,-0.2758217453956604
1751620587333221400,16.463221435546874,0.04604530334472656,0.04987740516662598,-0.34768304228782654
1751620587352045000,16.482045166015624,-0.049767494201660156,0.027738481760025024,-0.314456969499588
1751620587370868500,16.500868408203125,-0.006758689880371094,-0.008190453052520752,-0.14548416435718536
1751620587389692000,16.51969189453125,-0.045027732849121094,-0.010104507207870483,0.07833660393953323
1751620587408515600,16.538515625,0.011689186096191406,0.02578572928905487,0.03850492089986801
1751620587427339000,16.557339111328126,-0.021759033203125,-0.033183157444000244,0.009720392525196075
1751620587446162400,16.576162353515624,-0.012185096740722656,0.048434704542160034,-0.1226511001586914
1751620587464985900,16.59498583984375,0.0015163421630859375,0.015470221638679504,0.07401645183563232
1751620587483809500,16.6138095703125,0.011313438415527344,0.030671507120132446,-0.07821571081876755
1751620587502633000,16.632633056640625,0.03036212921142578,0.09155572950839996,-0.14585351943969727
1751620587521456400,16.651456298828126,0.025643348693847656,0.04219120740890503,0.008825495839118958
1751620587540280000,16.670280029296876,0.03511333465576172,-0.018348976969718933,-0.02475537359714508
1751620587559103500,16.689103515625,0.02082538604736328,0.020570144057273865,-0.13573119044303894
1751620587577927000,16.707927001953124,0.011473655700683594,0.04959200322628021,-0.19789046049118042
1751620587596750600,16.72675048828125,0.020551681518554688,0.039967432618141174,-0.14604252576828003
1751620587615574000,16.745573974609375,-0.022352218627929688,0.08187560737133026,-0.132048100233078
1751620587634397400,16.7643974609375,-0.012846946716308594,0.014352574944496155,-0.010093748569488525
1751620587653221000,16.78322119140625,-0.012991905212402344,0.005004256963729858,0.13473668694496155
1751620587672044500,16.80204443359375,-0.01776123046875,-0.046032801270484924,0.205097496509552
1751620587690868000,16.820867919921874,-0.008183479309082031,0.031380847096443176,0.058266669511795044
1751620587709691600,16.839691650390623,0.005859375,0.008423224091529846,-0.03716893494129181
1751620587728515000,16.85851513671875,0.0010747909545898438,-0.009396985173225403,-0.08783354610204697
1751620587747338500,16.87733837890625,0.038890838623046875,0.024786412715911865,-0.10380737483501434
1751620587766162200,16.896162109375,0.01992321014404297,-0.03053334355354309,0.07637502253055573
1751620587784985600,16.914985595703126,0.02456188201904297,-0.014631316065788269,0.08776631951332092
1751620587803809000,16.93380908203125,0.024415016174316406,-0.017223596572875977,-0.06040392816066742
1751620587822632700,16.9526328125,-0.0041255950927734375,0.05059915781021118,-0.05878531187772751
1751620587841456000,16.9714560546875,-0.01816272735595703,0.11612145602703094,-0.02928570657968521
1751620587860279600,16.990279541015624,-0.023009300231933594,0.13369573652744293,-0.055399343371391296
1751620587879103200,17.009103271484374,-0.027862548828125,0.039369672536849976,-0.039277225732803345
1751620587897926700,17.0279267578125,-0.02294158935546875,0.003320157527923584,-0.020899906754493713
1751620587916750000,17.04675,-0.02729034423828125,0.032707467675209045,0.033613719046115875
1751620587935573800,17.06557373046875,-0.008320808410644531,-0.0039901286363601685,0.0791705846786499
1751620587954397200,17.084397216796877,0.01568317413330078,0.021527335047721863,0.03929336369037628
1751620587973220600,17.103220703125,0.020059585571289062,0.06472963094711304,0.004145503044128418
1751620587992044000,17.1220439453125,0.024764060974121094,0.07348558306694031,-0.038998112082481384
1751620588010867700,17.14086767578125,0.029153823852539062,0.08187201619148254,-0.02911520004272461
1751620588029691100,17.159691162109375,0.01970195770263672,0.04267661273479462,0.024432756006717682
1751620588048514600,17.1785146484375,0.01950836181640625,0.04250514507293701,0.04324715584516525
1751620588067338200,17.197338134765626,-0.0041294097900390625,0.03742440044879913,0.04251384735107422
1751620588086161700,17.21616162109375,-0.023067474365234375,0.10718657076358795,-0.009454227983951569
1751620588104985000,17.234985107421874,-0.027736663818359375,0.09042136371135712,-0.06945627927780151
1751620588123808800,17.253808837890624,-0.02307891845703125,0.06512399017810822,-0.08530443161725998
1751620588142632200,17.272632080078125,-0.008920669555664062,0.017133504152297974,-0.0673239454627037
1751620588170867500,17.300867431640626,-0.004027366638183594,0.059938251972198486,-0.08739843964576721
1751620588189691000,17.31969091796875,-0.022731781005859375,0.1009533554315567,-0.07435479760169983
1751620588208514600,17.3385146484375,-0.01806926727294922,0.103021040558815,-0.08942988514900208
1751620588227338000,17.357337890625,-0.027611732482910156,0.016609787940979004,0.0727657899260521
1751620588246161400,17.376161376953124,-0.0184173583984375,-0.010679259896278381,0.0005172938108444214
1751620588264984800,17.39498486328125,-0.0185546875,-0.01833079755306244,0.052049361169338226
1751620588283808500,17.41380859375,-0.013813972473144531,0.03054022789001465,-0.0007644444704055786
1751620588302632000,17.4326318359375,-0.004268646240234375,0.1100069135427475,-0.06993156671524048
1751620588321455400,17.451455322265623,0.009908676147460938,0.0887056291103363,-0.09386971592903137
1751620588340279000,17.470279052734377,0.02416706085205078,0.10069909691810608,-0.09073325991630554
1751620588359102500,17.4891025390625,0.03347492218017578,0.0606522262096405,-0.04996916651725769
1751620588377926000,17.50792578125,0.024038314819335938,0.008018448948860168,0.10077384114265442
1751620588396749600,17.52674951171875,0.005115509033203125,-0.02864539623260498,0.1539413034915924
1751620588415573000,17.545572998046875,0.0050907135009765625,0.005638971924781799,0.02860265225172043
1751620588434396400,17.564396484375,-0.004588127136230469,0.01113709807395935,-0.003324657678604126
1751620588453220000,17.58322021484375,-0.01913166046142578,-0.03455090522766113,0.0956772118806839
1751620588472043500,17.60204345703125,-0.02872753143310547,-0.10175806283950806,0.2608376443386078
1751620588490867000,17.620866943359374,-0.03323554992675781,-0.11487305164337158,0.09835004806518555
1751620588509690600,17.639690673828124,-0.004734039306640625,-0.024615660309791565,-0.1525225043296814
1751620588528514000,17.65851416015625,-0.023446083068847656,0.005916029214859009,-0.07650962471961975
1751620588547337500,17.67733740234375,-0.004429817199707031,0.04514162242412567,-0.05942687392234802
1751620588566161200,17.6961611328125,0.0007085800170898438,0.06851828098297119,-0.07981914281845093
1751620588584984600,17.714984619140626,0.029203414916992188,0.07739858329296112,-0.06716099381446838
1751620588603808000,17.73380810546875,0.015107154846191406,0.057983189821243286,0.01517428457736969
1751620588622631400,17.75263134765625,0.019824981689453125,0.025715485215187073,0.09865209460258484
1751620588641455000,17.771455078125,0.005476951599121094,-0.038407161831855774,0.15114480257034302
1751620588660278500,17.790278564453125,-0.0085601806640625,-0.1610509157180786,0.15126635134220123
1751620588679102000,17.80910205078125,-0.022916793823242188,-0.20004728436470032,0.11309748888015747
1751620588697925600,17.827925537109376,0.00038433074951171875,-0.05097651481628418,-0.03509478271007538
1751620588716749000,17.8467490234375,-0.018898963928222656,0.009506076574325562,-0.043945878744125366
1751620588735572500,17.865572509765624,-0.01462554931640625,0.02665393054485321,0.037027567625045776
1751620588754396000,17.88439599609375,0.017763137817382812,0.01716838777065277,-0.03637814521789551
1751620588773219600,17.903219482421875,-0.06721305847167969,0.011553004384040833,0.014551997184753418
1751620588792043000,17.92204296875,0.02883148193359375,0.17588511109352112,-0.06610409170389175
1751620588810866400,17.940866455078126,0.024207115173339844,0.13392041623592377,-0.10695912688970566
1751620588829690000,17.959690185546876,0.009914398193359375,0.005227804183959961,0.03566819429397583
1751620588848513500,17.978513427734374,0.024084091186523438,-0.05775199830532074,0.1149640679359436
1751620588867337000,17.9973369140625,0.01910114288330078,-0.040043845772743225,0.08023450523614883
1751620588886160600,18.01616064453125,-0.004702568054199219,0.04300868511199951,-0.0017777159810066223
1751620588904984000,18.034984130859375,-0.014319419860839844,0.15584903955459595,-0.13250979781150818
1751620588923807500,18.053807373046876,-0.02856159210205078,0.25112733244895935,-0.18891644477844238
1751620588942631200,18.072631103515626,-0.04727363586425781,0.2583742141723633,-0.11305411159992218
1751620588961454600,18.09145458984375,-0.013903617858886719,0.23280858993530273,-0.10479240119457245
1751620588980278000,18.110278076171873,-0.0235443115234375,0.2316313534975052,-0.2146419733762741
1751620588999101700,18.129101806640627,-0.01868152618408203,0.14621210098266602,-0.18651428818702698
1751620589017925000,18.147925048828125,0.014668464660644531,0.114479660987854,-0.15833701193332672
1751620589036748500,18.16674853515625,0.019232749938964844,-0.018880978226661682,-0.05599212646484375
1751620589055572000,18.185572021484376,0.01927661895751953,-0.017094627022743225,-0.08759903907775879
1751620589074395600,18.204395751953125,0.024025917053222656,-0.006195396184921265,-0.09372064471244812
1751620589093219000,18.223218994140623,0.014662742614746094,0.02757161855697632,-0.04877164959907532
1751620589112042500,18.24204248046875,0.0005064010620117188,-0.0326555073261261,0.09243012219667435
1751620589130866200,18.2608662109375,-0.013418197631835938,-0.09582781791687012,0.21992039680480957
1751620589149689600,18.279689697265624,-0.018253326416015625,-0.10525722801685333,0.1471017450094223
1751620589168513000,18.298512939453126,-0.03234291076660156,-0.06792464852333069,0.10556720197200775
1751620589187336700,18.317336669921875,-0.018289566040039062,-0.09193113446235657,0.07847729325294495
1751620589206160100,18.33616015625,-0.013891220092773438,-0.16606548428535461,0.1315191090106964
1751620589224983600,18.354983642578127,-0.009575843811035156,-0.15779289603233337,0.0791013091802597
1751620589243807200,18.37380712890625,0.01850128173828125,-0.04716242849826813,0.00913555920124054
1751620589262630700,18.392630615234374,-0.010302543640136719,0.08750028908252716,-0.061381131410598755
1751620589281454000,18.4114541015625,0.01823902130126953,0.10522475838661194,-0.03660329431295395
1751620589300277800,18.43027783203125,0.027692794799804688,0.10403795540332794,-0.06494096666574478
1751620589319101200,18.44910107421875,0.02222156524658203,0.03044329583644867,-0.03360462933778763
1751620589337924600,18.467924560546876,-0.02425098419189453,0.10179103910923004,-0.19021840393543243
1751620589356748000,18.486748046875,0.018403053283691406,0.18860448896884918,-0.21130219101905823
1751620589375571700,18.50557177734375,-0.02951526641845703,0.05950544774532318,-0.06752675771713257
1751620589394395100,18.52439501953125,-0.024332046508789062,0.13857394456863403,-0.08774317800998688
1751620589413218600,18.543218505859375,-0.019594192504882812,0.21062245965003967,-0.1192496120929718
1751620589432042200,18.562042236328125,-0.02423381805419922,0.2381707727909088,-0.22308306396007538
1751620589450865700,18.58086572265625,-0.010052680969238281,0.22682926058769226,-0.17821387946605682
1751620589469689000,18.599689208984376,-0.029030799865722656,0.10846766829490662,-0.11642205715179443
1751620589488512800,18.6185126953125,-0.0005397796630859375,0.01667526364326477,-0.018636181950569153
1751620589507336200,18.637336181640624,0.023160934448242188,0.04513750970363617,0.04312866926193237
1751620589526159600,18.65615966796875,0.023253440856933594,0.030246838927268982,0.037491828203201294
1751620589544983000,18.674983154296875,0.04216957092285156,-0.003219917416572571,0.0039985328912734985
1751620589563806700,18.693806640625,0.013864517211914062,-0.0024935901165008545,-0.009729981422424316
1751620589582630100,18.712630126953126,0.004688262939453125,-0.006689414381980896,0.019022896885871887
1751620589601453600,18.73145361328125,-0.009279251098632812,0.01730811595916748,0.018711909651756287
1751620589620277200,18.75027734375,-0.018546104431152344,0.017553389072418213,0.02788551151752472
1751620589639100700,18.7691005859375,-0.009004592895507812,0.02732209861278534,0.027712583541870117
1751620589657924000,18.787924072265625,-0.032718658447265625,0.03195272386074066,0.012806519865989685
1751620589676747500,18.80674755859375,-0.037215232849121094,0.022245094180107117,0.03165388107299805
1751620589695571200,18.8255712890625,-0.008859634399414062,0.02230861783027649,-0.001554638147354126
1751620589714394600,18.84439453125,-0.013910293579101562,0.018005073070526123,0.00832812488079071
1751620589733218000,18.863218017578124,0.019166946411132812,0.00886547565460205,0.03661008179187775
1751620589752041700,18.882041748046873,0.023614883422851562,0.01885664463043213,0.05413168668746948
1751620589770865200,18.900865234375,0.02376079559326172,0.014093279838562012,0.052588701248168945
1751620589789688600,18.9196884765625,0.03785991668701172,0.004926145076751709,-0.005183622241020203
1751620589808512000,18.938511962890626,0.03283119201660156,0.010465636849403381,-0.004601806402206421
1751620589827335700,18.957335693359376,0.013773918151855469,0.015497520565986633,0.04731381684541702
1751620589846159000,18.9761591796875,0.008597373962402344,-0.06827716529369354,0.2885704040527344
1751620589864982500,18.994982421875,-0.015232086181640625,-0.1346176266670227,0.32158881425857544
1751620589883806200,19.01380615234375,-0.02949047088623047,-0.12879158556461334,0.36287298798561096
1751620589902629600,19.032629638671875,-0.029541015625,-0.15146031975746155,0.3390868008136749
1751620589921453000,19.051453125,-0.0201873779296875,-0.3177102208137512,0.5624971389770508
1751620589940276700,19.07027685546875,-0.006142616271972656,-0.40255093574523926,0.4551997184753418
1751620589959100200,19.08910009765625,0.0030345916748046875,-0.3348183035850525,0.1962476670742035
1751620589977923600,19.107923583984373,0.0309600830078125,-0.1575554758310318,0.2773045003414154
1751620589996747000,19.1267470703125,0.044951438903808594,-0.019684650003910065,0.03936439007520676
1751620590015570700,19.14557080078125,0.04012584686279297,-0.025466620922088623,-0.03423427417874336
1751620590034394000,19.16439404296875,0.0490875244140625,0.06259100884199142,-0.28716522455215454
1751620590053217500,19.183217529296876,0.047636985778808594,0.13628357648849487,-0.512526273727417
1751620590072041200,19.202041259765625,0.05850791931152344,0.40474897623062134,-0.6308221220970154
1751620590090864600,19.22086474609375,0.0016431808471679688,0.5605043172836304,-0.7591947317123413
1751620590109688000,19.23968798828125,-0.050189971923828125,0.519303560256958,-0.4717002511024475
1751620590128511700,19.25851171875,-0.03567218780517578,0.25973814725875854,-0.04889003187417984
1751620590147335200,19.277335205078124,-0.02616596221923828,0.02324816584587097,0.13643792271614075
1751620590166158600,19.29615869140625,0.00677490234375,-0.07461418211460114,0.11378374695777893
1751620590184982000,19.31498193359375,-0.01701641082763672,-0.009659215807914734,-0.03467968851327896
1751620590203805700,19.3338056640625,0.007114410400390625,0.04793316125869751,-0.025264576077461243
1751620590222629000,19.352629150390626,0.01650524139404297,-0.012773871421813965,-0.10878755897283554
1751620590241452500,19.37145263671875,0.03978252410888672,-0.06690691411495209,-0.09095083177089691
1751620590260276200,19.390276123046874,0.02533721923828125,-0.04413767158985138,-0.13059937953948975
1751620590279099600,19.409099609375,0.020470619201660156,0.10774141550064087,-0.15052025020122528
1751620590297923000,19.427923095703125,-0.0031986236572265625,0.1702587902545929,-0.013915136456489563
1751620590316746500,19.44674658203125,-0.021699905395507812,0.02123531699180603,0.08416672050952911
1751620590335570200,19.465570068359376,-0.007685661315917969,-0.015020504593849182,0.09006527066230774
1751620590354393600,19.4843935546875,-0.0266876220703125,-0.012796252965927124,-0.07746122777462006
1751620590373217000,19.503217041015624,-0.01730060577392578,0.036280736327171326,-0.18802876770496368
1751620590392040700,19.522040771484374,-0.017469406127929688,0.03155498206615448,-0.07503403723239899
1751620590410864000,19.540864013671875,-0.008225440979003906,-0.04234200716018677,0.042820870876312256
1751620590429687600,19.5596875,0.0013427734375,-0.05796945095062256,0.06346233189105988
1751620590448511000,19.578510986328126,0.010829925537109375,0.0016218721866607666,-0.019393503665924072
1751620590467334700,19.597334716796876,0.020322799682617188,0.08723413944244385,-0.0896252989768982
1751620590486158000,19.616157958984374,0.029741287231445312,0.12763236463069916,0.09926200658082962
1751620590504981500,19.6349814453125,0.0015115737915039062,0.04098658263683319,0.21180061995983124
1751620590523805200,19.65380517578125,-0.0027942657470703125,-0.05195283889770508,0.18566381931304932
1751620590542628600,19.672628662109375,-0.007346153259277344,-0.025558054447174072,0.00733262300491333
1751620590561452000,19.6914521484375,-0.00736236572265625,-0.027855142951011658,-0.10485202819108963
1751620590580275700,19.710275634765626,-0.007384300231933594,-0.025645792484283447,-0.1720660775899887
1751620590599099100,19.72909912109375,-0.03595161437988281,0.008587643504142761,-0.09655900299549103
1751620590617922600,19.747922607421874,-0.02160930633544922,0.08451931178569794,0.04594629257917404
1751620590636746000,19.76674609375,-0.03573417663574219,0.157913938164711,0.22778365015983582
1751620590655569700,19.785569580078125,-0.016544342041015625,0.08861678838729858,0.4811202585697174
1751620590674393000,19.80439306640625,0.007338523864746094,-0.02918235957622528,0.42588117718696594
1751620590693216500,19.823216552734376,0.016630172729492188,-0.09127666056156158,0.0653400868177414
1751620590712040200,19.842040283203126,0.030714988708496094,-0.006859332323074341,-0.2924532890319824
1751620590730863600,19.860863525390624,0.039947509765625,0.0512462854385376,-0.49777984619140625
1751620590749687000,19.87968701171875,0.016175270080566406,0.12113682925701141,-0.3873031735420227
1751620590768510500,19.898510498046875,0.016404151916503906,0.07596036791801453,-0.17408770322799683
1751620590787334100,19.917334228515625,0.00211334228515625,0.06067763268947601,-0.07126675546169281
1751620590806157600,19.936157470703126,-0.012250900268554688,0.08317919075489044,-0.0786357894539833
1751620590824981000,19.95498095703125,-0.030925750732421875,0.07220882177352905,-0.06711746752262115
1751620590843804700,19.9738046875,-0.03557395935058594,0.014506623148918152,-0.16842211782932281
1751620590862628000,19.992628173828123,-0.0025758743286132812,0.05204698443412781,-0.16324573755264282
1751620590881451500,20.011451416015625,-0.030570030212402344,0.1197676956653595,-0.1815187931060791
1751620590900275000,20.03027490234375,-0.0025892257690429688,0.08869831264019012,-0.08564260601997375
1751620590919098600,20.0490986328125,-0.0024309158325195312,0.04897350072860718,0.03344361484050751
1751620590937922000,20.067922119140626,0.01183319091796875,-0.012140989303588867,0.21369390189647675
1751620590956745500,20.086745361328123,0.030961990356445312,-0.029861465096473694,0.19687531888484955
1751620590975569200,20.105569091796873,0.035648345947265625,-0.0556868314743042,0.059225380420684814
1751620590994392600,20.124392578125,0.026144027709960938,-0.006459936499595642,0.0009359866380691528
1751620591013216000,20.143216064453124,0.016405105590820312,0.012662634253501892,0.1408473402261734
1751620591032039400,20.162039306640626,-0.007293701171875,0.013334542512893677,0.1539979875087738
1751620591050863000,20.180863037109376,-0.016801834106445312,-0.009325683116912842,0.1859520673751831
1751620591069686500,20.1996865234375,-0.030939102172851562,0.006351560354232788,0.07184535264968872
1751620591088510000,20.218510009765627,-0.02609539031982422,0.05374516546726227,-0.10765140503644943
1751620591107333600,20.237333740234376,-0.021721839904785156,0.0298968106508255,-0.05273604393005371
1751620591126157000,20.256156982421874,-0.0076141357421875,-0.011927038431167603,-0.014438241720199585
1751620591144980500,20.27498046875,0.01128387451171875,0.008215904235839844,-0.14425736665725708
1751620591163804000,20.293803955078126,-0.0029916763305664062,0.06451304256916046,-0.26580581068992615
1751620591182627600,20.312627685546875,0.02085590362548828,0.15617160499095917,-0.3130232095718384
1751620591210862800,20.34086279296875,-0.03596973419189453,0.027881041169166565,-0.09282004833221436
1751620591229686300,20.359686279296874,-0.050083160400390625,0.05547893047332764,0.17129755020141602
1751620591248509700,20.378509765625,-0.021460533142089844,0.012277677655220032,0.2578189969062805
1751620591267333000,20.3973330078125,-0.006875038146972656,-0.06247431039810181,0.06769309192895889
1751620591286156800,20.41615673828125,0.01710796356201172,-0.022640302777290344,-0.04166419804096222
1751620591304980200,20.434980224609376,0.026801109313964844,0.04460787773132324,0.08592289686203003
1751620591323803600,20.4538037109375,0.03179454803466797,-0.05583512783050537,0.13399526476860046
1751620591342627300,20.47262744140625,0.01731586456298828,-0.05367666482925415,0.10610248148441315
1751620591361450800,20.49145068359375,0.017259597778320312,-0.02725052833557129,0.050257109105587006
1751620591380274200,20.510274169921875,0.016678810119628906,-0.04234835505485535,0.09471136331558228
1751620591399097600,20.52909765625,0.02544403076171875,0.18938526511192322,-0.07463273406028748
1751620591417921300,20.54792138671875,-0.12037849426269531,0.02812318503856659,-0.34440499544143677
1751620591436744700,20.56674462890625,0.04991722106933594,0.17232877016067505,-0.44562625885009766
1751620591455568100,20.585568115234373,-0.040831565856933594,0.052650824189186096,0.09612038731575012
1751620591474391800,20.604391845703127,-0.048557281494140625,-0.0033401548862457275,0.014553457498550415
1751620591493215200,20.62321533203125,0.016185760498046875,-0.006820380687713623,-0.016733646392822266
1751620591512038700,20.64203857421875,-0.0070476531982421875,-0.010518833994865417,0.07532988488674164
1751620591530862000,20.660862060546876,-0.025809288024902344,0.017525553703308105,0.048877984285354614
1751620591549685800,20.679685791015626,0.04544353485107422,0.0221298485994339,0.008546724915504456
1751620591568509200,20.69850927734375,0.02177143096923828,-0.010177090764045715,0.02859000861644745
1751620591587332600,20.71733251953125,0.016633033752441406,0.015157312154769897,0.03501199185848236
1751620591606156000,20.736156005859375,0.00322723388671875,0.02424241602420807,0.001745082437992096
1751620591624979700,20.754979736328124,0.017108917236328125,0.02440209686756134,0.003280356526374817
1751620591643803100,20.77380322265625,-0.011090278625488281,0.01934272050857544,0.04310030862689018
1751620591662626600,20.79262646484375,-0.0017261505126953125,0.010044410824775696,-0.0021641328930854797
1751620591681450200,20.8114501953125,-0.01988983154296875,0.008874669671058655,0.014772176742553711
1751620591700273700,20.830273681640627,-0.025053977966308594,0.013425052165985107,0.003711208701133728
1751620591719097000,20.84909716796875,-0.020316123962402344,-0.019276529550552368,0.021563328802585602
1751620591737920500,20.86792041015625,0.012902259826660156,0.01889246702194214,-0.002486810088157654
1751620591756744200,20.886744140625,-0.015523910522460938,0.032215267419815063,0.05890108644962311
1751620591775567600,20.905567626953125,0.027474403381347656,0.03948812186717987,0.009663909673690796
1751620591794391000,20.92439111328125,0.04144763946533203,-0.004649326205253601,0.004095308482646942
1751620591813214500,20.94321435546875,0.04095745086669922,0.023604631423950195,0.014589041471481323
1751620591832038100,20.9620380859375,0.04035377502441406,0.032945528626441956,-0.0023580193519592285
1751620591850861600,20.980861572265624,-0.030632972717285156,0.017642885446548462,0.044194091111421585
1751620591869685000,20.99968505859375,-0.0006570816040039062,-0.019055500626564026,0.02647249400615692
1751620591888508700,21.0185087890625,0.03583717346191406,-0.0028581321239471436,-0.06268589198589325
1751620591907332000,21.03733203125,-0.07819652557373047,-0.0015576034784317017,0.04679914191365242
1751620591926155500,21.056155517578127,-0.04349803924560547,0.0199480801820755,0.019754528999328613
1751620591944979000,21.07497900390625,0.01742267608642578,0.010417625308036804,-0.02581922709941864
1751620591963802600,21.093802734375,-0.04915046691894531,-0.012568488717079163,0.028496645390987396
1751620591982626000,21.1126259765625,-0.010044097900390625,0.014552831649780273,0.022739604115486145
1751620592010861300,21.140861328125,-0.01100921630859375,0.019022881984710693,0.004830285906791687
1751620592029684700,21.159684814453126,-0.04395580291748047,-0.014691188931465149,0.010662287473678589
1751620592048508200,21.178508056640624,-0.0014657974243164062,-0.014576226472854614,-0.011930987238883972
1751620592067331800,21.197331787109373,-0.025768280029296875,0.005153730511665344,0.00008853524923324585
1751620592086155300,21.2161552734375,-0.015722274780273438,0.018567800521850586,0.0292380228638649
1751620592104978700,21.234978759765625,0.022139549255371094,0.008203446865081787,-0.018005669116973877
1751620592123802000,21.253802001953126,0.012601852416992188,-0.0007622390985488892,0.009288236498832703
1751620592142625800,21.272625732421876,0.027256011962890625,0.0038638412952423096,0.01442604511976242
1751620592161449200,21.29144921875,0.04141521453857422,0.02706897258758545,0.00942673534154892
1751620592180272600,21.310272705078123,0.012925148010253906,0.02587255835533142,0.0009097158908843994
1751620592199096000,21.329095947265625,0.4475107192993164,-0.025165721774101257,-0.4428684711456299
1751620592217919700,21.347919677734374,0.1221303939819336,0.05127610266208649,0.0316062867641449
1751620592236743200,21.3667431640625,-0.057758331298828125,0.07856316864490509,0.16572433710098267
1751620592255566600,21.385566650390626,-0.05289936065673828,0.020558401942253113,0.015190958976745605
1751620592274390300,21.404390380859375,0.049167633056640625,-0.00963585078716278,-0.1085624173283577
