time,seconds_elapsed,z,y,x
1751620571107373300,0.237373291015625,0.000610864779446274,0.003512472379952669,0.004428769461810589
1751620571145020400,0.2750205078125,-0.004276053514331579,-0.0001527161948615685,0.0032070400193333626
1751620571163843800,0.29384375,-0.007941242307424545,-0.0013744457392022014,0.0019853105768561363
1751620571182667300,0.312667236328125,-0.001832594396546483,0.0010690133785828948,0.0032070400193333626
1751620571201490700,0.33149072265625,0.000610864779446274,0.004734201822429895,0.005650499369949102
1751620571220314000,0.350314208984375,-0.0054977829568088055,0.003512472379952669,0.004428769461810589
1751620571239137800,0.3691376953125,-0.010384701192378998,0.0010690133785828948,0.0032070400193333626
1751620571257961200,0.387961181640625,-0.007941242307424545,0.002290742937475443,0.0032070400193333626
1751620571276784600,0.40678466796875,-0.001832594396546483,0.004734201822429895,0.004428769461810589
1751620571295608000,0.425608154296875,-0.001832594396546483,0.004734201822429895,0.004428769461810589
1751620571314431500,0.444431396484375,-0.006719512399286032,0.0010690133785828948,0.0032070400193333626
1751620571333255200,0.463255126953125,-0.006719512399286032,-0.0001527161948615685,0.0032070400193333626
1751620571352078600,0.48207861328125,0.000610864779446274,0.002290742937475443,0.0032070400193333626
1751620571370902000,0.500902099609375,0.000610864779446274,0.003512472379952669,0.0032070400193333626
1751620571389725400,0.519725341796875,-0.004276053514331579,0.0010690133785828948,0.0032070400193333626
1751620571408548900,0.538548828125,-0.009162971749901772,0.0010690133785828948,0.0032070400193333626
1751620571427372500,0.55737255859375,-0.0054977829568088055,0.002290742937475443,0.0032070400193333626
1751620571446196000,0.576196044921875,-0.001832594396546483,0.004734201822429895,0.004428769461810589
1751620571465019400,0.595019287109375,-0.0030543238390237093,0.003512472379952669,0.004428769461810589
1751620571483842800,0.6138427734375,-0.007941242307424545,0.0010690133785828948,0.0032070400193333626
1751620571502666200,0.632666259765625,-0.006719512399286032,0.002290742937475443,0.0032070400193333626
1751620571521490000,0.651489990234375,-0.001832594396546483,0.003512472379952669,0.0032070400193333626
1751620571540313300,0.670313232421875,-0.001832594396546483,0.003512472379952669,0.004428769461810589
1751620571559136800,0.68913671875,-0.004276053514331579,0.0010690133785828948,0.0032070400193333626
1751620571577960200,0.707960205078125,-0.0054977829568088055,0.0010690133785828948,0.0032070400193333626
1751620571596783600,0.72678369140625,-0.0030543238390237093,0.003512472379952669,0.0032070400193333626
1751620571615607300,0.745607177734375,-0.0030543238390237093,0.003512472379952669,0.004428769461810589
1751620571634430700,0.7644306640625,-0.0054977829568088055,0.002290742937475443,0.0032070400193333626
1751620571653254100,0.783254150390625,-0.007941242307424545,0.002290742937475443,0.004428769461810589
1751620571672077600,0.80207763671875,-0.0054977829568088055,0.002290742937475443,0.0032070400193333626
1751620571700312800,0.830312744140625,-0.001832594396546483,0.003512472379952669,0.0032070400193333626
1751620571719136300,0.84913623046875,-0.004276053514331579,0.002290742937475443,0.0032070400193333626
1751620571737960000,0.8679599609375,-0.0054977829568088055,0.0010690133785828948,0.0032070400193333626
1751620571756783400,0.886783447265625,-0.004276053514331579,0.002290742937475443,0.0032070400193333626
1751620571775606800,0.905606689453125,-0.001832594396546483,0.002290742937475443,0.004428769461810589
1751620571794430200,0.92443017578125,-0.004276053514331579,0.0010690133785828948,0.0032070400193333626
1751620571813253600,0.943253662109375,-0.006719512399286032,0.002290742937475443,0.0032070400193333626
1751620571832077300,0.962077392578125,-0.0054977829568088055,0.002290742937475443,0.0032070400193333626
1751620571850900700,0.980900634765625,-0.0030543238390237093,0.003512472379952669,0.004428769461810589
1751620571869724200,0.99972412109375,-0.004276053514331579,0.003512472379952669,0.0032070400193333626
1751620571888547600,1.018547607421875,-0.0054977829568088055,0.002290742937475443,0.0032070400193333626
1751620571907371300,1.037371337890625,-0.004276053514331579,0.002290742937475443,0.0032070400193333626
1751620571926194700,1.056194580078125,-0.0030543238390237093,0.002290742937475443,0.0032070400193333626
1751620571945018000,1.07501806640625,-0.001832594396546483,0.002290742937475443,0.0032070400193333626
1751620571963841500,1.093841552734375,-0.004276053514331579,0.002290742937475443,0.0032070400193333626
1751620571982665200,1.112665283203125,-0.0054977829568088055,0.0010690133785828948,0.0032070400193333626
1751620572001488600,1.131488525390625,-0.0030543238390237093,0.002290742937475443,0.0032070400193333626
1751620572020312000,1.15031201171875,-0.0030543238390237093,0.002290742937475443,0.004428769461810589
1751620572039135500,1.169135498046875,-0.004276053514331579,0.002290742937475443,0.004428769461810589
1751620572057959000,1.187958984375,-0.0054977829568088055,0.002290742937475443,0.0032070400193333626
1751620572076782600,1.206782470703125,-0.004276053514331579,0.002290742937475443,0.004428769461810589
1751620572095606000,1.22560595703125,-0.0030543238390237093,0.003512472379952669,0.004428769461810589
1751620572114429400,1.244429443359375,-0.004276053514331579,0.003512472379952669,0.0032070400193333626
1751620572133252900,1.2632529296875,-0.004276053514331579,0.002290742937475443,0.0019853105768561363
1751620572152076500,1.28207666015625,-0.004276053514331579,0.002290742937475443,0.0032070400193333626
1751620572170900000,1.30089990234375,-0.0030543238390237093,0.002290742937475443,0.004428769461810589
1751620572189723400,1.319723388671875,-0.0030543238390237093,0.002290742937475443,0.0032070400193333626
1751620572208546800,1.338546875,-0.004276053514331579,0.002290742937475443,0.004428769461810589
1751620572227370200,1.357370361328125,-0.0054977829568088055,0.0010690133785828948,0.004428769461810589
1751620572246194000,1.37619384765625,-0.004276053514331579,0.002290742937475443,0.0032070400193333626
1751620572265017300,1.395017333984375,-0.0030543238390237093,0.002290742937475443,0.004428769461810589
1751620572283840800,1.4138408203125,-0.004276053514331579,0.002290742937475443,0.0032070400193333626
1751620572302664200,1.432664306640625,-0.004276053514331579,0.002290742937475443,0.004428769461810589
1751620572321488000,1.45148779296875,-0.004276053514331579,0.002290742937475443,0.0032070400193333626
1751620572340311300,1.470311279296875,-0.0030543238390237093,0.003512472379952669,0.0032070400193333626
1751620572359134700,1.489134765625,-0.004276053514331579,0.002290742937475443,0.0032070400193333626
1751620572377958100,1.507958251953125,-0.0054977829568088055,0.002290742937475443,0.0032070400193333626
1751620572396781800,1.52678173828125,-0.004276053514331579,0.002290742937475443,0.0032070400193333626
1751620572415605200,1.545605224609375,-0.004276053514331579,0.002290742937475443,0.004428769461810589
1751620572434428700,1.5644287109375,-0.004276053514331579,0.002290742937475443,0.004428769461810589
1751620572453252000,1.583252197265625,-0.0054977829568088055,0.002290742937475443,0.0032070400193333626
1751620572472075500,1.602075439453125,-0.004276053514331579,0.0010690133785828948,0.0032070400193333626
1751620572490899200,1.620899169921875,-0.0030543238390237093,0.002290742937475443,0.0032070400193333626
1751620572509722600,1.63972265625,-0.0030543238390237093,0.002290742937475443,0.0032070400193333626
1751620572528546000,1.658546142578125,-0.004276053514331579,0.002290742937475443,0.0032070400193333626
1751620572547369500,1.677369384765625,-0.004276053514331579,0.002290742937475443,0.0032070400193333626
1751620572566193000,1.69619287109375,-0.004276053514331579,0.002290742937475443,0.0032070400193333626
1751620572585016600,1.7150166015625,-0.004276053514331579,0.003512472379952669,0.004428769461810589
1751620572603840000,1.733840087890625,-0.004276053514331579,0.002290742937475443,0.0032070400193333626
1751620572622663400,1.752663330078125,-0.0054977829568088055,0.003512472379952669,0.0032070400193333626
1751620572641486800,1.77148681640625,-0.004276053514331579,0.002290742937475443,0.0032070400193333626
1751620572660310500,1.790310546875,-0.004276053514331579,0.002290742937475443,0.004428769461810589
1751620572679134000,1.809134033203125,-0.004276053514331579,0.002290742937475443,0.0032070400193333626
1751620572697957400,1.827957275390625,-0.004276053514331579,0.002290742937475443,0.0032070400193333626
1751620572716780800,1.84678076171875,-0.004276053514331579,0.002290742937475443,0.0032070400193333626
1751620572735604500,1.8656044921875,-0.004276053514331579,0.002290742937475443,0.004428769461810589
1751620572754428000,1.884427978515625,-0.004276053514331579,0.002290742937475443,0.0032070400193333626
1751620572773251300,1.903251220703125,-0.004276053514331579,0.002290742937475443,0.004428769461810589
1751620572792074800,1.92207470703125,-0.0054977829568088055,0.002290742937475443,0.0032070400193333626
1751620572810898200,1.940898193359375,-0.0054977829568088055,0.003512472379952669,0.0032070400193333626
1751620572829721900,1.959721923828125,-0.004276053514331579,0.002290742937475443,0.0032070400193333626
1751620572848545300,1.978545166015625,-0.0054977829568088055,0.002290742937475443,0.0032070400193333626
1751620572867368700,1.99736865234375,-0.004276053514331579,0.002290742937475443,0.0032070400193333626
1751620572886192000,2.016192138671875,-0.0030543238390237093,0.002290742937475443,0.0032070400193333626
1751620572905015600,2.035015625,-0.004276053514331579,0.002290742937475443,0.0032070400193333626
1751620572923839200,2.053839111328125,-0.004276053514331579,0.002290742937475443,0.004428769461810589
1751620572942662700,2.07266259765625,-0.004276053514331579,0.0010690133785828948,0.0032070400193333626
1751620572961486000,2.091486083984375,-0.004276053514331579,0.0010690133785828948,0.004428769461810589
1751620572980309500,2.1103095703125,-0.004276053514331579,0.002290742937475443,0.004428769461810589
1751620572999133200,2.12913330078125,-0.004276053514331579,0.002290742937475443,0.0032070400193333626
1751620573017956600,2.14795654296875,-0.004276053514331579,0.002290742937475443,0.004428769461810589
1751620573036780000,2.166780029296875,-0.004276053514331579,0.002290742937475443,0.0032070400193333626
1751620573055603500,2.185603515625,-0.004276053514331579,0.003512472379952669,0.0032070400193333626
1751620573074427100,2.20442724609375,-0.004276053514331579,0.002290742937475443,0.0032070400193333626
1751620573093250600,2.22325048828125,-0.004276053514331579,0.002290742937475443,0.0032070400193333626
1751620573112074000,2.242073974609375,-0.004276053514331579,0.002290742937475443,0.0032070400193333626
1751620573130897400,2.2608974609375,-0.004276053514331579,0.002290742937475443,0.0032070400193333626
1751620573149720800,2.279720947265625,-0.004276053514331579,0.002290742937475443,0.0032070400193333626
1751620573168544500,2.29854443359375,-0.004276053514331579,0.002290742937475443,0.0032070400193333626
1751620573187368000,2.317367919921875,-0.004276053514331579,0.002290742937475443,0.004428769461810589
1751620573206191400,2.33619140625,-0.004276053514331579,0.002290742937475443,0.004428769461810589
1751620573225014800,2.355014892578125,-0.004276053514331579,0.002290742937475443,0.0032070400193333626
1751620573243838200,2.373838134765625,-0.004276053514331579,0.002290742937475443,0.004428769461810589
1751620573262662000,2.392661865234375,-0.004276053514331579,0.002290742937475443,0.0032070400193333626
1751620573281485300,2.4114853515625,-0.004276053514331579,0.002290742937475443,0.0032070400193333626
1751620573300308700,2.430308837890625,-0.004276053514331579,0.002290742937475443,0.0032070400193333626
1751620573319132200,2.449132080078125,-0.004276053514331579,0.002290742937475443,0.0032070400193333626
1751620573337955800,2.467955810546875,-0.004276053514331579,0.002290742937475443,0.0032070400193333626
1751620573356779300,2.486779296875,-0.004276053514331579,0.002290742937475443,0.0032070400193333626
1751620573375602700,2.505602783203125,-0.004276053514331579,0.002290742937475443,0.004428769461810589
1751620573394426000,2.524426025390625,-0.004276053514331579,0.002290742937475443,0.0032070400193333626
1751620573413249500,2.54324951171875,-0.0030543238390237093,0.002290742937475443,0.0032070400193333626
1751620573432073200,2.5620732421875,-0.004276053514331579,0.002290742937475443,0.004428769461810589
1751620573450896600,2.580896728515625,-0.004276053514331579,0.002290742937475443,0.004428769461810589
1751620573469720000,2.599719970703125,-0.004276053514331579,0.002290742937475443,0.0032070400193333626
1751620573488543500,2.61854345703125,-0.006719512399286032,0.002290742937475443,0.0032070400193333626
1751620573507367000,2.637366943359375,-0.0054977829568088055,0.002290742937475443,0.0032070400193333626
1751620573526190600,2.656190673828125,-0.0030543238390237093,0.002290742937475443,0.0032070400193333626
1751620573545014000,2.675013916015625,-0.0030543238390237093,0.003512472379952669,0.0032070400193333626
1751620573563837400,2.69383740234375,-0.0054977829568088055,0.002290742937475443,0.0019853105768561363
1751620573582660900,2.712660888671875,-0.0054977829568088055,0.002290742937475443,0.0032070400193333626
1751620573601484300,2.731484375,-0.0030543238390237093,0.003512472379952669,0.004428769461810589
1751620573620308000,2.750307861328125,-0.004276053514331579,0.002290742937475443,0.0032070400193333626
1751620573639131400,2.76913134765625,-0.004276053514331579,0.002290742937475443,0.0032070400193333626
1751620573657954800,2.787954833984375,-0.004276053514331579,0.002290742937475443,0.004428769461810589
1751620573676778200,2.8067783203125,-0.004276053514331579,0.002290742937475443,0.0032070400193333626
1751620573695602000,2.825601806640625,-0.004276053514331579,0.002290742937475443,0.0032070400193333626
1751620573714425300,2.84442529296875,-0.0030543238390237093,0.002290742937475443,0.004428769461810589
1751620573733248800,2.863248779296875,-0.004276053514331579,0.002290742937475443,0.0032070400193333626
1751620573752072200,2.882072265625,-0.004276053514331579,0.002290742937475443,0.0032070400193333626
1751620573770895600,2.9008955078125,-0.004276053514331579,0.003512472379952669,0.0032070400193333626
1751620573789719300,2.91971923828125,-0.004276053514331579,0.002290742937475443,0.0032070400193333626
1751620573808542700,2.938542724609375,-0.0054977829568088055,0.002290742937475443,0.0032070400193333626
1751620573827366100,2.9573662109375,-0.0054977829568088055,0.003512472379952669,0.0032070400193333626
1751620573846189600,2.976189453125,-0.004276053514331579,0.002290742937475443,0.004428769461810589
1751620573865013000,2.995012939453125,-0.004276053514331579,0.002290742937475443,0.0032070400193333626
1751620573883836700,3.013836669921875,-0.0054977829568088055,0.002290742937475443,0.0032070400193333626
1751620573902660000,3.03266015625,-0.004276053514331579,0.0010690133785828948,0.0032070400193333626
1751620573921483500,3.0514833984375,-0.0030543238390237093,0.0010690133785828948,0.004428769461810589
1751620573940307000,3.070306884765625,-0.0030543238390237093,0.0010690133785828948,0.0032070400193333626
1751620573959130600,3.089130615234375,-0.004276053514331579,0.002290742937475443,0.0032070400193333626
1751620573977954000,3.1079541015625,-0.004276053514331579,0.002290742937475443,0.004428769461810589
1751620573996777500,3.126777587890625,-0.004276053514331579,0.002290742937475443,0.004428769461810589
1751620574015601000,3.145600830078125,-0.004276053514331579,0.003512472379952669,0.0032070400193333626
1751620574034424300,3.16442431640625,-0.004276053514331579,0.003512472379952669,0.0032070400193333626
1751620574053248000,3.183248046875,-0.0054977829568088055,0.002290742937475443,0.0032070400193333626
1751620574072071400,3.202071533203125,-0.0054977829568088055,0.002290742937475443,0.004428769461810589
1751620574090894800,3.220894775390625,-0.004276053514331579,0.002290742937475443,0.0032070400193333626
1751620574109718300,3.23971826171875,-0.004276053514331579,0.002290742937475443,0.0032070400193333626
1751620574128541700,3.258541748046875,-0.004276053514331579,0.002290742937475443,0.0032070400193333626
1751620574147365400,3.277365478515625,-0.004276053514331579,0.002290742937475443,0.0032070400193333626
1751620574166188800,3.296188720703125,-0.0030543238390237093,0.002290742937475443,0.0032070400193333626
1751620574185012200,3.31501220703125,-0.004276053514331579,0.002290742937475443,0.0032070400193333626
1751620574203835600,3.333835693359375,-0.004276053514331579,0.002290742937475443,0.0032070400193333626
1751620574222659300,3.352659423828125,-0.004276053514331579,0.002290742937475443,0.004428769461810589
1751620574250894300,3.380894287109375,-0.004276053514331579,0.0010690133785828948,0.004428769461810589
1751620574269717800,3.3997177734375,-0.004276053514331579,0.002290742937475443,0.0032070400193333626
1751620574288541400,3.41854150390625,-0.004276053514331579,0.002290742937475443,0.004428769461810589
1751620574307364900,3.43736474609375,-0.004276053514331579,0.002290742937475443,0.004428769461810589
1751620574326188300,3.456188232421875,-0.0030543238390237093,0.002290742937475443,0.0032070400193333626
1751620574345011700,3.47501171875,-0.0030543238390237093,0.002290742937475443,0.0032070400193333626
1751620574363835100,3.493835205078125,-0.004276053514331579,0.002290742937475443,0.0032070400193333626
1751620574382658800,3.512658935546875,-0.004276053514331579,0.002290742937475443,0.0032070400193333626
1751620574401482200,3.531482177734375,-0.0054977829568088055,0.002290742937475443,0.004428769461810589
1751620574420305700,3.5503056640625,-0.004276053514331579,0.002290742937475443,0.0032070400193333626
1751620574439129000,3.569129150390625,-0.004276053514331579,0.002290742937475443,0.004428769461810589
1751620574457952800,3.587952880859375,-0.004276053514331579,0.0010690133785828948,0.004428769461810589
1751620574476776200,3.606776123046875,-0.004276053514331579,0.002290742937475443,0.0032070400193333626
1751620574495599600,3.625599609375,-0.0030543238390237093,0.0010690133785828948,0.004428769461810589
1751620574514423000,3.644423095703125,-0.004276053514331579,0.002290742937475443,0.0032070400193333626
1751620574533246500,3.66324658203125,-0.0030543238390237093,0.002290742937475443,0.0032070400193333626
1751620574552070000,3.68206982421875,-0.004276053514331579,0.002290742937475443,0.0032070400193333626
1751620574570893600,3.7008935546875,-0.004276053514331579,0.002290742937475443,0.0032070400193333626
1751620574589717000,3.719717041015625,-0.004276053514331579,0.003512472379952669,0.0032070400193333626
1751620574608540400,3.73854052734375,-0.0054977829568088055,0.003512472379952669,0.0032070400193333626
1751620574627363800,3.75736376953125,-0.0054977829568088055,0.002290742937475443,0.0032070400193333626
1751620574646187300,3.776187255859375,-0.004276053514331579,0.003512472379952669,0.0032070400193333626
1751620574665011000,3.795010986328125,-0.004276053514331579,0.002290742937475443,0.0032070400193333626
1751620574683834400,3.81383447265625,-0.004276053514331579,0.002290742937475443,0.0032070400193333626
1751620574702657800,3.83265771484375,-0.0030543238390237093,0.002290742937475443,0.0032070400193333626
1751620574721481200,3.851481201171875,-0.004276053514331579,0.002290742937475443,0.004428769461810589
1751620574740305000,3.870304931640625,-0.004276053514331579,0.002290742937475443,0.004428769461810589
1751620574759128300,3.88912841796875,-0.004276053514331579,0.002290742937475443,0.004428769461810589
1751620574777951700,3.90795166015625,-0.004276053514331579,0.002290742937475443,0.004428769461810589
1751620574796775200,3.926775146484375,-0.0030543238390237093,0.002290742937475443,0.004428769461810589
1751620574815598600,3.9455986328125,-0.004276053514331579,0.002290742937475443,0.004428769461810589
1751620574834422000,3.964422119140625,-0.0054977829568088055,0.002290742937475443,0.0032070400193333626
1751620574853245700,3.98324560546875,-0.004276053514331579,0.003512472379952669,0.004428769461810589
1751620574872069000,4.002069091796875,-0.004276053514331579,0.002290742937475443,0.0032070400193333626
1751620574890892500,4.020892578125,-0.0030543238390237093,0.002290742937475443,0.0032070400193333626
1751620574909716000,4.039716064453125,-0.0030543238390237093,0.002290742937475443,0.0032070400193333626
1751620574928539600,4.05853955078125,-0.004276053514331579,0.002290742937475443,0.0032070400193333626
1751620574947363000,4.077363037109375,-0.004276053514331579,0.002290742937475443,0.004428769461810589
1751620574966186500,4.0961865234375,-0.004276053514331579,0.002290742937475443,0.004428769461810589
1751620574985010000,4.115010009765625,-0.004276053514331579,0.002290742937475443,0.0032070400193333626
1751620575003833300,4.133833251953125,-0.004276053514331579,0.002290742937475443,0.004428769461810589
1751620575022656800,4.15265673828125,-0.004276053514331579,0.002290742937475443,0.0032070400193333626
1751620575041480400,4.17148046875,-0.0054977829568088055,0.002290742937475443,0.0032070400193333626
1751620575060304000,4.190303955078125,-0.0030543238390237093,0.002290742937475443,0.0032070400193333626
1751620575079127300,4.209127197265625,-0.004276053514331579,0.002290742937475443,0.0032070400193333626
1751620575097950700,4.22795068359375,-0.004276053514331579,0.002290742937475443,0.004428769461810589
1751620575116774100,4.246774169921875,-0.0054977829568088055,0.003512472379952669,0.0032070400193333626
1751620575135597800,4.265597900390625,-0.004276053514331579,0.003512472379952669,0.004428769461810589
1751620575154421200,4.284421142578125,-0.004276053514331579,0.002290742937475443,0.0032070400193333626
1751620575173244700,4.30324462890625,-0.0054977829568088055,0.0010690133785828948,0.0032070400193333626
1751620575192068000,4.322068115234375,-0.004276053514331579,0.0010690133785828948,0.0032070400193333626
1751620575210891500,4.3408916015625,-0.004276053514331579,0.002290742937475443,0.0032070400193333626
1751620575229715200,4.359715087890625,-0.0030543238390237093,0.002290742937475443,0.004428769461810589
1751620575248538600,4.37853857421875,-0.004276053514331579,0.0010690133785828948,0.0032070400193333626
1751620575267362000,4.397362060546875,-0.0030543238390237093,0.002290742937475443,0.004428769461810589
1751620575286185500,4.416185546875,-0.004276053514331579,0.003512472379952669,0.004428769461810589
1751620575305009000,4.4350087890625,-0.004276053514331579,0.003512472379952669,0.0032070400193333626
1751620575323832300,4.453832275390625,-0.004276053514331579,0.002290742937475443,0.0032070400193333626
1751620575342656000,4.472656005859375,-0.0054977829568088055,0.003512472379952669,0.0032070400193333626
1751620575361479400,4.4914794921875,-0.004276053514331579,0.002290742937475443,0.0032070400193333626
1751620575380302800,4.510302734375,-0.004276053514331579,0.003512472379952669,0.0032070400193333626
1751620575399126300,4.529126220703125,-0.0030543238390237093,0.002290742937475443,0.0032070400193333626
1751620575417950000,4.547949951171875,-0.004276053514331579,0.0010690133785828948,0.0032070400193333626
1751620575436773400,4.5667734375,-0.004276053514331579,0.0010690133785828948,0.0032070400193333626
1751620575455596800,4.5855966796875,-0.004276053514331579,0.002290742937475443,0.0032070400193333626
1751620575474420200,4.604420166015625,-0.004276053514331579,0.002290742937475443,0.004428769461810589
1751620575493243600,4.62324365234375,-0.006719512399286032,0.002290742937475443,0.0032070400193333626
1751620575512067000,4.642067138671875,-0.004276053514331579,0.002290742937475443,0.0032070400193333626
1751620575530890800,4.660890869140625,-0.004276053514331579,0.003512472379952669,0.0032070400193333626
1751620575549714200,4.679714111328125,-0.004276053514331579,0.003512472379952669,0.0032070400193333626
1751620575568537600,4.69853759765625,-0.0054977829568088055,0.002290742937475443,0.0032070400193333626
1751620575587361000,4.717361083984375,-0.004276053514331579,0.002290742937475443,0.0032070400193333626
1751620575606184400,4.736184326171875,-0.0030543238390237093,0.002290742937475443,0.0032070400193333626
1751620575625008000,4.755008056640625,-0.004276053514331579,0.002290742937475443,0.0032070400193333626
1751620575643831600,4.77383154296875,-0.0030543238390237093,0.002290742937475443,0.0032070400193333626
1751620575662655000,4.792655029296875,-0.0054977829568088055,0.002290742937475443,0.0032070400193333626
1751620575681478400,4.811478515625,-0.0030543238390237093,0.002290742937475443,0.0032070400193333626
1751620575700301800,4.8303017578125,-0.004276053514331579,0.002290742937475443,0.004428769461810589
1751620575719125500,4.84912548828125,-0.0054977829568088055,0.002290742937475443,0.004428769461810589
1751620575737949000,4.867948974609375,-0.004276053514331579,0.002290742937475443,0.0032070400193333626
1751620575756772400,4.8867724609375,-0.004276053514331579,0.002290742937475443,0.004428769461810589
1751620575775595800,4.905595703125,-0.004276053514331579,0.002290742937475443,0.0032070400193333626
1751620575794419200,4.924419189453125,-0.004276053514331579,0.003512472379952669,0.0032070400193333626
1751620575813242600,4.94324267578125,-0.004276053514331579,0.003512472379952669,0.0032070400193333626
1751620575832066300,4.96206640625,-0.004276053514331579,0.002290742937475443,0.0032070400193333626
1751620575850889700,4.9808896484375,-0.004276053514331579,0.003512472379952669,0.004428769461810589
1751620575869713200,4.999713134765625,-0.0030543238390237093,0.002290742937475443,0.004428769461810589
1751620575888536600,5.01853662109375,-0.0054977829568088055,0.002290742937475443,0.004428769461810589
1751620575907360300,5.0373603515625,-0.004276053514331579,0.002290742937475443,0.004428769461810589
1751620575926183700,5.05618359375,-0.004276053514331579,0.002290742937475443,0.004428769461810589
1751620575945007000,5.075007080078125,-0.0030543238390237093,0.0010690133785828948,0.0032070400193333626
1751620575963830500,5.09383056640625,-0.004276053514331579,0.002290742937475443,0.004428769461810589
1751620575982654000,5.112654052734375,-0.004276053514331579,0.002290742937475443,0.0032070400193333626
1751620576001477400,5.131477294921875,-0.004276053514331579,0.002290742937475443,0.0032070400193333626
1751620576020301000,5.150301025390625,-0.0030543238390237093,0.003512472379952669,0.004428769461810589
1751620576039124500,5.16912451171875,-0.004276053514331579,0.002290742937475443,0.0032070400193333626
1751620576067359700,5.19735986328125,-0.0054977829568088055,0.002290742937475443,0.0032070400193333626
1751620576086183200,5.21618310546875,-0.004276053514331579,0.002290742937475443,0.0032070400193333626
1751620576105006600,5.235006591796875,-0.004276053514331579,0.002290742937475443,0.0032070400193333626
1751620576123830000,5.253830078125,-0.004276053514331579,0.002290742937475443,0.004428769461810589
1751620576142653400,5.2726533203125,-0.004276053514331579,0.002290742937475443,0.0032070400193333626
1751620576161477000,5.29147705078125,-0.004276053514331579,0.002290742937475443,0.0032070400193333626
1751620576180300500,5.310300537109375,-0.0030543238390237093,0.003512472379952669,0.0032070400193333626
1751620576199124000,5.3291240234375,-0.004276053514331579,0.002290742937475443,0.0032070400193333626
1751620576217947400,5.347947509765625,-0.004276053514331579,0.002290742937475443,0.0032070400193333626
1751620576236770800,5.366770751953125,-0.004276053514331579,0.002290742937475443,0.0032070400193333626
1751620576255594200,5.38559423828125,-0.0054977829568088055,0.002290742937475443,0.004428769461810589
1751620576274418000,5.40441796875,-0.004276053514331579,0.002290742937475443,0.004428769461810589
1751620576293241300,5.423241455078125,-0.004276053514331579,0.002290742937475443,0.004428769461810589
1751620576312064800,5.442064697265625,-0.004276053514331579,0.0010690133785828948,0.004428769461810589
1751620576330888200,5.46088818359375,-0.004276053514331579,0.002290742937475443,0.0032070400193333626
1751620576349712000,5.4797119140625,-0.0030543238390237093,0.002290742937475443,0.0032070400193333626
1751620576368535300,5.498535400390625,-0.004276053514331579,0.002290742937475443,0.004428769461810589
1751620576387358700,5.517358642578125,-0.004276053514331579,0.002290742937475443,0.004428769461810589
1751620576406182100,5.53618212890625,-0.004276053514331579,0.002290742937475443,0.0032070400193333626
1751620576425005600,5.555005615234375,-0.004276053514331579,0.002290742937475443,0.0032070400193333626
1751620576443829000,5.5738291015625,-0.004276053514331579,0.002290742937475443,0.0032070400193333626
1751620576462652700,5.592652587890625,-0.0030543238390237093,0.002290742937475443,0.0032070400193333626
1751620576481476000,5.61147607421875,-0.004276053514331579,0.002290742937475443,0.0032070400193333626
1751620576509711400,5.63971142578125,-0.004276053514331579,0.003512472379952669,0.0032070400193333626
1751620576528534800,5.65853466796875,-0.0030543238390237093,0.003512472379952669,0.0032070400193333626
1751620576547358200,5.677358154296875,-0.004276053514331579,0.002290742937475443,0.0032070400193333626
1751620576566181600,5.696181640625,-0.004276053514331579,0.002290742937475443,0.0032070400193333626
1751620576585005000,5.715005126953125,-0.004276053514331579,0.002290742937475443,0.0032070400193333626
1751620576603828700,5.733828857421875,-0.004276053514331579,0.002290742937475443,0.0032070400193333626
1751620576622652200,5.752652099609375,-0.004276053514331579,0.0010690133785828948,0.0032070400193333626
1751620576641475600,5.7714755859375,-0.004276053514331579,0.002290742937475443,0.004428769461810589
1751620576660299000,5.790299072265625,-0.0054977829568088055,0.0010690133785828948,0.004428769461810589
1751620576679122400,5.809122314453125,-0.004276053514331579,0.0010690133785828948,0.0032070400193333626
1751620576697945900,5.82794580078125,-0.004276053514331579,0.002290742937475443,0.004428769461810589
1751620576716769500,5.84676953125,-0.004276053514331579,0.002290742937475443,0.0032070400193333626
1751620576735593000,5.865593017578125,-0.0030543238390237093,0.002290742937475443,0.0032070400193333626
1751620576754416400,5.88441650390625,-0.004276053514331579,0.003512472379952669,0.0032070400193333626
1751620576773239800,5.90323974609375,-0.004276053514331579,0.002290742937475443,0.0032070400193333626
1751620576792063200,5.922063232421875,-0.0054977829568088055,0.003512472379952669,0.004428769461810589
1751620576810887000,5.940886962890625,-0.004276053514331579,0.002290742937475443,0.004428769461810589
1751620576829710300,5.95971044921875,-0.004276053514331579,0.003512472379952669,0.0032070400193333626
1751620576848533800,5.97853369140625,-0.004276053514331579,0.002290742937475443,0.0032070400193333626
1751620576867357200,5.997357177734375,-0.004276053514331579,0.002290742937475443,0.0032070400193333626
1751620576886180600,6.0161806640625,-0.004276053514331579,0.002290742937475443,0.004428769461810589
1751620576905004000,6.035004150390625,-0.0030543238390237093,0.002290742937475443,0.004428769461810589
1751620576923827700,6.05382763671875,-0.004276053514331579,0.002290742937475443,0.004428769461810589
1751620576942651100,6.072651123046875,-0.004276053514331579,0.002290742937475443,0.0032070400193333626
1751620576961474600,6.091474609375,-0.004276053514331579,0.002290742937475443,0.004428769461810589
1751620576980298000,6.110298095703125,-0.004276053514331579,0.003512472379952669,0.0032070400193333626
1751620576999121700,6.12912158203125,-0.004276053514331579,0.002290742937475443,0.0032070400193333626
1751620577017945000,6.147945068359375,-0.004276053514331579,0.003512472379952669,0.0032070400193333626
1751620577036768500,6.1667685546875,-0.004276053514331579,0.002290742937475443,0.0032070400193333626
1751620577055592000,6.185592041015625,-0.004276053514331579,0.002290742937475443,0.0032070400193333626
1751620577074415400,6.204415283203125,-0.0030543238390237093,0.002290742937475443,0.0032070400193333626
1751620577093238800,6.22323876953125,-0.0030543238390237093,0.0010690133785828948,0.0032070400193333626
1751620577112062500,6.2420625,-0.0030543238390237093,0.002290742937475443,0.004428769461810589
1751620577130886000,6.260885986328125,-0.004276053514331579,0.002290742937475443,0.004428769461810589
1751620577149709300,6.279709228515625,-0.004276053514331579,0.002290742937475443,0.0032070400193333626
1751620577168532700,6.29853271484375,-0.004276053514331579,0.002290742937475443,0.0032070400193333626
1751620577187356200,6.317356201171875,-0.004276053514331579,0.002290742937475443,0.0032070400193333626
1751620577206179800,6.336179931640625,-0.004276053514331579,0.002290742937475443,0.0032070400193333626
1751620577225003300,6.355003173828125,-0.004276053514331579,0.002290742937475443,0.0032070400193333626
1751620577243826700,6.37382666015625,-0.004276053514331579,0.002290742937475443,0.004428769461810589
1751620577262650000,6.392650146484375,-0.004276053514331579,0.002290742937475443,0.0032070400193333626
1751620577281473500,6.4114736328125,-0.0030543238390237093,0.003512472379952669,0.0032070400193333626
1751620577300297000,6.430296875,-0.004276053514331579,0.002290742937475443,0.0032070400193333626
1751620577319120600,6.44912060546875,-0.004276053514331579,0.002290742937475443,0.0032070400193333626
1751620577337944000,6.467944091796875,-0.0054977829568088055,0.002290742937475443,0.004428769461810589
1751620577356767500,6.486767578125,-0.004276053514331579,0.002290742937475443,0.004428769461810589
1751620577375591000,6.5055908203125,-0.0054977829568088055,0.002290742937475443,0.0032070400193333626
1751620577394414300,6.524414306640625,-0.0054977829568088055,0.002290742937475443,0.004428769461810589
1751620577413238000,6.543238037109375,-0.0054977829568088055,0.002290742937475443,0.0032070400193333626
1751620577432061400,6.5620615234375,-0.004276053514331579,0.002290742937475443,0.0032070400193333626
1751620577450884900,6.580884765625,-0.004276053514331579,0.002290742937475443,0.004428769461810589
1751620577469708300,6.599708251953125,-0.004276053514331579,0.002290742937475443,0.0032070400193333626
1751620577488531700,6.61853173828125,-0.004276053514331579,0.002290742937475443,0.0032070400193333626
1751620577507355100,6.637355224609375,-0.004276053514331579,0.002290742937475443,0.0032070400193333626
1751620577526178800,6.6561787109375,-0.004276053514331579,0.002290742937475443,0.0032070400193333626
1751620577545002200,6.675002197265625,-0.004276053514331579,0.002290742937475443,0.0032070400193333626
1751620577563825700,6.69382568359375,-0.004276053514331579,0.002290742937475443,0.004428769461810589
1751620577582649000,6.712649169921875,-0.004276053514331579,0.002290742937475443,0.004428769461810589
1751620577601472800,6.73147265625,-0.004276053514331579,0.002290742937475443,0.0032070400193333626
1751620577620296200,6.750296142578125,-0.004276053514331579,0.002290742937475443,0.004428769461810589
1751620577639119600,6.76911962890625,-0.004276053514331579,0.002290742937475443,0.004428769461810589
1751620577657943000,6.787943115234375,-0.004276053514331579,0.002290742937475443,0.0032070400193333626
1751620577676766500,6.806766357421875,-0.004276053514331579,0.003512472379952669,0.004428769461810589
1751620577695590000,6.82558984375,-0.004276053514331579,0.002290742937475443,0.0032070400193333626
1751620577714413600,6.84441357421875,-0.004276053514331579,0.003512472379952669,0.0032070400193333626
1751620577733237000,6.863237060546875,-0.004276053514331579,0.002290742937475443,0.0032070400193333626
1751620577752060400,6.882060302734375,-0.004276053514331579,0.002290742937475443,0.0032070400193333626
1751620577770883800,6.9008837890625,-0.004276053514331579,0.002290742937475443,0.0032070400193333626
1751620577789707300,6.919707275390625,-0.0054977829568088055,0.002290742937475443,0.004428769461810589
1751620577808531000,6.938531005859375,-0.004276053514331579,0.0010690133785828948,0.004428769461810589
1751620577827354400,6.957354248046875,-0.004276053514331579,0.002290742937475443,0.0032070400193333626
1751620577846177800,6.976177734375,-0.004276053514331579,0.0010690133785828948,0.004428769461810589
1751620577865001200,6.995001220703125,-0.004276053514331579,0.002290742937475443,0.0032070400193333626
1751620577883824600,7.01382470703125,-0.004276053514331579,0.002290742937475443,0.004428769461810589
1751620577902648000,7.03264794921875,-0.004276053514331579,0.002290742937475443,0.0032070400193333626
1751620577921471700,7.0514716796875,-0.004276053514331579,0.002290742937475443,0.0032070400193333626
1751620577940295200,7.070295166015625,-0.004276053514331579,0.002290742937475443,0.0032070400193333626
1751620577959118600,7.08911865234375,-0.004276053514331579,0.003512472379952669,0.0032070400193333626
1751620577977942000,7.10794189453125,-0.004276053514331579,0.003512472379952669,0.0032070400193333626
1751620577996765400,7.126765380859375,-0.004276053514331579,0.002290742937475443,0.0032070400193333626
1751620578015589000,7.145589111328125,-0.004276053514331579,0.002290742937475443,0.004428769461810589
1751620578034412500,7.16441259765625,-0.004276053514331579,0.0010690133785828948,0.0032070400193333626
1751620578053236000,7.183236083984375,-0.004276053514331579,0.0010690133785828948,0.004428769461810589
1751620578072059400,7.202059326171875,-0.0054977829568088055,0.002290742937475443,0.004428769461810589
1751620578090882800,7.2208828125,-0.004276053514331579,0.002290742937475443,0.004428769461810589
1751620578109706500,7.23970654296875,-0.004276053514331579,0.002290742937475443,0.0032070400193333626
1751620578128530000,7.258530029296875,-0.004276053514331579,0.002290742937475443,0.0032070400193333626
1751620578147353300,7.277353271484375,-0.004276053514331579,0.002290742937475443,0.0032070400193333626
1751620578166176800,7.2961767578125,-0.004276053514331579,0.002290742937475443,0.0032070400193333626
1751620578185000200,7.315000244140625,-0.004276053514331579,0.003512472379952669,0.0032070400193333626
1751620578203823600,7.33382373046875,-0.004276053514331579,0.003512472379952669,0.0032070400193333626
1751620578222647300,7.352647216796875,-0.004276053514331579,0.002290742937475443,0.0032070400193333626
1751620578241470700,7.371470703125,-0.004276053514331579,0.002290742937475443,0.0032070400193333626
1751620578260294100,7.390294189453125,-0.0054977829568088055,0.002290742937475443,0.0032070400193333626
1751620578279117600,7.40911767578125,-0.004276053514331579,0.002290742937475443,0.004428769461810589
1751620578297941200,7.427941162109375,-0.0054977829568088055,0.002290742937475443,0.0032070400193333626
1751620578316764700,7.4467646484375,-0.004276053514331579,0.0010690133785828948,0.004428769461810589
1751620578335588000,7.465588134765625,-0.004276053514331579,0.002290742937475443,0.0032070400193333626
1751620578354411500,7.48441162109375,-0.004276053514331579,0.002290742937475443,0.0032070400193333626
1751620578373235000,7.50323486328125,-0.004276053514331579,0.002290742937475443,0.0032070400193333626
1751620578392058600,7.52205859375,-0.004276053514331579,0.002290742937475443,0.0032070400193333626
1751620578410882000,7.540882080078125,-0.004276053514331579,0.002290742937475443,0.0032070400193333626
1751620578429705500,7.55970556640625,-0.004276053514331579,0.003512472379952669,0.0032070400193333626
1751620578448529000,7.57852880859375,-0.004276053514331579,0.002290742937475443,0.0032070400193333626
1751620578467352300,7.597352294921875,-0.0054977829568088055,0.003512472379952669,0.0032070400193333626
1751620578486176000,7.616176025390625,-0.0030543238390237093,0.002290742937475443,0.0032070400193333626
1751620578504999400,7.63499951171875,-0.004276053514331579,0.002290742937475443,0.004428769461810589
1751620578523822800,7.65382275390625,-0.004276053514331579,0.002290742937475443,0.004428769461810589
1751620578542646300,7.672646240234375,-0.0054977829568088055,0.03756818547844887,0.0154243353754282
1751620578561469700,7.6914697265625,-0.001832594396546483,-0.05635227635502815,-0.011453714221715927
1751620578580293400,7.71029345703125,-0.0030543238390237093,0.009621120058000088,0.005650499369949102
1751620578599116800,7.72911669921875,-0.004276053514331579,0.01695149764418602,0.008093958720564842
1751620578617940200,7.747940185546875,-0.0030543238390237093,-0.07345648854970932,-0.018631376326084137
1751620578636763600,7.766763671875,-0.0054977829568088055,0.002290742937475443,0.0032070400193333626
1751620578655587000,7.785587158203125,-0.004276053514331579,0.005955931730568409,0.004428769461810589
1751620578674410800,7.80441064453125,-0.0054977829568088055,-0.01359174121171236,-0.001679878099821508
1751620578693234200,7.823234130859375,-0.010384701192378998,-0.0539088174700737,-0.01511890348047018
1751620578712057600,7.8420576171875,-0.03237583488225937,-0.11988221108913422,-0.035735588520765305
1751620578730881000,7.860881103515625,-0.06291907280683517,0.003512472379952669,0.004428769461810589
1751620578749704400,7.879704345703125,-0.05803215503692627,0.08032871782779694,0.030085090547800064
1751620578768528100,7.898528076171875,-0.02260199747979641,0.0206166859716177,0.010537417605519295
1751620578787351600,7.9173515625,-0.0030543238390237093,-0.014813470654189587,-0.001679878099821508
1751620578806175000,7.936175048828125,-0.0030543238390237093,-0.020922118797898293,-0.004123337101191282
1751620578824998400,7.954998291015625,-0.004276053514331579,-0.009926552884280682,-0.00045814859913662076
1751620578843822000,7.973822021484375,-0.0054977829568088055,0.009621120058000088,0.005650499369949102
1751620578862645500,7.9926455078125,-0.006719512399286032,0.032681263983249664,0.012980876490473747
1751620578881469000,8.011468994140625,-0.0054977829568088055,0.03390299528837204,0.014202605932950974
1751620578900292400,8.030292236328124,-0.004276053514331579,0.002290742937475443,0.0032070400193333626
1751620578919116000,8.049115966796874,-0.006719512399286032,0.02779434807598591,0.011759147047996521
1751620578937939500,8.067939453125,-0.007941242307424545,0.024281874299049377,0.010537417605519295
1751620578956763000,8.086762939453125,-0.04825831577181816,0.014508038759231567,0.008093958720564842
1751620578975586300,8.10558642578125,-0.1081230640411377,0.030390523374080658,0.011759147047996521
1751620578994409700,8.12440966796875,-0.13133592903614044,0.007177661173045635,0.004428769461810589
1751620579013233400,8.1432333984375,-0.12767073512077332,-0.0038179049734026194,0.0007635809597559273
1751620579032056800,8.162056884765626,-0.12522727251052856,-0.0025961752980947495,0.0019853105768561363
1751620579050880300,8.18088037109375,-0.14110976457595825,-0.0025961752980947495,0.0019853105768561363
1751620579069703700,8.19970361328125,-0.28038692474365234,0.009621120058000088,0.004428769461810589
1751620579088527000,8.218527099609375,-0.4172206521034241,0.010842849500477314,0.0032070400193333626
1751620579107350800,8.237350830078125,-0.4514290690422058,0.005955931730568409,0.0032070400193333626
1751620579135586000,8.2655859375,-0.34636032581329346,-0.0001527161948615685,0.0019853105768561363
1751620579154409500,8.284409423828125,-0.23884813487529755,-0.007483093533664942,-0.00045814859913662076
1751620579173233000,8.30323291015625,-0.17531819641590118,-0.020922118797898293,-0.002901607658714056
1751620579192056300,8.322056396484374,-0.22663083672523499,-0.02214384824037552,-0.005345067009329796
1751620579210880000,8.3408798828125,-0.4196641147136688,-0.02214384824037552,-0.005345067009329796
1751620579229703400,8.359703369140625,-0.6359102129936218,0.0010690133785828948,0.0007635809597559273
1751620579248526800,8.37852685546875,-0.7263182401657104,0.01695149764418602,0.005650499369949102
1751620579267350300,8.397350341796875,-0.6750055551528931,0.0010690133785828948,-0.00045814859913662076
1751620579286173700,8.416173583984374,-0.5467239618301392,-0.005039634648710489,-0.001679878099821508
1751620579304997400,8.434997314453126,-0.4050033390522003,-0.009926552884280682,-0.00045814859913662076
1751620579323820800,8.45382080078125,-0.3292561173439026,-0.011148282326757908,-0.00045814859913662076
1751620579342644200,8.472644287109375,-0.3488037884235382,-0.02825249545276165,-0.006566796451807022
1751620579361467600,8.491467529296875,-0.4318813979625702,-0.04535670951008797,-0.013744457624852657
1751620579380291300,8.510291259765625,-0.5418370366096497,-0.02458730712532997,-0.006566796451807022
1751620579399114800,8.52911474609375,-0.6163625717163086,-0.017256930470466614,-0.004123337101191282
1751620579417938200,8.547938232421876,-0.6151408553123474,-0.025809036567807198,-0.006566796451807022
1751620579436761600,8.56676171875,-0.555276095867157,-0.014813470654189587,-0.004123337101191282
1751620579455585000,8.5855849609375,-0.46486809849739075,-0.011148282326757908,-0.002901607658714056
1751620579474408700,8.60440869140625,-0.4001164436340332,-0.03191768378019333,-0.0102319847792387
1751620579493232000,8.623232177734375,-0.4269944727420807,-0.023365577682852745,-0.006566796451807022
1751620579512055600,8.6420556640625,-0.5174024701118469,0.013286309316754341,0.004428769461810589
1751620579530879000,8.66087890625,-0.593149721622467,0.05955931544303894,0.020311253145337105
1751620579549702700,8.67970263671875,-0.6102539300918579,-0.01359174121171236,-0.004123337101191282
1751620579568526000,8.698526123046875,-0.5601630210876465,-0.005039634648710489,-0.001679878099821508
1751620579587349500,8.717349609375,-0.48563748598098755,-0.0013744457392022014,0.0007635809597559273
1751620579606173200,8.736173095703125,-0.4453204274177551,0.014508038759231567,0.005650499369949102
1751620579624996600,8.75499658203125,-0.43921178579330444,0.01206457894295454,0.004428769461810589
1751620579643820000,8.773820068359376,-0.4612029194831848,0.03527744114398956,0.010537417605519295
1751620579662643500,8.7926435546875,-0.48930269479751587,-0.0025961752980947495,0.0007635809597559273
1751620579681467100,8.811467041015625,-0.5601630210876465,-0.009926552884280682,-0.001679878099821508
1751620579700290600,8.83029052734375,-0.6579013466835022,-0.033139415085315704,-0.007788525894284248
1751620579719114000,8.849114013671874,-0.7654135823249817,-0.02214384824037552,-0.006566796451807022
1751620579737937400,8.8679375,-0.8191696405410767,-0.019700389355421066,-0.006566796451807022
1751620579756760800,8.8867607421875,-0.7886264324188232,-0.027030766010284424,-0.006566796451807022
1751620579775584500,8.90558447265625,-0.7324268817901611,-0.02825249545276165,-0.007788525894284248
1751620579794408000,8.924407958984375,-0.7055488228797913,-0.023365577682852745,-0.005345067009329796
1751620579813231400,8.9432314453125,-0.6737838387489319,-0.008704823441803455,-0.001679878099821508
1751620579832054800,8.9620546875,-0.6994401812553406,-0.0013744457392022014,-0.001679878099821508
1751620579850878500,8.98087841796875,-0.8155044913291931,-0.0062613640911877155,-0.002901607658714056
1751620579869702000,8.999701904296876,-0.9804379940032959,-0.020922118797898293,-0.006566796451807022
1751620579888525300,9.018525390625,-1.1074978113174438,-0.01359174121171236,-0.004123337101191282
1751620579907348700,9.0373486328125,-1.2333359718322754,-0.023365577682852745,-0.006566796451807022
1751620579926172400,9.05617236328125,-1.32985258102417,-0.023365577682852745,-0.007788525894284248
1751620579944995800,9.074995849609374,-1.320078730583191,-0.019700389355421066,-0.006566796451807022
1751620579963819300,9.0938193359375,-1.2418880462646484,-0.01847865991294384,-0.005345067009329796
1751620579982642700,9.112642578125,-1.1624757051467896,-0.01359174121171236,-0.005345067009329796
1751620580001466400,9.13146630859375,-1.0989457368850708,-0.016035201027989388,-0.005345067009329796
1751620580020289800,9.150289794921875,-1.0684025287628174,-0.017256930470466614,-0.005345067009329796
1751620580039113200,9.16911328125,-1.0415244102478027,-0.01847865991294384,-0.005345067009329796
1751620580057936600,9.1879365234375,-1.0012073516845703,-0.03802633285522461,-0.009010255336761475
1751620580076760300,9.20676025390625,-0.9291253089904785,-0.02214384824037552,-0.005345067009329796
1751620580095583700,9.225583740234375,-0.8179479241371155,-0.02458730712532997,-0.006566796451807022
1751620580114407200,9.2444072265625,-0.7177661061286926,-0.0013744457392022014,-0.00045814859913662076
1751620580133230600,9.263230712890625,-0.7177661061286926,-0.0062613640911877155,-0.001679878099821508
1751620580152054300,9.28205419921875,-0.7935133576393127,-0.009926552884280682,-0.001679878099821508
1751620580170877700,9.300877685546874,-0.8936951756477356,-0.03191768378019333,-0.007788525894284248
1751620580189701000,9.319701171875,-0.9303470849990845,-0.016035201027989388,-0.004123337101191282
1751620580208524800,9.33852490234375,-0.8863648176193237,-0.007483093533664942,-0.002901607658714056
1751620580227348200,9.35734814453125,-0.8289434909820557,-0.009926552884280682,-0.002901607658714056
1751620580246171600,9.376171630859375,-0.7776308655738831,-0.011148282326757908,-0.001679878099821508
1751620580264995000,9.3949951171875,-0.7690787315368652,-0.0001527161948615685,0.0007635809597559273
1751620580283818800,9.41381884765625,-0.7812960743904114,-0.007483093533664942,-0.002901607658714056
1751620580302642200,9.43264208984375,-0.8216131329536438,-0.01359174121171236,-0.002901607658714056
1751620580321465600,9.451465576171875,-0.8778126835823059,-0.014813470654189587,-0.004123337101191282
1751620580340289300,9.470289306640625,-0.9608902931213379,-0.01359174121171236,-0.005345067009329796
1751620580359112700,9.48911279296875,-1.035415768623352,-0.016035201027989388,-0.006566796451807022
1751620580377936100,9.50793603515625,-1.1050543785095215,-0.09911280870437622,-0.02718348242342472
1751620580396759600,9.526759521484376,-1.0781763792037964,-0.030695954337716103,-0.011453714221715927
1751620580415583200,9.545583251953126,-0.963333785533905,-0.020922118797898293,-0.007788525894284248
1751620580434406700,9.56440673828125,-0.842382550239563,-0.017256930470466614,-0.006566796451807022
1751620580453230000,9.58322998046875,-0.7519745230674744,-0.012370011769235134,-0.004123337101191282
1751620580472053500,9.602053466796875,-0.6737838387489319,-0.011148282326757908,-0.004123337101191282
1751620580490877200,9.620877197265624,-0.6175842881202698,-0.012370011769235134,-0.002901607658714056
1751620580509700600,9.63970068359375,-0.5626064538955688,-0.008704823441803455,-0.001679878099821508
1751620580528524000,9.65852392578125,-0.49663305282592773,-0.005039634648710489,-0.001679878099821508
1751620580547347500,9.677347412109375,-0.48075059056282043,-0.005039634648710489,-0.00045814859913662076
1751620580566171100,9.696171142578125,-0.5418370366096497,-0.008704823441803455,-0.001679878099821508
1751620580584994600,9.71499462890625,-0.6249146461486816,-0.01359174121171236,-0.004123337101191282
1751620580603818000,9.73381787109375,-0.6725621223449707,-0.01847865991294384,-0.005345067009329796
1751620580622641700,9.7526416015625,-0.676227331161499,-0.02214384824037552,-0.005345067009329796
1751620580641465000,9.771465087890626,-0.6640099883079529,-0.04046979174017906,-0.0102319847792387
1751620580660288500,9.79028857421875,-0.6737838387489319,-0.0062613640911877155,-0.00045814859913662076
1751620580679112000,9.80911181640625,-0.767857015132904,-0.04413498193025589,-0.011453714221715927
1751620580697935600,9.827935546875,-0.8655954003334045,-0.009926552884280682,-0.001679878099821508
1751620580716759000,9.846759033203124,-0.905912458896637,-0.01359174121171236,-0.002901607658714056
1751620580735582500,9.86558251953125,-0.8778126835823059,-0.03436114266514778,-0.009010255336761475
1751620580754406100,9.88440625,-0.8545998334884644,-0.020922118797898293,-0.004123337101191282
1751620580773229600,9.9032294921875,-0.8582650423049927,-0.04413498193025589,-0.012675444595515728
1751620580792053000,9.922052978515625,-0.9230166673660278,0.014508038759231567,0.0032070400193333626
1751620580810876400,9.94087646484375,-1.0293071269989014,0.01695149764418602,0.0032070400193333626
1751620580829700000,9.9597001953125,-1.1380411386489868,-0.019700389355421066,-0.006566796451807022
1751620580848523500,9.9785234375,-1.1808016300201416,-0.025809036567807198,-0.009010255336761475
1751620580867347000,9.997346923828125,-1.1099413633346558,-0.016035201027989388,-0.006566796451807022
1751620580886170600,10.016170654296875,-0.9706641435623169,-0.017256930470466614,-0.005345067009329796
1751620580904994000,10.034994140625,-0.8814778923988342,-0.01359174121171236,-0.004123337101191282
1751620580923817500,10.0538173828125,-0.9071341753005981,-0.01847865991294384,-0.005345067009329796
1751620580942641000,10.072640869140624,-1.063515543937683,-0.014813470654189587,-0.005345067009329796
1751620580961464600,10.091464599609376,-1.3176352977752686,-0.02458730712532997,-0.009010255336761475
1751620580980288000,10.1102880859375,-1.4398082494735718,-0.05757400393486023,-0.019853105768561363
1751620580999111400,10.129111328125,-1.40559983253479,0.02779434807598591,0.004428769461810589
1751620581017935000,10.14793505859375,-1.2736530303955078,-0.020922118797898293,-0.009010255336761475
1751620581036758500,10.166758544921874,-1.1062761545181274,-0.052687086164951324,-0.016340631991624832
1751620581055582000,10.18558203125,-0.915686309337616,-0.020922118797898293,-0.005345067009329796
1751620581074405400,10.2044052734375,-0.7898481488227844,-0.020922118797898293,-0.006566796451807022
1751620581093229000,10.22322900390625,-0.7874047160148621,-0.020922118797898293,-0.006566796451807022
1751620581112052500,10.242052490234375,-0.8900299668312073,-0.008704823441803455,-0.002901607658714056
1751620581130876000,10.2608759765625,-1.026863694190979,-0.02825249545276165,-0.009010255336761475
1751620581149699600,10.279699462890624,-1.094058871269226,-0.02458730712532997,-0.009010255336761475
1751620581168523000,10.29852294921875,-1.0305289030075073,-0.027030766010284424,-0.009010255336761475
1751620581187346400,10.317346435546876,-0.9132428169250488,-0.04169152304530144,-0.012675444595515728
1751620581206169900,10.336169921875,-0.8387173414230347,-0.03191768378019333,-0.0102319847792387
1751620581224993500,10.35499365234375,-0.7776308655738831,-0.0013744457392022014,-0.00045814859913662076
1751620581243817000,10.37381689453125,-0.813060998916626,0.019394956529140472,0.005650499369949102
1751620581262640400,10.392640380859374,-0.9841031432151794,-0.014813470654189587,-0.005345067009329796
1751620581281464000,10.411464111328126,-1.007315993309021,-0.011148282326757908,-0.005345067009329796
1751620581300287500,10.43028759765625,-0.8081740736961365,-0.020922118797898293,-0.005345067009329796
1751620581319111000,10.44911083984375,-0.6126973628997803,-0.01359174121171236,-0.002901607658714056
1751620581337934300,10.467934326171875,-0.5332849621772766,-0.005039634648710489,-0.00045814859913662076
1751620581356758000,10.486758056640625,-0.5907062292098999,-0.007483093533664942,-0.001679878099821508
1751620581375581400,10.50558154296875,-0.7153226733207703,-0.01359174121171236,-0.004123337101191282
1751620581394404900,10.52440478515625,-0.7458658814430237,-0.023365577682852745,-0.005345067009329796
1751620581413228500,10.543228515625,-0.6456840634346008,-0.017256930470466614,-0.002901607658714056
1751620581432052000,10.562052001953125,-0.4783071279525757,-0.0062613640911877155,-0.00045814859913662076
1751620581450875400,10.58087548828125,-0.38667741417884827,-0.0025961752980947495,0.0007635809597559273
1751620581469699000,10.599698974609375,-0.4575377106666565,-0.009926552884280682,-0.00045814859913662076
1751620581488522500,10.6185224609375,-0.6395754218101501,-0.007483093533664942,-0.001679878099821508
1751620581507346000,10.637345947265626,-0.7996219992637634,-0.016035201027989388,-0.005345067009329796
1751620581526169300,10.65616943359375,-0.7519745230674744,-0.02214384824037552,-0.005345067009329796
1751620581544993000,10.674992919921875,-0.5699368119239807,-0.01359174121171236,-0.002901607658714056
1751620581563816400,10.69381640625,-0.4257727563381195,-0.005039634648710489,0.0007635809597559273
1751620581582639900,10.712639892578125,-0.43432486057281494,-0.0025961752980947495,-0.00045814859913662076
1751620581601463600,10.731463623046874,-0.5198459029197693,-0.0038179049734026194,-0.00045814859913662076
1751620581620287000,10.750286865234376,-0.5235111117362976,-0.005039634648710489,-0.00045814859913662076
1751620581639110400,10.7691103515625,-0.472198486328125,-0.005039634648710489,0.0007635809597559273
1751620581657933800,10.787933837890625,-0.37690356373786926,-0.0038179049734026194,0.0007635809597559273
1751620581676757500,10.806757568359375,-0.37201663851737976,-0.0038179049734026194,0.0007635809597559273
1751620581695581000,10.825580810546874,-0.430659681558609,-0.005039634648710489,-0.00045814859913662076
1751620581714404400,10.844404296875,-0.500298261642456,-0.0062613640911877155,-0.00045814859913662076
1751620581733228000,10.86322802734375,-0.5406153202056885,-0.007483093533664942,-0.00045814859913662076
1751620581752051500,10.882051513671875,-0.5613847374916077,-0.007483093533664942,-0.001679878099821508
1751620581770875000,10.900875,-0.5919279456138611,-0.011148282326757908,-0.001679878099821508
1751620581789698600,10.919698486328125,-0.5699368119239807,-0.009926552884280682,-0.001679878099821508
1751620581808522000,10.93852197265625,-0.5076286196708679,-0.008704823441803455,-0.001679878099821508
1751620581827345400,10.957345458984374,-0.43432486057281494,-0.007483093533664942,-0.00045814859913662076
1751620581846168800,10.9761689453125,-0.4001164436340332,-0.005039634648710489,0.0007635809597559273
1751620581864992500,10.994992431640625,-0.4563159942626953,-0.0013744457392022014,0.0007635809597559273
1751620581883816000,11.01381591796875,-0.5479456782341003,-0.0062613640911877155,-0.00045814859913662076
1751620581902639400,11.032639404296875,-0.5418370366096497,-0.011148282326757908,-0.001679878099821508
1751620581921463000,11.051463134765624,-0.4416552484035492,-0.023365577682852745,-0.004123337101191282
1751620581940286500,11.070286376953124,-0.39278605580329895,0.004734201822429895,0.0032070400193333626
1751620581959110000,11.08910986328125,-0.47586366534233093,-0.016035201027989388,-0.002901607658714056
1751620581977933600,11.10793359375,-0.5393936038017273,-0.04169152304530144,-0.0102319847792387
1751620581996757000,11.126757080078125,-0.6615665555000305,-0.11866047978401184,-0.031001387163996696
1751620582015580400,11.145580322265625,-0.7263182401657104,-0.016035201027989388,-0.001679878099821508
1751620582034404000,11.164404052734374,-0.5442805290222168,-0.019700389355421066,-0.001679878099821508
1751620582053227500,11.1832275390625,-0.3500255048274994,-0.005039634648710489,0.0032070400193333626
1751620582072051000,11.202051025390626,-0.37812530994415283,0.003512472379952669,0.004428769461810589
1751620582090874600,11.22087451171875,-0.47097674012184143,-0.009926552884280682,-0.00045814859913662076
1751620582109698000,11.239697998046875,-0.4379900395870209,-0.009926552884280682,-0.001679878099821508
1751620582128521500,11.258521484375,-0.3744601011276245,-0.009926552884280682,-0.00045814859913662076
1751620582147345000,11.277344970703124,-0.37201663851737976,0.002290742937475443,0.0032070400193333626
1751620582166168600,11.29616845703125,-0.4355465769767761,-0.011148282326757908,-0.002901607658714056
1751620582184992000,11.314991943359376,-0.5149590373039246,-0.008704823441803455,-0.001679878099821508
1751620582203815400,11.3338154296875,-0.5919279456138611,-0.017256930470466614,-0.005345067009329796
1751620582222639000,11.35263916015625,-0.648127555847168,-0.012370011769235134,-0.004123337101191282
1751620582241462500,11.371462646484375,-0.6310232877731323,-0.008704823441803455,-0.002901607658714056
1751620582260286000,11.390285888671874,-0.5723803043365479,0.0010690133785828948,-0.00045814859913662076
1751620582279109600,11.409109619140626,-0.5406153202056885,-0.0025961752980947495,-0.00045814859913662076
1751620582297933000,11.42793310546875,-0.6163625717163086,-0.0025961752980947495,-0.00045814859913662076
1751620582316756500,11.446756591796875,-0.6615665555000305,-0.036804601550102234,-0.012675444595515728
1751620582335580200,11.465580078125,-0.6456840634346008,-0.017256930470466614,-0.006566796451807022
1751620582354403600,11.484403564453125,-0.6579013466835022,-0.009926552884280682,-0.002901607658714056
1751620582373227000,11.50322705078125,-0.7470875978469849,-0.07345648854970932,-0.024740023538470268
1751620582392050700,11.52205078125,-0.7104357481002808,-0.02458730712532997,-0.0102319847792387
1751620582410874000,11.5408740234375,-0.5980366468429565,0.08155044913291931,0.02764163166284561
1751620582429697500,11.559697509765625,-0.6175842881202698,0.03756818547844887,0.014202605932950974
1751620582448521000,11.57852099609375,-0.593149721622467,0.003512472379952669,0.0007635809597559273
1751620582467344600,11.5973447265625,-0.4978547990322113,-0.0025961752980947495,-0.00045814859913662076
1751620582486168000,11.61616796875,-0.40255987644195557,-0.0001527161948615685,0.0007635809597559273
1751620582504991500,11.634991455078126,-0.4196641147136688,-0.0062613640911877155,-0.001679878099821508
1751620582523815200,11.653815185546875,-0.44898560643196106,-0.008704823441803455,-0.001679878099821508
1751620582542638600,11.672638671875,-0.4575377106666565,-0.01359174121171236,-0.001679878099821508
1751620582561462000,11.6914619140625,-0.3659079968929291,-0.01847865991294384,-0.002901607658714056
1751620582580285700,11.71028564453125,-0.2718348205089569,-0.023365577682852745,-0.004123337101191282
1751620582599109000,11.729109130859374,-0.2864955961704254,-0.01847865991294384,-0.004123337101191282
1751620582617932500,11.7479326171875,-0.2510654330253601,0.018173227086663246,0.008093958720564842
1751620582636756200,11.766756103515625,-0.2522871494293213,-0.02214384824037552,-0.005345067009329796
1751620582655579600,11.78557958984375,-0.3023780584335327,0.014508038759231567,0.004428769461810589
1751620582674403000,11.804403076171875,-0.3390299379825592,-0.036804601550102234,-0.011453714221715927
1751620582693226800,11.823226806640625,-0.21197007596492767,-0.06123919412493706,-0.019853105768561363
1751620582712050200,11.84205029296875,-0.14233149588108063,-0.04780016839504242,-0.016340631991624832
1751620582730873600,11.86087353515625,-0.19242240488529205,-0.09178243577480316,-0.031001387163996696
1751620582749697300,11.879697265625,-0.1997527778148651,-0.058795735239982605,-0.019853105768561363
1751620582768520700,11.898520751953125,-0.1533270627260208,0.04978547990322113,0.017867794260382652
1751620582787344100,11.91734423828125,-0.13988803327083588,0.0461202897131443,0.016646064817905426
1751620582806167800,11.936167724609374,-0.14721840620040894,0.07299833744764328,0.026419902220368385
1751620582824991200,11.9549912109375,-0.14599667489528656,0.009621120058000088,0.005650499369949102
1751620582843814700,11.973814697265626,-0.1899789422750473,0.015729768201708794,0.006872228812426329
1751620582862638300,11.992638427734375,-0.24740023910999298,0.018173227086663246,0.008093958720564842
1751620582881461800,12.011461669921875,-0.3597993552684784,0.019394956529140472,0.008093958720564842
1751620582900285200,12.03028515625,-0.4673115611076355,0.010842849500477314,0.0032070400193333626
1751620582919108900,12.04910888671875,-0.4831940531730652,0.003512472379952669,0.0007635809597559273
1751620582937932300,12.067932373046874,-0.47586366534233093,-0.0001527161948615685,-0.00045814859913662076
1751620582956755700,12.086755615234376,-0.46975502371788025,0.002290742937475443,0.0007635809597559273
1751620582975579100,12.1055791015625,-0.48441576957702637,-0.0013744457392022014,-0.00045814859913662076
1751620582994402800,12.12440283203125,-0.5161807537078857,0.008399390615522861,0.0032070400193333626
1751620583013226200,12.143226318359375,-0.5601630210876465,0.003512472379952669,0.0007635809597559273
1751620583032049700,12.162049560546874,-0.5845975875854492,0.003512472379952669,0.0007635809597559273
1751620583050873300,12.180873291015626,-0.46486809849739075,-0.005039634648710489,0.0007635809597559273
1751620583069696800,12.19969677734375,-0.33169957995414734,-0.0013744457392022014,0.0019853105768561363
1751620583088520200,12.218520263671875,-0.258395791053772,-0.0038179049734026194,0.0007635809597559273
1751620583107344000,12.23734375,-0.31459537148475647,-0.005039634648710489,-0.00045814859913662076
1751620583126167300,12.256167236328125,-0.5100721120834351,-0.0062613640911877155,-0.002901607658714056
1751620583144990700,12.27499072265625,-0.7641918659210205,-0.007483093533664942,-0.004123337101191282
1751620583163814400,12.293814453125,-0.8753692507743835,-0.008704823441803455,-0.005345067009329796
1751620583182637800,12.312637939453126,-0.7409789562225342,-0.011148282326757908,-0.004123337101191282
1751620583201461200,12.331461181640625,-0.47952884435653687,-0.008704823441803455,-0.00045814859913662076
1751620583220285000,12.350284912109375,-0.2608392536640167,-0.005039634648710489,0.0007635809597559273
1751620583239108400,12.3691083984375,-0.1997527778148651,-0.0038179049734026194,0.0007635809597559273
1751620583257931800,12.387931884765624,-0.3133736252784729,-0.0038179049734026194,0.0007635809597559273
1751620583276755500,12.40675537109375,-0.5051851868629456,-0.0038179049734026194,-0.00045814859913662076
1751620583295579000,12.425578857421876,-0.6407971382141113,-0.0062613640911877155,-0.001679878099821508
1751620583314402300,12.44440234375,-0.6640099883079529,-0.007483093533664942,-0.001679878099821508
1751620583333226000,12.46322607421875,-0.583375871181488,-0.0062613640911877155,-0.00045814859913662076
1751620583352049400,12.48204931640625,-0.46975502371788025,-0.007483093533664942,0.0007635809597559273
1751620583370872800,12.500872802734374,-0.42455101013183594,-0.007483093533664942,0.0007635809597559273
1751620583389696500,12.519696533203126,-0.45020735263824463,-0.008704823441803455,-0.00045814859913662076
1751620583408520000,12.53852001953125,-0.56382817029953,-0.008704823441803455,-0.001679878099821508
1751620583427343400,12.55734326171875,-0.6860011219978333,-0.009926552884280682,-0.002901607658714056
1751620583446167000,12.5761669921875,-0.739757239818573,-0.01359174121171236,-0.002901607658714056
1751620583464990500,12.594990478515625,-0.6725621223449707,-0.01359174121171236,-0.002901607658714056
1751620583483814000,12.61381396484375,-0.5540543794631958,-0.023365577682852745,-0.004123337101191282
1751620583502637300,12.63263720703125,-0.5051851868629456,-0.02214384824037552,-0.004123337101191282
1751620583521461000,12.6514609375,-0.5186241865158081,-0.01359174121171236,-0.001679878099821508
1751620583540284400,12.670284423828125,-0.555276095867157,-0.019700389355421066,-0.002901607658714056
1751620583559107800,12.68910791015625,-0.6017017960548401,-0.005039634648710489,0.0007635809597559273
1751620583577931500,12.707931640625,-0.6114756464958191,-0.0038179049734026194,0.0007635809597559273
1751620583596755000,12.7267548828125,-0.5503891706466675,-0.007483093533664942,-0.00045814859913662076
1751620583615578400,12.745578369140626,-0.4673115611076355,-0.007483093533664942,-0.00045814859913662076
1751620583634402000,12.764402099609375,-0.42332929372787476,-0.011148282326757908,-0.001679878099821508
1751620583653225500,12.7832255859375,-0.45875945687294006,-0.033139415085315704,-0.007788525894284248
1751620583672049000,12.802048828125,-0.5320632457733154,-0.008704823441803455,-0.001679878099821508
1751620583690872600,12.82087255859375,-0.5748237371444702,-0.007483093533664942,-0.00045814859913662076
1751620583709696000,12.839696044921874,-0.5345066785812378,-0.008704823441803455,-0.001679878099821508
1751620583728519400,12.85851953125,-0.4734202027320862,-0.0062613640911877155,-0.00045814859913662076
1751620583747343000,12.877343017578125,-0.4196641147136688,-0.0038179049734026194,0.0007635809597559273
1751620583766166500,12.89616650390625,-0.3756818473339081,-0.0025961752980947495,0.0007635809597559273
1751620583784990000,12.914989990234375,-0.3390299379825592,-0.0013744457392022014,0.0007635809597559273
1751620583803813600,12.933813720703125,-0.3243691921234131,-0.0013744457392022014,0.0007635809597559273
1751620583822637000,12.952636962890624,-0.31093016266822815,-0.0013744457392022014,0.0019853105768561363
1751620583841460500,12.97146044921875,-0.27427828311920166,-0.0013744457392022014,0.0019853105768561363
1751620583860284200,12.9902841796875,-0.23273947834968567,-0.0013744457392022014,0.0019853105768561363
1751620583879107600,13.009107666015625,-0.1997527778148651,-0.0025961752980947495,0.0007635809597559273
1751620583897931000,13.027930908203125,-0.21441353857517242,-0.0025961752980947495,0.0007635809597559273
1751620583916754700,13.046754638671874,-0.2706131041049957,-0.0038179049734026194,0.0007635809597559273
1751620583935578000,13.065578125,-0.3194822669029236,-0.005039634648710489,0.0007635809597559273
1751620583954401500,13.084401611328126,-0.3402516841888428,-0.0062613640911877155,0.0007635809597559273
1751620583973225200,13.10322509765625,-0.35124725103378296,-0.0062613640911877155,0.0007635809597559273
1751620583992048600,13.122048583984375,-0.3610210716724396,-0.0062613640911877155,0.0007635809597559273
1751620584010872000,13.1408720703125,-0.34147340059280396,-0.005039634648710489,0.0007635809597559273
1751620584029695700,13.15969580078125,-0.31459537148475647,-0.0038179049734026194,0.0007635809597559273
1751620584048519200,13.178519287109374,-0.32070401310920715,-0.005039634648710489,0.0007635809597559273
1751620584067342600,13.197342529296876,-0.347582072019577,-0.005039634648710489,0.0007635809597559273
1751620584086166300,13.216166259765625,-0.3500255048274994,-0.0038179049734026194,-0.00045814859913662076
1751620584104989700,13.23498974609375,-0.3182605504989624,-0.005039634648710489,-0.00045814859913662076
1751620584123813000,13.253813232421875,-0.28405213356018066,-0.0038179049734026194,0.0007635809597559273
1751620584142636800,13.27263671875,-0.27916520833969116,-0.0038179049734026194,0.0007635809597559273
1751620584161460200,13.291460205078126,-0.26450446248054504,-0.005039634648710489,0.0007635809597559273
1751620584180283600,13.31028369140625,-0.2620609998703003,-0.0038179049734026194,0.0007635809597559273
1751620584199107300,13.329107421875,-0.2657261788845062,-0.0025961752980947495,0.0007635809597559273
1751620584217930800,13.3479306640625,-0.2571740746498108,-0.0013744457392022014,0.0007635809597559273
1751620584236754200,13.366754150390625,-0.258395791053772,-0.005039634648710489,0.0007635809597559273
1751620584255577900,13.385577880859374,-0.2974911332130432,-0.0062613640911877155,-0.00045814859913662076
1751620584274401300,13.4044013671875,-0.3597993552684784,-0.017256930470466614,-0.002901607658714056
1751620584293224700,13.423224609375,-0.42455101013183594,-0.027030766010284424,-0.005345067009329796
1751620584312048400,13.44204833984375,-0.4783071279525757,-0.009926552884280682,-0.001679878099821508
1751620584330871800,13.460871826171875,-0.5393936038017273,0.010842849500477314,0.004428769461810589
1751620584349695200,13.4796953125,-0.5137372612953186,-0.007483093533664942,-0.001679878099821508
1751620584368519000,13.498518798828124,-0.4404335021972656,-0.011148282326757908,-0.00045814859913662076
1751620584387342300,13.51734228515625,-0.45509424805641174,-0.020922118797898293,-0.002901607658714056
1751620584406165800,13.536165771484375,-0.5320632457733154,-0.01847865991294384,-0.002901607658714056
1751620584424989400,13.554989501953125,-0.6041452884674072,-0.007483093533664942,-0.001679878099821508
1751620584443812900,13.573812744140625,-0.5919279456138611,0.0010690133785828948,0.0007635809597559273
1751620584462636300,13.59263623046875,-0.49052441120147705,-0.03191768378019333,-0.006566796451807022
1751620584481460000,13.6114599609375,-0.37201663851737976,-0.012370011769235134,-0.00045814859913662076
1751620584500283400,13.630283447265626,-0.31093016266822815,-0.0062613640911877155,-0.00045814859913662076
1751620584519106800,13.64910693359375,-0.3426951467990875,-0.0062613640911877155,0.0007635809597559273
1751620584537930500,13.667930419921875,-0.4111120104789734,-0.009926552884280682,-0.001679878099821508
1751620584556754000,13.68675390625,-0.4453204274177551,-0.008704823441803455,-0.001679878099821508
1751620584575577300,13.705577392578125,-0.4355465769767761,-0.01359174121171236,-0.001679878099821508
1751620584594401000,13.724401123046874,-0.41233372688293457,-0.014813470654189587,-0.002901607658714056
1751620584613224400,13.743224365234376,-0.4159989058971405,-0.03558287397027016,-0.009010255336761475
1751620584632047900,13.7620478515625,-0.4428769648075104,-0.03802633285522461,-0.009010255336761475
1751620584650871600,13.78087158203125,-0.4453204274177551,-0.02458730712532997,-0.005345067009329796
1751620584669695000,13.799695068359375,-0.4001164436340332,-0.023365577682852745,-0.004123337101191282
1751620584688518400,13.818518310546875,-0.37201663851737976,-0.005039634648710489,-0.00045814859913662076
1751620584707342000,13.837342041015624,-0.3744601011276245,-0.0038179049734026194,0.0007635809597559273
1751620584726165500,13.85616552734375,-0.40255987644195557,-0.005039634648710489,0.0007635809597559273
1751620584744989000,13.874989013671875,-0.4929678738117218,-0.0025961752980947495,0.0019853105768561363
1751620584763812600,13.8938125,-0.4831940531730652,-0.005039634648710489,-0.00045814859913662076
1751620584782636000,13.912635986328125,-0.4159989058971405,-0.0062613640911877155,-0.00045814859913662076
1751620584801459500,13.93145947265625,-0.3634645342826843,-0.007483093533664942,-0.00045814859913662076
1751620584820283100,13.950283203125,-0.37201663851737976,-0.0013744457392022014,-0.00045814859913662076
1751620584839106600,13.9691064453125,-0.38301220536231995,-0.008704823441803455,-0.001679878099821508
1751620584857930000,13.987929931640625,-0.3426951467990875,-0.009926552884280682,-0.001679878099821508
1751620584876753700,14.006753662109375,-0.31093016266822815,-0.005039634648710489,-0.00045814859913662076
1751620584895577000,14.0255771484375,-0.29138249158859253,-0.0025961752980947495,0.0007635809597559273
1751620584914400500,14.044400390625,-0.2779434621334076,-0.0001527161948615685,0.0019853105768561363
1751620584933224200,14.06322412109375,-0.2315177470445633,-0.0013744457392022014,0.0019853105768561363
1751620584952047600,14.082047607421876,-0.1594357043504715,0.0010690133785828948,0.0019853105768561363
1751620584970871000,14.10087109375,-0.08368847519159317,0.003512472379952669,0.0032070400193333626
1751620584989694700,14.11969482421875,-0.07147117704153061,0.007177661173045635,0.004428769461810589
1751620585008518100,14.13851806640625,-0.07635809481143951,0.002290742937475443,0.0032070400193333626
1751620585027341600,14.157341552734374,-0.10690133273601532,0.007177661173045635,0.004428769461810589
1751620585046165200,14.176165283203124,-0.12278381735086441,0.002290742937475443,0.0032070400193333626
1751620585064988700,14.19498876953125,-0.12278381735086441,0.002290742937475443,0.0032070400193333626
1751620585083812000,14.21381201171875,-0.10323614627122879,0.0010690133785828948,0.0019853105768561363
1751620585102635800,14.2326357421875,-0.14599667489528656,-0.0025961752980947495,0.0032070400193333626
1751620585121459200,14.251459228515625,-0.5711585879325867,-0.02825249545276165,-0.005345067009329796
1751620585140282600,14.27028271484375,-0.896138608455658,-0.007483093533664942,-0.001679878099821508
1751620585159106300,14.289106201171874,-0.9364557266235352,-0.0062613640911877155,-0.002901607658714056
1751620585177929700,14.3079296875,-0.7666352987289429,-0.007483093533664942,-0.002901607658714056
1751620585196753200,14.326753173828125,-0.5528326034545898,-0.0038179049734026194,-0.001679878099821508
1751620585215576800,14.345576904296875,-0.3952295184135437,-0.0001527161948615685,-0.00045814859913662076
1751620585234400300,14.364400146484375,-0.33536475896835327,-0.007483093533664942,-0.00045814859913662076
1751620585253223700,14.3832236328125,-0.30604326725006104,-0.007483093533664942,-0.001679878099821508
1751620585272047400,14.40204736328125,-0.2938259541988373,-0.009926552884280682,-0.00045814859913662076
1751620585290870800,14.420870849609376,-0.3536907136440277,-0.005039634648710489,-0.00045814859913662076
1751620585309694200,14.439694091796875,-0.42455101013183594,-0.005039634648710489,-0.00045814859913662076
1751620585328518000,14.458517822265625,-0.5039634704589844,-0.0038179049734026194,-0.00045814859913662076
1751620585347341300,14.47734130859375,-0.5699368119239807,-0.008704823441803455,-0.001679878099821508
1751620585366164700,14.496164794921874,-0.593149721622467,-0.008704823441803455,-0.001679878099821508
1751620585384988400,14.514988525390624,-0.5540543794631958,-0.007483093533664942,-0.00045814859913662076
1751620585403811800,14.533811767578126,-0.5467239618301392,-0.0062613640911877155,-0.00045814859913662076
1751620585422635300,14.55263525390625,-0.5760455131530762,-0.008704823441803455,-0.001679878099821508
1751620585441459000,14.571458984375,-0.6126973628997803,-0.009926552884280682,-0.001679878099821508
1751620585460282400,14.590282470703125,-0.638353705406189,-0.008704823441803455,-0.001679878099821508
1751620585479105800,14.609105712890624,-0.6175842881202698,-0.011148282326757908,-0.002901607658714056
1751620585497929500,14.627929443359376,-0.5674933791160583,-0.01847865991294384,-0.005345067009329796
1751620585516753000,14.6467529296875,-0.5137372612953186,-0.0038179049734026194,-0.001679878099821508
1751620585535576300,14.665576416015625,-0.4990765154361725,-0.009926552884280682,-0.002901607658714056
1751620585554400000,14.68439990234375,-0.5051851868629456,-0.04657844081521034,-0.012675444595515728
1751620585573223400,14.703223388671875,-0.5235111117362976,-0.029474224895238876,-0.009010255336761475
1751620585592046800,14.722046875,-0.5784889459609985,-0.009926552884280682,-0.002901607658714056
1751620585610870500,14.74087060546875,-0.6346884965896606,-0.0025961752980947495,-0.00045814859913662076
1751620585629694000,14.75969384765625,-0.6774490475654602,-0.014813470654189587,-0.004123337101191282
1751620585648517400,14.778517333984375,-0.7483093738555908,0.013286309316754341,0.004428769461810589
1751620585667340800,14.7973408203125,-0.8448259830474854,0.0206166859716177,0.006872228812426329
1751620585686164500,14.81616455078125,-0.8924734592437744,-0.017256930470466614,-0.004123337101191282
1751620585704988000,14.83498779296875,-0.8924734592437744,-0.04046979174017906,-0.011453714221715927
1751620585723811600,14.8538115234375,-0.8582650423049927,-0.049021899700164795,-0.013744457624852657
1751620585742635000,14.872635009765625,-0.8191696405410767,-0.058795735239982605,-0.01740964688360691
1751620585761458400,14.89145849609375,-0.841160774230957,-0.016035201027989388,-0.004123337101191282
1751620585780282000,14.9102822265625,-0.8765909671783447,0.014508038759231567,0.005650499369949102
1751620585799105500,14.92910546875,-0.8778126835823059,-0.007483093533664942,-0.002901607658714056
1751620585817929000,14.947928955078124,-0.8680388331413269,-0.0062613640911877155,-0.001679878099821508
1751620585836752600,14.966752685546876,-0.8265000581741333,0.0010690133785828948,-0.00045814859913662076
1751620585855576000,14.985576171875,-0.7739656567573547,-0.0038179049734026194,-0.001679878099821508
1751620585874399500,15.0043994140625,-0.7263182401657104,-0.005039634648710489,-0.001679878099821508
1751620585893223200,15.02322314453125,-0.6908880472183228,-0.007483093533664942,-0.001679878099821508
1751620585912046600,15.042046630859375,-0.6359102129936218,-0.02214384824037552,-0.004123337101191282
1751620585930870000,15.0608701171875,-0.6261364221572876,-0.05513054504990578,-0.011453714221715927
1751620585949693700,15.079693603515626,-0.583375871181488,-0.009926552884280682,-0.002901607658714056
1751620585968517000,15.09851708984375,-0.5320632457733154,-0.0038179049734026194,-0.00045814859913662076
1751620585987340500,15.117340576171875,-0.5076286196708679,-0.005039634648710489,-0.00045814859913662076
1751620586006164200,15.136164306640625,-0.5259546041488647,-0.009926552884280682,-0.001679878099821508
1751620586024987600,15.154987548828124,-0.545502245426178,-0.008704823441803455,-0.001679878099821508
1751620586043811000,15.17381103515625,-0.5760455131530762,-0.007483093533664942,-0.001679878099821508
1751620586062634500,15.192634521484376,-0.6249146461486816,-0.0001527161948615685,0.0007635809597559273
1751620586081458200,15.211458251953125,-0.6554579138755798,-0.0038179049734026194,0.0007635809597559273
1751620586100281600,15.230281494140625,-0.6921098232269287,-0.007483093533664942,-0.001679878099821508
1751620586119105000,15.24910498046875,-0.6542361974716187,-0.007483093533664942,-0.001679878099821508
1751620586137928700,15.2679287109375,-0.6420188546180725,-0.008704823441803455,-0.002901607658714056
1751620586156752100,15.286752197265624,-0.6847794055938721,-0.02214384824037552,-0.007788525894284248
1751620586175575800,15.305575927734376,-0.7458658814430237,-0.02214384824037552,-0.007788525894284248
1751620586194399200,15.324399169921875,-0.7409789562225342,-0.020922118797898293,-0.007788525894284248
1751620586213222700,15.34322265625,-0.6969966888427734,-0.025809036567807198,-0.007788525894284248
1751620586232046300,15.36204638671875,-0.6640099883079529,-0.02458730712532997,-0.007788525894284248
1751620586250869800,15.380869873046874,-0.6798924803733826,-0.02458730712532997,-0.007788525894284248
1751620586269693200,15.399693115234374,-0.7006618976593018,-0.03191768378019333,-0.009010255336761475
1751620586288516900,15.418516845703126,-0.7458658814430237,-0.016035201027989388,-0.004123337101191282
1751620586307340300,15.43734033203125,-0.7348703145980835,-0.019700389355421066,-0.005345067009329796
1751620586326163700,15.456163818359375,-0.7006618976593018,-0.04535670951008797,-0.012675444595515728
1751620586344987400,15.4749873046875,-0.66645348072052,0.10354158282279968,0.028863361105322838
1751620586363810800,15.493810791015624,-0.5797106623649597,0.02306014485657215,0.005650499369949102
1751620586382634200,15.51263427734375,-0.47097674012184143,0.002290742937475443,0.0007635809597559273
1751620586401458000,15.5314580078125,-0.4001164436340332,-0.0013744457392022014,0.0007635809597559273
1751620586420281300,15.55028125,-0.36712974309921265,0.002290742937475443,0.0019853105768561363
1751620586439104800,15.569104736328125,-0.3610210716724396,0.003512472379952669,0.0019853105768561363
1751620586457928400,15.587928466796875,-0.37323838472366333,0.0010690133785828948,0.0007635809597559273
1751620586476752000,15.606751953125,-0.38301220536231995,-0.0013744457392022014,-0.00045814859913662076
1751620586504987100,15.634987060546875,-0.40255987644195557,-0.0013744457392022014,0.0007635809597559273
1751620586523810600,15.653810546875,-0.4257727563381195,-0.0038179049734026194,-0.00045814859913662076
1751620586542634000,15.672634033203124,-0.4367683231830597,-0.008704823441803455,-0.00045814859913662076
1751620586561457700,15.691457763671876,-0.4196641147136688,-0.02458730712532997,-0.006566796451807022
1751620586580281000,15.710281005859375,-0.4196641147136688,-0.03191768378019333,-0.007788525894284248
1751620586599104500,15.7291044921875,-0.45387253165245056,-0.01847865991294384,-0.004123337101191282
1751620586617928200,15.74792822265625,-0.5235111117362976,0.005955931730568409,0.0032070400193333626
1751620586636751600,15.766751708984375,-0.5955931544303894,0.03145953640341759,0.010537417605519295
1751620586655575000,15.785574951171874,-0.573602020740509,-0.011148282326757908,-0.001679878099821508
1751620586674398700,15.804398681640626,-0.4831940531730652,-0.014813470654189587,-0.001679878099821508
1751620586693222100,15.82322216796875,-0.3964512348175049,-0.012370011769235134,-0.00045814859913662076
1751620586712045600,15.842045654296875,-0.3610210716724396,-0.005039634648710489,-0.00045814859913662076
1751620586730869200,15.860869140625,-0.3659079968929291,-0.0038179049734026194,0.0007635809597559273
1751620586749692700,15.879692626953124,-0.39889469742774963,-0.005039634648710489,-0.00045814859913662076
1751620586768516000,15.89851611328125,-0.4221075773239136,-0.007483093533664942,-0.00045814859913662076
1751620586787339800,15.91733984375,-0.42821621894836426,-0.0062613640911877155,-0.00045814859913662076
1751620586806163200,15.9361630859375,-0.42332929372787476,-0.009926552884280682,-0.001679878099821508
1751620586824986600,15.954986572265625,-0.42332929372787476,-0.012370011769235134,-0.001679878099821508
1751620586843810300,15.973810302734375,-0.4416552484035492,-0.042913250625133514,-0.0102319847792387
1751620586862633700,15.9926337890625,-0.4868592321872711,-0.11133010685443878,-0.029626941308379173
1751620586881457200,16.01145703125,-0.5088503360748291,-0.06979130208492279,-0.01740964688360691
1751620586900280800,16.03028076171875,-0.5112938284873962,-0.014813470654189587,-0.004123337101191282
1751620586919104300,16.049104248046874,-0.5540543794631958,-0.0038179049734026194,-0.00045814859913662076
1751620586937927700,16.067927734375,-0.6041452884674072,-0.007483093533664942,-0.001679878099821508
1751620586956751400,16.08675146484375,-0.6652317643165588,-0.0001527161948615685,0.0007635809597559273
1751620586975574800,16.10557470703125,-0.6982184648513794,0.018173227086663246,0.005650499369949102
1751620586994398200,16.124398193359376,-0.7287616729736328,-0.009926552884280682,-0.002901607658714056
1751620587013222000,16.143221923828126,-0.7568614482879639,-0.0038179049734026194,-0.001679878099821508
1751620587032045300,16.16204541015625,-0.7947350740432739,-0.0001527161948615685,-0.00045814859913662076
1751620587050868700,16.18086865234375,-0.8472694754600525,-0.0038179049734026194,-0.001679878099821508
1751620587069692400,16.1996923828125,-0.8851430416107178,-0.008704823441803455,-0.002901607658714056
1751620587088515800,16.218515869140624,-0.9425643682479858,-0.017256930470466614,-0.006566796451807022
1751620587107339300,16.23733935546875,-0.9999856352806091,-0.02214384824037552,-0.006566796451807022
1751620587126163000,16.256162841796876,-1.046411395072937,-0.011148282326757908,-0.005345067009329796
1751620587144986400,16.274986328125,-1.0903936624526978,-0.01847865991294384,-0.006566796451807022
1751620587163809800,16.293809814453127,-1.0928370952606201,-0.01847865991294384,-0.006566796451807022
1751620587182633500,16.312633544921876,-1.0329723358154297,-0.019700389355421066,-0.006566796451807022
1751620587201457000,16.331456787109374,-0.9511164426803589,-0.014813470654189587,-0.005345067009329796
1751620587220280300,16.3502802734375,-0.8399390578269958,-0.007483093533664942,-0.004123337101191282
1751620587239104000,16.36910400390625,-0.7654135823249817,-0.008704823441803455,-0.002901607658714056
1751620587257927400,16.387927490234375,-0.7385355234146118,-0.016035201027989388,-0.004123337101191282
1751620587276750800,16.406750732421877,-0.758083164691925,-0.052687086164951324,-0.01511890348047018
1751620587295574500,16.425574462890626,-0.7910698652267456,-0.01359174121171236,-0.004123337101191282
1751620587314398000,16.44439794921875,-0.7776308655738831,-0.03558287397027016,-0.011453714221715927
1751620587333221400,16.463221435546874,-0.7385355234146118,-0.009926552884280682,-0.002901607658714056
1751620587352045000,16.482045166015624,-0.6872228980064392,-0.005039634648710489,-0.001679878099821508
1751620587370868500,16.500868408203125,-0.66645348072052,-0.011148282326757908,-0.002901607658714056
1751620587389692000,16.51969189453125,-0.6847794055938721,-0.0038179049734026194,-0.00045814859913662076
1751620587408515600,16.538515625,-0.6640099883079529,-0.019700389355421066,-0.006566796451807022
1751620587427339000,16.557339111328126,-0.6236929297447205,0.0010690133785828948,-0.00045814859913662076
1751620587446162400,16.576162353515624,-0.5125155448913574,0.002290742937475443,0.0007635809597559273
1751620587464985900,16.59498583984375,-0.4257727563381195,-0.005039634648710489,-0.00045814859913662076
1751620587483809500,16.6138095703125,-0.3536907136440277,-0.0062613640911877155,-0.00045814859913662076
1751620587502633000,16.632633056640625,-0.30115634202957153,-0.005039634648710489,0.0007635809597559273
1751620587521456400,16.651456298828126,-0.3072649836540222,-0.005039634648710489,0.0007635809597559273
1751620587540280000,16.670280029296876,-0.3402516841888428,-0.0062613640911877155,-0.00045814859913662076
1751620587559103500,16.689103515625,-0.347582072019577,-0.0062613640911877155,0.0007635809597559273
1751620587577927000,16.707927001953124,-0.3133736252784729,-0.007483093533664942,0.0007635809597559273
1751620587596750600,16.72675048828125,-0.2632827162742615,-0.007483093533664942,0.0007635809597559273
1751620587615574000,16.745573974609375,-0.22174391150474548,-0.0038179049734026194,0.0019853105768561363
1751620587634397400,16.7643974609375,-0.1948658674955368,-0.0025961752980947495,0.0019853105768561363
1751620587653221000,16.78322119140625,-0.21441353857517242,-0.0025961752980947495,0.0019853105768561363
1751620587672044500,16.80204443359375,-0.26450446248054504,-0.0025961752980947495,0.0007635809597559273
1751620587690868000,16.820867919921874,-0.30115634202957153,-0.0038179049734026194,0.0007635809597559273
1751620587709691600,16.839691650390623,-0.3194822669029236,-0.005039634648710489,-0.00045814859913662076
1751620587728515000,16.85851513671875,-0.33169957995414734,-0.007483093533664942,-0.00045814859913662076
1751620587747338500,16.87733837890625,-0.337808221578598,-0.005039634648710489,0.0007635809597559273
1751620587766162200,16.896162109375,-0.36712974309921265,-0.0038179049734026194,0.0007635809597559273
1751620587784985600,16.914985595703126,-0.40255987644195557,-0.0062613640911877155,0.0007635809597559273
1751620587803809000,16.93380908203125,-0.42088583111763,-0.008704823441803455,-0.00045814859913662076
1751620587822632700,16.9526328125,-0.4269944727420807,-0.009926552884280682,-0.00045814859913662076
1751620587841456000,16.9714560546875,-0.4379900395870209,-0.01359174121171236,-0.002901607658714056
1751620587860279600,16.990279541015624,-0.4612029194831848,-0.03191768378019333,-0.009010255336761475
1751620587879103200,17.009103271484374,-0.4819723069667816,-0.029474224895238876,-0.007788525894284248
1751620587897926700,17.0279267578125,-0.49541133642196655,-0.01359174121171236,-0.002901607658714056
1751620587916750000,17.04675,-0.4770853817462921,0.004734201822429895,0.0019853105768561363
1751620587935573800,17.06557373046875,-0.44898560643196106,-0.008704823441803455,-0.002901607658714056
1751620587954397200,17.084397216796877,-0.41844236850738525,-0.008704823441803455,-0.001679878099821508
1751620587973220600,17.103220703125,-0.3805687427520752,-0.008704823441803455,-0.00045814859913662076
1751620587992044000,17.1220439453125,-0.3500255048274994,-0.007483093533664942,-0.00045814859913662076
1751620588010867700,17.14086767578125,-0.33658650517463684,-0.007483093533664942,-0.001679878099821508
1751620588029691100,17.159691162109375,-0.33536475896835327,-0.0001527161948615685,0.0019853105768561363
1751620588048514600,17.1785146484375,-0.3329212963581085,0.002290742937475443,0.0019853105768561363
1751620588067338200,17.197338134765626,-0.3243691921234131,-0.0001527161948615685,0.0019853105768561363
1751620588086161700,17.21616162109375,-0.3121519088745117,-0.0013744457392022014,0.0019853105768561363
1751620588104985000,17.234985107421874,-0.3023780584335327,-0.0025961752980947495,0.0007635809597559273
1751620588123808800,17.253808837890624,-0.3023780584335327,-0.0025961752980947495,0.0007635809597559273
1751620588142632200,17.272632080078125,-0.31093016266822815,-0.0013744457392022014,0.0007635809597559273
1751620588161455600,17.29145556640625,-0.32559093832969666,-0.0025961752980947495,0.0007635809597559273
1751620588180279300,17.310279296875,-0.3182605504989624,0.0010690133785828948,0.0007635809597559273
1751620588199102700,17.329102783203126,-0.2938259541988373,-0.0001527161948615685,0.0019853105768561363
1751620588217926100,17.347926025390624,-0.2877173125743866,-0.0013744457392022014,0.0007635809597559273
1751620588236749600,17.36674951171875,-0.32559093832969666,-0.0025961752980947495,0.0007635809597559273
1751620588255573200,17.3855732421875,-0.3451386094093323,-0.007483093533664942,-0.00045814859913662076
1751620588274396700,17.404396728515625,-0.3500255048274994,-0.005039634648710489,-0.00045814859913662076
1751620588293220000,17.42322021484375,-0.32681265473365784,0.0010690133785828948,0.0019853105768561363
1751620588312043800,17.442043701171876,-0.2571740746498108,0.003512472379952669,0.0032070400193333626
1751620588330867200,17.4608671875,-0.2009745091199875,0.003512472379952669,0.0032070400193333626
1751620588349690600,17.479690673828124,-0.16187916696071625,0.002290742937475443,0.0019853105768561363
1751620588368514300,17.498514404296873,-0.16798780858516693,-0.0001527161948615685,0.0019853105768561363
1751620588387337700,17.517337646484375,-0.2107483446598053,0.0010690133785828948,0.0019853105768561363
1751620588406161200,17.5361611328125,-0.25961753726005554,0.0010690133785828948,0.0019853105768561363
1751620588424984800,17.55498486328125,-0.2779434621334076,-0.0001527161948615685,0.0007635809597559273
1751620588443808300,17.573808349609376,-0.30970844626426697,-0.0025961752980947495,-0.00045814859913662076
1751620588462631700,17.592631591796874,-0.3707949221134186,-0.0013744457392022014,-0.00045814859913662076
1751620588481455400,17.611455322265623,-0.4514290690422058,-0.0062613640911877155,-0.001679878099821508
1751620588500278800,17.63027880859375,-0.4917461574077606,-0.008704823441803455,-0.001679878099821508
1751620588519102200,17.649102294921875,-0.4917461574077606,-0.008704823441803455,-0.001679878099821508
1751620588537926000,17.66792578125,-0.500298261642456,-0.005039634648710489,-0.00045814859913662076
1751620588556749300,17.686749267578126,-0.49052441120147705,-0.0025961752980947495,0.0007635809597559273
1751620588575572700,17.70557275390625,-0.46608981490135193,-0.0025961752980947495,-0.00045814859913662076
1751620588594396400,17.724396484375,-0.4477638900279999,-0.0038179049734026194,-0.00045814859913662076
1751620588613219800,17.7432197265625,-0.46975502371788025,-0.005039634648710489,-0.00045814859913662076
1751620588632043300,17.762043212890624,-0.5088503360748291,-0.007483093533664942,-0.00045814859913662076
1751620588650866700,17.78086669921875,-0.5406153202056885,-0.008704823441803455,-0.001679878099821508
1751620588669690400,17.7996904296875,-0.5784889459609985,-0.009926552884280682,-0.002901607658714056
1751620588688513800,17.818513671875,-0.5955931544303894,-0.0062613640911877155,-0.001679878099821508
1751620588707337200,17.837337158203123,-0.5894845128059387,-0.009926552884280682,-0.001679878099821508
1751620588726161000,17.856160888671877,-0.5955931544303894,-0.02458730712532997,-0.005345067009329796
1751620588744984300,17.874984375,-0.6200277805328369,-0.06123919412493706,-0.018631376326084137
1751620588763807700,17.893807861328124,-0.6603448390960693,-0.07589995115995407,-0.022296564653515816
1751620588782631200,17.912631103515626,-0.6994401812553406,0.01695149764418602,0.006872228812426329
1751620588801454800,17.931454833984375,-0.6957749724388123,0.008399390615522861,0.004428769461810589
1751620588820278300,17.9502783203125,-0.6640099883079529,0.004734201822429895,0.0019853105768561363
1751620588839101700,17.969101806640627,-0.6542361974716187,0.002290742937475443,0.0019853105768561363
1751620588857925400,17.98792529296875,-0.6615665555000305,-0.005039634648710489,-0.00045814859913662076
1751620588876748800,18.006748779296874,-0.6835576891899109,-0.0062613640911877155,-0.001679878099821508
1751620588895572200,18.025572265625,-0.6701186895370483,-0.008704823441803455,-0.001679878099821508
1751620588914396000,18.04439599609375,-0.6102539300918579,-0.012370011769235134,-0.001679878099821508
1751620588933219300,18.06321923828125,-0.5198459029197693,-0.011148282326757908,-0.001679878099821508
1751620588952042800,18.082042724609376,-0.4404335021972656,-0.0062613640911877155,-0.00045814859913662076
1751620588970866400,18.100866455078126,-0.3634645342826843,-0.009926552884280682,-0.001679878099821508
1751620588989689900,18.11968994140625,-0.28405213356018066,-0.017256930470466614,-0.002901607658714056
1751620589008513300,18.13851318359375,-0.22907429933547974,-0.009926552884280682,-0.00045814859913662076
1751620589027337000,18.1573369140625,-0.21197007596492767,-0.009926552884280682,-0.001679878099821508
1751620589046160400,18.176160400390625,-0.2156352698802948,-0.0038179049734026194,0.0007635809597559273
1751620589064983800,18.19498388671875,-0.21197007596492767,-0.0025961752980947495,0.0007635809597559273
1751620589083807200,18.21380712890625,-0.20708316564559937,-0.0013744457392022014,0.0019853105768561363
1751620589102631000,18.232630859375,-0.20952661335468292,-0.0025961752980947495,0.0019853105768561363
1751620589121454300,18.251454345703124,-0.23884813487529755,-0.0038179049734026194,0.0007635809597559273
1751620589140277800,18.27027783203125,-0.2864955961704254,-0.0001527161948615685,0.0007635809597559273
1751620589159101400,18.289101318359375,-0.33169957995414734,-0.0025961752980947495,0.0007635809597559273
1751620589177924900,18.3079248046875,-0.3952295184135437,-0.005039634648710489,-0.00045814859913662076
1751620589196748300,18.326748291015626,-0.4673115611076355,-0.008704823441803455,-0.001679878099821508
1751620589215572000,18.345572021484376,-0.5332849621772766,-0.01359174121171236,-0.002901607658714056
1751620589234395400,18.3643955078125,-0.5687150955200195,-0.019700389355421066,-0.004123337101191282
1751620589253218800,18.38321875,-0.583375871181488,-0.01359174121171236,-0.002901607658714056
1751620589272042500,18.40204248046875,-0.5821541547775269,-0.0038179049734026194,0.0007635809597559273
1751620589290866000,18.420865966796875,-0.5699368119239807,-0.012370011769235134,-0.001679878099821508
1751620589309689300,18.439689453125,-0.565049946308136,-0.04535670951008797,-0.011453714221715927
1751620589328512800,18.4585126953125,-0.5723803043365479,-0.017256930470466614,-0.004123337101191282
1751620589347336400,18.47733642578125,-0.5674933791160583,0.005955931730568409,0.0019853105768561363
1751620589366160000,18.496159912109373,-0.5516108870506287,-0.02825249545276165,-0.007788525894284248
1751620589384983300,18.5149833984375,-0.5161807537078857,-0.0001527161948615685,0.0007635809597559273
1751620589403807000,18.533806884765625,-0.43921178579330444,-0.014813470654189587,-0.002901607658714056
1751620589422630400,18.55263037109375,-0.35613417625427246,-0.007483093533664942,-0.001679878099821508
1751620589441453800,18.571453857421876,-0.28038692474365234,-0.0025961752980947495,0.0007635809597559273
1751620589460277500,18.590277587890625,-0.22418737411499023,-0.0062613640911877155,0.0007635809597559273
1751620589479101000,18.609100830078123,-0.1899789422750473,0.003512472379952669,0.0032070400193333626
1751620589497924400,18.62792431640625,-0.164322629570961,0.003512472379952669,0.0032070400193333626
1751620589516748000,18.646748046875,-0.14110976457595825,0.002290742937475443,0.0032070400193333626
1751620589535571500,18.665571533203124,-0.13988803327083588,0.002290742937475443,0.0032070400193333626
1751620589554395000,18.684394775390626,-0.1692095398902893,0.002290742937475443,0.0019853105768561363
1751620589573218300,18.70321826171875,-0.18875721096992493,-0.0001527161948615685,0.0019853105768561363
1751620589592042000,18.7220419921875,-0.19242240488529205,0.0010690133785828948,0.0019853105768561363
1751620589610865400,18.740865478515627,-0.19853104650974274,0.0010690133785828948,0.0019853105768561363
1751620589629688800,18.759688720703124,-0.20708316564559937,0.0010690133785828948,0.0019853105768561363
1751620589648512500,18.778512451171874,-0.19608759880065918,0.0010690133785828948,0.0019853105768561363
1751620589667336000,18.7973359375,-0.19608759880065918,0.0010690133785828948,0.0019853105768561363
1751620589686159400,18.816159423828125,-0.20952661335468292,0.0010690133785828948,0.0019853105768561363
1751620589704982800,18.834982666015627,-0.2205221801996231,0.0010690133785828948,0.0019853105768561363
1751620589723806500,18.853806396484377,-0.21441353857517242,0.002290742937475443,0.0019853105768561363
1751620589742630000,18.8726298828125,-0.1899789422750473,-0.0013744457392022014,0.0019853105768561363
1751620589761453300,18.891453369140624,-0.16554436087608337,-0.0013744457392022014,0.0019853105768561363
1751620589780277000,18.910277099609374,-0.1533270627260208,-0.0013744457392022014,0.0019853105768561363
1751620589799100400,18.929100341796875,-0.17043127119541168,-0.0001527161948615685,0.0019853105768561363
1751620589817923800,18.947923828125,-0.18142683804035187,0.0010690133785828948,0.0019853105768561363
1751620589836747300,18.966747314453126,-0.19608759880065918,-0.0013744457392022014,0.0019853105768561363
1751620589855571000,18.985571044921876,-0.25961753726005554,-0.0001527161948615685,0.0007635809597559273
1751620589874394400,19.004394287109374,-0.3194822669029236,-0.0001527161948615685,0.0007635809597559273
1751620589893217800,19.0232177734375,-0.389120876789093,0.003512472379952669,0.0019853105768561363
1751620589912041500,19.04204150390625,-0.5369501113891602,0.002290742937475443,0.0007635809597559273
1751620589930865000,19.060864990234375,-0.7104357481002808,-0.005039634648710489,-0.001679878099821508
1751620589949688300,19.079688232421876,-0.841160774230957,-0.01359174121171236,-0.002901607658714056
1751620589968512000,19.098511962890626,-0.8936951756477356,-0.020922118797898293,-0.005345067009329796
1751620589987335400,19.11733544921875,-0.9352339506149292,-0.02214384824037552,-0.004123337101191282
1751620590006158800,19.136158935546874,-0.9938769936561584,-0.023365577682852745,-0.006566796451807022
1751620590024982300,19.154982177734375,-1.0012073516845703,-0.030695954337716103,-0.007788525894284248
1751620590043806000,19.173805908203125,-0.9523382186889648,-0.1052214577794075,-0.02718348242342472
1751620590062629400,19.19262939453125,-0.7715222239494324,0.005955931730568409,0.0019853105768561363
1751620590081452800,19.211452880859376,-0.6053670048713684,-0.012370011769235134,-0.004123337101191282
1751620590100276500,19.2302763671875,-0.4612029194831848,-0.0062613640911877155,-0.001679878099821508
1751620590119100000,19.249099853515624,-0.37812530994415283,0.002290742937475443,0.0019853105768561363
1751620590137923300,19.26792333984375,-0.3756818473339081,0.005955931730568409,0.004428769461810589
1751620590156746800,19.286746826171875,-0.3915643095970154,0.010842849500477314,0.005650499369949102
1751620590175570400,19.3055703125,-0.38789913058280945,-0.008704823441803455,-0.00045814859913662076
1751620590194393900,19.324393798828126,-0.3903425931930542,-0.008704823441803455,-0.00045814859913662076
1751620590213217300,19.34321728515625,-0.39767298102378845,-0.0038179049734026194,0.0007635809597559273
1751620590232041000,19.362041015625,-0.39767298102378845,-0.0025961752980947495,0.0007635809597559273
1751620590250864400,19.380864501953123,-0.389120876789093,-0.0062613640911877155,-0.00045814859913662076
1751620590269687800,19.399687744140625,-0.3536907136440277,-0.007483093533664942,-0.00045814859913662076
1751620590288511200,19.41851123046875,-0.31459537148475647,-0.0013744457392022014,0.0007635809597559273
1751620590307335000,19.4373349609375,-0.3243691921234131,-0.0001527161948615685,0.0007635809597559273
1751620590326158300,19.456158447265626,-0.37323838472366333,-0.007483093533664942,-0.00045814859913662076
1751620590344981800,19.474981689453124,-0.4013381600379944,-0.007483093533664942,-0.00045814859913662076
1751620590363805400,19.493805419921873,-0.3952295184135437,-0.009926552884280682,-0.001679878099821508
1751620590382628900,19.51262890625,-0.34147340059280396,-0.0062613640911877155,0.0007635809597559273
1751620590401452300,19.531452392578124,-0.3194822669029236,-0.008704823441803455,-0.00045814859913662076
1751620590420276000,19.55027587890625,-0.32681265473365784,-0.007483093533664942,0.0007635809597559273
1751620590439099400,19.569099365234376,-0.3426951467990875,-0.008704823441803455,-0.00045814859913662076
1751620590457922800,19.5879228515625,-0.3280344009399414,-0.011148282326757908,-0.00045814859913662076
1751620590476746200,19.606746337890623,-0.31093016266822815,-0.005039634648710489,0.0007635809597559273
1751620590495570000,19.62556982421875,-0.3439168632030487,-0.007483093533664942,-0.00045814859913662076
1751620590514393300,19.644393310546874,-0.39400777220726013,-0.005039634648710489,-0.00045814859913662076
1751620590533216800,19.663216796875,-0.4159989058971405,-0.0038179049734026194,0.0007635809597559273
1751620590552040400,19.68204052734375,-0.4001164436340332,-0.0038179049734026194,-0.00045814859913662076
1751620590570863900,19.70086376953125,-0.3695732057094574,-0.0062613640911877155,-0.00045814859913662076
1751620590589687300,19.719687255859377,-0.3390299379825592,-0.0062613640911877155,0.0007635809597559273
1751620590608510700,19.7385107421875,-0.3292561173439026,-0.0038179049734026194,0.0007635809597559273
1751620590627334400,19.75733447265625,-0.3426951467990875,-0.0001527161948615685,0.0007635809597559273
1751620590646157800,19.77615771484375,-0.4196641147136688,-0.005039634648710489,0.0007635809597559273
1751620590664981200,19.794981201171876,-0.545502245426178,-0.009926552884280682,-0.00045814859913662076
1751620590683805000,19.813804931640625,-0.6310232877731323,-0.011148282326757908,-0.001679878099821508
1751620590702628400,19.83262841796875,-0.6175842881202698,-0.011148282326757908,-0.001679878099821508
1751620590721451800,19.85145166015625,-0.5161807537078857,-0.008704823441803455,-0.00045814859913662076
1751620590740275200,19.870275146484374,-0.3952295184135437,-0.005039634648710489,-0.00045814859913662076
1751620590759099000,19.889098876953124,-0.3292561173439026,-0.0038179049734026194,0.0007635809597559273
1751620590777922300,19.90792236328125,-0.3121519088745117,-0.005039634648710489,0.0007635809597559273
1751620590796745700,19.926745849609375,-0.30115634202957153,-0.0038179049734026194,0.0007635809597559273
1751620590815569400,19.9455693359375,-0.28405213356018066,-0.0038179049734026194,0.0019853105768561363
1751620590834392800,19.964392822265626,-0.25961753726005554,-0.0038179049734026194,0.0007635809597559273
1751620590853216300,19.98321630859375,-0.20463970303535461,-0.0025961752980947495,0.0019853105768561363
1751620590872039700,20.002039794921874,-0.12644900381565094,0.0010690133785828948,0.0032070400193333626
1751620590890863400,20.02086328125,-0.09712749719619751,0.0010690133785828948,0.0032070400193333626
1751620590909686800,20.039686767578125,-0.08124501258134842,0.002290742937475443,0.0032070400193333626
1751620590928510200,20.05851025390625,-0.09712749719619751,-0.0001527161948615685,0.0019853105768561363
1751620590947334000,20.077333984375,-0.16676609218120575,-0.0001527161948615685,0.0032070400193333626
1751620590966157300,20.0961572265625,-0.21319180727005005,-0.0013744457392022014,0.0019853105768561363
1751620590984980700,20.114980712890624,-0.20830489695072174,-0.0013744457392022014,0.0019853105768561363
1751620591003804200,20.13380419921875,-0.1948658674955368,-0.0013744457392022014,0.0019853105768561363
1751620591022627800,20.1526279296875,-0.22907429933547974,-0.0038179049734026194,0.0007635809597559273
1751620591041451300,20.171451171875,-0.2877173125743866,-0.005039634648710489,0.0007635809597559273
1751620591060274700,20.190274658203126,-0.35124725103378296,-0.0062613640911877155,-0.00045814859913662076
1751620591079098400,20.209098388671876,-0.347582072019577,-0.0038179049734026194,0.0007635809597559273
1751620591097921800,20.227921875,-0.3170388340950012,-0.0025961752980947495,0.0007635809597559273
1751620591116745200,20.2467451171875,-0.32192572951316833,-0.0025961752980947495,0.0007635809597559273
1751620591135568600,20.265568603515625,-0.3243691921234131,-0.0025961752980947495,0.0007635809597559273
1751620591154392300,20.284392333984375,-0.2816086709499359,-0.0038179049734026194,0.0019853105768561363
1751620591173215700,20.3032158203125,-0.2009745091199875,-0.0025961752980947495,0.0019853105768561363
1751620591192039200,20.3220390625,-0.1178968995809555,-0.0013744457392022014,0.0019853105768561363
1751620591210862800,20.34086279296875,-0.09101885557174683,-0.0013744457392022014,0.0019853105768561363
1751620591229686300,20.359686279296874,-0.11667517572641373,0.004734201822429895,0.004428769461810589
1751620591248509700,20.378509765625,-0.205861434340477,-0.0038179049734026194,0.0007635809597559273
1751620591267333000,20.3973330078125,-0.2315177470445633,-0.0001527161948615685,0.0019853105768561363
1751620591286156800,20.41615673828125,-0.20830489695072174,0.002290742937475443,0.0032070400193333626
1751620591304980200,20.434980224609376,-0.21197007596492767,-0.005039634648710489,0.0007635809597559273
1751620591323803600,20.4538037109375,-0.2254091054201126,0.002290742937475443,0.0032070400193333626
1751620591342627300,20.47262744140625,-0.22663083672523499,-0.0013744457392022014,0.0019853105768561363
1751620591361450800,20.49145068359375,-0.21930044889450073,-0.009926552884280682,-0.00045814859913662076
1751620591380274200,20.510274169921875,-0.23273947834968567,-0.036804601550102234,-0.007788525894284248
1751620591399097600,20.52909765625,-0.1948658674955368,-0.07589995115995407,-0.019853105768561363
1751620591417921300,20.54792138671875,-0.13622283935546875,0.060781046748161316,0.02153298258781433
1751620591436744700,20.56674462890625,-0.09590577334165573,-0.049021899700164795,-0.012675444595515728
1751620591455568100,20.585568115234373,-0.04214967042207718,-0.009926552884280682,-0.00045814859913662076
1751620591474391800,20.604391845703127,-0.07757982611656189,0.07055488228797913,0.022754713892936707
1751620591493215200,20.62321533203125,-0.09712749719619751,-0.030695954337716103,-0.006566796451807022
1751620591512038700,20.64203857421875,-0.06047561392188072,-0.0038179049734026194,0.0007635809597559273
1751620591530862000,20.660862060546876,-0.039706211537122726,0.014508038759231567,0.006872228812426329
1751620591549685800,20.679685791015626,-0.039706211537122726,-0.01847865991294384,-0.002901607658714056
1751620591568509200,20.69850927734375,-0.02871064469218254,-0.017256930470466614,-0.002901607658714056
1751620591587332600,20.71733251953125,-0.015271619893610477,-0.030695954337716103,-0.006566796451807022
1751620591606156000,20.736156005859375,-0.043371398001909256,0.008399390615522861,0.004428769461810589
1751620591624979700,20.754979736328124,-0.0409279391169548,-0.020922118797898293,-0.002901607658714056
1751620591643803100,20.77380322265625,-0.0054977829568088055,-0.0038179049734026194,0.0019853105768561363
1751620591662626600,20.79262646484375,-0.004276053514331579,-0.009926552884280682,-0.00045814859913662076
1751620591681450200,20.8114501953125,-0.004276053514331579,0.021838415414094925,0.009315688163042068
1751620591700273700,20.830273681640627,-0.0030543238390237093,-0.011148282326757908,-0.00045814859913662076
1751620591719097000,20.84909716796875,-0.004276053514331579,0.004734201822429895,0.0032070400193333626
1751620591737920500,20.86792041015625,-0.004276053514331579,-0.005039634648710489,0.0019853105768561363
1751620591756744200,20.886744140625,-0.004276053514331579,0.015729768201708794,0.006872228812426329
1751620591775567600,20.905567626953125,-0.004276053514331579,0.024281874299049377,0.009315688163042068
1751620591794391000,20.92439111328125,-0.0054977829568088055,0.024281874299049377,0.010537417605519295
1751620591813214500,20.94321435546875,-0.0054977829568088055,0.003512472379952669,0.004428769461810589
1751620591832038100,20.9620380859375,-0.004276053514331579,-0.017256930470466614,-0.001679878099821508
1751620591850861600,20.980861572265624,-0.0030543238390237093,0.014508038759231567,0.008093958720564842
1751620591869685000,20.99968505859375,-0.0054977829568088055,0.06933315098285675,0.022754713892936707
1751620591888508700,21.0185087890625,-0.0030543238390237093,-0.052687086164951324,-0.012675444595515728
1751620591907332000,21.03733203125,-0.004276053514331579,0.002290742937475443,0.0032070400193333626
1751620591926155500,21.056155517578127,-0.004276053514331579,0.04505127668380737,0.0154243353754282
1751620591944979000,21.07497900390625,-0.001832594396546483,-0.03191768378019333,-0.006566796451807022
1751620591963802600,21.093802734375,-0.004276053514331579,0.003512472379952669,0.004428769461810589
1751620591982626000,21.1126259765625,-0.0054977829568088055,0.02779434807598591,0.010537417605519295
1751620592010861300,21.140861328125,-0.0030543238390237093,-0.016035201027989388,-0.001679878099821508
1751620592029684700,21.159684814453126,-0.004276053514331579,0.019394956529140472,0.008093958720564842
1751620592048508200,21.178508056640624,-0.004276053514331579,0.0010690133785828948,0.0032070400193333626
1751620592067331800,21.197331787109373,-0.004276053514331579,-0.008704823441803455,-0.00045814859913662076
1751620592086155300,21.2161552734375,-0.004276053514331579,0.014508038759231567,0.006872228812426329
1751620592104978700,21.234978759765625,-0.004276053514331579,-0.0001527161948615685,0.0032070400193333626
1751620592123802000,21.253802001953126,-0.004276053514331579,-0.0025961752980947495,0.0019853105768561363
1751620592142625800,21.272625732421876,-0.0054977829568088055,0.009621120058000088,0.005650499369949102
1751620592161449200,21.29144921875,-0.004276053514331579,-0.0001527161948615685,0.0032070400193333626
1751620592180272600,21.310272705078123,-0.004276053514331579,0.019394956529140472,0.009315688163042068
1751620592199096000,21.329095947265625,-0.056810423731803894,-0.02214384824037552,-0.00045814859913662076
1751620592217919700,21.347919677734374,-0.13255766034126282,-0.0013744457392022014,0.0019853105768561363
1751620592236743200,21.3667431640625,-0.01282816007733345,0.0010690133785828948,0.0032070400193333626
1751620592255566600,21.385566650390626,-0.001832594396546483,-0.011148282326757908,-0.00045814859913662076
1751620592274390300,21.404390380859375,-0.000610864779446274,-0.17852523922920227,-0.04917461425065994
