time,seconds_elapsed,z,y,x
1751620571028849000,0.158848876953125,-41.60625076293945,7.612500190734863,17.887500762939453
1751620571038848800,0.168848876953125,-41.8125,7.725000381469727,18.618751525878906
1751620571068849000,0.198848876953125,-41.55000305175781,7.237500190734863,17.868751525878906
1751620571118848800,0.248848876953125,-41.025001525878906,7.406250476837158,17.512500762939453
1751620571148849000,0.278848876953125,-40.837501525878906,7.406250476837158,17.83125114440918
1751620571158848800,0.288848876953125,-40.743751525878906,7.312500476837158,17.756250381469727
1751620571168849000,0.298848876953125,-40.743751525878906,7.237500190734863,17.568750381469727
1751620571178848800,0.308848876953125,-40.95000076293945,7.012500286102295,17.662500381469727
1751620571188849000,0.318848876953125,-41.08125305175781,7.125000476837158,17.775001525878906
1751620571198848800,0.328848876953125,-41.212501525878906,7.050000190734863,17.793750762939453
1751620571208849000,0.338848876953125,-41.212501525878906,7.181250095367432,17.71875
1751620571218848800,0.348848876953125,-41.38125228881836,7.200000286102295,17.53125
1751620571228849000,0.358848876953125,-41.47500228881836,7.143750190734863,17.55000114440918
1751620571238848800,0.368848876953125,-41.53125,7.106250286102295,17.55000114440918
1751620571248849000,0.378848876953125,-41.70000076293945,7.218750476837158,17.681251525878906
1751620571258848800,0.388848876953125,-41.60625076293945,7.293750286102295,17.756250381469727
1751620571268849000,0.398848876953125,-41.45625305175781,7.218750476837158,17.868751525878906
1751620571278848800,0.408848876953125,-41.38125228881836,7.406250476837158,17.887500762939453
1751620571288849000,0.418848876953125,-41.13750076293945,7.500000476837158,17.943750381469727
1751620571298848800,0.428848876953125,-41.19375228881836,7.518750190734863,17.90625
1751620571308849000,0.438848876953125,-41.17500305175781,7.406250476837158,18.037500381469727
1751620571318848800,0.448848876953125,-41.13750076293945,7.237500190734863,18.01875114440918
1751620571328849000,0.458848876953125,-41.10000228881836,7.218750476837158,17.943750381469727
1751620571338848800,0.468848876953125,-41.23125076293945,7.293750286102295,18.075000762939453
1751620571348849000,0.478848876953125,-41.47500228881836,7.143750190734863,17.981250762939453
1751620571358848800,0.488848876953125,-41.45625305175781,7.162500381469727,17.92500114440918
1751620571368849000,0.498848876953125,-41.625,7.106250286102295,17.73750114440918
1751620571378848800,0.508848876953125,-41.4375,7.237500190734863,17.73750114440918
1751620571388849000,0.518848876953125,-41.41875076293945,7.387500286102295,17.756250381469727
1751620571398848800,0.528848876953125,-41.45625305175781,7.612500190734863,17.756250381469727
1751620571408849000,0.538848876953125,-41.32500076293945,7.556250095367432,17.850000381469727
1751620571418848800,0.548848876953125,-41.025001525878906,7.443750381469727,17.887500762939453
1751620571428849000,0.558848876953125,-40.91250228881836,7.650000095367432,17.71875
1751620571438848800,0.568848876953125,-40.81875228881836,7.331250190734863,17.793750762939453
1751620571448849000,0.578848876953125,-40.875,7.218750476837158,18.037500381469727
1751620571458848800,0.588848876953125,-41.00625228881836,7.068750381469727,18.09375
1751620571468849000,0.598848876953125,-41.25,7.031250476837158,17.92500114440918
1751620571478848800,0.608848876953125,-41.26875305175781,6.975000381469727,18
1751620571488849000,0.618848876953125,-41.400001525878906,6.975000381469727,18.075000762939453
1751620571498848800,0.628848876953125,-41.56875228881836,7.087500095367432,18.056251525878906
1751620571508849000,0.638848876953125,-41.70000076293945,6.825000286102295,18.20625114440918
1751620571518848800,0.648848876953125,-41.625,7.050000190734863,18.075000762939453
1751620571528849000,0.658848876953125,-41.493751525878906,7.068750381469727,18.037500381469727
1751620571538848800,0.668848876953125,-41.26875305175781,6.993750095367432,18.150001525878906
1751620571548849000,0.678848876953125,-41.17500305175781,6.975000381469727,18.168750762939453
1751620571558848800,0.688848876953125,-41.15625,7.050000190734863,18.075000762939453
1751620571568849000,0.698848876953125,-40.89375305175781,7.050000190734863,17.868751525878906
1751620571578848800,0.708848876953125,-40.98750305175781,7.087500095367432,17.73750114440918
1751620571588849000,0.718848876953125,-40.89375305175781,7.106250286102295,17.493751525878906
1751620571598848800,0.728848876953125,-41.13750076293945,7.031250476837158,17.493751525878906
1751620571608849000,0.738848876953125,-41.26875305175781,7.181250095367432,17.493751525878906
1751620571618848800,0.748848876953125,-41.4375,7.256250381469727,17.26875114440918
1751620571628849000,0.758848876953125,-41.51250076293945,7.293750286102295,17.381250381469727
1751620571638848800,0.768848876953125,-41.47500228881836,7.087500095367432,17.381250381469727
1751620571648849000,0.778848876953125,-41.8125,6.993750095367432,17.681251525878906
1751620571658848800,0.788848876953125,-41.79375076293945,7.031250476837158,17.83125114440918
1751620571668849000,0.798848876953125,-41.70000076293945,7.106250286102295,18.11250114440918
1751620571678848800,0.808848876953125,-41.36250305175781,7.068750381469727,18.1875
1751620571688849000,0.818848876953125,-41.4375,7.050000190734863,18.11250114440918
1751620571708849000,0.838848876953125,-41.28750228881836,7.087500095367432,18.150001525878906
1751620571718848800,0.848848876953125,-41.28750228881836,6.993750095367432,18.11250114440918
1751620571728849000,0.858848876953125,-40.98750305175781,7.162500381469727,17.962501525878906
1751620571738848800,0.868848876953125,-41.00625228881836,7.012500286102295,17.887500762939453
1751620571748849000,0.878848876953125,-41.34375,7.050000190734863,17.90625
1751620571758848800,0.888848876953125,-41.73750305175781,7.181250095367432,17.850000381469727
1751620571768849000,0.898848876953125,-41.625,7.275000095367432,17.83125114440918
1751620571778848800,0.908848876953125,-41.8125,7.068750381469727,17.681251525878906
1751620571788849000,0.918848876953125,-41.83125305175781,6.993750095367432,17.850000381469727
1751620571798848800,0.928848876953125,-41.85000228881836,7.087500095367432,17.868751525878906
1751620571808849000,0.938848876953125,-41.75625228881836,7.087500095367432,18
1751620571818848800,0.948848876953125,-41.60625076293945,7.031250476837158,17.90625
1751620571828849000,0.958848876953125,-41.36250305175781,6.937500476837158,17.756250381469727
1751620571838848800,0.968848876953125,-41.10000228881836,6.750000476837158,17.850000381469727
1751620571848849000,0.978848876953125,-41.19375228881836,6.712500095367432,17.90625
1751620571858848800,0.988848876953125,-41.0625,6.918750286102295,18.131250381469727
1751620571868849000,0.998848876953125,-40.81875228881836,6.975000381469727,18.075000762939453
1751620571878848800,1.008848876953125,-40.89375305175781,7.218750476837158,18.168750762939453
1751620571888849000,1.018848876953125,-41.13750076293945,7.181250095367432,17.943750381469727
1751620571898848800,1.028848876953125,-41.36250305175781,7.275000095367432,17.83125114440918
1751620571908849000,1.038848876953125,-41.4375,7.312500476837158,17.887500762939453
1751620571918848800,1.048848876953125,-41.775001525878906,7.275000095367432,17.587501525878906
1751620571928849000,1.058848876953125,-41.75625228881836,7.181250095367432,17.775001525878906
1751620571938848800,1.068848876953125,-41.56875228881836,7.162500381469727,17.756250381469727
1751620571948849000,1.078848876953125,-41.775001525878906,7.087500095367432,17.700000762939453
1751620571958848800,1.088848876953125,-41.83125305175781,6.806250095367432,17.700000762939453
1751620571968849000,1.098848876953125,-41.94375228881836,6.918750286102295,17.793750762939453
1751620571978848800,1.108848876953125,-41.71875,7.050000190734863,18.150001525878906
1751620571988849000,1.118848876953125,-41.85000228881836,7.012500286102295,18.28125
1751620571998848800,1.128848876953125,-41.587501525878906,7.331250190734863,18.618751525878906
1751620572008849000,1.138848876953125,-41.56875228881836,7.293750286102295,18.337501525878906
1751620572018848800,1.148848876953125,-41.8125,7.237500190734863,18.262500762939453
1751620572028849000,1.158848876953125,-41.98125076293945,7.293750286102295,18.225000381469727
1751620572038848800,1.168848876953125,-41.83125305175781,7.368750095367432,18.075000762939453
1751620572048849000,1.178848876953125,-41.60625076293945,7.293750286102295,18.037500381469727
1751620572058848800,1.188848876953125,-41.79375076293945,7.275000095367432,17.700000762939453
1751620572068849000,1.198848876953125,-41.66250228881836,7.556250095367432,17.493751525878906
1751620572078848800,1.208848876953125,-41.70000076293945,7.500000476837158,17.475000381469727
1751620572088849000,1.218848876953125,-41.70000076293945,7.650000095367432,17.606250762939453
1751620572098848800,1.228848876953125,-41.70000076293945,7.631250381469727,17.700000762939453
1751620572108849000,1.238848876953125,-41.47500228881836,7.462500095367432,17.662500381469727
1751620572118848800,1.248848876953125,-41.60625076293945,7.406250476837158,17.8125
1751620572128849000,1.258848876953125,-41.73750305175781,7.462500095367432,17.71875
1751620572138848800,1.268848876953125,-41.53125,7.481250286102295,17.8125
1751620572148849000,1.278848876953125,-41.625,7.256250381469727,18.1875
1751620572158848800,1.288848876953125,-41.55000305175781,7.162500381469727,18.150001525878906
1751620572168849000,1.298848876953125,-41.493751525878906,6.937500476837158,18.11250114440918
1751620572178848800,1.308848876953125,-41.64375305175781,7.031250476837158,18.037500381469727
1751620572188849000,1.318848876953125,-41.587501525878906,7.050000190734863,18.09375
1751620572198848800,1.328848876953125,-41.70000076293945,7.143750190734863,18.1875
1751620572208849000,1.338848876953125,-41.79375076293945,7.031250476837158,18.450000762939453
1751620572218848800,1.348848876953125,-41.83125305175781,6.918750286102295,18.48750114440918
1751620572228849000,1.358848876953125,-41.681251525878906,6.806250095367432,18.225000381469727
1751620572238848800,1.368848876953125,-41.88750076293945,6.937500476837158,18.412500381469727
1751620572248849000,1.378848876953125,-41.92500305175781,7.068750381469727,18.243751525878906
1751620572258848800,1.388848876953125,-41.66250228881836,7.125000476837158,18.262500762939453
1751620572268849000,1.398848876953125,-41.8125,7.256250381469727,18.48750114440918
1751620572278848800,1.408848876953125,-41.625,7.256250381469727,18.46875
1751620572288849000,1.418848876953125,-41.41875076293945,7.218750476837158,18.225000381469727
1751620572298848800,1.428848876953125,-41.55000305175781,7.181250095367432,18.150001525878906
1751620572308849000,1.438848876953125,-41.41875076293945,7.237500190734863,18.075000762939453
1751620572318848800,1.448848876953125,-41.41875076293945,7.068750381469727,17.83125114440918
1751620572328849000,1.458848876953125,-41.51250076293945,7.218750476837158,18.131250381469727
1751620572338848800,1.468848876953125,-41.38125228881836,7.031250476837158,18.037500381469727
1751620572348849000,1.478848876953125,-41.19375228881836,7.050000190734863,17.793750762939453
1751620572358848800,1.488848876953125,-41.23125076293945,7.087500095367432,17.587501525878906
1751620572368849000,1.498848876953125,-41.36250305175781,7.106250286102295,17.662500381469727
1751620572378848800,1.508848876953125,-41.17500305175781,6.993750095367432,17.681251525878906
1751620572388849000,1.518848876953125,-41.38125228881836,7.106250286102295,17.606250762939453
1751620572398848800,1.528848876953125,-41.17500305175781,7.162500381469727,17.793750762939453
1751620572408849000,1.538848876953125,-41.25,6.975000381469727,17.625
1751620572418848800,1.548848876953125,-41.306251525878906,7.012500286102295,17.64375114440918
1751620572428849000,1.558848876953125,-41.56875228881836,6.787500381469727,17.662500381469727
1751620572438848800,1.568848876953125,-41.400001525878906,6.731250286102295,17.868751525878906
1751620572448849000,1.578848876953125,-41.212501525878906,6.731250286102295,18.09375
1751620572458848800,1.588848876953125,-41.400001525878906,6.768750190734863,18.168750762939453
1751620572468849000,1.598848876953125,-41.23125076293945,6.787500381469727,18.28125
1751620572478848800,1.608848876953125,-41.45625305175781,6.731250286102295,18.225000381469727
1751620572488849000,1.618848876953125,-41.19375228881836,6.712500095367432,18.262500762939453
1751620572498848800,1.628848876953125,-41.41875076293945,6.750000476837158,18.20625114440918
1751620572508849000,1.638848876953125,-41.118751525878906,6.843750476837158,18.28125
1751620572518848800,1.648848876953125,-41.41875076293945,6.862500190734863,18.39375114440918
1751620572528849000,1.658848876953125,-41.8125,7.012500286102295,18.225000381469727
1751620572538848800,1.668848876953125,-41.681251525878906,7.068750381469727,18.262500762939453
1751620572548849000,1.678848876953125,-41.92500305175781,7.143750190734863,18.431251525878906
1751620572558848800,1.688848876953125,-41.60625076293945,7.162500381469727,18.337501525878906
1751620572568849000,1.698848876953125,-41.47500228881836,7.162500381469727,18.356250762939453
1751620572578848800,1.708848876953125,-41.493751525878906,7.312500476837158,18.431251525878906
1751620572588849000,1.718848876953125,-41.60625076293945,7.425000190734863,18.28125
1751620572598848800,1.728848876953125,-41.34375,7.481250286102295,18.150001525878906
1751620572608849000,1.738848876953125,-41.17500305175781,7.481250286102295,17.981250762939453
1751620572618848800,1.748848876953125,-41.26875305175781,7.406250476837158,17.868751525878906
1751620572628849000,1.758848876953125,-41.04375076293945,7.312500476837158,17.64375114440918
1751620572638848800,1.768848876953125,-41.13750076293945,7.425000190734863,17.662500381469727
1751620572648849000,1.778848876953125,-41.25,7.556250095367432,17.662500381469727
1751620572658848800,1.788848876953125,-41.08125305175781,7.387500286102295,17.71875
1751620572668849000,1.798848876953125,-41.04375076293945,7.218750476837158,17.606250762939453
1751620572678848800,1.808848876953125,-41.34375,7.068750381469727,17.34375
1751620572688849000,1.818848876953125,-41.25,7.143750190734863,17.625
1751620572698848800,1.828848876953125,-41.47500228881836,7.312500476837158,17.83125114440918
1751620572708849000,1.838848876953125,-41.71875,7.462500095367432,17.850000381469727
1751620572718848800,1.848848876953125,-41.75625228881836,7.500000476837158,17.887500762939453
1751620572728849000,1.858848876953125,-41.868751525878906,7.387500286102295,17.868751525878906
1751620572738848800,1.868848876953125,-41.90625,7.556250095367432,17.981250762939453
1751620572748849000,1.878848876953125,-41.962501525878906,7.781250476837158,18.412500381469727
1751620572758848800,1.888848876953125,-41.83125305175781,7.912500381469727,18.543750762939453
1751620572768849000,1.898848876953125,-41.92500305175781,7.725000381469727,18.412500381469727
1751620572778848800,1.908848876953125,-41.36250305175781,7.631250381469727,18.39375114440918
1751620572788849000,1.918848876953125,-41.17500305175781,7.387500286102295,18.337501525878906
1751620572798848800,1.928848876953125,-41.26875305175781,7.218750476837158,18.30000114440918
1751620572808849000,1.938848876953125,-41.28750228881836,7.275000095367432,18.375
1751620572818848800,1.948848876953125,-41.17500305175781,7.031250476837158,18.337501525878906
1751620572828849000,1.958848876953125,-41.025001525878906,6.843750476837158,18.131250381469727
1751620572838848800,1.968848876953125,-41.04375076293945,6.787500381469727,18.168750762939453
1751620572848849000,1.978848876953125,-41.15625,6.900000095367432,18.337501525878906
1751620572858848800,1.988848876953125,-41.400001525878906,6.900000095367432,18.431251525878906
1751620572868849000,1.998848876953125,-41.587501525878906,7.106250286102295,18.48750114440918
1751620572878848800,2.008848876953125,-41.41875076293945,7.200000286102295,18.375
1751620572888849000,2.018848876953125,-41.17500305175781,7.181250095367432,18.375
1751620572898848800,2.028848876953125,-41.306251525878906,7.350000381469727,18.337501525878906
1751620572908849000,2.038848876953125,-41.45625305175781,7.443750381469727,18.356250762939453
1751620572918848800,2.048848876953125,-41.34375,7.556250095367432,18.412500381469727
1751620572928849000,2.058848876953125,-41.0625,7.425000190734863,18.168750762939453
1751620572938848800,2.068848876953125,-41.23125076293945,7.500000476837158,18.01875114440918
1751620572948849000,2.078848876953125,-41.25,7.425000190734863,17.887500762939453
1751620572958848800,2.088848876953125,-41.28750228881836,7.387500286102295,18
1751620572968849000,2.098848876953125,-41.25,7.237500190734863,17.71875
1751620572978848800,2.108848876953125,-41.19375228881836,7.218750476837158,17.587501525878906
1751620572988849000,2.118848876953125,-41.17500305175781,7.106250286102295,17.512500762939453
1751620572998848800,2.128848876953125,-41.118751525878906,6.881250381469727,17.381250381469727
1751620573008849000,2.138848876953125,-41.34375,6.975000381469727,17.662500381469727
1751620573018848800,2.148848876953125,-41.15625,6.993750095367432,17.625
1751620573028849000,2.158848876953125,-40.95000076293945,6.937500476837158,17.90625
1751620573038848800,2.168848876953125,-40.81875228881836,6.937500476837158,17.793750762939453
1751620573048849000,2.178848876953125,-41.32500076293945,7.181250095367432,18.09375
1751620573058848800,2.188848876953125,-41.45625305175781,7.181250095367432,18.11250114440918
1751620573068849000,2.198848876953125,-41.4375,7.125000476837158,17.981250762939453
1751620573078848800,2.208848876953125,-41.60625076293945,7.237500190734863,18.037500381469727
1751620573088849000,2.218848876953125,-41.70000076293945,7.275000095367432,17.850000381469727
1751620573098848800,2.228848876953125,-41.88750076293945,7.275000095367432,18.11250114440918
1751620573108849000,2.238848876953125,-42.07500076293945,7.350000381469727,18.150001525878906
1751620573118848800,2.248848876953125,-42.431251525878906,7.368750095367432,18.318750381469727
1751620573128849000,2.258848876953125,-41.88750076293945,7.162500381469727,18.318750381469727
1751620573138848800,2.268848876953125,-41.79375076293945,7.218750476837158,18.30000114440918
1751620573148849000,2.278848876953125,-41.8125,7.462500095367432,18.46875
1751620573158848800,2.288848876953125,-41.70000076293945,7.425000190734863,18.506250381469727
1751620573168849000,2.298848876953125,-41.38125228881836,7.331250190734863,18.600000381469727
1751620573178848800,2.308848876953125,-41.19375228881836,7.387500286102295,18.30000114440918
1751620573188849000,2.318848876953125,-40.95000076293945,7.425000190734863,18.225000381469727
1751620573198848800,2.328848876953125,-40.837501525878906,7.518750190734863,18.46875
1751620573208849000,2.338848876953125,-40.98750305175781,7.631250381469727,18.356250762939453
1751620573218848800,2.348848876953125,-41.212501525878906,7.631250381469727,18.262500762939453
1751620573228849000,2.358848876953125,-41.17500305175781,7.668750286102295,18.48750114440918
1751620573238848800,2.368848876953125,-41.212501525878906,7.781250476837158,18.39375114440918
1751620573248849000,2.378848876953125,-41.53125,7.875000476837158,18.30000114440918
1751620573258848800,2.388848876953125,-41.45625305175781,7.800000190734863,18.30000114440918
1751620573268849000,2.398848876953125,-41.55000305175781,7.706250190734863,18.356250762939453
1751620573278848800,2.408848876953125,-41.4375,7.725000381469727,18.243751525878906
1751620573288849000,2.418848876953125,-41.51250076293945,7.668750286102295,18.243751525878906
1751620573298848800,2.428848876953125,-41.25,7.687500476837158,18.600000381469727
1751620573308849000,2.438848876953125,-41.17500305175781,7.650000095367432,18.46875
1751620573318848800,2.448848876953125,-41.118751525878906,7.575000286102295,18.46875
1751620573328849000,2.458848876953125,-40.66875076293945,7.462500095367432,18.5625
1751620573338848800,2.468848876953125,-40.931251525878906,7.293750286102295,18.450000762939453
1751620573348849000,2.478848876953125,-40.91250228881836,7.387500286102295,18.375
1751620573358848800,2.488848876953125,-40.91250228881836,7.200000286102295,18.11250114440918
1751620573368849000,2.498848876953125,-40.875,7.275000095367432,18.131250381469727
1751620573378848800,2.508848876953125,-41.00625228881836,7.331250190734863,17.850000381469727
1751620573388849000,2.518848876953125,-40.96875,7.256250381469727,17.887500762939453
1751620573398848800,2.528848876953125,-40.837501525878906,7.256250381469727,17.90625
1751620573408849000,2.538848876953125,-41.00625228881836,7.256250381469727,17.868751525878906
1751620573418848800,2.548848876953125,-40.95000076293945,7.406250476837158,18.1875
1751620573428849000,2.558848876953125,-40.91250228881836,7.350000381469727,18.243751525878906
1751620573438848800,2.568848876953125,-40.96875,7.443750381469727,18.337501525878906
1751620573448849000,2.578848876953125,-41.08125305175781,7.256250381469727,18.506250381469727
1751620573458848800,2.588848876953125,-41.04375076293945,7.312500476837158,18.637500762939453
1751620573468849000,2.598848876953125,-41.47500228881836,7.481250286102295,18.5625
1751620573478848800,2.608848876953125,-41.493751525878906,7.350000381469727,18.5625
1751620573488849000,2.618848876953125,-41.4375,7.256250381469727,18.20625114440918
1751620573498848800,2.628848876953125,-41.493751525878906,7.331250190734863,18
1751620573508849000,2.638848876953125,-41.64375305175781,7.312500476837158,18.037500381469727
1751620573518848800,2.648848876953125,-41.587501525878906,7.256250381469727,17.90625
1751620573528849000,2.658848876953125,-41.34375,7.368750095367432,17.662500381469727
1751620573538848800,2.668848876953125,-41.306251525878906,7.256250381469727,17.568750381469727
1751620573548849000,2.678848876953125,-41.08125305175781,7.200000286102295,17.4375
1751620573558848800,2.688848876953125,-41.19375228881836,7.293750286102295,17.325000762939453
1751620573568849000,2.698848876953125,-41.25,7.481250286102295,17.587501525878906
1751620573578848800,2.708848876953125,-41.025001525878906,7.331250190734863,17.71875
1751620573588849000,2.718848876953125,-40.85625076293945,7.312500476837158,17.681251525878906
1751620573598848800,2.728848876953125,-41.08125305175781,7.275000095367432,17.850000381469727
1751620573608849000,2.738848876953125,-41.23125076293945,7.293750286102295,17.943750381469727
1751620573618848800,2.748848876953125,-41.32500076293945,7.312500476837158,18.01875114440918
1751620573628849000,2.758848876953125,-41.15625,7.200000286102295,18.131250381469727
1751620573638848800,2.768848876953125,-41.17500305175781,7.237500190734863,18.356250762939453
1751620573648849000,2.778848876953125,-41.23125076293945,7.218750476837158,18.39375114440918
1751620573658848800,2.788848876953125,-41.17500305175781,7.256250381469727,18.1875
1751620573668849000,2.798848876953125,-41.28750228881836,7.275000095367432,18.28125
1751620573678848800,2.808848876953125,-41.19375228881836,7.312500476837158,18.262500762939453
1751620573688849000,2.818848876953125,-41.19375228881836,7.125000476837158,18.168750762939453
1751620573698848800,2.828848876953125,-41.212501525878906,7.031250476837158,18.09375
1751620573708849000,2.838848876953125,-41.10000228881836,7.031250476837158,18.243751525878906
1751620573718848800,2.848848876953125,-40.98750305175781,7.162500381469727,18.225000381469727
1751620573728849000,2.858848876953125,-41.04375076293945,7.237500190734863,18.1875
1751620573738848800,2.868848876953125,-41.10000228881836,7.087500095367432,18.262500762939453
1751620573748849000,2.878848876953125,-40.875,6.975000381469727,18.1875
1751620573758848800,2.888848876953125,-40.72500228881836,6.975000381469727,18.28125
1751620573768849000,2.898848876953125,-40.91250228881836,7.012500286102295,18.375
1751620573778848800,2.908848876953125,-40.76250076293945,6.975000381469727,18.46875
1751620573788849000,2.918848876953125,-41.15625,7.012500286102295,18.30000114440918
1751620573798848800,2.928848876953125,-41.00625228881836,6.731250286102295,18.30000114440918
1751620573808849000,2.938848876953125,-41.212501525878906,6.750000476837158,18.46875
1751620573818848800,2.948848876953125,-41.45625305175781,6.900000095367432,18.525001525878906
1751620573828849000,2.958848876953125,-41.56875228881836,7.125000476837158,18.450000762939453
1751620573838848800,2.968848876953125,-41.8125,7.200000286102295,18.30000114440918
1751620573848849000,2.978848876953125,-41.775001525878906,7.406250476837158,18.28125
1751620573858848800,2.988848876953125,-41.88750076293945,7.518750190734863,18.431251525878906
1751620573878848800,3.008848876953125,-41.868751525878906,7.762500286102295,18.5625
1751620573888849000,3.018848876953125,-41.75625228881836,7.650000095367432,18.46875
1751620573898848800,3.028848876953125,-41.45625305175781,7.575000286102295,18.337501525878906
1751620573908849000,3.038848876953125,-41.66250228881836,7.537500381469727,18.48750114440918
1751620573918848800,3.048848876953125,-41.45625305175781,7.518750190734863,18.5625
1751620573928849000,3.058848876953125,-41.41875076293945,7.518750190734863,18.67500114440918
1751620573938848800,3.068848876953125,-41.625,7.500000476837158,18.5625
1751620573948849000,3.078848876953125,-41.64375305175781,7.575000286102295,18.431251525878906
1751620573958848800,3.088848876953125,-42.03750228881836,7.481250286102295,18.318750381469727
1751620573968849000,3.098848876953125,-41.962501525878906,7.481250286102295,18.46875
1751620573978848800,3.108848876953125,-42.375,7.556250095367432,18.600000381469727
1751620573988849000,3.118848876953125,-42.11250305175781,7.443750381469727,18.431251525878906
1751620573998848800,3.128848876953125,-42.16875076293945,7.387500286102295,18.150001525878906
1751620574008849000,3.138848876953125,-41.868751525878906,7.368750095367432,18.150001525878906
1751620574018848800,3.148848876953125,-41.4375,7.481250286102295,18.168750762939453
1751620574028849000,3.158848876953125,-41.71875,7.237500190734863,18.09375
1751620574038848800,3.168848876953125,-41.400001525878906,7.256250381469727,18.318750381469727
1751620574048849000,3.178848876953125,-41.38125228881836,7.068750381469727,18.056251525878906
1751620574058848800,3.188848876953125,-41.25,7.200000286102295,18.056251525878906
1751620574068849000,3.198848876953125,-41.17500305175781,7.218750476837158,18.150001525878906
1751620574078848800,3.208848876953125,-41.19375228881836,7.331250190734863,18.431251525878906
1751620574088849000,3.218848876953125,-41.28750228881836,7.331250190734863,18.28125
1751620574098848800,3.228848876953125,-41.55000305175781,7.181250095367432,18.262500762939453
1751620574108849000,3.238848876953125,-41.025001525878906,7.237500190734863,18.262500762939453
1751620574128849000,3.258848876953125,-41.0625,7.462500095367432,18.150001525878906
1751620574138848800,3.268848876953125,-40.91250228881836,7.218750476837158,17.943750381469727
1751620574148849000,3.278848876953125,-41.10000228881836,7.256250381469727,17.981250762939453
1751620574158848800,3.288848876953125,-40.96875,7.275000095367432,17.8125
1751620574168849000,3.298848876953125,-41.25,7.087500095367432,18.01875114440918
1751620574178848800,3.308848876953125,-41.118751525878906,7.106250286102295,17.90625
1751620574188849000,3.318848876953125,-41.64375305175781,7.068750381469727,17.83125114440918
1751620574198848800,3.328848876953125,-41.75625228881836,7.031250476837158,17.83125114440918
1751620574208849000,3.338848876953125,-41.56875228881836,7.106250286102295,17.92500114440918
1751620574218848800,3.348848876953125,-41.625,7.125000476837158,18.037500381469727
1751620574228849000,3.358848876953125,-41.66250228881836,7.256250381469727,17.868751525878906
1751620574238848800,3.368848876953125,-41.70000076293945,7.143750190734863,17.981250762939453
1751620574248849000,3.378848876953125,-41.47500228881836,7.125000476837158,17.756250381469727
1751620574258848800,3.388848876953125,-41.56875228881836,6.993750095367432,17.962501525878906
1751620574268849000,3.398848876953125,-41.118751525878906,7.200000286102295,18.243751525878906
1751620574278848800,3.408848876953125,-40.98750305175781,7.181250095367432,18
1751620574288849000,3.418848876953125,-41.04375076293945,7.181250095367432,18.075000762939453
1751620574298848800,3.428848876953125,-40.95000076293945,7.368750095367432,18.09375
1751620574308849000,3.438848876953125,-41.08125305175781,7.293750286102295,18.131250381469727
1751620574318848800,3.448848876953125,-41.32500076293945,7.237500190734863,18.09375
1751620574328849000,3.458848876953125,-41.66250228881836,7.218750476837158,18.356250762939453
1751620574338848800,3.468848876953125,-41.70000076293945,7.425000190734863,18.075000762939453
1751620574348849000,3.478848876953125,-41.868751525878906,7.462500095367432,17.90625
1751620574358848800,3.488848876953125,-41.88750076293945,7.462500095367432,17.850000381469727
1751620574368849000,3.498848876953125,-41.85000228881836,7.462500095367432,17.850000381469727
1751620574378848800,3.508848876953125,-41.85000228881836,7.368750095367432,17.73750114440918
1751620574388849000,3.518848876953125,-41.625,7.181250095367432,17.756250381469727
1751620574398848800,3.528848876953125,-41.53125,7.350000381469727,17.756250381469727
1751620574408849000,3.538848876953125,-41.17500305175781,7.500000476837158,17.418750762939453
1751620574418848800,3.548848876953125,-41.04375076293945,7.500000476837158,17.775001525878906
1751620574428849000,3.558848876953125,-40.931251525878906,7.331250190734863,17.83125114440918
1751620574438848800,3.568848876953125,-40.875,7.293750286102295,17.868751525878906
1751620574448849000,3.578848876953125,-40.931251525878906,7.368750095367432,17.83125114440918
1751620574458848800,3.588848876953125,-40.96875,7.312500476837158,18
1751620574468849000,3.598848876953125,-41.04375076293945,7.387500286102295,17.850000381469727
1751620574478848800,3.608848876953125,-40.95000076293945,7.181250095367432,17.793750762939453
1751620574488849000,3.618848876953125,-41.08125305175781,7.106250286102295,17.850000381469727
1751620574498848800,3.628848876953125,-40.98750305175781,7.087500095367432,17.64375114440918
1751620574508849000,3.638848876953125,-40.85625076293945,7.181250095367432,17.64375114440918
1751620574518848800,3.648848876953125,-40.80000305175781,7.256250381469727,17.92500114440918
1751620574528849000,3.658848876953125,-40.837501525878906,7.068750381469727,17.92500114440918
1751620574538848800,3.668848876953125,-40.743751525878906,7.050000190734863,17.962501525878906
1751620574548849000,3.678848876953125,-40.76250076293945,6.993750095367432,18.075000762939453
1751620574558848800,3.688848876953125,-40.59375,7.068750381469727,18.11250114440918
1751620574568849000,3.698848876953125,-40.72500228881836,7.106250286102295,18.01875114440918
1751620574578848800,3.708848876953125,-40.76250076293945,7.012500286102295,17.981250762939453
1751620574588849000,3.718848876953125,-40.95000076293945,6.937500476837158,17.887500762939453
1751620574598848800,3.728848876953125,-40.85625076293945,7.068750381469727,17.850000381469727
1751620574608849000,3.738848876953125,-41.13750076293945,7.218750476837158,17.8125
1751620574618848800,3.748848876953125,-41.19375228881836,7.275000095367432,17.625
1751620574628849000,3.758848876953125,-40.96875,7.350000381469727,17.775001525878906
1751620574638848800,3.768848876953125,-41.17500305175781,7.368750095367432,17.64375114440918
1751620574648849000,3.778848876953125,-41.15625,7.331250190734863,17.700000762939453
1751620574658848800,3.788848876953125,-41.118751525878906,7.312500476837158,17.775001525878906
1751620574668849000,3.798848876953125,-41.0625,7.200000286102295,17.775001525878906
1751620574678848800,3.808848876953125,-41.34375,7.068750381469727,17.606250762939453
1751620574688849000,3.818848876953125,-41.00625228881836,7.200000286102295,17.71875
1751620574698848800,3.828848876953125,-40.931251525878906,7.200000286102295,17.90625
1751620574708849000,3.838848876953125,-40.81875228881836,7.106250286102295,17.8125
1751620574718848800,3.848848876953125,-40.931251525878906,7.106250286102295,17.8125
1751620574728849000,3.858848876953125,-40.72500228881836,7.200000286102295,17.90625
1751620574738848800,3.868848876953125,-40.98750305175781,7.106250286102295,17.756250381469727
1751620574748849000,3.878848876953125,-40.98750305175781,7.293750286102295,17.90625
1751620574758848800,3.888848876953125,-41.00625228881836,7.256250381469727,17.793750762939453
1751620574768849000,3.898848876953125,-41.15625,6.862500190734863,17.625
1751620574778848800,3.908848876953125,-41.212501525878906,6.787500381469727,17.381250381469727
1751620574788849000,3.918848876953125,-41.493751525878906,6.937500476837158,17.4375
1751620574798848800,3.928848876953125,-41.400001525878906,7.050000190734863,17.606250762939453
1751620574808849000,3.938848876953125,-41.64375305175781,7.068750381469727,17.625
1751620574818848800,3.948848876953125,-41.45625305175781,7.237500190734863,17.73750114440918
1751620574828849000,3.958848876953125,-41.8125,7.256250381469727,17.681251525878906
1751620574838848800,3.968848876953125,-41.94375228881836,7.256250381469727,18.01875114440918
1751620574848849000,3.978848876953125,-41.92500305175781,7.575000286102295,18.1875
1751620574858848800,3.988848876953125,-41.94375228881836,7.706250190734863,18.318750381469727
1751620574868849000,3.998848876953125,-42.01875305175781,7.725000381469727,18.375
1751620574878848800,4.008848876953125,-41.75625228881836,7.612500190734863,18.243751525878906
1751620574888849000,4.018848876953125,-41.41875076293945,7.406250476837158,18.20625114440918
1751620574898848800,4.028848876953125,-41.41875076293945,7.256250381469727,18
1751620574908849000,4.038848876953125,-41.15625,7.050000190734863,17.981250762939453
1751620574918848800,4.048848876953125,-41.04375076293945,7.012500286102295,17.73750114440918
1751620574928849000,4.058848876953125,-40.76250076293945,6.806250095367432,17.681251525878906
1751620574938848800,4.068848876953125,-40.80000305175781,6.806250095367432,17.92500114440918
1751620574948849000,4.078848876953125,-40.66875076293945,6.843750476837158,18.037500381469727
1751620574958848800,4.088848876953125,-40.95000076293945,7.012500286102295,18.131250381469727
1751620574968849000,4.098848876953125,-41.118751525878906,7.275000095367432,18.243751525878906
1751620574978848800,4.108848876953125,-41.17500305175781,7.293750286102295,18.30000114440918
1751620574988849000,4.118848876953125,-41.306251525878906,7.443750381469727,18.431251525878906
1751620574998848800,4.128848876953125,-41.23125076293945,7.406250476837158,18.712501525878906
1751620575008849000,4.138848876953125,-41.400001525878906,7.331250190734863,18.712501525878906
1751620575018848800,4.148848876953125,-41.306251525878906,7.143750190734863,18.637500762939453
1751620575028849000,4.158848876953125,-41.41875076293945,7.068750381469727,18.412500381469727
1751620575038848800,4.168848876953125,-41.10000228881836,6.900000095367432,18.337501525878906
1751620575048849000,4.178848876953125,-41.00625228881836,6.862500190734863,18.356250762939453
1751620575058848800,4.188848876953125,-41.04375076293945,6.900000095367432,18.543750762939453
1751620575068849000,4.198848876953125,-41.26875305175781,6.881250381469727,18.46875
1751620575078848800,4.208848876953125,-41.23125076293945,6.975000381469727,18.28125
1751620575088849000,4.218848876953125,-41.38125228881836,7.012500286102295,18.20625114440918
1751620575098848800,4.228848876953125,-41.681251525878906,7.068750381469727,18.075000762939453
1751620575108849000,4.238848876953125,-41.8125,7.106250286102295,18.1875
1751620575118848800,4.248848876953125,-42.03750228881836,7.050000190734863,18.168750762939453
1751620575128849000,4.258848876953125,-42,7.087500095367432,17.73750114440918
1751620575138848800,4.268848876953125,-41.775001525878906,7.181250095367432,17.850000381469727
1751620575148849000,4.278848876953125,-41.34375,7.125000476837158,17.850000381469727
1751620575158848800,4.288848876953125,-41.587501525878906,7.143750190734863,17.83125114440918
1751620575168849000,4.298848876953125,-41.36250305175781,6.937500476837158,17.92500114440918
1751620575178848800,4.308848876953125,-41.26875305175781,7.050000190734863,17.83125114440918
1751620575188849000,4.318848876953125,-41.19375228881836,7.050000190734863,17.793750762939453
1751620575198848800,4.328848876953125,-41.25,7.256250381469727,17.868751525878906
1751620575208849000,4.338848876953125,-41.26875305175781,7.275000095367432,18.28125
1751620575218848800,4.348848876953125,-41.34375,7.256250381469727,18.318750381469727
1751620575228849000,4.358848876953125,-41.41875076293945,7.143750190734863,18.28125
1751620575238848800,4.368848876953125,-41.47500228881836,7.200000286102295,18.262500762939453
1751620575248849000,4.378848876953125,-41.79375076293945,7.631250381469727,18.243751525878906
1751620575258848800,4.388848876953125,-41.90625,7.612500190734863,18.412500381469727
1751620575268849000,4.398848876953125,-41.98125076293945,7.612500190734863,18.46875
1751620575278848800,4.408848876953125,-41.92500305175781,7.425000190734863,18.48750114440918
1751620575288849000,4.418848876953125,-42.09375,7.256250381469727,18.337501525878906
1751620575298848800,4.428848876953125,-42.35625076293945,7.387500286102295,18.318750381469727
1751620575308849000,4.438848876953125,-42.31875228881836,7.350000381469727,18.243751525878906
1751620575318848800,4.448848876953125,-42,7.275000095367432,18.356250762939453
1751620575328849000,4.458848876953125,-41.85000228881836,7.181250095367432,18.46875
1751620575338848800,4.468848876953125,-41.26875305175781,7.143750190734863,18.30000114440918
1751620575348849000,4.478848876953125,-41.28750228881836,7.200000286102295,18.20625114440918
1751620575358848800,4.488848876953125,-41.25,7.312500476837158,18.1875
1751620575368849000,4.498848876953125,-41.19375228881836,7.500000476837158,18.337501525878906
1751620575378848800,4.508848876953125,-40.76250076293945,7.275000095367432,18.225000381469727
1751620575388849000,4.518848876953125,-40.81875228881836,7.612500190734863,18.600000381469727
1751620575398848800,4.528848876953125,-41.08125305175781,7.575000286102295,18.58125114440918
1751620575408849000,4.538848876953125,-41.10000228881836,7.631250381469727,18.46875
1751620575418848800,4.548848876953125,-41.625,7.706250190734863,18.506250381469727
1751620575428849000,4.558848876953125,-41.47500228881836,7.706250190734863,18.543750762939453
1751620575438848800,4.568848876953125,-41.625,7.725000381469727,18.39375114440918
1751620575448849000,4.578848876953125,-41.51250076293945,7.593750476837158,18.337501525878906
1751620575458848800,4.588848876953125,-41.75625228881836,7.593750476837158,18.056251525878906
1751620575468849000,4.598848876953125,-41.60625076293945,7.256250381469727,17.662500381469727
1751620575478848800,4.608848876953125,-41.47500228881836,7.031250476837158,17.55000114440918
1751620575488849000,4.618848876953125,-41.32500076293945,6.956250190734863,17.625
1751620575498848800,4.628848876953125,-41.13750076293945,6.937500476837158,17.53125
1751620575508849000,4.638848876953125,-41.00625228881836,6.862500190734863,17.418750762939453
1751620575518848800,4.648848876953125,-41.13750076293945,6.787500381469727,17.512500762939453
1751620575528849000,4.658848876953125,-40.96875,6.768750190734863,17.325000762939453
1751620575538848800,4.668848876953125,-40.98750305175781,6.900000095367432,17.73750114440918
1751620575548849000,4.678848876953125,-41.025001525878906,7.050000190734863,17.868751525878906
1751620575558848800,4.688848876953125,-40.91250228881836,7.312500476837158,18.09375
1751620575568849000,4.698848876953125,-40.96875,7.312500476837158,18.01875114440918
1751620575578848800,4.708848876953125,-40.95000076293945,7.293750286102295,18.075000762939453
1751620575588849000,4.718848876953125,-41.13750076293945,7.293750286102295,18.131250381469727
1751620575598848800,4.728848876953125,-40.89375305175781,7.293750286102295,18.168750762939453
1751620575608849000,4.738848876953125,-41.025001525878906,7.575000286102295,18.450000762939453
1751620575618848800,4.748848876953125,-41.118751525878906,7.650000095367432,18.48750114440918
1751620575628849000,4.758848876953125,-41.17500305175781,7.575000286102295,18.525001525878906
1751620575638848800,4.768848876953125,-41.08125305175781,7.293750286102295,18.150001525878906
1751620575648849000,4.778848876953125,-41.25,7.312500476837158,18.356250762939453
1751620575658848800,4.788848876953125,-41.23125076293945,7.218750476837158,18.431251525878906
1751620575668849000,4.798848876953125,-41.25,7.350000381469727,18.543750762939453
1751620575678848800,4.808848876953125,-41.118751525878906,7.500000476837158,18.787500381469727
1751620575688849000,4.818848876953125,-41.28750228881836,7.293750286102295,18.65625
1751620575698848800,4.828848876953125,-41.04375076293945,7.200000286102295,18.48750114440918
1751620575708849000,4.838848876953125,-41.306251525878906,7.125000476837158,18.48750114440918
1751620575718848800,4.848848876953125,-41.60625076293945,7.256250381469727,18.65625
1751620575728849000,4.858848876953125,-41.493751525878906,7.125000476837158,18.46875
1751620575738848800,4.868848876953125,-41.56875228881836,7.050000190734863,18.375
1751620575748849000,4.878848876953125,-41.34375,6.918750286102295,18.450000762939453
1751620575758848800,4.888848876953125,-41.493751525878906,6.787500381469727,18.506250381469727
1751620575768849000,4.898848876953125,-41.51250076293945,6.712500095367432,18.431251525878906
1751620575778848800,4.908848876953125,-41.587501525878906,6.637500286102295,18.431251525878906
1751620575788849000,4.918848876953125,-41.38125228881836,6.712500095367432,18.450000762939453
1751620575798848800,4.928848876953125,-41.38125228881836,6.712500095367432,18.450000762939453
1751620575808849000,4.938848876953125,-41.400001525878906,6.750000476837158,18.30000114440918
1751620575818848800,4.948848876953125,-41.4375,6.975000381469727,18.356250762939453
1751620575828849000,4.958848876953125,-41.55000305175781,7.200000286102295,18.39375114440918
1751620575838848800,4.968848876953125,-41.625,7.087500095367432,18.11250114440918
1751620575848849000,4.978848876953125,-41.587501525878906,7.012500286102295,18.150001525878906
1751620575858848800,4.988848876953125,-41.56875228881836,7.050000190734863,17.92500114440918
1751620575868849000,4.998848876953125,-41.55000305175781,7.050000190734863,17.850000381469727
1751620575878848800,5.008848876953125,-41.56875228881836,7.068750381469727,17.775001525878906
1751620575888849000,5.018848876953125,-41.4375,7.275000095367432,17.962501525878906
1751620575898848800,5.028848876953125,-41.23125076293945,7.331250190734863,18.037500381469727
1751620575908849000,5.038848876953125,-41.212501525878906,7.012500286102295,17.83125114440918
1751620575918848800,5.048848876953125,-41.212501525878906,7.218750476837158,17.775001525878906
1751620575928849000,5.058848876953125,-41.08125305175781,7.481250286102295,17.700000762939453
1751620575938848800,5.068848876953125,-41.28750228881836,7.368750095367432,17.92500114440918
1751620575948849000,5.078848876953125,-41.38125228881836,7.331250190734863,18.037500381469727
1751620575958848800,5.088848876953125,-41.13750076293945,7.462500095367432,18.09375
1751620575968849000,5.098848876953125,-41.025001525878906,7.425000190734863,18.09375
1751620575978848800,5.108848876953125,-41.10000228881836,7.237500190734863,18.168750762939453
1751620575988849000,5.118848876953125,-41.10000228881836,7.406250476837158,18.168750762939453
1751620575998848800,5.128848876953125,-41.23125076293945,7.350000381469727,18.30000114440918
1751620576008849000,5.138848876953125,-41.32500076293945,7.181250095367432,18.28125
1751620576018848800,5.148848876953125,-41.118751525878906,7.368750095367432,18.225000381469727
1751620576028849000,5.158848876953125,-41.13750076293945,7.575000286102295,18.01875114440918
1751620576038848800,5.168848876953125,-41.17500305175781,7.500000476837158,18.168750762939453
1751620576048849000,5.178848876953125,-41.56875228881836,7.406250476837158,18.28125
1751620576058848800,5.188848876953125,-41.60625076293945,7.350000381469727,18
1751620576068849000,5.198848876953125,-41.88750076293945,7.331250190734863,18.075000762939453
1751620576078848800,5.208848876953125,-41.88750076293945,7.237500190734863,18.037500381469727
1751620576088849000,5.218848876953125,-41.88750076293945,7.293750286102295,18.131250381469727
1751620576098848800,5.228848876953125,-41.962501525878906,7.106250286102295,18.09375
1751620576108849000,5.238848876953125,-42.11250305175781,6.993750095367432,18.09375
1751620576118848800,5.248848876953125,-42.03750228881836,6.787500381469727,17.92500114440918
1751620576128849000,5.258848876953125,-41.775001525878906,6.900000095367432,17.981250762939453
1751620576138848800,5.268848876953125,-41.79375076293945,7.068750381469727,18.037500381469727
1751620576148849000,5.278848876953125,-41.775001525878906,6.900000095367432,18
1751620576158848800,5.288848876953125,-41.8125,6.918750286102295,18.09375
1751620576168849000,5.298848876953125,-41.73750305175781,6.993750095367432,18.262500762939453
1751620576178848800,5.308848876953125,-41.79375076293945,7.143750190734863,18.131250381469727
1751620576188849000,5.318848876953125,-41.625,7.087500095367432,18.225000381469727
1751620576198848800,5.328848876953125,-41.60625076293945,7.312500476837158,18.09375
1751620576208849000,5.338848876953125,-41.8125,7.181250095367432,17.868751525878906
1751620576218848800,5.348848876953125,-41.88750076293945,7.162500381469727,18
1751620576228849000,5.358848876953125,-41.56875228881836,7.368750095367432,17.981250762939453
1751620576238848800,5.368848876953125,-41.587501525878906,7.387500286102295,17.90625
1751620576248849000,5.378848876953125,-41.625,7.312500476837158,17.83125114440918
1751620576258848800,5.388848876953125,-41.55000305175781,7.331250190734863,17.981250762939453
1751620576268849000,5.398848876953125,-41.45625305175781,7.462500095367432,17.92500114440918
1751620576278848800,5.408848876953125,-41.66250228881836,7.368750095367432,18.01875114440918
1751620576288849000,5.418848876953125,-41.55000305175781,7.500000476837158,18.150001525878906
1751620576298848800,5.428848876953125,-41.34375,7.387500286102295,18.11250114440918
1751620576308849000,5.438848876953125,-41.47500228881836,7.237500190734863,17.943750381469727
1751620576318848800,5.448848876953125,-41.25,7.218750476837158,18.056251525878906
1751620576328849000,5.458848876953125,-41.17500305175781,7.293750286102295,18.168750762939453
1751620576338848800,5.468848876953125,-41.26875305175781,7.181250095367432,18.037500381469727
1751620576348849000,5.478848876953125,-41.25,7.200000286102295,18.168750762939453
1751620576358848800,5.488848876953125,-41.26875305175781,7.256250381469727,18.243751525878906
1751620576368849000,5.498848876953125,-41.13750076293945,7.162500381469727,18.075000762939453
1751620576378848800,5.508848876953125,-41.38125228881836,7.350000381469727,18.037500381469727
1751620576388849000,5.518848876953125,-41.23125076293945,7.368750095367432,18.168750762939453
1751620576398848800,5.528848876953125,-41.0625,7.368750095367432,17.90625
1751620576408849000,5.538848876953125,-40.95000076293945,7.200000286102295,17.681251525878906
1751620576418848800,5.548848876953125,-40.95000076293945,7.050000190734863,17.756250381469727
1751620576428849000,5.558848876953125,-41.04375076293945,6.956250190734863,17.662500381469727
1751620576438848800,5.568848876953125,-41.00625228881836,6.956250190734863,17.625
1751620576448849000,5.578848876953125,-41.04375076293945,6.956250190734863,17.71875
1751620576458848800,5.588848876953125,-41.00625228881836,6.993750095367432,17.962501525878906
1751620576468849000,5.598848876953125,-41.212501525878906,7.031250476837158,17.868751525878906
1751620576478848800,5.608848876953125,-41.38125228881836,6.937500476837158,17.92500114440918
1751620576488849000,5.618848876953125,-41.493751525878906,6.825000286102295,17.8125
1751620576498848800,5.628848876953125,-41.47500228881836,7.050000190734863,17.700000762939453
1751620576518848800,5.648848876953125,-41.025001525878906,7.087500095367432,17.606250762939453
1751620576528849000,5.658848876953125,-41.025001525878906,6.956250190734863,17.568750381469727
1751620576538848800,5.668848876953125,-41.0625,6.693750381469727,17.36250114440918
1751620576548849000,5.678848876953125,-41.00625228881836,6.693750381469727,17.418750762939453
1751620576558848800,5.688848876953125,-41.08125305175781,6.862500190734863,17.55000114440918
1751620576568849000,5.698848876953125,-41.34375,6.956250190734863,17.587501525878906
1751620576578848800,5.708848876953125,-41.53125,6.956250190734863,17.606250762939453
1751620576588849000,5.718848876953125,-41.775001525878906,6.750000476837158,17.71875
1751620576598848800,5.728848876953125,-41.775001525878906,6.881250381469727,17.92500114440918
1751620576608849000,5.738848876953125,-42.01875305175781,7.143750190734863,18
1751620576618848800,5.748848876953125,-41.92500305175781,7.368750095367432,18.056251525878906
1751620576628849000,5.758848876953125,-41.90625,7.312500476837158,18.056251525878906
1751620576638848800,5.768848876953125,-41.90625,7.237500190734863,18.11250114440918
1751620576648849000,5.778848876953125,-41.56875228881836,7.331250190734863,18.1875
1751620576658848800,5.788848876953125,-41.26875305175781,7.406250476837158,18.28125
1751620576668849000,5.798848876953125,-41.34375,7.668750286102295,18.262500762939453
1751620576678848800,5.808848876953125,-41.38125228881836,7.462500095367432,18.150001525878906
1751620576688849000,5.818848876953125,-41.08125305175781,7.162500381469727,18.168750762939453
1751620576698848800,5.828848876953125,-40.837501525878906,6.975000381469727,18.131250381469727
1751620576708849000,5.838848876953125,-40.81875228881836,6.956250190734863,18.150001525878906
1751620576718848800,5.848848876953125,-40.95000076293945,7.031250476837158,18.262500762939453
1751620576728849000,5.858848876953125,-40.89375305175781,6.881250381469727,18.39375114440918
1751620576738848800,5.868848876953125,-40.89375305175781,6.862500190734863,18.58125114440918
1751620576748849000,5.878848876953125,-40.78125,6.731250286102295,18.48750114440918
1751620576758848800,5.888848876953125,-40.72500228881836,6.825000286102295,18.450000762939453
1751620576768849000,5.898848876953125,-40.931251525878906,7.031250476837158,18.20625114440918
1751620576778848800,5.908848876953125,-41.212501525878906,7.012500286102295,18.243751525878906
1751620576788849000,5.918848876953125,-41.34375,7.087500095367432,18.450000762939453
1751620576798848800,5.928848876953125,-41.08125305175781,7.143750190734863,18.30000114440918
1751620576808849000,5.938848876953125,-41.400001525878906,7.387500286102295,18.11250114440918
1751620576818848800,5.948848876953125,-41.625,7.256250381469727,18.056251525878906
1751620576828849000,5.958848876953125,-41.85000228881836,7.368750095367432,17.962501525878906
1751620576838848800,5.968848876953125,-41.92500305175781,7.406250476837158,17.943750381469727
1751620576848849000,5.978848876953125,-41.71875,7.425000190734863,18.131250381469727
1751620576858848800,5.988848876953125,-41.71875,7.725000381469727,18.150001525878906
1751620576868849000,5.998848876953125,-41.64375305175781,7.631250381469727,17.587501525878906
1751620576878848800,6.008848876953125,-41.70000076293945,7.687500476837158,17.662500381469727
1751620576888849000,6.018848876953125,-41.55000305175781,7.518750190734863,17.8125
1751620576898848800,6.028848876953125,-41.4375,7.387500286102295,17.71875
1751620576908849000,6.038848876953125,-41.25,7.425000190734863,17.887500762939453
1751620576918848800,6.048848876953125,-41.26875305175781,7.331250190734863,18.01875114440918
1751620576928849000,6.058848876953125,-41.45625305175781,7.331250190734863,17.981250762939453
1751620576938848800,6.068848876953125,-41.38125228881836,7.331250190734863,17.92500114440918
1751620576948849000,6.078848876953125,-41.25,7.593750476837158,18.262500762939453
1751620576958848800,6.088848876953125,-41.23125076293945,7.612500190734863,18.375
1751620576968849000,6.098848876953125,-41.306251525878906,7.725000381469727,18.412500381469727
1751620576978848800,6.108848876953125,-41.28750228881836,7.987500190734863,18.431251525878906
1751620576988849000,6.118848876953125,-41.19375228881836,8.02500057220459,18.46875
1751620576998848800,6.128848876953125,-41.28750228881836,8.11875057220459,18.262500762939453
1751620577008849000,6.138848876953125,-41.13750076293945,8.02500057220459,18.375
1751620577018848800,6.148848876953125,-41.08125305175781,7.875000476837158,18.58125114440918
1751620577028849000,6.158848876953125,-41.15625,7.687500476837158,18.600000381469727
1751620577038848800,6.168848876953125,-41.0625,7.481250286102295,18.431251525878906
1751620577048849000,6.178848876953125,-41.04375076293945,7.537500381469727,18.30000114440918
1751620577058848800,6.188848876953125,-40.91250228881836,7.500000476837158,18.225000381469727
1751620577068849000,6.198848876953125,-41.0625,7.350000381469727,18.168750762939453
1751620577078848800,6.208848876953125,-41.0625,7.275000095367432,18.1875
1751620577088849000,6.218848876953125,-41.17500305175781,7.125000476837158,18
1751620577098848800,6.228848876953125,-41.32500076293945,7.106250286102295,17.90625
1751620577108849000,6.238848876953125,-41.38125228881836,7.143750190734863,17.73750114440918
1751620577118848800,6.248848876953125,-41.66250228881836,7.181250095367432,17.73750114440918
1751620577128849000,6.258848876953125,-41.75625228881836,7.200000286102295,17.850000381469727
1751620577138848800,6.268848876953125,-41.85000228881836,6.993750095367432,17.83125114440918
1751620577148849000,6.278848876953125,-41.92500305175781,7.087500095367432,17.756250381469727
1751620577158848800,6.288848876953125,-41.92500305175781,7.237500190734863,17.962501525878906
1751620577168849000,6.298848876953125,-42.26250076293945,7.518750190734863,18.056251525878906
1751620577178848800,6.308848876953125,-42.26250076293945,7.500000476837158,17.90625
1751620577188849000,6.318848876953125,-42.16875076293945,7.518750190734863,18.09375
1751620577198848800,6.328848876953125,-41.8125,7.537500381469727,17.887500762939453
1751620577208849000,6.338848876953125,-41.64375305175781,7.462500095367432,17.793750762939453
1751620577218848800,6.348848876953125,-41.625,7.500000476837158,17.681251525878906
1751620577228849000,6.358848876953125,-41.41875076293945,7.537500381469727,17.775001525878906
1751620577238848800,6.368848876953125,-41.34375,7.556250095367432,17.64375114440918
1751620577248849000,6.378848876953125,-40.98750305175781,7.425000190734863,17.71875
1751620577258848800,6.388848876953125,-40.66875076293945,7.218750476837158,17.756250381469727
1751620577268849000,6.398848876953125,-40.837501525878906,7.143750190734863,17.793750762939453
1751620577278848800,6.408848876953125,-40.91250228881836,6.900000095367432,18
1751620577288849000,6.418848876953125,-40.931251525878906,6.918750286102295,17.943750381469727
1751620577298848800,6.428848876953125,-40.76250076293945,7.068750381469727,18.337501525878906
1751620577308849000,6.438848876953125,-40.66875076293945,6.975000381469727,18.225000381469727
1751620577318848800,6.448848876953125,-40.78125,6.843750476837158,18.056251525878906
1751620577328849000,6.458848876953125,-40.81875228881836,6.843750476837158,17.8125
1751620577338848800,6.468848876953125,-41.10000228881836,7.068750381469727,17.8125
1751620577348849000,6.478848876953125,-40.875,7.162500381469727,17.64375114440918
1751620577358848800,6.488848876953125,-41.17500305175781,7.350000381469727,17.493751525878906
1751620577368849000,6.498848876953125,-40.95000076293945,7.275000095367432,17.36250114440918
1751620577378848800,6.508848876953125,-40.875,7.387500286102295,17.325000762939453
1751620577388849000,6.518848876953125,-40.96875,7.443750381469727,17.25
1751620577398848800,6.528848876953125,-40.57500076293945,7.406250476837158,17.400001525878906
1751620577408849000,6.538848876953125,-40.38750076293945,7.368750095367432,17.36250114440918
1751620577418848800,6.548848876953125,-40.23750305175781,7.350000381469727,17.325000762939453
1751620577428849000,6.558848876953125,-40.25625228881836,7.331250190734863,17.25
1751620577438848800,6.568848876953125,-40.05000305175781,7.331250190734863,17.26875114440918
1751620577448849000,6.578848876953125,-40.40625,7.556250095367432,17.493751525878906
1751620577458848800,6.588848876953125,-40.462501525878906,7.500000476837158,17.34375
1751620577468849000,6.598848876953125,-40.40625,7.518750190734863,17.53125
1751620577478848800,6.608848876953125,-40.63125228881836,7.593750476837158,17.71875
1751620577488849000,6.618848876953125,-41.08125305175781,7.856250286102295,17.943750381469727
1751620577498848800,6.628848876953125,-41.08125305175781,7.781250476837158,17.981250762939453
1751620577508849000,6.638848876953125,-41.212501525878906,7.931250095367432,18.09375
1751620577518848800,6.648848876953125,-41.28750228881836,7.987500190734863,18
1751620577528849000,6.658848876953125,-41.38125228881836,7.968750476837158,17.92500114440918
1751620577538848800,6.668848876953125,-41.64375305175781,7.743750095367432,17.92500114440918
1751620577548849000,6.678848876953125,-41.70000076293945,7.612500190734863,17.92500114440918
1751620577558848800,6.688848876953125,-41.56875228881836,7.481250286102295,17.793750762939453
1751620577568849000,6.698848876953125,-41.17500305175781,7.293750286102295,17.64375114440918
1751620577578848800,6.708848876953125,-41.212501525878906,7.237500190734863,17.887500762939453
1751620577588849000,6.718848876953125,-41.08125305175781,7.143750190734863,18.075000762939453
1751620577598848800,6.728848876953125,-41.08125305175781,7.162500381469727,18.225000381469727
1751620577608849000,6.738848876953125,-40.875,6.956250190734863,18.1875
1751620577618848800,6.748848876953125,-40.72500228881836,7.143750190734863,18.075000762939453
1751620577628849000,6.758848876953125,-40.85625076293945,7.218750476837158,18.30000114440918
1751620577638848800,6.768848876953125,-40.931251525878906,7.256250381469727,18.262500762939453
1751620577648849000,6.778848876953125,-41.17500305175781,7.256250381469727,18.375
1751620577658848800,6.788848876953125,-41.04375076293945,7.293750286102295,17.887500762939453
1751620577668849000,6.798848876953125,-41.00625228881836,7.162500381469727,17.64375114440918
1751620577678848800,6.808848876953125,-40.96875,7.087500095367432,17.64375114440918
1751620577688849000,6.818848876953125,-40.875,7.200000286102295,17.887500762939453
1751620577698848800,6.828848876953125,-40.98750305175781,7.237500190734863,18.075000762939453
1751620577708849000,6.838848876953125,-41.025001525878906,7.425000190734863,17.981250762939453
1751620577718848800,6.848848876953125,-41.025001525878906,7.406250476837158,17.92500114440918
1751620577728849000,6.858848876953125,-40.80000305175781,7.275000095367432,17.887500762939453
1751620577738848800,6.868848876953125,-41.17500305175781,7.462500095367432,18.20625114440918
1751620577748849000,6.878848876953125,-41.17500305175781,7.462500095367432,18.243751525878906
1751620577758848800,6.888848876953125,-41.15625,7.631250381469727,18.431251525878906
1751620577768849000,6.898848876953125,-41.47500228881836,7.500000476837158,18.262500762939453
1751620577778848800,6.908848876953125,-41.55000305175781,7.443750381469727,18.225000381469727
1751620577788849000,6.918848876953125,-41.34375,7.293750286102295,18.11250114440918
1751620577798848800,6.928848876953125,-41.306251525878906,7.275000095367432,18.09375
1751620577808849000,6.938848876953125,-41.625,7.593750476837158,18.262500762939453
1751620577818848800,6.948848876953125,-41.41875076293945,7.443750381469727,18.243751525878906
1751620577828849000,6.958848876953125,-41.34375,7.406250476837158,18.337501525878906
1751620577838848800,6.968848876953125,-41.25,7.237500190734863,18.262500762939453
1751620577848849000,6.978848876953125,-41.26875305175781,7.350000381469727,18.337501525878906
1751620577858848800,6.988848876953125,-41.212501525878906,7.218750476837158,18.375
1751620577868849000,6.998848876953125,-41.28750228881836,7.050000190734863,18.412500381469727
1751620577878848800,7.008848876953125,-41.53125,7.068750381469727,18.48750114440918
1751620577888849000,7.018848876953125,-41.53125,6.712500095367432,18.450000762939453
1751620577898848800,7.028848876953125,-41.625,6.843750476837158,18.67500114440918
1751620577908849000,7.038848876953125,-41.85000228881836,6.900000095367432,18.637500762939453
1751620577918848800,7.048848876953125,-41.88750076293945,6.975000381469727,18.375
1751620577928849000,7.058848876953125,-41.681251525878906,6.825000286102295,18.168750762939453
1751620577938848800,7.068848876953125,-41.625,6.862500190734863,18.150001525878906
1751620577948849000,7.078848876953125,-41.45625305175781,6.918750286102295,17.850000381469727
1751620577958848800,7.088848876953125,-41.28750228881836,7.012500286102295,17.868751525878906
1751620577968849000,7.098848876953125,-41.17500305175781,7.181250095367432,17.756250381469727
1751620577978848800,7.108848876953125,-41.15625,7.012500286102295,17.381250381469727
1751620577988849000,7.118848876953125,-41.04375076293945,7.050000190734863,17.381250381469727
1751620577998848800,7.128848876953125,-41.17500305175781,6.993750095367432,17.568750381469727
1751620578008849000,7.138848876953125,-41.04375076293945,7.181250095367432,17.587501525878906
1751620578018848800,7.148848876953125,-40.91250228881836,7.312500476837158,17.55000114440918
1751620578028849000,7.158848876953125,-40.91250228881836,7.481250286102295,17.83125114440918
1751620578038848800,7.168848876953125,-40.96875,7.612500190734863,17.775001525878906
1751620578048849000,7.178848876953125,-40.81875228881836,7.725000381469727,17.700000762939453
1751620578058848800,7.188848876953125,-40.76250076293945,7.743750095367432,17.887500762939453
1751620578068849000,7.198848876953125,-40.81875228881836,7.818750381469727,18.01875114440918
1751620578078848800,7.208848876953125,-40.96875,7.950000286102295,18
1751620578088849000,7.218848876953125,-41.212501525878906,7.893750190734863,18.1875
1751620578098848800,7.228848876953125,-41.45625305175781,7.818750381469727,18.225000381469727
1751620578108849000,7.238848876953125,-41.70000076293945,7.800000190734863,18.337501525878906
1751620578118848800,7.248848876953125,-41.66250228881836,7.706250190734863,18.46875
1751620578128849000,7.258848876953125,-41.55000305175781,7.650000095367432,18.58125114440918
1751620578138848800,7.268848876953125,-41.493751525878906,7.668750286102295,18.58125114440918
1751620578148849000,7.278848876953125,-41.36250305175781,7.575000286102295,18.412500381469727
1751620578158848800,7.288848876953125,-41.118751525878906,7.368750095367432,18.46875
1751620578168849000,7.298848876953125,-40.85625076293945,7.368750095367432,18.20625114440918
1751620578178848800,7.308848876953125,-40.80000305175781,7.368750095367432,18.20625114440918
1751620578188849000,7.318848876953125,-40.85625076293945,7.200000286102295,18.09375
1751620578198848800,7.328848876953125,-40.95000076293945,7.237500190734863,18
1751620578208849000,7.338848876953125,-41.306251525878906,7.237500190734863,17.981250762939453
1751620578218848800,7.348848876953125,-41.41875076293945,7.237500190734863,17.756250381469727
1751620578228849000,7.358848876953125,-41.47500228881836,7.200000286102295,17.55000114440918
1751620578238848800,7.368848876953125,-41.53125,7.237500190734863,17.418750762939453
1751620578248849000,7.378848876953125,-41.53125,7.293750286102295,17.625
1751620578258848800,7.388848876953125,-41.56875228881836,7.256250381469727,17.681251525878906
1751620578268849000,7.398848876953125,-41.64375305175781,7.312500476837158,17.568750381469727
1751620578278848800,7.408848876953125,-41.493751525878906,7.275000095367432,17.381250381469727
1751620578288849000,7.418848876953125,-41.4375,7.143750190734863,17.475000381469727
1751620578298848800,7.428848876953125,-41.306251525878906,7.218750476837158,17.71875
1751620578308849000,7.438848876953125,-41.4375,7.350000381469727,17.92500114440918
1751620578318848800,7.448848876953125,-41.400001525878906,7.406250476837158,18.11250114440918
1751620578328849000,7.458848876953125,-41.66250228881836,7.518750190734863,18.037500381469727
1751620578338848800,7.468848876953125,-41.55000305175781,7.575000286102295,18.075000762939453
1751620578348849000,7.478848876953125,-41.28750228881836,7.631250381469727,18.262500762939453
1751620578358848800,7.488848876953125,-41.38125228881836,7.575000286102295,18.39375114440918
1751620578368849000,7.498848876953125,-41.34375,7.518750190734863,18.20625114440918
1751620578378848800,7.508848876953125,-41.36250305175781,7.462500095367432,18.131250381469727
1751620578388849000,7.518848876953125,-41.34375,7.350000381469727,18.075000762939453
1751620578398848800,7.528848876953125,-41.306251525878906,7.312500476837158,17.83125114440918
1751620578408849000,7.538848876953125,-41.56875228881836,7.181250095367432,18.037500381469727
1751620578418848800,7.548848876953125,-41.53125,7.218750476837158,17.92500114440918
1751620578428849000,7.558848876953125,-41.41875076293945,7.200000286102295,17.83125114440918
1751620578438848800,7.568848876953125,-41.28750228881836,7.275000095367432,17.887500762939453
1751620578448849000,7.578848876953125,-41.4375,7.293750286102295,18.262500762939453
1751620578458848800,7.588848876953125,-41.38125228881836,7.181250095367432,18.30000114440918
1751620578468849000,7.598848876953125,-41.400001525878906,7.368750095367432,18.28125
1751620578478848800,7.608848876953125,-41.4375,7.406250476837158,18.243751525878906
1751620578488849000,7.618848876953125,-41.118751525878906,7.500000476837158,18
1751620578498848800,7.628848876953125,-41.10000228881836,7.443750381469727,18.09375
1751620578508849000,7.638848876953125,-41.23125076293945,7.443750381469727,18.20625114440918
1751620578518848800,7.648848876953125,-41.47500228881836,7.387500286102295,18.262500762939453
1751620578528849000,7.658848876953125,-41.400001525878906,7.481250286102295,18.037500381469727
1751620578538848800,7.668848876953125,-41.36250305175781,7.275000095367432,17.981250762939453
1751620578548849000,7.678848876953125,-41.10000228881836,7.106250286102295,18.131250381469727
1751620578558848800,7.688848876953125,-41.306251525878906,7.012500286102295,18.243751525878906
1751620578568849000,7.698848876953125,-41.15625,6.825000286102295,18.431251525878906
1751620578578848800,7.708848876953125,-41.19375228881836,6.843750476837158,18.243751525878906
1751620578588849000,7.718848876953125,-41.15625,6.993750095367432,18.075000762939453
1751620578598848800,7.728848876953125,-41.15625,6.900000095367432,17.700000762939453
1751620578608849000,7.738848876953125,-41.08125305175781,6.862500190734863,17.587501525878906
1751620578618848800,7.748848876953125,-41.08125305175781,7.068750381469727,17.700000762939453
1751620578628849000,7.758848876953125,-41.36250305175781,7.050000190734863,17.681251525878906
1751620578638848800,7.768848876953125,-41.25,6.993750095367432,17.493751525878906
1751620578648849000,7.778848876953125,-41.26875305175781,7.031250476837158,17.381250381469727
1751620578658848800,7.788848876953125,-41.26875305175781,7.125000476837158,17.400001525878906
1751620578668849000,7.798848876953125,-41.25,7.031250476837158,17.53125
1751620578678848800,7.808848876953125,-40.96875,7.087500095367432,18.037500381469727
1751620578688849000,7.818848876953125,-41.00625228881836,7.012500286102295,18.131250381469727
1751620578698848800,7.828848876953125,-41.17500305175781,7.087500095367432,18
1751620578708849000,7.838848876953125,-41.25,7.181250095367432,18.056251525878906
1751620578718848800,7.848848876953125,-41.15625,7.312500476837158,18.318750381469727
1751620578728849000,7.858848876953125,-41.28750228881836,7.218750476837158,18.30000114440918
1751620578738848800,7.868848876953125,-41.45625305175781,7.068750381469727,18.39375114440918
1751620578748849000,7.878848876953125,-41.70000076293945,6.975000381469727,18.337501525878906
1751620578758848800,7.888848876953125,-41.92500305175781,7.087500095367432,18.056251525878906
1751620578768849000,7.898848876953125,-41.75625228881836,7.237500190734863,18.075000762939453
1751620578778848800,7.908848876953125,-41.47500228881836,7.331250190734863,17.90625
1751620578798848800,7.928848876953125,-41.17500305175781,7.387500286102295,17.681251525878906
1751620578808849000,7.938848876953125,-41.10000228881836,7.462500095367432,17.587501525878906
1751620578818848800,7.948848876953125,-40.78125,7.575000286102295,17.475000381469727
1751620578828849000,7.958848876953125,-40.61250305175781,7.500000476837158,17.287500381469727
1751620578838848800,7.968848876953125,-40.76250076293945,7.556250095367432,17.231250762939453
1751620578848849000,7.978848876953125,-41.10000228881836,7.612500190734863,17.34375
1751620578858848800,7.988848876953125,-41.41875076293945,7.500000476837158,17.53125
1751620578868849000,7.998848876953125,-41.34375,7.518750190734863,17.55000114440918
1751620578878848800,8.008848876953126,-41.55000305175781,7.500000476837158,17.662500381469727
1751620578888849000,8.018848876953125,-41.4375,7.556250095367432,17.587501525878906
1751620578898848800,8.028848876953125,-41.71875,7.425000190734863,17.625
1751620578908849000,8.038848876953125,-41.85000228881836,7.462500095367432,17.775001525878906
1751620578918848800,8.048848876953125,-41.64375305175781,7.387500286102295,18.131250381469727
1751620578928849000,8.058848876953125,-41.45625305175781,7.293750286102295,18.056251525878906
1751620578938848800,8.068848876953124,-41.212501525878906,7.350000381469727,18
1751620578948849000,8.078848876953124,-41.19375228881836,7.443750381469727,17.887500762939453
1751620578958848800,8.088848876953126,-40.98750305175781,7.237500190734863,17.83125114440918
1751620578968849000,8.098848876953125,-41.212501525878906,7.181250095367432,18.037500381469727
1751620578978848800,8.108848876953125,-41.0625,7.237500190734863,18.037500381469727
1751620578988849000,8.118848876953125,-40.931251525878906,7.218750476837158,18.01875114440918
1751620578998848800,8.128848876953125,-40.80000305175781,7.218750476837158,17.681251525878906
1751620579008849000,8.138848876953125,-40.76250076293945,7.331250190734863,17.71875
1751620579018848800,8.148848876953124,-41.025001525878906,7.425000190734863,17.775001525878906
1751620579028849000,8.158848876953124,-41.13750076293945,7.331250190734863,18.225000381469727
1751620579038848800,8.168848876953126,-41.36250305175781,7.443750381469727,18.30000114440918
1751620579048849000,8.178848876953126,-41.26875305175781,7.425000190734863,18.30000114440918
1751620579058848800,8.188848876953125,-41.36250305175781,7.387500286102295,18.243751525878906
1751620579068849000,8.198848876953125,-41.4375,7.462500095367432,18.150001525878906
1751620579078848800,8.208848876953125,-41.56875228881836,7.575000286102295,18.337501525878906
1751620579088849000,8.218848876953125,-41.55000305175781,7.706250190734863,18.28125
1751620579098848800,8.228848876953125,-41.38125228881836,7.631250381469727,18.337501525878906
1751620579108849000,8.238848876953124,-41.34375,7.668750286102295,17.962501525878906
1751620579118848800,8.248848876953126,-41.32500076293945,7.706250190734863,17.775001525878906
1751620579128849000,8.258848876953126,-41.212501525878906,7.650000095367432,17.71875
1751620579138848800,8.268848876953125,-41.17500305175781,7.856250286102295,17.700000762939453
1751620579148849000,8.278848876953125,-41.28750228881836,8.006250381469727,17.850000381469727
1751620579158848800,8.288848876953125,-41.23125076293945,7.987500190734863,17.8125
1751620579168849000,8.298848876953125,-41.25,8.006250381469727,17.756250381469727
1751620579178848800,8.308848876953125,-41.587501525878906,8.081250190734863,17.53125
1751620579188849000,8.318848876953124,-41.775001525878906,8.268750190734863,17.8125
1751620579198848800,8.328848876953124,-41.60625076293945,8.362500190734863,17.83125114440918
1751620579208849000,8.338848876953126,-41.60625076293945,8.475000381469727,17.662500381469727
1751620579218848800,8.348848876953125,-41.47500228881836,8.40000057220459,17.625
1751620579228849000,8.358848876953125,-41.41875076293945,8.362500190734863,17.36250114440918
1751620579238848800,8.368848876953125,-41.4375,8.30625057220459,17.325000762939453
1751620579248849000,8.378848876953125,-41.4375,8.21250057220459,17.212501525878906
1751620579258848800,8.388848876953125,-41.15625,8.325000762939453,17.26875114440918
1751620579268849000,8.398848876953124,-41.025001525878906,8.418750762939453,17.25
1751620579278848800,8.408848876953124,-41.0625,8.512500762939453,17.231250762939453
1751620579288849000,8.418848876953126,-41.28750228881836,8.700000762939453,17.26875114440918
1751620579298848800,8.428848876953126,-41.28750228881836,8.737500190734863,17.25
1751620579308849000,8.438848876953125,-41.28750228881836,8.86875057220459,17.287500381469727
1751620579318848800,8.448848876953125,-41.26875305175781,8.887500762939453,17.025001525878906
1751620579328849000,8.458848876953125,-41.26875305175781,9.1875,16.837501525878906
1751620579338848800,8.468848876953125,-41.212501525878906,9.1875,16.818750381469727
1751620579348849000,8.478848876953125,-41.28750228881836,9.24375057220459,16.5
1751620579358848800,8.488848876953124,-41.28750228881836,9.33750057220459,16.51875114440918
1751620579368849000,8.498848876953126,-41.19375228881836,9.393750190734863,16.5
1751620579378848800,8.508848876953126,-41.26875305175781,9.637500762939453,16.556251525878906
1751620579388849000,8.518848876953125,-41.34375,9.825000762939453,16.650001525878906
1751620579398848800,8.528848876953125,-41.34375,10.200000762939453,16.875
1751620579408849000,8.538848876953125,-41.212501525878906,10.03125,17.006250381469727
1751620579418848800,8.548848876953125,-41.34375,9.99375057220459,16.762500762939453
1751620579428849000,8.558848876953125,-41.47500228881836,9.90000057220459,16.6875
1751620579438848800,8.568848876953124,-41.36250305175781,10.012500762939453,16.61250114440918
1751620579448849000,8.578848876953124,-41.47500228881836,10.18125057220459,16.556251525878906
1751620579458848800,8.588848876953126,-41.51250076293945,10.293750762939453,16.275001525878906
1751620579468849000,8.598848876953125,-41.23125076293945,10.21875,15.90000057220459
1751620579478848800,8.608848876953125,-41.41875076293945,10.331250190734863,15.80625057220459
1751620579488849000,8.618848876953125,-41.56875228881836,10.5,15.637500762939453
1751620579498848800,8.628848876953125,-41.23125076293945,10.668750762939453,15.656250953674316
1751620579508849000,8.638848876953125,-40.85625076293945,10.800000190734863,15.61875057220459
1751620579518848800,8.648848876953124,-41.0625,11.006250381469727,15.562500953674316
1751620579528849000,8.658848876953124,-40.95000076293945,11.175000190734863,15.52500057220459
1751620579538848800,8.668848876953126,-40.91250228881836,11.21250057220459,15.731250762939453
1751620579548849000,8.678848876953126,-40.96875,11.287500381469727,15.750000953674316
1751620579558848800,8.688848876953125,-40.78125,11.137500762939453,15.581250190734863
1751620579568849000,8.698848876953125,-40.40625,11.231250762939453,15.506250381469727
1751620579578848800,8.708848876953125,-40.40625,11.4375,15.562500953674316
1751620579588849000,8.718848876953125,-40.650001525878906,11.512500762939453,15.506250381469727
1751620579598848800,8.728848876953125,-40.5,11.30625057220459,15.412500381469727
1751620579608849000,8.738848876953124,-40.462501525878906,11.268750190734863,15.318750381469727
1751620579618848800,8.748848876953126,-40.61250305175781,11.40000057220459,15.05625057220459
1751620579628849000,8.758848876953126,-40.61250305175781,11.550000190734863,15.075000762939453
1751620579638848800,8.768848876953125,-40.59375,11.925000190734863,15.168750762939453
1751620579648849000,8.778848876953125,-41.04375076293945,12.037500381469727,15.33750057220459
1751620579658848800,8.788848876953125,-41.47500228881836,12,15.187500953674316
1751620579668849000,8.798848876953125,-41.56875228881836,12.112500190734863,15.15000057220459
1751620579678848800,8.808848876953125,-41.56875228881836,12.300000190734863,15.131250381469727
1751620579688849000,8.818848876953124,-41.64375305175781,12.356250762939453,15.075000762939453
1751620579698848800,8.828848876953124,-41.400001525878906,12.356250762939453,15.262500762939453
1751620579708849000,8.838848876953126,-41.60625076293945,12.543750762939453,15.33750057220459
1751620579718848800,8.848848876953125,-41.79375076293945,12.506250381469727,15.131250381469727
1751620579728849000,8.858848876953125,-41.79375076293945,12.52500057220459,14.981250762939453
1751620579738848800,8.868848876953125,-41.53125,12.600000381469727,15.05625057220459
1751620579748849000,8.878848876953125,-41.55000305175781,12.768750190734863,15.000000953674316
1751620579758848800,8.888848876953125,-41.625,12.843750953674316,14.756250381469727
1751620579768849000,8.898848876953124,-41.53125,13.08750057220459,14.643750190734863
1751620579778848800,8.908848876953124,-41.71875,13.256250381469727,14.437500953674316
1751620579788849000,8.918848876953126,-41.66250228881836,13.218750953674316,14.156250953674316
1751620579798848800,8.928848876953126,-41.56875228881836,13.237500190734863,14.043750762939453
1751620579808849000,8.938848876953125,-41.41875076293945,13.575000762939453,13.781250953674316
1751620579818848800,8.948848876953125,-41.51250076293945,13.875000953674316,13.668750762939453
1751620579828849000,8.958848876953125,-41.25,13.950000762939453,13.443750381469727
1751620579838848800,8.968848876953125,-41.118751525878906,14.287500381469727,13.500000953674316
1751620579848849000,8.978848876953125,-41.0625,14.325000762939453,13.500000953674316
1751620579858848800,8.988848876953124,-40.931251525878906,14.381250381469727,13.443750381469727
1751620579868849000,8.998848876953126,-40.743751525878906,14.456250190734863,13.46250057220459
1751620579878848800,9.008848876953126,-40.78125,14.58750057220459,13.443750381469727
1751620579888849000,9.018848876953125,-40.81875228881836,14.512500762939453,13.443750381469727
1751620579908849000,9.038848876953125,-41.19375228881836,14.625000953674316,13.256250381469727
1751620579918848800,9.048848876953125,-41.41875076293945,14.737500190734863,13.200000762939453
1751620579928849000,9.058848876953125,-41.55000305175781,14.793750762939453,12.918750762939453
1751620579938848800,9.068848876953124,-41.66250228881836,14.925000190734863,12.637500762939453
1751620579948849000,9.078848876953124,-41.70000076293945,15.112500190734863,12.206250190734863
1751620579958848800,9.088848876953126,-41.4375,15.356250762939453,11.943750381469727
1751620579968849000,9.098848876953125,-41.41875076293945,15.562500953674316,11.737500190734863
1751620579978848800,9.108848876953125,-41.400001525878906,15.731250762939453,11.418750762939453
1751620579988849000,9.118848876953125,-41.19375228881836,16.05000114440918,11.231250762939453
1751620579998848800,9.128848876953125,-41.08125305175781,16.125,10.912500381469727
1751620580008849000,9.138848876953125,-40.875,16.40625,10.83750057220459
1751620580018848800,9.148848876953124,-40.91250228881836,16.61250114440918,10.612500190734863
1751620580028849000,9.158848876953124,-40.96875,16.78125,10.612500190734863
1751620580038848800,9.168848876953126,-41.0625,16.762500762939453,10.350000381469727
1751620580048849000,9.178848876953126,-40.81875228881836,16.89375114440918,10.21875
1751620580058848800,9.188848876953125,-40.650001525878906,17.17500114440918,9.975000381469727
1751620580068849000,9.198848876953125,-40.6875,17.17500114440918,9.862500190734863
1751620580078848800,9.208848876953125,-40.59375,17.17500114440918,9.581250190734863
1751620580088849000,9.218848876953125,-40.70625305175781,17.25,9.375
1751620580098848800,9.228848876953125,-40.51875305175781,17.287500381469727,9.1875
1751620580108849000,9.238848876953124,-40.53750228881836,17.512500762939453,8.831250190734863
1751620580118848800,9.248848876953126,-40.66875076293945,17.681251525878906,8.71875
1751620580128849000,9.258848876953126,-41.04375076293945,17.73750114440918,8.456250190734863
1751620580138848800,9.268848876953125,-41.28750228881836,17.73750114440918,8.325000762939453
1751620580148849000,9.278848876953125,-41.212501525878906,17.606250762939453,8.006250381469727
1751620580158848800,9.288848876953125,-41.28750228881836,17.887500762939453,8.006250381469727
1751620580168849000,9.298848876953125,-41.56875228881836,17.850000381469727,7.743750095367432
1751620580178848800,9.308848876953125,-41.587501525878906,18.01875114440918,7.556250095367432
1751620580188849000,9.318848876953124,-41.4375,17.981250762939453,7.518750190734863
1751620580198848800,9.328848876953124,-41.32500076293945,18.075000762939453,7.443750381469727
1751620580208849000,9.338848876953126,-41.025001525878906,17.943750381469727,7.106250286102295
1751620580218848800,9.348848876953125,-41.212501525878906,17.90625,6.937500476837158
1751620580228849000,9.358848876953125,-41.19375228881836,18.318750381469727,6.843750476837158
1751620580238848800,9.368848876953125,-41.4375,18.39375114440918,6.712500095367432
1751620580248849000,9.378848876953125,-41.19375228881836,18.431251525878906,6.600000381469727
1751620580258848800,9.388848876953125,-41.47500228881836,18.506250381469727,6.393750190734863
1751620580268849000,9.398848876953124,-41.56875228881836,18.543750762939453,6.243750095367432
1751620580278848800,9.408848876953124,-41.47500228881836,18.712501525878906,6.075000286102295
1751620580288849000,9.418848876953126,-41.70000076293945,18.95625114440918,5.887500286102295
1751620580298848800,9.428848876953126,-41.41875076293945,19.03125,5.90625
1751620580308849000,9.438848876953125,-41.47500228881836,19.012500762939453,5.775000095367432
1751620580318848800,9.448848876953125,-41.118751525878906,18.95625114440918,5.4375
1751620580328849000,9.458848876953125,-41.17500305175781,19.05000114440918,5.193750381469727
1751620580338848800,9.468848876953125,-40.85625076293945,19.106250762939453,5.043750286102295
1751620580348849000,9.478848876953125,-40.96875,19.068750381469727,4.762500286102295
1751620580358848800,9.488848876953124,-41.36250305175781,18.84375,4.462500095367432
1751620580368849000,9.498848876953126,-41.25,18.84375,4.481250286102295
1751620580378848800,9.508848876953126,-41.0625,19.106250762939453,4.275000095367432
1751620580388849000,9.518848876953125,-41.0625,19.106250762939453,4.106250286102295
1751620580398848800,9.528848876953125,-41.212501525878906,19.162500381469727,3.9937500953674316
1751620580408849000,9.538848876953125,-41.26875305175781,19.21875,3.825000047683716
1751620580418848800,9.548848876953125,-41.36250305175781,19.14375114440918,3.6000001430511475
1751620580428849000,9.558848876953125,-41.32500076293945,19.462501525878906,3.6750001907348633
1751620580438848800,9.568848876953124,-41.23125076293945,19.6875,3.7125000953674316
1751620580448849000,9.578848876953124,-41.212501525878906,19.70625114440918,3.2250001430511475
1751620580458848800,9.588848876953126,-41.45625305175781,19.668750762939453,2.981250047683716
1751620580468849000,9.598848876953125,-41.28750228881836,19.443750381469727,2.4562501907348633
1751620580478848800,9.608848876953125,-41.32500076293945,19.59375,2.4375
1751620580488849000,9.618848876953125,-40.98750305175781,19.762500762939453,2.2875001430511475
1751620580498848800,9.628848876953125,-40.96875,19.762500762939453,2.0062501430511475
1751620580508849000,9.638848876953125,-40.70625305175781,19.575000762939453,1.5937501192092896
1751620580518848800,9.648848876953124,-40.53750228881836,19.70625114440918,1.350000023841858
1751620580528849000,9.658848876953124,-40.57500076293945,19.78125,1.3125
1751620580538848800,9.668848876953126,-40.59375,19.818750381469727,1.3312500715255737
1751620580548849000,9.678848876953126,-40.89375305175781,20.137500762939453,1.5
1751620580558848800,9.688848876953125,-40.837501525878906,19.96875,1.2000000476837158
1751620580568849000,9.698848876953125,-41.10000228881836,19.912500381469727,1.0125000476837158
1751620580578848800,9.708848876953125,-41.15625,20.006250381469727,0.9750000238418579
1751620580588849000,9.718848876953125,-41.51250076293945,20.043750762939453,0.8437500596046448
1751620580598848800,9.728848876953125,-41.400001525878906,19.837501525878906,0.5437500476837158
1751620580608849000,9.738848876953124,-41.47500228881836,19.70625114440918,0.5250000357627869
1751620580618848800,9.748848876953126,-41.15625,19.743751525878906,0.30000001192092896
1751620580628849000,9.758848876953126,-40.80000305175781,19.743751525878906,0.05625000223517418
1751620580638848800,9.768848876953125,-40.81875228881836,19.70625114440918,-0.07500000298023224
1751620580648849000,9.778848876953125,-40.85625076293945,19.725000381469727,-0.22500000894069672
1751620580658848800,9.788848876953125,-40.63125228881836,19.6875,-0.24375000596046448
1751620580668849000,9.798848876953125,-40.40625,19.762500762939453,-0.22500000894069672
1751620580678848800,9.808848876953125,-40.462501525878906,19.89375114440918,-0.22500000894069672
1751620580688849000,9.818848876953124,-40.556251525878906,20.006250381469727,-0.48750001192092896
1751620580698848800,9.828848876953124,-40.80000305175781,20.08125114440918,-0.6937500238418579
1751620580708849000,9.838848876953126,-41.00625228881836,19.931251525878906,-0.9187500476837158
1751620580718848800,9.848848876953125,-41.08125305175781,20.15625,-1.068750023841858
1751620580728849000,9.858848876953125,-41.118751525878906,20.325000762939453,-1.2375000715255737
1751620580738848800,9.868848876953125,-41.04375076293945,20.306251525878906,-1.5750000476837158
1751620580748849000,9.878848876953125,-40.89375305175781,20.26875114440918,-1.9687501192092896
1751620580758848800,9.888848876953125,-40.875,20.418750762939453,-2.25
1751620580768849000,9.898848876953124,-40.78125,20.475000381469727,-2.2687501907348633
1751620580778848800,9.908848876953124,-40.875,20.193750381469727,-2.4937500953674316
1751620580788849000,9.918848876953126,-40.91250228881836,20.34375,-2.5687501430511475
1751620580798848800,9.928848876953126,-40.72500228881836,20.0625,-3.0562500953674316
1751620580808849000,9.938848876953125,-40.89375305175781,19.856250762939453,-3.262500047683716
1751620580818848800,9.948848876953125,-41.00625228881836,19.950000762939453,-3.3937501907348633
1751620580828849000,9.958848876953125,-41.212501525878906,19.89375114440918,-3.6187500953674316
1751620580838848800,9.968848876953125,-41.32500076293945,19.78125,-3.6937501430511475
1751620580848849000,9.978848876953125,-41.38125228881836,19.762500762939453,-3.8812501430511475
1751620580858848800,9.988848876953124,-41.45625305175781,19.875,-3.9562501907348633
1751620580868849000,9.998848876953126,-41.47500228881836,19.80000114440918,-4.125
1751620580878848800,10.008848876953126,-41.306251525878906,20.0625,-4.200000286102295
1751620580888849000,10.018848876953125,-41.17500305175781,20.137500762939453,-4.425000190734863
1751620580898848800,10.028848876953125,-41.47500228881836,20.0625,-4.537500381469727
1751620580908849000,10.038848876953125,-41.32500076293945,20.006250381469727,-4.650000095367432
1751620580918848800,10.048848876953125,-41.23125076293945,19.875,-4.856250286102295
1751620580928849000,10.058848876953125,-41.34375,20.006250381469727,-5.306250095367432
1751620580938848800,10.068848876953124,-40.95000076293945,20.100000381469727,-5.737500190734863
1751620580948849000,10.078848876953124,-40.80000305175781,20.08125114440918,-6.037500381469727
1751620580958848800,10.088848876953126,-40.95000076293945,20.006250381469727,-6.281250476837158
1751620580968849000,10.098848876953125,-40.931251525878906,19.98750114440918,-6.262500286102295
1751620580978848800,10.108848876953125,-40.72500228881836,20.118751525878906,-6.618750095367432
1751620580988849000,10.118848876953125,-40.81875228881836,20.118751525878906,-6.975000381469727
1751620580998848800,10.128848876953125,-40.78125,19.931251525878906,-7.275000095367432
1751620581008849000,10.138848876953125,-40.78125,19.837501525878906,-7.331250190734863
1751620581018848800,10.148848876953124,-40.89375305175781,19.725000381469727,-7.481250286102295
1751620581028849000,10.158848876953124,-41.00625228881836,19.70625114440918,-7.556250095367432
1751620581038848800,10.168848876953126,-41.15625,19.743751525878906,-7.743750095367432
1751620581048849000,10.178848876953126,-40.875,19.59375,-8.231250762939453
1751620581058848800,10.188848876953125,-40.91250228881836,19.387500762939453,-8.381250381469727
1751620581068849000,10.198848876953125,-40.95000076293945,19.200000762939453,-8.700000762939453
1751620581078848800,10.208848876953125,-41.15625,19.387500762939453,-8.850000381469727
1751620581088849000,10.218848876953125,-40.98750305175781,19.275001525878906,-9.05625057220459
1751620581098848800,10.228848876953125,-41.00625228881836,19.162500381469727,-9.318750381469727
1751620581108849000,10.238848876953124,-40.98750305175781,19.106250762939453,-9.506250381469727
1751620581118848800,10.248848876953126,-41.0625,18.95625114440918,-9.412500381469727
1751620581128849000,10.258848876953126,-41.34375,19.012500762939453,-9.543750762939453
1751620581138848800,10.268848876953125,-41.32500076293945,18.95625114440918,-9.90000057220459
1751620581148849000,10.278848876953125,-41.28750228881836,19.03125,-10.012500762939453
1751620581158848800,10.288848876953125,-40.96875,18.993751525878906,-10.162500381469727
1751620581168849000,10.298848876953125,-40.96875,18.825000762939453,-10.46250057220459
1751620581178848800,10.308848876953125,-41.118751525878906,18.806251525878906,-10.537500381469727
1751620581188849000,10.318848876953124,-41.08125305175781,18.76875114440918,-10.93125057220459
1751620581198848800,10.328848876953124,-40.650001525878906,18.731250762939453,-11.325000762939453
1751620581208849000,10.338848876953126,-40.650001525878906,18.525001525878906,-11.625
1751620581218848800,10.348848876953125,-40.61250305175781,18.375,-11.643750190734863
1751620581228849000,10.358848876953125,-40.78125,18.318750381469727,-11.793750762939453
1751620581238848800,10.368848876953125,-41.08125305175781,18.075000762939453,-12.168750762939453
1751620581248849000,10.378848876953125,-41.08125305175781,18.075000762939453,-12.375000953674316
1751620581258848800,10.388848876953125,-41.10000228881836,17.981250762939453,-12.506250381469727
1751620581268849000,10.398848876953124,-41.025001525878906,18.056251525878906,-12.52500057220459
1751620581278848800,10.408848876953124,-41.28750228881836,17.962501525878906,-12.600000381469727
1751620581288849000,10.418848876953126,-41.4375,17.887500762939453,-12.506250381469727
1751620581298848800,10.428848876953126,-41.51250076293945,17.8125,-12.731250762939453
1751620581308849000,10.438848876953125,-41.32500076293945,17.64375114440918,-12.956250190734863
1751620581318848800,10.448848876953125,-41.04375076293945,17.512500762939453,-13.18125057220459
1751620581328849000,10.458848876953125,-41.15625,17.418750762939453,-13.106250762939453
1751620581338848800,10.468848876953125,-41.025001525878906,17.193750381469727,-13.425000190734863
1751620581348849000,10.478848876953125,-41.10000228881836,17.006250381469727,-13.687500953674316
1751620581358848800,10.488848876953124,-41.212501525878906,16.912500381469727,-13.93125057220459
1751620581368849000,10.498848876953126,-40.95000076293945,16.668750762939453,-14.175000190734863
1751620581378848800,10.508848876953126,-40.70625305175781,16.875,-14.21250057220459
1751620581388849000,10.518848876953125,-40.66875076293945,16.837501525878906,-14.21250057220459
1751620581398848800,10.528848876953125,-40.837501525878906,17.043750762939453,-13.93125057220459
1751620581408849000,10.538848876953125,-40.85625076293945,17.043750762939453,-14.100000381469727
1751620581418848800,10.548848876953125,-41.025001525878906,17.08125114440918,-14.287500381469727
1751620581428849000,10.558848876953125,-41.04375076293945,16.912500381469727,-14.381250381469727
1751620581438848800,10.568848876953124,-41.00625228881836,16.80000114440918,-14.625000953674316
1751620581448849000,10.578848876953124,-40.91250228881836,16.931251525878906,-14.58750057220459
1751620581458848800,10.588848876953126,-41.26875305175781,16.668750762939453,-14.737500190734863
1751620581468849000,10.598848876953125,-41.306251525878906,16.762500762939453,-14.77500057220459
1751620581478848800,10.608848876953125,-41.34375,16.650001525878906,-15.037500381469727
1751620581488849000,10.618848876953125,-41.25,16.537500381469727,-15.281250953674316
1751620581498848800,10.628848876953125,-40.89375305175781,16.481250762939453,-15.262500762939453
1751620581508849000,10.638848876953125,-40.85625076293945,16.59375,-15.24375057220459
1751620581518848800,10.648848876953124,-40.462501525878906,16.462501525878906,-15.093750953674316
1751620581528849000,10.658848876953124,-40.650001525878906,16.5,-15.262500762939453
1751620581538848800,10.668848876953126,-40.61250305175781,16.6875,-15.300000190734863
1751620581548849000,10.678848876953126,-40.59375,16.575000762939453,-15.487500190734863
1751620581558848800,10.688848876953125,-40.462501525878906,16.443750381469727,-15.600000381469727
1751620581568849000,10.698848876953125,-40.368751525878906,16.3125,-15.581250190734863
1751620581578848800,10.708848876953125,-40.837501525878906,16.275001525878906,-15.581250190734863
1751620581588849000,10.718848876953125,-40.85625076293945,16.087501525878906,-15.562500953674316
1751620581598848800,10.728848876953125,-41.15625,16.14375114440918,-15.843750953674316
1751620581608849000,10.738848876953124,-41.04375076293945,16.05000114440918,-15.937500953674316
1751620581618848800,10.748848876953126,-41.00625228881836,15.843750953674316,-16.03125
1751620581628849000,10.758848876953126,-41.00625228881836,15.675000190734863,-15.881250381469727
1751620581638848800,10.768848876953125,-41.19375228881836,15.675000190734863,-15.956250190734863
1751620581648849000,10.778848876953125,-41.19375228881836,15.71250057220459,-15.956250190734863
1751620581658848800,10.788848876953125,-41.04375076293945,15.693750381469727,-16.200000762939453
1751620581668849000,10.798848876953125,-40.98750305175781,15.543750762939453,-16.368751525878906
1751620581678848800,10.808848876953125,-41.00625228881836,15.506250381469727,-16.40625
1751620581688849000,10.818848876953124,-41.32500076293945,15.468750953674316,-16.5
1751620581698848800,10.828848876953124,-41.212501525878906,15.412500381469727,-16.59375
1751620581708849000,10.838848876953126,-41.36250305175781,15.487500190734863,-16.78125
1751620581718848800,10.848848876953125,-41.19375228881836,15.412500381469727,-16.912500381469727
1751620581728849000,10.858848876953125,-41.26875305175781,15.318750381469727,-17.137500762939453
1751620581738848800,10.868848876953125,-41.25,15.262500762939453,-17.08125114440918
1751620581748849000,10.878848876953125,-41.25,15.300000190734863,-16.96875
1751620581758848800,10.888848876953125,-41.212501525878906,15.281250953674316,-16.837501525878906
1751620581768849000,10.898848876953124,-40.96875,14.96250057220459,-16.98750114440918
1751620581778848800,10.908848876953124,-40.96875,14.77500057220459,-17.100000381469727
1751620581788849000,10.918848876953126,-40.96875,14.700000762939453,-17.15625
1751620581798848800,10.928848876953126,-41.15625,14.643750190734863,-17.325000762939453
1751620581808849000,10.938848876953125,-41.08125305175781,14.568750381469727,-17.381250381469727
1751620581818848800,10.948848876953125,-40.837501525878906,14.512500762939453,-17.36250114440918
1751620581828849000,10.958848876953125,-40.80000305175781,14.287500381469727,-17.568750381469727
1751620581838848800,10.968848876953125,-40.80000305175781,14.062500953674316,-17.962501525878906
1751620581848849000,10.978848876953125,-40.72500228881836,13.912500381469727,-17.981250762939453
1751620581858848800,10.988848876953124,-40.875,13.987500190734863,-17.962501525878906
1751620581868849000,10.998848876953126,-40.650001525878906,13.762500762939453,-18.30000114440918
1751620581878848800,11.008848876953126,-40.44375228881836,13.631250381469727,-18.431251525878906
1751620581888849000,11.018848876953125,-40.462501525878906,13.518750190734863,-18.506250381469727
1751620581898848800,11.028848876953125,-40.81875228881836,13.36875057220459,-18.76875114440918
1751620581908849000,11.038848876953125,-40.89375305175781,13.27500057220459,-18.975000381469727
1751620581918848800,11.048848876953125,-41.04375076293945,13.162500381469727,-18.993751525878906
1751620581928849000,11.058848876953125,-41.25,13.46250057220459,-19.012500762939453
1751620581938848800,11.068848876953124,-41.28750228881836,13.143750190734863,-19.200000762939453
1751620581948849000,11.078848876953124,-41.41875076293945,13.218750953674316,-18.975000381469727
1751620581958848800,11.088848876953126,-41.45625305175781,13.256250381469727,-18.918750762939453
1751620581968849000,11.098848876953125,-41.47500228881836,13.18125057220459,-19.03125
1751620581978848800,11.108848876953125,-41.41875076293945,13.162500381469727,-19.181251525878906
1751620581988849000,11.118848876953125,-41.64375305175781,13.218750953674316,-19.275001525878906
1751620581998848800,11.128848876953125,-41.400001525878906,13.256250381469727,-19.256250381469727
1751620582008849000,11.138848876953125,-41.26875305175781,12.937500953674316,-19.42500114440918
1751620582018848800,11.148848876953124,-41.00625228881836,13.012500762939453,-19.40625
1751620582028849000,11.158848876953124,-41.04375076293945,12.825000762939453,-19.59375
1751620582038848800,11.168848876953126,-41.118751525878906,12.61875057220459,-19.668750762939453
1751620582048849000,11.178848876953126,-41.17500305175781,12.562500953674316,-19.59375
1751620582058848800,11.188848876953125,-40.837501525878906,12.506250381469727,-19.762500762939453
1751620582068849000,11.198848876953125,-40.556251525878906,12.43125057220459,-19.762500762939453
1751620582078848800,11.208848876953125,-40.59375,12.393750190734863,-19.80000114440918
1751620582088849000,11.218848876953125,-40.70625305175781,12.300000190734863,-19.78125
1751620582098848800,11.228848876953125,-40.76250076293945,12.24375057220459,-19.875
1751620582108849000,11.238848876953124,-40.78125,12.262500762939453,-19.89375114440918
1751620582118848800,11.248848876953126,-40.837501525878906,12.15000057220459,-20.043750762939453
1751620582128849000,11.258848876953126,-40.42500305175781,12.018750190734863,-20.26875114440918
1751620582138848800,11.268848876953125,-40.89375305175781,11.925000190734863,-20.08125114440918
1751620582148849000,11.278848876953125,-40.95000076293945,11.737500190734863,-20.231250762939453
1751620582158848800,11.288848876953125,-41.15625,11.568750381469727,-20.287500381469727
1751620582168849000,11.298848876953125,-41.0625,11.662500381469727,-20.475000381469727
1751620582178848800,11.308848876953125,-41.25,11.625,-20.475000381469727
1751620582188849000,11.318848876953124,-41.28750228881836,11.606250762939453,-20.625
1751620582198848800,11.328848876953124,-41.118751525878906,11.475000381469727,-20.71875
1751620582208849000,11.338848876953126,-41.400001525878906,11.456250190734863,-20.73750114440918
1751620582218848800,11.348848876953125,-41.15625,11.325000762939453,-20.962501525878906
1751620582228849000,11.358848876953125,-41.025001525878906,11.4375,-20.83125114440918
1751620582238848800,11.368848876953125,-40.80000305175781,11.381250381469727,-20.943750381469727
1751620582248849000,11.378848876953125,-40.80000305175781,11.287500381469727,-20.868751525878906
1751620582258848800,11.388848876953125,-40.48125076293945,11.175000190734863,-21.01875114440918
1751620582268849000,11.398848876953124,-40.368751525878906,11.043750762939453,-21.075000762939453
1751620582278848800,11.408848876953124,-40.462501525878906,10.912500381469727,-20.981250762939453
1751620582288849000,11.418848876953126,-40.650001525878906,10.893750190734863,-20.943750381469727
1751620582298848800,11.428848876953126,-40.556251525878906,10.6875,-20.92500114440918
1751620582308849000,11.438848876953125,-40.837501525878906,10.3125,-21.11250114440918
1751620582318848800,11.448848876953125,-40.837501525878906,10.21875,-21.150001525878906
1751620582328849000,11.458848876953125,-40.70625305175781,10.125,-21.150001525878906
1751620582338848800,11.468848876953125,-40.78125,9.881250381469727,-21.262500762939453
1751620582348849000,11.478848876953125,-40.743751525878906,9.65625,-21.375
1751620582358848800,11.488848876953124,-40.5,9.80625057220459,-21.412500381469727
1751620582368849000,11.498848876953126,-40.51875305175781,9.71250057220459,-21.450000762939453
1751620582378848800,11.508848876953126,-40.57500076293945,9.9375,-21.48750114440918
1751620582388849000,11.518848876953125,-40.14375305175781,9.881250381469727,-21.58125114440918
1751620582398848800,11.528848876953125,-40.38750076293945,9.825000762939453,-21.65625
1751620582408849000,11.538848876953125,-40.63125228881836,9.600000381469727,-21.86250114440918
1751620582418848800,11.548848876953125,-40.650001525878906,9.71250057220459,-22.012500762939453
1751620582428849000,11.558848876953125,-40.80000305175781,9.768750190734863,-21.993751525878906
1751620582438848800,11.568848876953124,-41.118751525878906,9.581250190734863,-22.162500381469727
1751620582448849000,11.578848876953124,-40.89375305175781,9.487500190734863,-22.200000762939453
1751620582458848800,11.588848876953126,-40.91250228881836,9.412500381469727,-22.087501525878906
1751620582468849000,11.598848876953125,-41.025001525878906,9.393750190734863,-22.012500762939453
1751620582478848800,11.608848876953125,-40.89375305175781,9.262500762939453,-21.900001525878906
1751620582488849000,11.618848876953125,-40.650001525878906,9.300000190734863,-21.993751525878906
1751620582498848800,11.628848876953125,-40.80000305175781,9.075000762939453,-21.918750762939453
1751620582508849000,11.638848876953125,-40.650001525878906,8.700000762939453,-21.86250114440918
1751620582518848800,11.648848876953124,-40.59375,8.606250762939453,-21.95625114440918
1751620582528849000,11.658848876953124,-40.53750228881836,8.381250381469727,-22.14375114440918
1751620582538848800,11.668848876953126,-40.462501525878906,7.912500381469727,-22.40625
1751620582548849000,11.678848876953126,-40.44375228881836,7.762500286102295,-22.443750381469727
1751620582558848800,11.688848876953125,-40.35000228881836,7.743750095367432,-22.668750762939453
1751620582568849000,11.698848876953125,-40.462501525878906,7.593750476837158,-22.59375
1751620582578848800,11.708848876953125,-40.40625,7.687500476837158,-22.59375
1751620582588849000,11.718848876953125,-40.38750076293945,7.781250476837158,-22.70625114440918
1751620582598848800,11.728848876953125,-40.29375076293945,7.518750190734863,-22.725000381469727
1751620582608849000,11.738848876953124,-40.59375,7.500000476837158,-22.743751525878906
1751620582618848800,11.748848876953126,-40.76250076293945,7.443750381469727,-22.59375
1751620582628849000,11.758848876953126,-40.95000076293945,7.462500095367432,-22.762500762939453
1751620582638848800,11.768848876953125,-41.08125305175781,7.462500095367432,-22.650001525878906
1751620582648849000,11.778848876953125,-40.98750305175781,7.350000381469727,-22.668750762939453
1751620582658848800,11.788848876953125,-40.931251525878906,7.106250286102295,-22.650001525878906
1751620582668849000,11.798848876953125,-40.837501525878906,6.881250381469727,-22.78125
1751620582678848800,11.808848876953125,-40.59375,7.050000190734863,-22.59375
1751620582688849000,11.818848876953124,-40.38750076293945,7.087500095367432,-22.80000114440918
1751620582698848800,11.828848876953124,-40.20000076293945,7.181250095367432,-22.96875
1751620582708849000,11.838848876953126,-40.16250228881836,7.181250095367432,-22.98750114440918
1751620582718848800,11.848848876953125,-40.14375305175781,7.050000190734863,-22.98750114440918
1751620582728849000,11.858848876953125,-40.275001525878906,6.975000381469727,-23.006250381469727
1751620582738848800,11.868848876953125,-40.10625076293945,6.975000381469727,-22.931251525878906
1751620582748849000,11.878848876953125,-40.20000076293945,7.218750476837158,-22.856250762939453
1751620582758848800,11.888848876953125,-40.40625,7.181250095367432,-22.96875
1751620582768849000,11.898848876953124,-40.40625,6.956250190734863,-22.912500381469727
1751620582778848800,11.908848876953124,-40.35000228881836,7.050000190734863,-22.875
1751620582788849000,11.918848876953126,-40.33125305175781,6.750000476837158,-22.89375114440918
1751620582798848800,11.928848876953126,-40.33125305175781,6.637500286102295,-23.08125114440918
1751620582808849000,11.938848876953125,-39.95625305175781,6.675000190734863,-23.231250762939453
1751620582818848800,11.948848876953125,-40.368751525878906,6.806250095367432,-23.34375
1751620582828849000,11.958848876953125,-40.368751525878906,6.768750190734863,-23.306251525878906
1751620582838848800,11.968848876953125,-40.57500076293945,6.618750095367432,-23.381250381469727
1751620582848849000,11.978848876953125,-40.42500305175781,6.675000190734863,-23.36250114440918
1751620582858848800,11.988848876953124,-40.48125076293945,6.581250190734863,-23.26875114440918
1751620582868849000,11.998848876953126,-40.53750228881836,6.712500095367432,-23.26875114440918
1751620582878848800,12.008848876953126,-40.25625228881836,6.618750095367432,-23.212501525878906
1751620582888849000,12.018848876953125,-40.59375,6.600000381469727,-23.17500114440918
1751620582898848800,12.028848876953125,-40.72500228881836,6.431250095367432,-23.231250762939453
1751620582908849000,12.038848876953125,-40.96875,6.300000190734863,-23.475000381469727
1751620582918848800,12.048848876953125,-40.61250305175781,6.356250286102295,-23.36250114440918
1751620582928849000,12.058848876953125,-40.72500228881836,6.318750381469727,-23.36250114440918
1751620582938848800,12.068848876953124,-40.556251525878906,6.056250095367432,-23.493751525878906
1751620582948849000,12.078848876953124,-40.70625305175781,6.075000286102295,-23.45625114440918
1751620582958848800,12.088848876953126,-41.025001525878906,5.943750381469727,-23.55000114440918
1751620582968849000,12.098848876953125,-41.08125305175781,5.71875,-23.45625114440918
1751620582978848800,12.108848876953125,-40.78125,5.662500381469727,-23.493751525878906
1751620582988849000,12.118848876953125,-40.76250076293945,5.418750286102295,-23.400001525878906
1751620582998848800,12.128848876953125,-41.08125305175781,5.25,-23.64375114440918
1751620583008849000,12.138848876953125,-41.025001525878906,5.362500190734863,-23.625
1751620583018848800,12.148848876953124,-41.15625,5.418750286102295,-23.381250381469727
1751620583028849000,12.158848876953124,-41.19375228881836,5.231250286102295,-23.587501525878906
1751620583038848800,12.168848876953126,-41.45625305175781,5.25,-23.587501525878906
1751620583048849000,12.178848876953126,-41.25,5.137500286102295,-23.71875
1751620583058848800,12.188848876953125,-41.25,5.0625,-23.981250762939453
1751620583068849000,12.198848876953125,-41.04375076293945,5.100000381469727,-23.662500381469727
1751620583078848800,12.208848876953125,-40.85625076293945,4.931250095367432,-23.45625114440918
1751620583088849000,12.218848876953125,-40.78125,4.5,-23.53125
1751620583098848800,12.228848876953125,-40.837501525878906,4.237500190734863,-23.850000381469727
1751620583108849000,12.238848876953124,-40.368751525878906,4.050000190734863,-23.775001525878906
1751620583118848800,12.248848876953126,-40.125,3.9562501907348633,-23.8125
1751620583128849000,12.258848876953126,-40.42500305175781,3.937500238418579,-23.71875
1751620583138848800,12.268848876953125,-40.462501525878906,3.843750238418579,-23.568750381469727
1751620583148849000,12.278848876953125,-40.556251525878906,3.9000000953674316,-23.681251525878906
1751620583158848800,12.288848876953125,-40.837501525878906,3.9750001430511475,-23.64375114440918
1751620583168849000,12.298848876953125,-41.38125228881836,3.9750001430511475,-23.64375114440918
1751620583178848800,12.308848876953125,-41.38125228881836,3.9562501907348633,-23.512500762939453
1751620583188849000,12.318848876953124,-41.587501525878906,3.7687501907348633,-23.55000114440918
1751620583198848800,12.328848876953124,-41.60625076293945,3.731250047683716,-23.26875114440918
1751620583208849000,12.338848876953126,-41.25,3.731250047683716,-23.287500381469727
1751620583218848800,12.348848876953125,-41.26875305175781,3.468750238418579,-23.137500762939453
1751620583228849000,12.358848876953125,-41.17500305175781,3.187500238418579,-23.231250762939453
1751620583238848800,12.368848876953125,-40.931251525878906,2.90625,-23.25
1751620583248849000,12.378848876953125,-40.61250305175781,2.7562501430511475,-23.306251525878906
1751620583258848800,12.388848876953125,-40.556251525878906,2.5875000953674316,-23.45625114440918
1751620583268849000,12.398848876953124,-40.650001525878906,2.6437501907348633,-23.34375
1751620583278848800,12.408848876953124,-40.51875305175781,2.625,-23.700000762939453
1751620583288849000,12.418848876953126,-40.76250076293945,2.3625001907348633,-23.793750762939453
1751620583298848800,12.428848876953126,-40.70625305175781,2.34375,-23.943750381469727
1751620583308849000,12.438848876953125,-40.875,2.1187500953674316,-23.981250762939453
1751620583318848800,12.448848876953125,-40.66875076293945,2.137500047683716,-24.131250381469727
1751620583328849000,12.458848876953125,-40.42500305175781,2.3625001907348633,-24.093751907348633
1751620583338848800,12.468848876953125,-40.462501525878906,2.34375,-24.187501907348633
1751620583348849000,12.478848876953125,-40.38750076293945,2.1937501430511475,-24.318750381469727
1751620583358848800,12.488848876953124,-40.57500076293945,1.912500023841858,-24.131250381469727
1751620583368849000,12.498848876953126,-40.48125076293945,1.7812501192092896,-24.075000762939453
1751620583378848800,12.508848876953126,-40.5,1.7062500715255737,-24.037500381469727
1751620583388849000,12.518848876953125,-40.368751525878906,1.5750000476837158,-23.981250762939453
1751620583398848800,12.528848876953125,-40.57500076293945,1.4812500476837158,-23.92500114440918
1751620583408849000,12.538848876953125,-40.72500228881836,1.162500023841858,-23.887500762939453
1751620583418848800,12.548848876953125,-40.931251525878906,0.9937500357627869,-23.64375114440918
1751620583428849000,12.558848876953125,-40.931251525878906,1.0125000476837158,-23.512500762939453
1751620583438848800,12.568848876953124,-40.556251525878906,0.9375000596046448,-23.64375114440918
1751620583448849000,12.578848876953124,-40.20000076293945,0.7312500476837158,-23.8125
1751620583458848800,12.588848876953126,-40.3125,0.5437500476837158,-23.887500762939453
1751620583468849000,12.598848876953125,-40.35000228881836,0.675000011920929,-23.73750114440918
1751620583478848800,12.608848876953125,-40.44375228881836,0.6375000476837158,-23.625
1751620583488849000,12.618848876953125,-40.743751525878906,0.4312500059604645,-23.625
1751620583498848800,12.628848876953125,-40.59375,0.3375000059604645,-23.793750762939453
1751620583508849000,12.638848876953125,-40.72500228881836,0.3187500238418579,-23.756250381469727
1751620583518848800,12.648848876953124,-40.76250076293945,0.1875,-23.64375114440918
1751620583528849000,12.658848876953124,-41.212501525878906,0.35625001788139343,-23.55000114440918
1751620583538848800,12.668848876953126,-41.13750076293945,0.4312500059604645,-23.381250381469727
1751620583548849000,12.678848876953126,-41.17500305175781,0.22500000894069672,-23.625
1751620583558848800,12.688848876953125,-41.118751525878906,0.03750000149011612,-23.793750762939453
1751620583568849000,12.698848876953125,-40.931251525878906,-0.07500000298023224,-23.943750381469727
1751620583578848800,12.708848876953125,-40.81875228881836,-0.16875000298023224,-24
1751620583588849000,12.718848876953125,-40.70625305175781,-0.5062500238418579,-24.093751907348633
1751620583598848800,12.728848876953125,-40.91250228881836,-0.5437500476837158,-24.243751525878906
1751620583608849000,12.738848876953124,-40.837501525878906,-0.9375000596046448,-24.30000114440918
1751620583618848800,12.748848876953126,-40.81875228881836,-1.162500023841858,-24.39375114440918
1751620583628849000,12.758848876953126,-40.78125,-1.3125,-24.375001907348633
1751620583638848800,12.768848876953125,-40.76250076293945,-1.3875000476837158,-24.11250114440918
1751620583648849000,12.778848876953125,-40.95000076293945,-1.4812500476837158,-23.8125
1751620583658848800,12.788848876953125,-41.118751525878906,-1.5750000476837158,-23.606250762939453
1751620583668849000,12.798848876953125,-41.08125305175781,-1.5562500953674316,-23.625
1751620583678848800,12.808848876953125,-41.0625,-1.6125000715255737,-23.45625114440918
1751620583688849000,12.818848876953124,-41.118751525878906,-1.537500023841858,-23.400001525878906
1751620583698848800,12.828848876953124,-41.15625,-1.725000023841858,-23.306251525878906
1751620583708849000,12.838848876953126,-41.25,-1.8000000715255737,-23.0625
1751620583718848800,12.848848876953125,-41.306251525878906,-1.9687501192092896,-23.381250381469727
1751620583728849000,12.858848876953125,-41.15625,-2.043750047683716,-23.662500381469727
1751620583738848800,12.868848876953125,-41.0625,-2.231250047683716,-23.587501525878906
1751620583748849000,12.878848876953125,-40.91250228881836,-2.2687501907348633,-23.381250381469727
1751620583758848800,12.888848876953125,-41.08125305175781,-2.4750001430511475,-23.306251525878906
1751620583768849000,12.898848876953124,-41.10000228881836,-2.606250047683716,-23.25
1751620583778848800,12.908848876953124,-41.19375228881836,-2.6625001430511475,-23.193750381469727
1751620583788849000,12.918848876953126,-41.32500076293945,-2.8312501907348633,-23.418750762939453
1751620583798848800,12.928848876953126,-41.28750228881836,-2.887500047683716,-23.25
1751620583808849000,12.938848876953125,-41.10000228881836,-3.0562500953674316,-23.15625
1751620583818848800,12.948848876953125,-41.025001525878906,-2.9250001907348633,-23.100000381469727
1751620583828849000,12.958848876953125,-41.15625,-3.1312501430511475,-23.137500762939453
1751620583838848800,12.968848876953125,-41.212501525878906,-2.981250047683716,-23.17500114440918
1751620583848849000,12.978848876953125,-41.00625228881836,-3.093750238418579,-23.15625
1751620583858848800,12.988848876953124,-40.91250228881836,-3.093750238418579,-23.26875114440918
1751620583868849000,12.998848876953126,-40.85625076293945,-2.9625000953674316,-23.193750381469727
1751620583878848800,13.008848876953126,-40.80000305175781,-3.0375001430511475,-23.118751525878906
1751620583888849000,13.018848876953125,-41.025001525878906,-3.0187501907348633,-23.118751525878906
1751620583898848800,13.028848876953125,-41.0625,-3.262500047683716,-23.306251525878906
1751620583908849000,13.038848876953125,-41.28750228881836,-3.3000001907348633,-23.36250114440918
1751620583918848800,13.048848876953125,-41.13750076293945,-3.4875001907348633,-23.34375
1751620583928849000,13.058848876953125,-41.25,-3.6000001430511475,-23.55000114440918
1751620583938848800,13.068848876953124,-41.25,-3.656250238418579,-23.45625114440918
1751620583948849000,13.078848876953124,-40.96875,-3.9000000953674316,-23.568750381469727
1751620583958848800,13.088848876953126,-40.96875,-3.937500238418579,-23.700000762939453
1751620583968849000,13.098848876953125,-40.78125,-3.825000047683716,-23.493751525878906
1751620583978848800,13.108848876953125,-40.837501525878906,-3.9937500953674316,-23.512500762939453
1751620583988849000,13.118848876953125,-40.72500228881836,-4.125,-23.700000762939453
1751620583998848800,13.128848876953125,-40.59375,-4.3125,-23.662500381469727
1751620584008849000,13.138848876953125,-40.61250305175781,-4.3125,-23.400001525878906
1751620584018848800,13.148848876953124,-40.51875305175781,-4.275000095367432,-23.45625114440918
1751620584028849000,13.158848876953124,-40.462501525878906,-4.518750190734863,-23.306251525878906
1751620584038848800,13.168848876953126,-40.53750228881836,-4.612500190734863,-23.137500762939453
1751620584048849000,13.178848876953126,-40.650001525878906,-4.743750095367432,-23.193750381469727
1751620584058848800,13.188848876953125,-40.875,-4.631250381469727,-23.100000381469727
1751620584068849000,13.198848876953125,-40.931251525878906,-4.5,-22.856250762939453
1751620584078848800,13.208848876953125,-41.19375228881836,-4.350000381469727,-22.96875
1751620584088849000,13.218848876953125,-41.025001525878906,-4.387500286102295,-22.98750114440918
1751620584098848800,13.228848876953125,-40.89375305175781,-4.368750095367432,-23.006250381469727
1751620584108849000,13.238848876953124,-40.91250228881836,-4.21875,-22.96875
1751620584118848800,13.248848876953126,-41.025001525878906,-4.387500286102295,-23.25
1751620584128849000,13.258848876953126,-41.025001525878906,-4.293750286102295,-23.137500762939453
1751620584138848800,13.268848876953125,-40.6875,-4.293750286102295,-23.212501525878906
1751620584148849000,13.278848876953125,-40.650001525878906,-4.425000190734863,-23.231250762939453
1751620584158848800,13.288848876953125,-40.462501525878906,-4.800000190734863,-23.4375
1751620584168849000,13.298848876953125,-40.650001525878906,-4.837500095367432,-23.4375
1751620584178848800,13.308848876953125,-40.57500076293945,-4.987500190734863,-23.53125
1751620584188849000,13.318848876953124,-40.61250305175781,-4.950000286102295,-23.512500762939453
1751620584198848800,13.328848876953124,-40.35000228881836,-4.6875,-23.45625114440918
1751620584208849000,13.338848876953126,-40.21875,-4.987500190734863,-23.512500762939453
1751620584218848800,13.348848876953125,-40.44375228881836,-5.081250190734863,-23.34375
1751620584228849000,13.358848876953125,-40.35000228881836,-5.287500381469727,-23.45625114440918
1751620584238848800,13.368848876953125,-40.40625,-5.212500095367432,-23.193750381469727
1751620584248849000,13.378848876953125,-40.63125228881836,-5.081250190734863,-23.15625
1751620584258848800,13.388848876953125,-41.04375076293945,-5.193750381469727,-22.89375114440918
1751620584268849000,13.398848876953124,-41.10000228881836,-5.306250095367432,-22.96875
1751620584278848800,13.408848876953124,-41.34375,-5.625,-23.043750762939453
1751620584288849000,13.418848876953126,-41.306251525878906,-5.493750095367432,-23.08125114440918
1751620584298848800,13.428848876953126,-41.17500305175781,-5.606250286102295,-23.15625
1751620584308849000,13.438848876953125,-41.118751525878906,-5.550000190734863,-22.931251525878906
1751620584318848800,13.448848876953125,-41.04375076293945,-5.400000095367432,-22.912500381469727
1751620584328849000,13.458848876953125,-41.04375076293945,-5.625,-22.89375114440918
1751620584338848800,13.468848876953125,-40.931251525878906,-5.53125,-22.80000114440918
1751620584348849000,13.478848876953125,-41.04375076293945,-5.587500095367432,-22.837501525878906
1751620584358848800,13.488848876953124,-41.04375076293945,-5.400000095367432,-22.443750381469727
1751620584368849000,13.498848876953126,-41.17500305175781,-5.737500190734863,-22.40625
1751620584378848800,13.508848876953126,-41.19375228881836,-5.90625,-22.350000381469727
1751620584388849000,13.518848876953125,-41.25,-6,-22.33125114440918
1751620584398848800,13.528848876953125,-41.38125228881836,-6.206250190734863,-22.21875
1751620584408849000,13.538848876953125,-41.23125076293945,-6.150000095367432,-21.9375
1751620584418848800,13.548848876953125,-41.19375228881836,-6.468750476837158,-22.087501525878906
1751620584428849000,13.558848876953125,-41.36250305175781,-6.618750095367432,-22.068750381469727
1751620584438848800,13.568848876953124,-41.306251525878906,-6.993750095367432,-22.162500381469727
1751620584448849000,13.578848876953124,-41.28750228881836,-7.050000190734863,-22.05000114440918
1751620584458848800,13.588848876953126,-41.025001525878906,-6.956250190734863,-21.86250114440918
1751620584468849000,13.598848876953125,-41.212501525878906,-7.087500095367432,-21.84375
1751620584478848800,13.608848876953125,-41.04375076293945,-7.125000476837158,-21.84375
