time,seconds_elapsed,z,y,x
1751448481530248700,0.301248779296875,9.90688419342041,0.24825534224510193,0.015553346835076809
1751448481549077000,0.320076904296875,9.859027862548828,0.24825534224510193,-0.008374879136681557
1751448481567905000,0.338905029296875,9.867402076721191,0.24945175647735596,0.0023928226437419653
1751448481586733300,0.3577333984375,9.900901794433594,0.26141586899757385,-0.0023928226437419653
1751448481605561600,0.3765615234375,9.866206169128418,0.25423741340637207,-0.007178467698395252
1751448481624390000,0.395389892578125,9.881759643554688,0.23748764395713806,-0.004785645287483931
1751448481643218200,0.41421826171875,9.917651176452637,0.251844584941864,0.005982056725770235
1751448481662046200,0.433046142578125,9.892526626586914,0.2554338276386261,0.008374879136681557
1751448481680874500,0.45187451171875,9.861420631408691,0.2709871530532837,-0.007178467698395252
1751448481699702800,0.470702880859375,9.881759643554688,0.2626122832298279,0.003589233849197626
1751448481718530800,0.48953076171875,9.90688419342041,0.25423741340637207,-0.01196411345154047
1751448481737359000,0.508359130859375,9.874580383300781,0.24227328598499298,-0.007178467698395252
1751448481756187400,0.5271875,9.887741088867188,0.2745763957500458,-0.014356935396790504
1751448481775015700,0.546015625,9.927223205566406,0.27696922421455383,-0.016749758273363113
1751448481793843700,0.56484375,9.879366874694824,0.2566302418708801,0.005982056725770235
1751448481812672000,0.583672119140625,9.886545181274414,0.2626122832298279,0.003589233849197626
1751448481831500300,0.602500244140625,9.904491424560547,0.2554338276386261,-0.009571290574967861
1751448481850328600,0.62132861328125,9.874580383300781,0.24466611444950104,-0.0011964113218709826
1751448481869156600,0.640156494140625,9.875777244567871,0.25064817070961,0
1751448481887985000,0.65898486328125,9.903294563293457,0.25782662630081177,-0.014356935396790504
1751448481906813200,0.677813232421875,9.876974105834961,0.26141586899757385,-0.008374879136681557
1751448481925641500,0.696641357421875,9.878170013427734,0.25782662630081177,-0.02273181453347206
1751448481944469500,0.715469482421875,9.896116256713867,0.2386840581893921,-0.015553346835076809
1751448481963297800,0.7342978515625,9.88415241241455,0.267397940158844,0
1751448481982126000,0.7531259765625,9.878170013427734,0.24586252868175507,-0.01196411345154047
1751448482000954400,0.771954345703125,9.888937950134277,0.2626122832298279,-0.007178467698395252
1751448482019782400,0.790782470703125,9.903294563293457,0.2566302418708801,-0.010767702013254166
1751448482038610700,0.809610595703125,9.872187614440918,0.25064817070961,0.0023928226437419653
1751448482057439000,0.82843896484375,9.904491424560547,0.23988047242164612,-0.014356935396790504
1751448482076267300,0.847267333984375,9.888937950134277,0.2626122832298279,-0.013160524889826775
1751448482095095300,0.86609521484375,9.869794845581055,0.25064817070961,-0.004785645287483931
1751448482113923600,0.884923583984375,9.88415241241455,0.2554338276386261,0
1751448482132752000,0.903751953125,9.89850902557373,0.26979073882102966,0.0011964113218709826
1751448482151580200,0.922580078125,9.89850902557373,0.25782662630081177,-0.009571290574967861
1751448482170408200,0.941408203125,9.887741088867188,0.24107688665390015,-0.0011964113218709826
1751448482189236500,0.960236572265625,9.91286563873291,0.25304099917411804,-0.0011964113218709826
1751448482208064800,0.979064697265625,9.887741088867188,0.2626122832298279,-0.014356935396790504
1751448482226893000,0.99789306640625,9.882955551147461,0.2590230405330658,-0.01196411345154047
1751448482245721000,1.01672119140625,9.882955551147461,0.2386840581893921,-0.010767702013254166
1751448482264549400,1.03554931640625,9.841081619262695,0.251844584941864,-0.004785645287483931
1751448482283377700,1.054377685546875,9.909276962280273,0.26500511169433594,-0.020338991656899452
1751448482302206000,1.0732060546875,9.897313117980957,0.24945175647735596,0
1751448482321034000,1.092033935546875,9.88415241241455,0.24945175647735596,-0.020338991656899452
1751448482339862300,1.1108623046875,9.90568733215332,0.25064817070961,0.0011964113218709826
1751448482358690600,1.129690673828125,9.89013385772705,0.2554338276386261,0.003589233849197626
1751448482377518800,1.148518798828125,9.882955551147461,0.24825534224510193,-0.017946170642971992
1751448482396347100,1.16734716796875,9.870991706848145,0.25423741340637207,-0.005982056725770235
1751448482415175200,1.186175048828125,9.924830436706543,0.2566302418708801,-0.007178467698395252
1751448482434003500,1.20500341796875,9.879366874694824,0.2590230405330658,-0.015553346835076809
1751448482452831700,1.223831787109375,9.866206169128418,0.267397940158844,0
1751448482471659800,1.24265966796875,9.917651176452637,0.2566302418708801,-0.014356935396790504
1751448482490488000,1.261488037109375,9.89133071899414,0.24586252868175507,-0.02153540402650833
1751448482509316400,1.28031640625,9.872187614440918,0.23988047242164612,0.0023928226437419653
1751448482528144600,1.29914453125,9.894919395446777,0.24586252868175507,-0.014356935396790504
1751448482546972700,1.31797265625,9.900901794433594,0.24227328598499298,-0.010767702013254166
1751448482565801000,1.336801025390625,9.886545181274414,0.26620152592658997,0.004785645287483931
1751448482584629200,1.355629150390625,9.876974105834961,0.251844584941864,-0.01196411345154047
1751448482603457500,1.37445751953125,9.908080101013184,0.26500511169433594,-0.013160524889826775
1751448482622285800,1.393285888671875,9.874580383300781,0.23748764395713806,-0.016749758273363113
1751448482641113900,1.41211376953125,9.885348320007324,0.24586252868175507,-0.008374879136681557
1751448482659942100,1.430942138671875,9.894919395446777,0.2470589429140091,-0.007178467698395252
1751448482678770400,1.4497705078125,9.879366874694824,0.2709871530532837,-0.005982056725770235
1751448482697598700,1.4685986328125,9.869794845581055,0.267397940158844,-0.003589233849197626
1751448482716426800,1.4874267578125,9.897313117980957,0.2554338276386261,0.005982056725770235
1751448482735255000,1.506255126953125,9.893723487854004,0.24825534224510193,-0.008374879136681557
1751448482754083300,1.525083251953125,9.872187614440918,0.2566302418708801,-0.008374879136681557
1751448482772911600,1.54391162109375,9.894919395446777,0.25064817070961,0
1751448482791739600,1.56273974609375,9.908080101013184,0.25423741340637207,0.003589233849197626
1751448482810568000,1.58156787109375,9.869794845581055,0.2721835672855377,-0.014356935396790504
1751448482848224500,1.619224609375,9.892526626586914,0.25064817070961,0
1751448482876466700,1.647466796875,9.897313117980957,0.251844584941864,0.008374879136681557
1751448482932951600,1.70395166015625,9.872187614440918,0.2721835672855377,-0.015553346835076809
1751448482951779600,1.722779541015625,9.878170013427734,0.2470589429140091,0
1751448482970607900,1.74160791015625,9.90688419342041,0.2602194547653198,-0.017946170642971992
1751448482989436200,1.760436279296875,9.879366874694824,0.25782662630081177,-0.009571290574967861
1751448483008264400,1.779264404296875,9.886545181274414,0.24945175647735596,-0.010767702013254166
1751448483027092500,1.798092529296875,9.90568733215332,0.2638086974620819,-0.003589233849197626
1751448483045920800,1.816920654296875,9.893723487854004,0.2602194547653198,-0.005982056725770235
1751448483064749000,1.8357490234375,9.879366874694824,0.24227328598499298,-0.015553346835076809
1751448483083577300,1.854577392578125,9.879366874694824,0.2470589429140091,0.009571290574967861
1751448483102405600,1.873405517578125,9.897313117980957,0.25423741340637207,-0.015553346835076809
1751448483121233700,1.892233642578125,9.872187614440918,0.251844584941864,-0.007178467698395252
1751448483140062000,1.91106201171875,9.887741088867188,0.2566302418708801,-0.01196411345154047
1751448483158890200,1.92989013671875,9.90568733215332,0.25064817070961,-0.010767702013254166
1751448483177718500,1.948718505859375,9.865009307861328,0.26979073882102966,-0.008374879136681557
1751448483196546600,1.967546630859375,9.868598937988281,0.25423741340637207,-0.014356935396790504
1751448483215374800,1.986374755859375,9.880562782287598,0.23988047242164612,-0.02392822690308094
1751448483234203100,2.005203125,9.878170013427734,0.23988047242164612,0
1751448483253031400,2.024031494140625,9.874580383300781,0.2386840581893921,-0.004785645287483931
1751448483271859500,2.042859375,9.888937950134277,0.22911277413368225,0.015553346835076809
1751448483290687700,2.061687744140625,9.876974105834961,0.2638086974620819,0.004785645287483931
1751448483309516000,2.08051611328125,9.93679428100586,0.24945175647735596,-0.007178467698395252
1751448483328344300,2.09934423828125,9.860223770141602,0.26500511169433594,0.0011964113218709826
1751448483347172600,2.118172607421875,9.894919395446777,0.26141586899757385,0.0011964113218709826
1751448483366000600,2.137000732421875,9.89850902557373,0.25304099917411804,0.004785645287483931
1751448483384829000,2.155828857421875,9.881759643554688,0.24227328598499298,-0.0023928226437419653
1751448483403657200,2.1746572265625,9.892526626586914,0.251844584941864,-0.009571290574967861
1751448483422485500,2.193485595703125,9.887741088867188,0.2554338276386261,0.007178467698395252
1751448483441313500,2.2123134765625,9.897313117980957,0.24586252868175507,-0.010767702013254166
1751448483460141800,2.231141845703125,9.897313117980957,0.25064817070961,-0.010767702013254166
1751448483478970000,2.24997021484375,9.881759643554688,0.2554338276386261,-0.017946170642971992
1751448483497798400,2.26879833984375,9.897313117980957,0.27816563844680786,-0.02751746028661728
1751448483516626400,2.28762646484375,9.903294563293457,0.2566302418708801,-0.005982056725770235
1751448483535454700,2.306454833984375,9.875777244567871,0.23748764395713806,0.010767702013254166
1751448483563697200,2.334697265625,9.909276962280273,0.2470589429140091,-0.0323031060397625
1751448483582525400,2.353525390625,9.89850902557373,0.25304099917411804,-0.009571290574967861
1751448483601353500,2.372353515625,9.88415241241455,0.25423741340637207,-0.007178467698395252
1751448483620181800,2.391181640625,9.885348320007324,0.26141586899757385,0.003589233849197626
1751448483639010000,2.410010009765625,9.894919395446777,0.25304099917411804,0.0011964113218709826
1751448483657838300,2.42883837890625,9.874580383300781,0.24945175647735596,-0.015553346835076809
1751448483676666400,2.447666259765625,9.88415241241455,0.2626122832298279,-0.007178467698395252
1751448483695494700,2.46649462890625,9.924830436706543,0.2566302418708801,-0.016749758273363113
1751448483714323000,2.485322998046875,9.886545181274414,0.26500511169433594,-0.02751746028661728
1751448483742565400,2.5135654296875,9.867402076721191,0.268594354391098,-0.008374879136681557
1751448483761393400,2.532393310546875,9.887741088867188,0.24825534224510193,-0.004785645287483931
1751448483780221700,2.5512216796875,9.90568733215332,0.2638086974620819,-0.020338991656899452
1751448483799050000,2.570050048828125,9.909276962280273,0.26141586899757385,-0.035892341285943985
1751448483817878300,2.588878173828125,9.863813400268555,0.2590230405330658,-0.0023928226437419653
1751448483846120400,2.617120361328125,9.887741088867188,0.251844584941864,-0.009571290574967861
1751448483864948700,2.63594873046875,9.885348320007324,0.24945175647735596,-0.009571290574967861
1751448483883777000,2.654777099609375,9.892526626586914,0.25304099917411804,-0.010767702013254166
1751448483902605300,2.673605224609375,9.863813400268555,0.25064817070961,-0.009571290574967861
1751448483921433600,2.69243359375,9.876974105834961,0.2602194547653198,-0.010767702013254166
1751448483940261600,2.71126171875,9.90568733215332,0.27696922421455383,-0.02512463741004467
1751448483959090000,2.73008984375,9.894919395446777,0.24945175647735596,-0.005982056725770235
1751448483977918200,2.748918212890625,9.893723487854004,0.25423741340637207,-0.031106693670153618
1751448483996746500,2.76774658203125,9.879366874694824,0.25423741340637207,-0.005982056725770235
1751448484015574800,2.78657470703125,9.872187614440918,0.25064817070961,-0.029910283163189888
1751448484034402800,2.80540283203125,9.885348320007324,0.251844584941864,-0.010767702013254166
1751448484053231000,2.824231201171875,9.888937950134277,0.25304099917411804,-0.016749758273363113
1751448484072059400,2.843059326171875,9.870991706848145,0.25304099917411804,-0.0023928226437419653
1751448484090887700,2.8618876953125,9.872187614440918,0.09272187948226929,0.6424728631973267
1751448484109716000,2.880716064453125,9.866206169128418,-0.005383851006627083,0.6675975322723389
1751448484128544000,2.8995439453125,9.89850902557373,0.21236300468444824,0.6005984544754028
1751448484147372300,2.918372314453125,9.867402076721191,0.5856433510780334,0.1543370634317398
1751448484166200600,2.93720068359375,9.958329200744629,0.4336991012096405,-0.25363919138908386
1751448484185028900,2.95602880859375,9.869794845581055,0.1788634955883026,-0.23808585107326508
1751448484203857200,2.974857177734375,9.924830436706543,0.1010967567563057,0.20937198400497437
1751448484222685200,2.993685302734375,9.716654777526855,0.582054078578949,-0.1459621787071228
1751448484241513500,3.012513427734375,9.830313682556152,0.2590230405330658,0.23330020904541016
1751448484260341800,3.031341796875,9.849455833435059,0.42771705985069275,0.08015955984592438
1751448484279170000,3.050170166015625,9.958329200744629,0.01734796352684498,0.02871387079358101
1751448484297998300,3.068998291015625,9.845867156982422,0.16809579730033875,-0.06939185410737991
1751448484316826400,3.087826416015625,9.949954986572266,0.008973085321485996,-0.19262222945690155
1751448484345068800,3.11606884765625,9.81356430053711,-0.16450655460357666,0.040677983313798904
1751448484363897000,3.13489697265625,9.866206169128418,0.21714866161346436,-0.02751746028661728
1751448484382725400,3.153725341796875,9.893723487854004,0.20757736265659332,-0.06939185410737991
1751448484401553400,3.172553466796875,9.881759643554688,0.44805604219436646,-0.24885354936122894
1751448484420381700,3.191381591796875,9.876974105834961,0.6861419081687927,-0.6687939167022705
1751448484439210000,3.2102099609375,9.903294563293457,0.719641387462616,-1.0193424224853516
1751448484458038300,3.229038330078125,9.888937950134277,0.8392825126647949,-0.4701896607875824
1751448484476866600,3.247866455078125,9.865009307861328,1.1515458822250366,-1.7647067308425903
1751448484495694800,3.26669482421875,9.902098655700684,1.0845468044281006,-1.8664016723632812
1751448484514523000,3.28552294921875,9.67238712310791,1.017547845840454,-1.5182459354400635
1751448484533351200,3.30435107421875,9.862616539001465,0.6035895347595215,-0.605384111404419
1751448484552179500,3.323179443359375,10.012167930603027,0.08075776696205139,-0.04666004329919815
1751448484571007700,3.3420078125,10.368699073791504,-0.2925225794315338,0.656829833984375
1751448484589836000,3.3608359375,9.758528709411621,-0.4983053207397461,1.168893814086914
1751448484608664300,3.379664306640625,9.479764938354492,-0.9421738982200623,1.4691931009292603
1751448484627492400,3.398492431640625,9.967901229858398,-0.7627122402191162,1.1593226194381714
1751448484646320600,3.417320556640625,9.887741088867188,-0.5557330846786499,1.0408778190612793
1751448484665149000,3.43614892578125,9.888937950134277,0.26500511169433594,0.02153540402650833
1751448484683977200,3.454977294921875,9.876974105834961,0.24945175647735596,0.003589233849197626
1751448484702805500,3.473805419921875,9.882955551147461,0.2590230405330658,0.003589233849197626
1751448484721633800,3.4926337890625,9.879366874694824,0.25782662630081177,0.02871387079358101
1751448484740461800,3.5114619140625,9.886545181274414,0.1010967567563057,0.1866401731967926
1751448484759290000,3.5302900390625,9.89133071899414,-0.5318048596382141,1.3076776266098022
1751448484778118400,3.549118408203125,9.969097137451172,-0.41575294733047485,1.789831280708313
1751448484796946700,3.56794677734375,9.937990188598633,-0.828514814376831,1.3674981594085693
1751448484815775000,3.58677490234375,9.421140670776367,-0.4205385744571686,1.552941918373108
1751448484834603300,3.605603271484375,9.348159790039062,-0.6011967062950134,0.833898663520813
1751448484853431300,3.624431396484375,10.446465492248535,-0.34277185797691345,0.03469592705368996
1751448484872259600,3.643259521484375,9.970293998718262,-0.047258246690034866,-0.5048855543136597
1751448484891088000,3.662087890625,10.16291618347168,0.42771705985069275,-0.4127618968486786
1751448484909916200,3.680916259765625,9.915258407592773,0.494716078042984,-0.7668996453285217
1751448484928744400,3.699744384765625,10.16171932220459,0.6909275650978088,-0.2715853750705719
1751448484947572700,3.71857275390625,9.346963882446289,0.7579265832901001,-0.6975077986717224
1751448484966400800,3.73740087890625,9.794421195983887,1.5152549743652344,-2.0673987865448
1751448484985229000,3.75622900390625,9.867402076721191,1.441077470779419,-2.837887763977051
1751448485004057300,3.775057373046875,9.89013385772705,0.9182456731796265,-1.2203395366668701
1751448485022885600,3.7938857421875,9.909276962280273,1.2915260791778564,-1.5996019840240479
1751448485041714000,3.8127138671875,9.79083251953125,1.4602199792861938,-2.2983062267303467
1751448485060542200,3.831542236328125,9.610174179077148,1.2999008893966675,-2.4993033409118652
1751448485079370500,3.85037060546875,9.880562782287598,0.6538388133049011,-1.9417755603790283
1751448485098198500,3.869198486328125,9.618548393249512,0.19202402234077454,-1.0109676122665405
1751448485117026800,3.88802685546875,9.855438232421875,-0.049651071429252625,-0.18065811693668365
1751448485135855000,3.906855224609375,9.458230018615723,-0.544965386390686,0.37926238775253296
1751448485154683400,3.925683349609375,10.582856178283691,-0.4827519655227661,0.836291491985321
1751448485173511700,3.94451171875,9.817152976989746,-0.828514814376831,1.2478569746017456
1751448485192340000,3.963340087890625,9.792028427124023,-1.2352946996688843,1.5158531665802002
1751448485211168300,3.982168212890625,9.903294563293457,-1.280758261680603,1.3351950645446777
1751448485248824600,4.019824462890625,9.875777244567871,-0.8644071817398071,1.3615161180496216
1751448485267652900,4.03865283203125,9.851848602294922,0.2590230405330658,-0.008374879136681557
1751448485286481200,4.057481201171875,9.880562782287598,0.21236300468444824,0.10767702013254166
1751448485305309400,4.076309326171875,9.911669731140137,-0.2386840581893921,1.0803594589233398
1751448485324137700,4.0951376953125,9.850652694702148,-0.06759724020957947,1.7563318014144897
1751448485342966000,4.113966064453125,9.843474388122559,-0.7830511927604675,1.9920248985290527
1751448485361794300,4.132794189453125,9.997811317443848,-0.9254241585731506,1.6666009426116943
1751448485380622300,4.151622314453125,9.859027862548828,-0.841675341129303,1.4057832956314087
1751448485399450600,4.17045068359375,10.089935302734375,-0.5916253924369812,0.5359922647476196
1751448485418279000,4.18927880859375,9.591031074523926,-0.43489551544189453,0.6472585201263428
1751448485437107200,4.208107177734375,9.638887405395508,-0.3487538993358612,0.5180460810661316
1751448485455935500,4.226935546875,10.154541015625,-0.597607433795929,-0.029910283163189888
1751448485474763800,4.245763671875,9.239286422729492,0.03768695518374443,-1.0241280794143677
1751448485493592000,4.264592041015625,10.091131210327148,0.5617151260375977,-1.9405791759490967
1751448485521834200,4.292834228515625,9.7669038772583,1.563111424446106,-3.212364435195923
1751448485540662500,4.31166259765625,9.837491989135742,2.114656925201416,-4.17427921295166
1751448485559490800,4.33049072265625,9.94397258758545,1.4877375364303589,-1.6103696823120117
1751448485578319000,4.349319091796875,9.825528144836426,1.4530415534973145,-2.693121910095215
1751448485597147400,4.3681474609375,9.969097137451172,0.6574280261993408,-2.7493531703948975
1751448485615975700,4.3869755859375,10.042078018188477,0.34636107087135315,-2.1332013607025146
1751448485634804000,4.405803955078125,9.972686767578125,0.3284149169921875,-1.7599210739135742
1751448485653632300,4.42463232421875,9.266803741455078,0.268594354391098,-1.0827522277832031
1751448485672460500,4.44346044921875,10.204790115356445,-0.3798605799674988,-0.19621145725250244
1751448485691288800,4.462288818359375,9.976275444030762,-0.6789634227752686,0.7226324677467346
1751448485710117000,4.4811171875,9.709476470947266,-0.9290133714675903,1.29810631275177
1751448485728945200,4.499945068359375,10.06002426147461,-1.1264212131500244,1.290927767753601
1751448485747773400,4.5187734375,9.985847473144531,-0.9266205430030823,1.3902299404144287
1751448485766601700,4.537601806640625,9.92124080657959,-1.236491084098816,2.0039889812469482
1751448485785430000,4.556429931640625,9.814760208129883,-1.1994023323059082,2.8941190242767334
1751448485804258300,4.57525830078125,9.917651176452637,0.3451646566390991,0.12083754688501358
1751448485823086600,4.594086669921875,9.89850902557373,-0.36311084032058716,0.7704889178276062
1751448485841915000,4.612914794921875,9.872187614440918,-0.9804590940475464,2.091326951980591
1751448485860743200,4.6317431640625,9.903294563293457,-1.0354939699172974,2.6608188152313232
1751448485879571500,4.650571533203125,9.893723487854004,-1.2819547653198242,2.359323024749756
1751448485898399700,4.669399658203125,10.070792198181152,-1.1599208116531372,1.5254244804382324
1751448485917227800,4.688227783203125,9.729815483093262,-1.303490161895752,0.8039883971214294
1751448485936056000,4.70705615234375,10.554142951965332,-0.6933203339576721,-0.1698904037475586
1751448485954884400,4.72588427734375,9.740582466125488,-0.15493527054786682,-1.0875378847122192
1751448485973712600,4.744712646484375,10.228718757629395,1.2269197702407837,-2.4885356426239014
1751448485992541000,4.763541015625,10.208379745483398,2.0273189544677734,-3.9804604053497314
1751448486011369200,4.782369140625,9.887741088867188,2.6913273334503174,-4.329812526702881
1751448486030197500,4.801197509765625,9.900901794433594,2.083550214767456,-2.234896421432495
1751448486049025800,4.82002587890625,9.955936431884766,2.0165512561798096,-2.9730820655822754
1751448486067854000,4.83885400390625,9.946365356445312,0.8608179688453674,-2.7864420413970947
1751448486086682400,4.857682373046875,10.234700202941895,0.38225340843200684,-2.0003998279571533
1751448486105510700,4.8765107421875,10.016953468322754,0.12263216078281403,-1.2143574953079224
1751448486124339000,4.8953388671875,9.683155059814453,0.17527425289154053,-1.0911271572113037
1751448486143167200,4.914167236328125,10.391430854797363,-0.5413761138916016,0.34217363595962524
1751448486161995500,4.93299560546875,9.7669038772583,-1.308275818824768,1.3100703954696655
1751448486180823800,4.95182373046875,9.873384475708008,-1.3968101739883423,2.1786649227142334
1751448486199651800,4.97065185546875,9.837491989135742,-1.4626128673553467,2.1858434677124023
1751448486218480000,4.989480224609375,9.78963565826416,-1.2616157531738281,2.1511476039886475
1751448486237308400,5.008308349609375,9.930811882019043,-0.7028916478157043,2.0865414142608643
1751448486256136700,5.02713671875,9.939187049865723,0.08315058797597885,0.10887342691421509
1751448486274965000,5.045965087890625,9.865009307861328,-0.3248256742954254,1.2047861814498901
1751448486293793300,5.064793212890625,9.886545181274414,-0.9900303483009338,2.575873613357544
1751448486312621600,5.08362158203125,9.709476470947266,-1.4889339208602905,2.9515466690063477
1751448486331449900,5.102449951171875,9.80518913269043,-1.7138592004776,2.280359983444214
1751448486350278100,5.121278076171875,9.932008743286133,-1.7629120349884033,1.6378871202468872
1751448486369106400,5.1401064453125,10.26461124420166,-1.6432709693908691,0.865005373954773
1751448486387934700,5.158934814453125,9.55513858795166,-0.6323033571243286,-0.5060819983482361
1751448486406763000,5.177762939453125,10.607980728149414,0.07118647545576096,-2.038684844970703
1751448486425591300,5.19659130859375,10.436894416809082,0.8333004713058472,-2.8977081775665283
1751448486444419600,5.215419677734375,9.78245735168457,1.0498509407043457,-3.2542388439178467
1751448486463248000,5.234247802734375,9.92841911315918,1.689931035041809,-2.9240293502807617
1751448486482076200,5.253076171875,9.8267240524292,2.740380048751831,-3.682554006576538
1751448486500904400,5.271904541015625,9.939187049865723,1.7820546627044678,-1.667797327041626
1751448486519732700,5.290732666015625,10.049257278442383,1.6971094608306885,-2.623729944229126
1751448486538561000,5.30956103515625,9.57188892364502,1.3573286533355713,-3.105883836746216
1751448486557389300,5.328389404296875,9.592227935791016,0.3966103494167328,-2.462214469909668
1751448486576217600,5.347217529296875,9.829116821289062,-0.09870393574237823,-1.4727823734283447
1751448486595046000,5.3660458984375,10.027721405029297,-0.42293140292167664,-0.7597211599349976
1751448486613874000,5.3848740234375,9.911669731140137,-0.9266205430030823,0.6089733839035034
1751448486632702200,5.4037021484375,9.740582466125488,-1.1778669357299805,1.1234302520751953
1751448486651530500,5.422530517578125,10.04447078704834,-0.6861419081687927,1.667797327041626
1751448486670358800,5.44135888671875,9.918848037719727,-0.7950153350830078,2.0039889812469482
1751448486689187000,5.46018701171875,9.993025779724121,-1.1216355562210083,1.8460626602172852
1751448486708015400,5.479015380859375,9.863813400268555,-0.5066801905632019,1.4715858697891235
1751448486726843600,5.49784375,9.862616539001465,-0.20877377688884735,0.9415757060050964
1751448486745672000,5.516671875,9.873384475708008,0.07238288223743439,0.1746760457754135
1751448486764500200,5.535500244140625,9.861420631408691,0.22552353143692017,-0.02751746028661728
1751448486783328500,5.55432861328125,9.908080101013184,-0.18125630915164948,1.2693923711776733
1751448486802156800,5.57315673828125,9.90568733215332,-1.0654042959213257,2.715853691101074
1751448486820985000,5.591985107421875,9.856635093688965,-1.7102699279785156,3.31884503364563
1751448486839813400,5.6108134765625,9.873384475708008,-2.0656042098999023,2.8414769172668457
1751448486858641700,5.6296416015625,10.068399429321289,-1.6911274194717407,1.963310956954956
1751448486877470000,5.648469970703125,10.28016471862793,-1.1910275220870972,0.39122650027275085
1751448486896298200,5.66729833984375,9.502496719360352,-0.7674978375434875,-1.1210373640060425
1751448486915126500,5.68612646484375,9.750154495239258,0.3355933725833893,-2.548356056213379
1751448486933954800,5.704954833984375,10.339984893798828,1.2041879892349243,-3.6634113788604736
1751448486952783000,5.723783203125,9.90688419342041,2.4568307399749756,-5.030909538269043
1751448486971611400,5.742611328125,9.903294563293457,2.8002007007598877,-4.054637908935547
1751448486990439700,5.761439697265625,9.93679428100586,2.1481566429138184,-3.1130621433258057
1751448487009268000,5.78026806640625,9.800403594970703,1.7485551834106445,-3.6909289360046387
1751448487028096300,5.79909619140625,9.7669038772583,0.7794619798660278,-2.985046148300171
1751448487046924500,5.817924560546875,10.299306869506836,-0.006580262444913387,-2.142772674560547
1751448487065752800,5.8367529296875,10.18445110321045,-0.48873403668403625,-1.2215359210968018
1751448487084581000,5.8555810546875,10.03011417388916,-0.7794619798660278,0.08135596662759781
1751448487103409400,5.874409423828125,9.875777244567871,-0.9888339638710022,0.7501499056816101
1751448487122237700,5.89323779296875,9.502496719360352,-0.5868397355079651,0.6687939167022705
1751448487141066000,5.91206591796875,9.660423278808594,-0.7603194117546082,1.210768222808838
1751448487159894300,5.930894287109375,9.930811882019043,-0.9361918568611145,1.430907964706421
1751448487178722600,5.94972265625,9.850652694702148,-0.8249256014823914,1.5912270545959473
1751448487197550800,5.96855078125,10.13898754119873,-0.7519445419311523,1.5337992906570435
1751448487216379100,5.987379150390625,9.885348320007324,-1.0031908750534058,1.3830515146255493
1751448487235207400,6.00620751953125,9.908080101013184,-0.664606511592865,2.251646041870117
1751448487254035700,6.02503564453125,9.90568733215332,-0.17527425289154053,1.1521440744400024
1751448487272864000,6.043864013671875,9.831509590148926,-1.1563315391540527,3.517449378967285
1751448487291692300,6.0626923828125,9.975079536437988,-2.1888344287872314,4.6995038986206055
1751448487310520600,6.0815205078125,10.039685249328613,-2.6051857471466064,3.775874137878418
1751448487329348900,6.100348876953125,10.003793716430664,-2.417349100112915,1.6474584341049194
1751448487348177200,6.11917724609375,10.238289833068848,-2.1589243412017822,0.17108681797981262
1751448487367005400,6.13800537109375,10.806585311889648,-1.2233306169509888,-1.1042876243591309
1751448487385833700,6.156833740234375,10.135398864746094,0.30927231907844543,-2.6943182945251465
1751448487404662000,6.175662109375,10.06002426147461,1.851446509361267,-5.343173027038574
1751448487423490300,6.194490234375,9.874580383300781,3.6113674640655518,-7.000202655792236
1751448487442318600,6.213318603515625,9.939187049865723,3.035893678665161,-4.316651821136475
1751448487461147000,6.23214697265625,9.881759643554688,2.65423846244812,-4.394418716430664
1751448487479975200,6.25097509765625,10.057631492614746,1.1252248287200928,-3.920639991760254
1751448487498803500,6.269803466796875,10.173684120178223,-0.01375873014330864,-2.8414769172668457
1751448487517631700,6.2886318359375,10.6295166015625,-0.5988038778305054,-1.8161523342132568
1751448487536460000,6.3074599609375,9.391230583190918,-0.7914260625839233,-1.0707881450653076
1751448487555288300,6.326288330078125,10.026525497436523,-1.079761266708374,0.18783657252788544
1751448487574116600,6.34511669921875,9.825528144836426,-0.2961117923259735,0.4486542344093323
1751448487592945200,6.363945068359375,9.833903312683105,-0.4576273262500763,0.49292147159576416
1751448487611773400,6.3827734375,9.939187049865723,-1.784447431564331,0.8327022790908813
1751448487630601500,6.4016015625,9.66640567779541,-2.600399971008301,1.3555340766906738
1751448487649429800,6.4204296875,9.930811882019043,-2.455634355545044,1.7670994997024536
1751448487668258300,6.43925830078125,9.903294563293457,-1.6289139986038208,2.5878376960754395
1751448487687086600,6.458086669921875,9.842277526855469,-0.6083751320838928,2.504088878631592
1751448487705915000,6.476914794921875,9.849455833435059,0.49710890650749207,1.1629117727279663
1751448487724743200,6.4957431640625,9.904491424560547,-0.35473597049713135,1.0612168312072754
1751448487743571500,6.514571533203125,9.917651176452637,-1.5547364950180054,2.830709218978882
1751448487762399700,6.533399658203125,9.751350402832031,-2.145763635635376,3.238685369491577
1751448487781228000,6.55222802734375,9.869794845581055,-2.3718855381011963,3.126222848892212
1751448487800056300,6.571056396484375,9.778867721557617,-2.568096876144409,2.2540390491485596
1751448487818884600,6.589884521484375,9.79801082611084,-2.5645077228546143,1.7623138427734375
1751448487837713000,6.608712890625,9.9140625,-2.0548365116119385,0.7429714202880859
1751448487856541200,6.627541259765625,10.706087112426758,-1.6301103830337524,-0.6783652305603027
1751448487875369500,6.646369384765625,9.57906723022461,-1.4829518795013428,-1.667797327041626
1751448487894197800,6.66519775390625,10.189236640930176,-1.2675977945327759,-2.118844509124756
1751448487913026000,6.684026123046875,10.338788032531738,-1.1084750890731812,-2.293520450592041
1751448487931854300,6.702854248046875,9.942776679992676,-0.4061816334724426,-2.8833513259887695
1751448487950682600,6.7216826171875,11.21934700012207,1.3812568187713623,-3.418147087097168
1751448487969511000,6.740510986328125,9.876974105834961,1.7270197868347168,-3.5258240699768066
1751448487988339200,6.759339111328125,9.693922996520996,2.437688112258911,-4.41475772857666
1751448488007167500,6.77816748046875,9.772886276245117,2.6015963554382324,-3.9696927070617676
1751448488025995800,6.796995849609375,9.92841911315918,1.2448660135269165,-0.5802595019340515
1751448488044824000,6.815823974609375,9.892526626586914,1.2652050256729126,-1.8029918670654297
1751448488063652400,6.83465234375,9.793225288391113,1.2400803565979004,-2.3509483337402344
1751448488082480600,6.853480712890625,9.865009307861328,0.6729813814163208,-2.874976396560669
1751448488101309000,6.872308837890625,10.083952903747559,0.8309076428413391,-2.6739792823791504
1751448488120137200,6.89113720703125,10.075577735900879,0.5521438121795654,-2.825923442840576
1751448488138965500,6.909965576171875,9.559925079345703,0.2745763957500458,-1.9692929983139038
1751448488157793800,6.928793701171875,9.77408218383789,0.11425728350877762,-1.8556339740753174
1751448488176622300,6.947622314453125,10.386645317077637,-0.47916272282600403,-1.0372886657714844
1751448488195450600,6.96645068359375,9.202198028564453,-0.9146564602851868,-0.6472585201263428
1751448488214279000,6.98527880859375,9.717850685119629,-1.43389892578125,0.09810572862625122
1751448488233107000,7.00410693359375,10.310074806213379,-1.6265212297439575,0.6580262184143066
1751448488251935500,7.022935546875,9.847063064575195,-1.9674984216690063,1.1234302520751953
1751448488270763800,7.041763671875,10.281360626220703,-1.6671991348266602,1.3914263248443604
1751448488289592000,7.060592041015625,9.971489906311035,-1.7461622953414917,1.9956140518188477
1751448488308420400,7.07942041015625,9.92243766784668,-1.3836497068405151,1.7180466651916504
1751448488327248600,7.09824853515625,9.763314247131348,-0.7603194117546082,1.6319050788879395
1751448488346077000,7.117076904296875,9.934401512145996,-0.12143574655056,1.5038890838623047
1751448488364905200,7.1359052734375,9.89133071899414,-0.7926225066184998,2.1308085918426514
1751448488383733500,7.1547333984375,9.885348320007324,-0.5078766345977783,0.3732803463935852
1751448488402561800,7.173561767578125,9.915258407592773,-0.34995031356811523,1.9453648328781128
1751448488421390000,7.19239013671875,9.948758125305176,-1.2436695098876953,3.2554352283477783
1751448488440218400,7.21121826171875,9.838688850402832,-1.705484390258789,3.142972469329834
1751448488459046700,7.230046630859375,10.073184967041016,-2.0344974994659424,2.8701908588409424
1751448488477875000,7.248875,9.866206169128418,-2.2307088375091553,2.6775684356689453
1751448488496703200,7.267703125,9.550353050231934,-2.397010087966919,1.9728822708129883
1751448488515531500,7.286531494140625,9.756135940551758,-2.7140591144561768,1.1353943347930908
1751448488534359800,7.30535986328125,8.515457153320312,-2.4149563312530518,0.17347964644432068
1751448488553188000,7.32418798828125,10.211968421936035,-1.9962122440338135,-1.0660024881362915
1751448488572016400,7.343016357421875,10.306485176086426,-1.7425731420516968,-1.5014961957931519
1751448488590844700,7.3618447265625,9.739386558532715,-1.0941181182861328,-2.4227328300476074
1751448488609673000,7.3806728515625,9.842277526855469,-0.45284169912338257,-3.6598222255706787
1751448488628501200,7.399501220703125,9.546764373779297,0.7028916478157043,-4.570291042327881
1751448488647329500,7.41832958984375,10.00857925415039,2.982055187225342,-9.998409271240234
1751448488666157800,7.43715771484375,9.545567512512207,2.9485557079315186,-3.008974552154541
1751448488684986000,7.455986083984375,9.801599502563477,1.8335003852844238,-2.1846470832824707
1751448488703814400,7.474814453125,10.103095054626465,1.017547845840454,-2.3641088008880615
1751448488722642700,7.493642578125,9.70349407196045,0.48394837975502014,-1.9896320104599
1751448488741471200,7.51247119140625,9.81236743927002,0.267397940158844,-2.1846470832824707
1751448488760299500,7.531299560546875,9.496515274047852,0.38703906536102295,-2.447857618331909
1751448488779127800,7.5501279296875,9.393623352050781,0.1333998590707779,-1.9154545068740845
1751448488797956000,7.5689560546875,9.753743171691895,-0.32602208852767944,-1.550549030303955
1751448488816784400,7.587784423828125,9.739386558532715,-0.529412031173706,-1.215553879737854
1751448488835612700,7.60661279296875,9.964311599731445,-0.4420739710330963,-0.9595218896865845
1751448488854441000,7.62544091796875,10.28614616394043,-1.0689935684204102,-0.3888336718082428
1751448488873269200,7.644269287109375,9.44028377532959,-1.174277663230896,-0.16390834748744965
1751448488892097500,7.66309765625,9.6795654296875,-1.4781662225723267,0.04785645380616188
1751448488910925800,7.68192578125,9.701101303100586,-1.4267204999923706,0.2309073805809021
1751448488929754000,7.700754150390625,8.649456024169922,-1.3489537239074707,0.25244277715682983
1751448488948582400,7.71958251953125,10.349555969238281,-1.43389892578125,1.031306505203247
1751448488967410700,7.73841064453125,10.314860343933105,-1.3070793151855469,1.5026925802230835
1751448488986239000,7.757239013671875,9.866206169128418,-0.9349954724311829,1.6606189012527466
1751448489005067300,7.7760673828125,9.954740524291992,-0.6921239495277405,1.765903115272522
1751448489023895600,7.7948955078125,9.807581901550293,-0.5665007829666138,2.287538528442383
1751448489042723800,7.813723876953125,9.89970588684082,-0.4660021960735321,2.5495524406433105
1751448489061552000,7.83255224609375,9.951150894165039,0.004187439568340778,0.6029912829399109
1751448489080380400,7.85138037109375,9.8207426071167,0.04486542567610741,2.4598217010498047
1751448489099208700,7.870208740234375,9.802796363830566,-1.095314621925354,3.704089403152466
1751448489118037000,7.889037109375,9.985847473144531,-2.3814568519592285,3.728017568588257
1751448489136865300,7.907865234375,10.033703804016113,-1.989033818244934,2.8498518466949463
1751448489155693600,7.926693603515625,9.684351921081543,-1.5595221519470215,1.5481562614440918
1751448489174521900,7.94552197265625,9.349356651306152,-2.2845473289489746,1.275374412536621
1751448489193350100,7.96435009765625,9.44746208190918,-3.1818559169769287,1.153340458869934
1751448489212178400,7.983178466796875,10.901102066040039,-3.662813186645508,0.7848458290100098
1751448489231006700,8.0020068359375,10.540982246398926,-2.8767709732055664,-0.48454657196998596
1751448489249835000,8.0208349609375,10.12463092803955,-1.810768485069275,-1.5050854682922363
1751448489268663300,8.039663330078126,9.870991706848145,-0.9696913957595825,-2.0303099155426025
1751448489287491600,8.05849169921875,10.040882110595703,-0.4253242313861847,-2.7122645378112793
1751448489306320000,8.07731982421875,9.841081619262695,0.1824527233839035,-3.1417760848999023
1751448489325148200,8.096148193359374,9.636494636535645,1.0055837631225586,-6.259624004364014
1751448489343976400,8.1149765625,10.112667083740234,2.9114668369293213,-5.42572546005249
1751448489362804700,8.1338046875,9.787242889404297,2.7020950317382812,-4.169493675231934
1751448489381633000,8.152633056640624,9.79681396484375,1.4171491861343384,-1.9202401638031006
1751448489400461600,8.171461669921875,9.854242324829102,0.6191428303718567,-1.9860427379608154
1751448489419289600,8.19028955078125,10.010972023010254,0.5162515044212341,-1.9214365482330322
1751448489438118000,8.209117919921875,9.939187049865723,0.7244270443916321,-1.8221344947814941
1751448489456946200,8.2279462890625,10.374680519104004,0.33439695835113525,-1.6163517236709595
1751448489475774500,8.2467744140625,9.973882675170898,0.23748764395713806,-1.3519448041915894
1751448489494603000,8.26560302734375,10.088738441467285,0.17766708135604858,-1.3232308626174927
1751448489513431300,8.284431396484376,10.03011417388916,0.2267199456691742,-1.3363914489746094
1751448489532259600,8.303259521484375,9.881759643554688,-0.07836493849754333,-1.466800332069397
1751448489551087900,8.322087890625,9.512067794799805,-0.14057832956314087,-1.4344971179962158
1751448489569916000,8.340916015625,10.077970504760742,-0.5509474277496338,-0.9308080077171326
1751448489588744400,8.359744384765625,9.592227935791016,-0.7830511927604675,-0.9439685344696045
1751448489607572700,8.37857275390625,9.861420631408691,-1.0103694200515747,-0.8255237936973572
1751448489626401000,8.397401123046874,8.629117012023926,-1.3357932567596436,-0.8063812255859375
1751448489645229300,8.416229248046875,10.282557487487793,-1.4350954294204712,-0.33499518036842346
1751448489664057600,8.4350576171875,9.510871887207031,-1.2759727239608765,-0.007178467698395252
1751448489682886000,8.453885986328125,10.183255195617676,-1.339382529258728,0.2883351147174835
1751448489701714200,8.472714111328125,9.868598937988281,-1.6432709693908691,0.794417142868042
1751448489720542500,8.49154248046875,10.034899711608887,-1.074975609779358,1.9465612173080444
1751448489739370800,8.510370849609375,9.726225852966309,-1.0187442302703857,1.994417667388916
1751448489758199000,8.529198974609375,10.166504859924316,-1.0271191596984863,2.3186452388763428
1751448489777027300,8.54802734375,9.829116821289062,-0.6909275650978088,2.2612173557281494
1751448489795855600,8.566855712890625,9.897313117980957,-0.3643072545528412,2.0614166259765625
1751448489814684000,8.585683837890626,9.893723487854004,-0.012562318705022335,1.3435698747634888
1751448489833512200,8.60451220703125,9.894919395446777,-0.6514459848403931,1.5433706045150757
1751448489852340500,8.623340576171875,9.903294563293457,-0.5856433510780334,2.9168508052825928
1751448489871168800,8.642168701171874,9.89970588684082,-1.5619150400161743,3.6047873497009277
1751448489889997000,8.6609970703125,9.94397258758545,-2.0165512561798096,3.3990044593811035
1751448489908825300,8.679825439453126,9.5862455368042,-1.8598214387893677,2.630908489227295
1751448489927653600,8.698653564453124,10.234700202941895,-2.1888344287872314,1.8783657550811768
1751448489946482000,8.71748193359375,10.75394344329834,-2.7798616886138916,1.332802176475525
1751448489965310200,8.736310302734376,10.668997764587402,-2.743969440460205,0.5419743061065674
1751448489984138500,8.755138427734375,10.762317657470703,-2.9485557079315186,0.2069791555404663
1751448490002966800,8.773966796875,9.551549911499023,-2.7667012214660645,-0.2883351147174835
1751448490021795000,8.792795166015624,9.795618057250977,-2.215155601501465,-1.4225330352783203
1751448490040623400,8.811623291015625,9.885348320007324,-1.1718848943710327,-2.6847469806671143
1751448490059451600,8.83045166015625,10.65105152130127,-0.22552353143692017,-3.8213376998901367
1751448490078280000,8.849280029296875,8.871988296508789,0.8943174481391907,-4.657629489898682
1751448490097108200,8.868108154296875,9.70229721069336,1.7078771591186523,-6.843472957611084
1751448490115936500,8.8869365234375,9.786046028137207,2.9078776836395264,-6.479763507843018
1751448490134764500,8.9057646484375,9.92124080657959,1.2855439186096191,-2.0231316089630127
1751448490153592800,8.9245927734375,10.027721405029297,1.771286964416504,-1.8532410860061646
1751448490172421000,8.943421142578124,9.78963565826416,1.1443674564361572,-2.108076810836792
1751448490191249400,8.96224951171875,9.758528709411621,0.2470589429140091,-2.0159530639648438
1751448490210077700,8.98107763671875,9.729815483093262,0.5712863802909851,-2.7589244842529297
1751448490228906000,8.999906005859375,9.760921478271484,0.6059823632240295,-2.7361927032470703
1751448490247734500,9.018734619140625,10.116255760192871,0.06281159073114395,-2.376072883605957
1751448490266562800,9.037562744140626,9.993025779724121,-0.8943174481391907,-1.8352949619293213
1751448490285390800,9.056390869140625,10.227521896362305,-0.3523431420326233,-1.1210373640060425
1751448490304219100,9.07521923828125,10.020543098449707,0.09152546525001526,-1.306481122970581
1751448490323047400,9.09404736328125,9.573084831237793,-0.8201399445533752,-1.3268201351165771
1751448490341875700,9.112875732421875,10.272985458374023,-1.7341982126235962,-0.550349235534668
1751448490360704000,9.1317041015625,10.158130645751953,-1.9579271078109741,-0.1782652884721756
1751448490379532300,9.1505322265625,9.995418548583984,-1.576271891593933,-0.12442677468061447
1751448490398360600,9.169360595703125,9.902098655700684,-2.1122641563415527,0.33379876613616943
1751448490417188900,9.18818896484375,10.223933219909668,-2.1984057426452637,1.1318050622940063
1751448490436017200,9.20701708984375,10.330413818359375,-1.5547364950180054,1.6474584341049194
1751448490454845400,9.225845458984375,9.78126049041748,-0.6705885529518127,2.043470621109009
1751448490473673700,9.244673828125,9.799206733703613,-0.6167500615119934,1.8699909448623657
1751448490492502000,9.263501953125,9.933204650878906,-0.6215356588363647,1.9848463535308838
1751448490511330300,9.282330322265626,9.897313117980957,-0.9720842242240906,2.0518453121185303
1751448490530158600,9.30115869140625,9.865009307861328,-1.6121642589569092,2.4574289321899414
1751448490548987000,9.31998681640625,9.942776679992676,-0.005383851006627083,0.19381862878799438
1751448490567815200,9.338815185546874,9.89013385772705,-0.8823533654212952,1.7288143634796143
1751448490586643500,9.3576435546875,9.795618057250977,-1.0917253494262695,3.080759048461914
1751448490605471700,9.3764716796875,9.793225288391113,-1.4123635292053223,3.4504501819610596
1751448490624300000,9.395300048828124,9.995418548583984,-1.689931035041809,3.1070802211761475
1751448490643128300,9.41412841796875,10.65224838256836,-2.053640127182007,2.0985054969787598
1751448490661956600,9.43295654296875,9.519247055053711,-2.3407788276672363,1.5637096166610718
1751448490680785000,9.451784912109375,10.130613327026367,-2.9042885303497314,1.301695466041565
1751448490699613200,9.47061328125,10.17727279663086,-3.202194929122925,1.0432707071304321
1751448490718441500,9.48944140625,9.647262573242188,-2.5848467350006104,0.1902294009923935
1751448490737269800,9.508269775390625,9.969097137451172,-1.9854445457458496,-0.4486542344093323
1751448490756098000,9.52709814453125,9.753743171691895,-1.5212370157241821,-1.633101463317871
1751448490774926300,9.54592626953125,9.763314247131348,-0.5784648656845093,-2.9934210777282715
1751448490793754600,9.564754638671875,9.297910690307617,0.1585244983434677,-4.018745422363281
1751448490812583000,9.5835830078125,9.309874534606934,1.7700905799865723,-5.280959606170654
1751448490831411200,9.6024111328125,9.888937950134277,3.026322364807129,-6.233303070068359
1751448490850239500,9.621239501953125,9.910472869873047,2.2582263946533203,-5.31685209274292
1751448490869067500,9.640067626953124,9.934401512145996,0.13100704550743103,-2.173879384994507
1751448490887895800,9.658895751953125,9.92961597442627,0.48873403668403625,-1.1665010452270508
1751448490906724000,9.67772412109375,9.957133293151855,0.9278169870376587,-1.6857435703277588
1751448490925552400,9.696552490234374,9.829116821289062,0.8333004713058472,-2.1020946502685547
1751448490944380700,9.715380615234375,10.05404281616211,0.8979067206382751,-2.1930220127105713
1751448490963209000,9.734208984375,10.244272232055664,0.3810569941997528,-2.1439690589904785
1751448490982037200,9.753037353515625,10.378270149230957,0.08673982322216034,-2.2301106452941895
1751448491000865500,9.771865478515625,9.794421195983887,-0.17288143932819366,-2.056631088256836
1751448491019693800,9.79069384765625,10.17846965789795,-0.053240302950143814,-1.9286150932312012
1751448491038522000,9.809522216796875,10.153345108032227,-0.2805584669113159,-1.3088740110397339
1751448491057350400,9.828350341796876,10.253843307495117,-1.1084750890731812,-0.7657032608985901
1751448491076178700,9.8471787109375,10.099506378173828,-1.755733609199524,-0.42352959513664246
1751448491095007000,9.866007080078125,9.77408218383789,-1.4111671447753906,-0.31465616822242737
1751448491113835300,9.884835205078126,10.27178955078125,-1.1228320598602295,0.31824541091918945
1751448491132663600,9.90366357421875,9.329017639160156,-1.4327025413513184,0.5228317379951477
1751448491151491800,9.922491943359375,9.466604232788086,-1.587039589881897,0.9798609018325806
1751448491170320100,9.941320068359374,9.470193862915039,-0.828514814376831,2.042274236679077
1751448491189148200,9.960148193359375,9.147162437438965,-1.2903295755386353,2.3090739250183105
1751448491207976400,9.9789765625,10.121041297912598,-0.7615157961845398,2.544766902923584
1751448491226804700,9.9978046875,9.777671813964844,-0.6993024349212646,1.9968105554580688
1751448491245633000,10.016633056640625,9.88415241241455,-0.8045865893363953,1.6941183805465698
1751448491264461300,10.03546142578125,9.926026344299316,-0.8189435601234436,1.5876377820968628
1751448491283289600,10.05428955078125,9.90568733215332,0.2231307178735733,-0.02273181453347206
1751448491302118000,10.073117919921875,9.920044898986816,0.07597211748361588,0.06819544732570648
1751448491320946200,10.0919462890625,9.910472869873047,-0.8201399445533752,2.014756679534912
1751448491339774500,10.1107744140625,9.847063064575195,-0.5784648656845093,3.0795626640319824
1751448491358602800,10.129602783203126,9.851848602294922,-1.705484390258789,4.086941242218018
1751448491377431000,10.14843115234375,9.910472869873047,-1.9016958475112915,3.487539052963257
1751448491396259300,10.16725927734375,9.934401512145996,-2.331207513809204,2.688336133956909
1751448491415087600,10.186087646484374,9.81356430053711,-2.12542462348938,1.7778671979904175
1751448491433915600,10.20491552734375,10.299306869506836,-2.3132612705230713,1.160519003868103
1751448491452744000,10.223743896484375,10.180862426757812,-2.4843480587005615,0.3768695592880249
1751448491471572200,10.242572265625,11.196615219116211,-2.4568307399749756,-0.6819544434547424
1751448491490400500,10.261400390625,9.355338096618652,-2.0141584873199463,-1.1198409795761108
1751448491509228800,10.280228759765626,10.225129127502441,-1.2388839721679688,-1.8687944412231445
1751448491528057000,10.29905712890625,10.29452133178711,-0.3678964674472809,-2.651247501373291
1751448491546885400,10.317885498046875,9.631709098815918,0.6095715761184692,-3.0113673210144043
1751448491565713700,10.336713623046874,10.591231346130371,1.155135154724121,-3.5377883911132812
1751448491584542000,10.3555419921875,10.089935302734375,1.8586249351501465,-4.037888050079346
1751448491603370200,10.374370361328126,10.117452621459961,1.571486234664917,-8.676374435424805
1751448491622198500,10.393198486328124,10.317253112792969,0.48394837975502014,-2.3461625576019287
1751448491641026800,10.41202685546875,9.610174179077148,0.5784648656845093,-1.4273186922073364
1751448491659855000,10.430855224609376,10.296914100646973,0.1621137410402298,-1.643869161605835
1751448491678683100,10.44968310546875,8.994022369384766,-0.048454657196998596,-1.612762451171875
1751448491697511400,10.468511474609375,9.17587661743164,0.1621137410402298,-2.1200408935546875
1751448491716339700,10.487339599609374,10.342377662658691,0.10229317098855972,-1.6259230375289917
1751448491735168000,10.50616796875,9.619745254516602,0.1908276081085205,-1.2789636850357056
1751448491753996300,10.524996337890625,9.356534957885742,0.14416755735874176,-1.0887342691421509
1751448491772824600,10.543824462890624,9.675976753234863,0.14775680005550385,-1.3639088869094849
1751448491791652900,10.56265283203125,9.977472305297852,-0.06759724020957947,-1.6821542978286743
1751448491810481200,10.581481201171876,10.119845390319824,-0.4588237404823303,-1.2335001230239868
1751448491829309400,10.600309326171875,9.739386558532715,-0.3355933725833893,-0.6376872062683105
1751448491848137500,10.619137451171875,9.525228500366211,-0.39062830805778503,-0.623330295085907
1751448491866965800,10.6379658203125,9.70229721069336,0.11425728350877762,-0.7752745151519775
1751448491885794000,10.6567939453125,10.062417030334473,-0.47557350993156433,0.26560330390930176
1751448491904622300,10.675622314453125,9.53360366821289,-1.186241865158081,0.7345965504646301
1751448491923450600,10.69445068359375,9.744172096252441,-1.5379867553710938,1.5625132322311401
1751448491942279000,10.71327880859375,9.897313117980957,-1.059422254562378,1.4249259233474731
1751448491961107200,10.732107177734376,10.350752830505371,-0.8249256014823914,1.2634103298187256
1751448491979935500,10.750935546875,10.438090324401855,-1.1934202909469604,1.6666009426116943
1751448491998763800,10.769763671875,9.824331283569336,-1.1168500185012817,2.021935224533081
1751448492017591800,10.788591796875,9.845867156982422,-0.6897311210632324,2.289931297302246
1751448492036420000,10.807420166015625,9.8207426071167,-0.664606511592865,2.0027925968170166
1751448492055248400,10.826248291015625,9.887741088867188,0.03290131315588951,0.4941178858280182
1751448492074076700,10.84507666015625,9.902098655700684,-0.3044866919517517,0.9906286001205444
1751448492092905000,10.863905029296875,9.955936431884766,-1.2831511497497559,2.5052852630615234
1751448492111733200,10.882733154296876,9.868598937988281,-1.6983058452606201,3.0891339778900146
1751448492130561500,10.9015615234375,9.68913745880127,-1.332203984260559,2.968296527862549
1751448492149389800,10.920389892578125,9.378069877624512,-1.5212370157241821,2.504088878631592
1751448492168218000,10.939218017578124,9.150752067565918,-1.6109678745269775,1.9106688499450684
1751448492187046100,10.958046142578125,10.069596290588379,-1.536790370941162,1.5230315923690796
1751448492205874400,10.97687451171875,10.202397346496582,-1.7569299936294556,0.7992027401924133
1751448492224702700,10.99570263671875,10.88554859161377,-1.8335003852844238,0.33499518036842346
1751448492243531000,11.014531005859375,10.514660835266113,-1.72941255569458,-0.4007977843284607
1751448492262359300,11.033359375,10.936994552612305,-1.4733805656433105,-0.9882357716560364
1751448492281187600,11.0521875,9.949954986572266,-0.7639086246490479,-1.5649060010910034
1751448492300015900,11.071015869140625,10.549356460571289,-0.4695914387702942,-2.1308085918426514
1751448492318844200,11.08984423828125,10.339984893798828,0.39182472229003906,-3.0759735107421875
1751448492347086300,11.11808642578125,9.684351921081543,1.5260226726531982,-3.9361932277679443
1751448492365914600,11.13691455078125,9.991828918457031,1.2352946996688843,-3.638286828994751
1751448492384743000,11.155742919921876,9.799206733703613,1.4374881982803345,-3.7567315101623535
1751448492403571200,11.1745712890625,9.717850685119629,1.4171491861343384,-1.5852450132369995
1751448492422399500,11.1933994140625,10.39621639251709,1.3334003686904907,-2.2360928058624268
1751448492441227500,11.2122275390625,10.03131103515625,0.5712863802909851,-2.1092731952667236
1751448492460055800,11.231055908203125,10.064809799194336,0.16450655460357666,-2.1056840419769287
1751448492478884000,11.249884033203125,9.838688850402832,0.3966103494167328,-1.9058831930160522
1751448492497712400,11.26871240234375,9.955936431884766,0.4492524564266205,-1.7874385118484497
1751448492516540700,11.287540771484375,10.183255195617676,0.16331014037132263,-1.1222338676452637
1751448492535369000,11.306368896484376,10.349555969238281,-0.3128615617752075,-0.6556333899497986
1751448492554197200,11.325197265625,9.275178909301758,-0.373878538608551,-0.6221339106559753
1751448492573025300,11.344025390625,9.960722923278809,0.047258246690034866,-0.2799602448940277
1751448492591853600,11.362853515625,9.81236743927002,0.012562318705022335,-0.5718846321105957
1751448492610681900,11.381681884765625,9.918848037719727,-0.006580262444913387,-0.6616154313087463
1751448492629510100,11.40051025390625,10.077970504760742,-0.3690928816795349,-0.19262222945690155
1751448492648338400,11.41933837890625,10.0073823928833,-0.9302098155021667,-0.13280165195465088
1751448492667166700,11.438166748046875,10.036096572875977,-0.735194742679596,0.02751746028661728
1751448492685995000,11.4569951171875,10.514660835266113,-0.7543373107910156,0.20338992774486542
1751448492704823000,11.475822998046874,9.844670295715332,-0.8500502705574036,0.711864709854126
1751448492723651300,11.4946513671875,9.875777244567871,-1.1958130598068237,1.1186445951461792
1751448492742479600,11.513479736328126,9.984650611877441,-0.7423732280731201,1.1856436729431152
1751448492761308000,11.532307861328125,9.765707015991211,0.41575294733047485,0.6580262184143066
1751448492780136200,11.55113623046875,9.997811317443848,-0.22073788940906525,0.5958128571510315
1751448492798964500,11.569964599609374,9.843474388122559,-0.4612165689468384,1.0408778190612793
1751448492817792500,11.58879248046875,9.869794845581055,-0.8333004713058472,1.3818551301956177
1751448492836620800,11.607620849609376,9.926026344299316,-1.5702898502349854,1.9286150932312012
1751448492855449000,11.626448974609374,9.903294563293457,-0.022133609279990196,0.519242525100708
1751448492874277400,11.64527734375,9.908080101013184,-0.1704886108636856,1.0205388069152832
1751448492893105700,11.664105712890626,9.916455268859863,-0.4588237404823303,2.486142635345459
1751448492911934000,11.682933837890625,9.823135375976562,-0.2925225794315338,2.781656265258789
1751448492930762000,11.701761962890625,10.091131210327148,-1.0307083129882812,2.7696921825408936
1751448492949590300,11.72059033203125,10.180862426757812,-1.6995022296905518,2.733799934387207
1751448492968418600,11.73941845703125,9.616155624389648,-2.2713868618011475,2.366501569747925
1751448492987246800,11.758246826171876,10.371091842651367,-2.0404794216156006,1.456032633781433
1751448493006075100,11.7770751953125,10.17727279663086,-1.810768485069275,0.9511470198631287
1751448493024903200,11.795903076171875,9.990633010864258,-1.7700905799865723,0.45583271980285645
1751448493043731500,11.8147314453125,9.638887405395508,-1.851446509361267,-0.41994038224220276
1751448493062559700,11.833559814453125,10.874780654907227,-1.638485312461853,-1.4117653369903564
1751448493081388000,11.852387939453125,9.128020286560059,-0.9337990283966064,-2.1714866161346436
1751448493100216300,11.87121630859375,10.141380310058594,-0.3044866919517517,-2.513660192489624
1751448493119044400,11.89004443359375,9.684351921081543,0.37028929591178894,-2.638087034225464
1751448493137872600,11.90887255859375,9.771689414978027,1.2448660135269165,-2.9048867225646973
1751448493156701000,11.927700927734374,9.983454704284668,1.9399809837341309,-3.8596229553222656
1751448493175529200,11.946529296875,9.857831001281738,2.0512471199035645,-4.444668292999268
1751448493194357500,11.965357421875,10.003793716430664,0.8213363885879517,-2.342573404312134
1751448493213185500,11.984185546875,9.829116821289062,0.9912267923355103,-1.95852530002594
1751448493232013800,12.003013916015625,9.958329200744629,0.7986045479774475,-2.2791635990142822
1751448493250842000,12.021842041015624,9.979865074157715,0.41216370463371277,-2.612962245941162
1751448493269670400,12.04067041015625,9.78963565826416,0.7890332937240601,-2.431107759475708
1751448493288498700,12.059498779296876,9.870991706848145,0.18125630915164948,-2.2851455211639404
1751448493307326700,12.07832666015625,10.049257278442383,0.36311084032058716,-1.7527425289154053
1751448493326155000,12.097155029296875,10.028918266296387,0.542572557926178,-1.6247265338897705
1751448493344983300,12.1159833984375,10.094720840454102,0.11186445504426956,-1.7730815410614014
1751448493363811600,12.1348115234375,10.180862426757812,-0.0364905446767807,-1.6342978477478027
1751448493382639900,12.153639892578125,9.583852767944336,-0.4372883439064026,-1.5050854682922363
1751448493401468000,12.172468017578124,10.26341438293457,-0.906281590461731,-0.9810572862625122
1751448493420296200,12.191296142578125,10.228718757629395,-1.4135600328445435,-0.27397820353507996
1751448493439124500,12.21012451171875,10.276575088500977,-2.228316068649292,0.24885354936122894
1751448493457952800,12.228952880859374,10.167701721191406,-1.9579271078109741,1.210768222808838
1751448493476780800,12.24778076171875,10.109077453613281,-2.2677977085113525,1.4009976387023926
1751448493495609000,12.266609130859376,10.374680519104004,-1.1156535148620605,1.8448662757873535
1751448493514437400,12.285437255859375,9.89970588684082,-1.1072787046432495,2.14516544342041
1751448493533265700,12.304265625,9.801599502563477,-1.0689935684204102,2.2911276817321777
1751448493552094000,12.323093994140624,9.954740524291992,-0.8871390223503113,2.4646072387695312
1751448493570922000,12.341921875,9.975079536437988,-0.9984052777290344,2.3569302558898926
1751448493589750300,12.360750244140625,9.942776679992676,-0.3188436031341553,1.1665010452270508
1751448493608578600,12.37957861328125,9.978668212890625,0.12263216078281403,-0.010767702013254166
1751448493627406800,12.39840673828125,9.897313117980957,-0.37028929591178894,1.368694543838501
1751448493646235000,12.41723486328125,9.926026344299316,-0.45284169912338257,1.848455548286438
1751448493665063200,12.436063232421875,9.874580383300781,-1.0845468044281006,2.5459632873535156
1751448493683891500,12.454891357421875,9.88415241241455,-1.571486234664917,2.8941190242767334
1751448493702719700,12.4737197265625,9.835099220275879,-1.9112670421600342,2.933600664138794
1751448493721547800,12.4925478515625,9.958329200744629,-1.3692927360534668,2.3401806354522705
1751448493740376000,12.5113759765625,9.751350402832031,-1.4781662225723267,1.919043779373169
1751448493759204400,12.530204345703124,10.341180801391602,-1.8370895385742188,1.301695466041565
1751448493778032600,12.54903271484375,9.413962364196777,-2.132603168487549,0.9690931439399719
1751448493796860700,12.567860595703126,9.78126049041748,-2.2570300102233887,0.3433700501918793
1751448493815689000,12.58668896484375,9.984650611877441,-1.8346967697143555,-0.836291491985321
1751448493834517200,12.605517333984375,11.10209846496582,-1.1563315391540527,-1.690529227256775
1751448493853345500,12.624345458984376,10.39621639251709,-0.3284149169921875,-2.225325107574463
1751448493872173600,12.643173583984375,9.93679428100586,0.18005990982055664,-2.249253273010254
1751448493891001900,12.662001953125,10.057631492614746,0.4827519655227661,-2.486142635345459
1751448493909830100,12.680830078125,9.756135940551758,0.4336991012096405,-3.098705291748047
1751448493928658400,12.699658447265625,9.210572242736816,1.0917253494262695,-3.8057844638824463
1751448493947486500,12.718486572265626,10.076774597167969,1.2436695098876953,-8.62014389038086
1751448493966314800,12.737314697265624,9.90688419342041,0.6849454641342163,-1.5960127115249634
1751448493985143000,12.75614306640625,9.937990188598633,0.8787640929222107,-0.5826523303985596
1751448494003971300,12.774971435546876,9.92243766784668,0.8129615187644958,-1.1377872228622437
1751448494022799400,12.79379931640625,9.893723487854004,0.6705885529518127,-1.6701902151107788
1751448494041627600,12.812627685546875,9.9140625,0.5461617708206177,-1.9800606966018677
1751448494060456000,12.8314560546875,9.512067794799805,0.45164528489112854,-2.520838737487793
1751448494079284200,12.8502841796875,10.307682037353516,0.8105686902999878,-3.056830883026123
1751448494098112300,12.8691123046875,9.65803050994873,0.5246263742446899,-2.9802606105804443
1751448494116940500,12.8879404296875,9.697511672973633,0.10588239878416061,-2.183450698852539
1751448494135768800,12.906768798828125,9.783653259277344,-0.15613168478012085,-1.8532410860061646
1751448494154596900,12.925596923828126,10.069596290588379,-0.3451646566390991,-1.643869161605835
1751448494173425200,12.944425048828125,9.357730865478516,-0.8141579031944275,-1.1856436729431152
1751448494192253400,12.96325341796875,9.157930374145508,-1.4518451690673828,-0.589830756187439
1751448494211081500,12.98208154296875,10.222736358642578,-1.9770697355270386,0.20937198400497437
1751448494229909800,13.00090966796875,9.740582466125488,-1.8167506456375122,0.8877372145652771
1751448494248738000,13.019738037109375,10.381858825683594,-1.8251254558563232,1.8185452222824097
1751448494267566300,13.03856640625,9.704689979553223,-1.7258232831954956,2.139183521270752
1751448494286394400,13.057394287109375,9.318249702453613,-1.5427724123001099,2.108076810836792
1751448494305222700,13.07622265625,10.074381828308105,-0.9565308690071106,2.087737798690796
1751448494324051000,13.095051025390624,9.927223205566406,-1.0079765319824219,2.4430718421936035
1751448494342879000,13.11387890625,9.799206733703613,-0.5102694034576416,2.166700839996338
1751448494361707300,13.132707275390626,9.868598937988281,-0.39421752095222473,2.5806591510772705
1751448494380535600,13.15153564453125,9.926026344299316,-0.1010967567563057,0.5395814776420593
1751448494399363800,13.17036376953125,9.92124080657959,-0.9385846853256226,1.872383713722229
1751448494418192000,13.18919189453125,9.874580383300781,-1.3657035827636719,2.726621389389038
1751448494437020200,13.208020263671875,10.03729248046875,-1.740180253982544,3.102294445037842
1751448494455848400,13.226848388671876,9.972686767578125,-1.6277176141738892,3.1034910678863525
1751448494474676500,13.245676513671874,9.926026344299316,-1.7796618938446045,3.032902717590332
1751448494493504800,13.2645048828125,10.067203521728516,-1.677966833114624,2.1511476039886475
1751448494521747000,13.292746826171875,9.80399227142334,-1.7593228816986084,0.8039883971214294
1751448494540575200,13.3115751953125,9.028717994689941,-1.7377874851226807,0.003589233849197626
1751448494559403500,13.330403564453125,10.962119102478027,-1.5176477432250977,-1.046859860420227
1751448494578231800,13.349231689453125,10.13180923461914,-1.1312068700790405,-1.4344971179962158
1751448494597059800,13.368059814453124,10.276575088500977,-0.7076773047447205,-1.6426727771759033
1751448494615888100,13.38688818359375,10.269396781921387,-0.7328019142150879,-2.3808584213256836
1751448494634716400,13.40571630859375,9.975079536437988,-0.4743770956993103,-2.7936203479766846
1751448494653544400,13.42454443359375,9.601799011230469,0.12143574655056,-2.9491539001464844
1751448494672372700,13.443372802734375,10.234700202941895,1.2616157531738281,-3.6466617584228516
1751448494691201000,13.462200927734376,9.754940032958984,2.1278176307678223,-4.078566074371338
1751448494710029000,13.481029052734375,10.13898754119873,1.9543378353118896,-6.291927337646484
1751448494728857300,13.499857421875,10.033703804016113,1.0977073907852173,-1.750349760055542
1751448494747685600,13.518685546875,9.892526626586914,0.9170492887496948,-2.11405873298645
1751448494766513700,13.537513671875,9.823135375976562,0.802193820476532,-2.586641311645508
1751448494785342000,13.556342041015625,10.01456069946289,0.4145565330982208,-2.4047868251800537
1751448494804170200,13.575170166015624,10.873584747314453,0.34636107087135315,-2.5423741340637207
1751448494822998300,13.593998291015625,10.409377098083496,0.27337998151779175,-2.227717876434326
1751448494841826600,13.61282666015625,9.987043380737305,0.34995031356811523,-2.358126640319824
1751448494860654800,13.63165478515625,9.435498237609863,-0.06759724020957947,-2.179861545562744
1751448494879483000,13.65048291015625,8.967700958251953,-0.03409772366285324,-1.7670994997024536
1751448494898311200,13.669311279296876,9.484550476074219,-0.3068794906139374,-1.2275179624557495
1751448494917139500,13.688139404296875,9.715457916259766,-0.7459624409675598,-0.8267202377319336
1751448494935967500,13.706967529296875,9.685547828674316,-1.2747762203216553,-0.47258245944976807
1751448494954795800,13.725795654296874,9.598209381103516,-1.4039887189865112,0.5300102233886719
1751448494973624000,13.7446240234375,9.545567512512207,-1.677966833114624,1.5122638940811157
1751448494992452000,13.7634521484375,9.80399227142334,-1.6157535314559937,1.9968105554580688
1751448495011280400,13.7822802734375,9.544371604919434,-1.7234305143356323,2.187039852142334
1751448495030108700,13.801108642578125,9.838688850402832,-1.4578272104263306,2.379662036895752
1751448495048936700,13.819936767578126,9.845867156982422,-1.4195420742034912,2.3186452388763428
1751448495067765000,13.838764892578125,9.832706451416016,-1.2592228651046753,2.3306093215942383
1751448495086593300,13.85759326171875,10.009775161743164,-0.722034215927124,2.0817556381225586
1751448495105421300,13.87642138671875,9.869794845581055,-0.3655036687850952,1.8221344947814941
1751448495124249600,13.89524951171875,9.947562217712402,0.22791635990142822,0.4223332107067108
1751448495143077600,13.91407763671875,9.909276962280273,-0.24586252868175507,1.8759729862213135
1751448495161906000,13.932906005859374,9.893723487854004,-1.0019944906234741,2.7601208686828613
1751448495180734200,13.951734130859375,9.930811882019043,-1.0773683786392212,2.964707374572754
1751448495199562200,13.970562255859376,10.134202003479004,-1.4889339208602905,2.757728099822998
1751448495218390500,13.989390625,10.003793716430664,-1.9160526990890503,2.5806591510772705
1751448495237218600,14.008218505859375,9.525228500366211,-1.3824533224105835,2.0195422172546387
1751448495256046800,14.027046875,9.79083251953125,-1.1694921255111694,1.191625714302063
1751448495274875100,14.045875244140625,10.245468139648438,-1.181456208229065,0.5108676552772522
1751448495293703200,14.064703125,10.423733711242676,-1.1335997581481934,0.037088751792907715
1751448495312531500,14.083531494140624,9.524032592773438,-1.1922239065170288,-0.2955136001110077
1751448495331359700,14.10235986328125,10.16171932220459,-0.9888339638710022,-0.7645068168640137
1751448495350187800,14.121187744140625,10.02413272857666,-0.6502495408058167,-1.3004990816116333
1751448495369016000,14.14001611328125,9.741779327392578,-0.12622138857841492,-1.7730815410614014
1751448495387844400,14.15884423828125,9.54078197479248,0.582054078578949,-2.6596224308013916
1751448495406672400,14.17767236328125,9.769296646118164,1.0307083129882812,-3.6681971549987793
1751448495425500700,14.196500732421875,9.926026344299316,0.8141579031944275,-4.126422882080078
1751448495444328700,14.21532861328125,9.329017639160156,0.4612165689468384,-3.5928232669830322
1751448495463157000,14.234156982421876,10.05284595489502,-0.0364905446767807,-2.6213371753692627
1751448495481985300,14.2529853515625,9.909276962280273,0.14057832956314087,0.0011964113218709826
1751448495500813300,14.271813232421875,9.888937950134277,0.45523449778556824,-0.16271193325519562
1751448495519641600,14.2906416015625,9.917651176452637,1.2819547653198242,-1.9776679277420044
1751448495538469600,14.3094697265625,9.876974105834961,1.5726827383041382,-2.9419753551483154
1751448495557298000,14.3282978515625,9.859027862548828,0.6514459848403931,-3.1166515350341797
1751448495576126200,14.347126220703124,10.453643798828125,-0.2027917206287384,-2.586641311645508
1751448495594954200,14.365954345703125,9.869794845581055,-0.1908276081085205,-2.183450698852539
1751448495613782500,14.384782470703126,10.202397346496582,0.03409772366285324,-1.9142581224441528
1751448495632610600,14.403610595703125,9.92841911315918,-0.1010967567563057,-1.679761528968811
1751448495651438800,14.42243896484375,10.001399993896484,-0.37866419553756714,-0.98703932762146
1751448495670267100,14.44126708984375,10.464411735534668,-1.0869396924972534,-0.34695929288864136
1751448495689095200,14.46009521484375,10.491929054260254,-0.6825526356697083,0.08135596662759781
1751448495707923500,14.47892333984375,9.719047546386719,-1.0510473251342773,0.1052841991186142
1751448495726751500,14.49775146484375,9.923633575439453,-0.9732806086540222,1.0157532691955566
1751448495745579800,14.516579833984375,9.862616539001465,-1.0462616682052612,1.892722725868225
1751448495764408000,14.535407958984376,10.099506378173828,-1.2652050256729126,2.3641088008880615
1751448495783236000,14.554236083984375,10.06002426147461,-1.4578272104263306,2.988635540008545
1751448495802064400,14.573064453125,10.074381828308105,-1.469791293144226,3.6849467754364014
1751448495820892400,14.591892333984376,9.879366874694824,-0.6083751320838928,3.091526746749878
1751448495839720700,14.610720703125,10.25503921508789,-0.030508488416671753,1.7647067308425903
1751448495858548700,14.629548828125,10.009775161743164,-0.43609192967414856,2.289931297302246
1751448495877377000,14.648376953125,10.027721405029297,-1.0713863372802734,2.682354211807251
1751448495896205300,14.667205322265625,9.92124080657959,-1.6049858331680298,2.840280532836914
1751448495915033300,14.686033447265626,9.879366874694824,-1.9172492027282715,2.3605196475982666
1751448495933861600,14.704861572265624,9.951150894165039,-2.09431791305542,1.659422516822815
1751448495952689700,14.723689697265625,9.844670295715332,-2.1397817134857178,0.9810572862625122
1751448495971518000,14.74251806640625,10.75394344329834,-1.8693926334381104,0.3840480446815491
1751448495990346200,14.76134619140625,10.41894817352295,-1.576271891593933,0.014356935396790504
1751448496009174300,14.78017431640625,10.909476280212402,-0.9469595551490784,-0.9332008361816406
1751448496028002600,14.79900244140625,10.283753395080566,-0.5533402562141418,-1.470389485359192
1751448496046830600,14.81783056640625,10.381858825683594,0.24586252868175507,-2.2600209712982178
1751448496065659000,14.836658935546875,10.563714027404785,0.7076773047447205,-2.5112674236297607
1751448496084487000,14.85548681640625,8.535796165466309,0.7674978375434875,-2.5531418323516846
1751448496103315200,14.874315185546875,9.491728782653809,0.8548358678817749,-4.685146808624268
1751448496122143200,14.893143310546876,10.227521896362305,1.7665013074874878,-6.8554368019104
1751448496140971500,14.911971435546874,9.924830436706543,0.6382854580879211,-1.1976077556610107
1751448496159799600,14.930799560546875,10.122238159179688,0.6562315821647644,-1.3076776266098022
1751448496178627800,14.9496279296875,9.953543663024902,0.4456632137298584,-0.6125625967979431
1751448496197456100,14.9684560546875,9.964311599731445,0.7627122402191162,-1.3208380937576294
1751448496216284200,14.9872841796875,9.867402076721191,0.8488538265228271,-2.029113531112671
1751448496235112400,15.006112548828124,9.844670295715332,0.737587571144104,-2.1607189178466797
1751448496253940500,15.0249404296875,9.355338096618652,0.6658028960227966,-2.1547367572784424
1751448496272768800,15.043768798828125,9.92841911315918,0.3535395562648773,-1.7324036359786987
1751448496291596800,15.0625966796875,9.923633575439453,0.13100704550743103,-1.5840486288070679
1751448496310425000,15.081425048828125,9.143573760986328,-0.12741780281066895,-1.604387640953064
1751448496329253000,15.100253173828126,8.996415138244629,-0.8273184299468994,-1.1114661693572998
1751448496348081400,15.119081298828124,9.44626522064209,-0.7543373107910156,-0.380458801984787
1751448496366909400,15.137909423828125,10.2418794631958,-0.8608179688453674,0.035892341285943985
1751448496385737700,15.15673779296875,10.012167930603027,-1.1694921255111694,0.259621262550354
1751448496404565800,15.175565673828125,10.448858261108398,-1.7018951177597046,0.7082754969596863
1751448496423394000,15.19439404296875,9.863813400268555,-1.7330018281936646,1.0444670915603638
1751448496442222300,15.213222412109374,9.784850120544434,-1.308275818824768,1.7012969255447388
1751448496461050400,15.23205029296875,10.055238723754883,-0.4588237404823303,1.5337992906570435
1751448496479878700,15.250878662109375,10.354341506958008,-0.018544375896453857,1.542174220085144
1751448496498706700,15.269706787109374,9.904491424560547,-0.04007977992296219,1.4416756629943848
1751448496517535000,15.288534912109375,9.675976753234863,0.15493527054786682,1.664208173751831
1751448496536363000,15.307363037109376,10.028918266296387,0.07238288223743439,1.8293129205703735
1751448496555191300,15.32619140625,9.911669731140137,-0.047258246690034866,1.7096717357635498
1751448496574019300,15.345019287109375,9.892526626586914,0.4336991012096405,0.48095735907554626
1751448496592847600,15.36384765625,10.063613891601562,0.9026923179626465,0.7250252366065979
1751448496611675600,15.382675537109375,10.026525497436523,1.1874382495880127,1.2047861814498901
1751448496630504000,15.40150390625,9.501300811767578,0.9218349456787109,1.0911271572113037
1751448496649332000,15.42033203125,10.235897064208984,0.5306084156036377,1.098305583000183
1751448496668160300,15.43916015625,9.349356651306152,-1.165902853012085,0.6652047038078308
1751448496686988300,15.45798828125,10.082756042480469,-0.6095715761184692,1.404586911201477
1751448496705816600,15.476816650390624,9.762118339538574,-0.8632107973098755,2.2444677352905273
1751448496724644600,15.49564453125,10.012167930603027,-1.555932879447937,2.1032910346984863
1751448496743473000,15.514472900390626,9.7669038772583,-1.9076778888702393,2.1439690589904785
1751448496762301000,15.533301025390625,10.03131103515625,-1.965105652809143,2.00518536567688
1751448496781129200,15.552129150390625,10.596016883850098,-2.1613171100616455,0.8039883971214294
1751448496799957200,15.570957275390626,10.292128562927246,-2.1373889446258545,-0.7130611538887024
1751448496818785500,15.58978564453125,10.122238159179688,-1.843071699142456,-1.1904292106628418
1751448496837613600,15.608613525390625,10.12463092803955,-1.3824533224105835,-1.207179069519043
1751448496856441900,15.62744189453125,9.975079536437988,-0.9361918568611145,-1.1856436729431152
1751448496875270000,15.646269775390625,9.845867156982422,0.07477571070194244,-1.9250258207321167
1751448496894098200,15.66509814453125,9.93679428100586,1.334596872329712,-2.8283164501190186
1751448496912926200,15.68392626953125,10.016953468322754,2.1816561222076416,-3.6131622791290283
1751448496931754500,15.70275439453125,9.794421195983887,1.908874273300171,-3.730410575866699
1751448496950582500,15.72158251953125,10.033703804016113,0.9110672473907471,-2.5734808444976807
1751448496969410800,15.740410888671875,9.999007225036621,0.7447660565376282,-1.5242279767990112
1751448496988238800,15.75923876953125,9.926026344299316,0.9493523836135864,-1.9597218036651611
1751448497007067100,15.778067138671876,9.876974105834961,0.8560323119163513,-2.0039889812469482
1751448497025895200,15.796895263671875,9.934401512145996,0.48394837975502014,-2.0542383193969727
1751448497044723200,15.81572314453125,9.778867721557617,0.4384847581386566,-2.2636101245880127
1751448497063551500,15.834551513671874,9.370891571044922,0.6765705943107605,-2.434697151184082
1751448497082379500,15.853379638671875,10.025328636169434,0.1094716340303421,-2.311466693878174
1751448497101207800,15.872207763671875,9.653244972229004,-0.5054838061332703,-1.7060825824737549
1751448497120035800,15.891035888671874,10.039685249328613,-1.052243709564209,-1.1892328262329102
1751448497138864000,15.909864013671875,10.517053604125977,-1.5415760278701782,-0.36610186100006104
1751448497157692200,15.928692138671876,10.329216957092285,-1.425524115562439,0.19142581522464752
1751448497176520400,15.9475205078125,9.332606315612793,-1.7485551834106445,0.4366901218891144
1751448497195348500,15.966348388671875,10.165308952331543,-1.949552297592163,0.7070791125297546
1751448497214176800,15.9851767578125,9.757332801818848,-1.5260226726531982,1.0875378847122192
1751448497233004800,16.0040048828125,10.200004577636719,-1.1682956218719482,1.2323036193847656
1751448497251832800,16.022832763671875,9.664012908935547,-0.5605186820030212,1.1365907192230225
1751448497270661000,16.0416611328125,9.854242324829102,-0.16689938306808472,1.0336993932724
1751448497289489200,16.0604892578125,10.016953468322754,-0.10229317098855972,1.2945170402526855
1751448497308317400,16.0793173828125,10.006186485290527,-0.026919255033135414,1.5385849475860596
1751448497327145500,16.0981455078125,9.79083251953125,-0.6227321028709412,2.0410776138305664
1751448497345973500,16.116973388671877,9.91286563873291,-0.9445667266845703,2.121237277984619
1751448497364801800,16.1358017578125,9.937990188598633,-0.5162515044212341,1.4620146751403809
1751448497383629800,16.1546298828125,10.048060417175293,-1.3968101739883423,3.050848960876465
1751448497402458000,16.1734580078125,9.882955551147461,-1.83828604221344,3.266202926635742
1751448497421286100,16.1922861328125,9.388837814331055,-1.4602199792861938,2.83669114112854
1751448497440114400,16.211114501953126,10.018150329589844,-1.7461622953414917,1.4811571836471558
1751448497458942500,16.2299423828125,10.002596855163574,-1.7617156505584717,1.3507484197616577
1751448497477770800,16.248770751953124,9.982257843017578,-2.0033907890319824,0.8925228714942932
1751448497496598800,16.267598876953127,9.667601585388184,-1.9184455871582031,0.007178467698395252
1751448497515426800,16.2864267578125,9.419944763183594,-2.169692039489746,-0.916451096534729
1751448497534255000,16.305255126953124,10.010972023010254,-1.4913266897201538,-1.6139588356018066
1751448497553083100,16.324083251953127,10.182058334350586,-0.8452646136283875,-1.9130617380142212
1751448497571911400,16.342911376953126,9.405587196350098,-0.3320041298866272,-2.104487419128418
1751448497590739500,16.361739501953124,10.466804504394531,0.24466611444950104,-2.6536402702331543
1751448497609567500,16.3805673828125,9.600603103637695,0.5772684812545776,-2.8654050827026367
1751448497628395800,16.399395751953126,9.591031074523926,1.319043517112732,-2.9048867225646973
1751448497647223800,16.418223876953125,10.453643798828125,1.810768485069275,-2.7385854721069336
1751448497666052000,16.437052001953123,9.78126049041748,1.578664779663086,-2.3198416233062744
1751448497684880100,16.455880126953126,9.93559741973877,0.7962117195129395,-1.3232308626174927
1751448497703708200,16.474708251953125,9.923633575439453,0.1417747437953949,-0.7010970115661621
1751448497722536400,16.493536376953124,9.976275444030762,0.26620152592658997,-0.7334001660346985
1751448497741364500,16.512364501953126,9.879366874694824,0.05922235921025276,-1.1784651279449463
1751448497760192800,16.53119287109375,9.927223205566406,0.6406782865524292,-2.2097716331481934
1751448497779020800,16.550020751953124,10.189236640930176,0.9182456731796265,-2.8007988929748535
1751448497797848800,16.568848876953126,10.063613891601562,1.3704891204833984,-2.9766714572906494
1751448497816677000,16.587677001953125,9.999007225036621,0.5581258535385132,-2.6285157203674316
1751448497835505200,16.606505126953124,9.686744689941406,0.019740786403417587,-2.210968017578125
1751448497854333400,16.62533349609375,8.977272033691406,0.12382857501506805,-1.6378871202468872
1751448497873161500,16.644161376953125,10.058828353881836,-0.28175488114356995,-1.5302101373672485
1751448497891989500,16.662989501953124,9.46301555633545,-0.6837490797042847,-1.3902299404144287
1751448497910817800,16.68181787109375,9.211769104003906,-1.1874382495880127,-0.7968099117279053
1751448497929645800,16.700645751953125,9.54197883605957,-1.607378602027893,0.04905286431312561
1751448497948474000,16.71947412109375,10.347163200378418,-1.7688941955566406,0.45583271980285645
1751448497967302100,16.73830224609375,10.361519813537598,-1.5906288623809814,1.0791629552841187
1751448497986130200,16.757130126953125,9.42473030090332,-1.9016958475112915,1.5672988891601562
1751448498004958500,16.77595849609375,10.237093925476074,-1.8335003852844238,1.5409778356552124
1751448498023786500,16.794786376953127,10.025328636169434,-1.677966833114624,1.1772687435150146
1751448498042614500,16.813614501953126,10.640284538269043,-0.755533754825592,1.420140266418457
1751448498061442800,16.83244287109375,10.40339469909668,-0.5880361795425415,1.4763715267181396
1751448498080270800,16.851270751953123,9.991828918457031,-0.38703906536102295,1.698904037475586
1751448498099099000,16.870098876953126,9.878170013427734,-0.4815555512905121,2.3736801147460938
1751448498117927200,16.88892724609375,9.917651176452637,-0.16450655460357666,0.714257538318634
1751448498136755200,16.907755126953123,9.941579818725586,-0.10468599200248718,1.4632110595703125
1751448498155583500,16.92658349609375,9.740582466125488,-0.8727820515632629,3.480360507965088
1751448498174411500,16.94541162109375,9.866206169128418,-1.2089736461639404,3.5820555686950684
1751448498193239600,16.964239501953124,10.056435585021973,-1.0606186389923096,3.1453654766082764
1751448498212067600,16.983067626953126,10.401001930236816,-1.8215361833572388,2.2133610248565674
1751448498230895900,17.001895751953125,11.147562026977539,-2.6255247592926025,1.4033905267715454
1751448498249724000,17.020723876953124,9.900901794433594,-2.922234535217285,0.8374879360198975
1751448498268552200,17.03955224609375,9.681958198547363,-3.07417893409729,0.5335994362831116
1751448498287380200,17.058380126953125,9.93559741973877,-3.0346972942352295,0.16510476171970367
1751448498306208300,17.077208251953124,9.952347755432129,-2.4580271244049072,-0.7082754969596863
1751448498325036500,17.09603662109375,10.704890251159668,-1.9543378353118896,-1.6929219961166382
1751448498343864600,17.114864501953125,9.837491989135742,-1.2819547653198242,-2.5292134284973145
1751448498362692600,17.133692626953124,10.721639633178711,-0.052043892443180084,-3.5377883911132812
1751448498381520600,17.152520751953126,9.81954574584961,0.388235479593277,-4.238885402679443
1751448498400349000,17.171348876953125,10.281360626220703,0.9266205430030823,-4.2484564781188965
1751448498419177000,17.190177001953124,10.000204086303711,1.425524115562439,-3.7292141914367676
1751448498438005200,17.209005126953127,9.89970588684082,1.3465609550476074,-3.3056845664978027
1751448498456833300,17.227833251953125,9.926026344299316,-0.046061836183071136,-1.5672988891601562
1751448498475661300,17.246661376953124,9.924830436706543,0.28893333673477173,-0.02512463741004467
1751448498494489300,17.2654892578125,9.911669731140137,0.2554338276386261,-0.039481572806835175
1751448498513317600,17.284317626953126,9.93679428100586,0.22552353143692017,-0.4259224236011505
1751448498532145700,17.303145751953124,9.924830436706543,0.9349954724311829,-1.3316057920455933
1751448498550974000,17.321973876953123,9.941579818725586,1.347757339477539,-2.093719720840454
1751448498569802000,17.340802001953126,9.941579818725586,1.8993029594421387,-3.304488182067871
1751448498588630000,17.359630126953125,9.809974670410156,1.4781662225723267,-3.229114055633545
1751448498607458000,17.3784580078125,9.870991706848145,0.5545366406440735,-3.4396824836730957
1751448498626286300,17.397286376953126,10.142577171325684,-0.052043892443180084,-2.9479575157165527
1751448498645114400,17.4161142578125,9.882955551147461,-0.5150550603866577,-2.5148565769195557
1751448498663942400,17.4349423828125,10.130613327026367,-1.1599208116531372,-1.6462619304656982
1751448498682770700,17.453770751953126,9.831509590148926,-0.9266205430030823,-0.5096712112426758
1751448498701598700,17.4725986328125,10.830513954162598,-1.3381860256195068,0.4366901218891144
1751448498720426800,17.4914267578125,9.527621269226074,-2.186441659927368,1.3040883541107178
1751448498739255000,17.510255126953126,9.81236743927002,-2.0620148181915283,2.0315065383911133
1751448498758083000,17.5290830078125,10.05404281616211,-1.074975609779358,1.4249259233474731
1751448498776911000,17.5479111328125,9.509675025939941,-0.2913261651992798,0.6687939167022705
1751448498795739100,17.5667392578125,9.653244972229004,-0.511465847492218,0.40797626972198486
1751448498814567400,17.5855673828125,9.997811317443848,-1.0809576511383057,0.592223584651947
1751448498833395500,17.6043955078125,10.050453186035156,-0.5593222975730896,0.6161518096923828
1751448498852223500,17.623223388671875,10.03131103515625,-0.11425728350877762,0.9439685344696045
1751448498871051800,17.6420517578125,9.78126049041748,-0.8859425783157349,1.7623138427734375
1751448498889879800,17.6608798828125,9.859027862548828,-1.6719847917556763,2.9240293502807617
1751448498908707800,17.679707763671875,9.945169448852539,-0.6885347366333008,1.444068431854248
1751448498927536000,17.6985361328125,9.917651176452637,-0.8991031050682068,2.1200408935546875
1751448498946364200,17.7173642578125,9.827920913696289,-1.44945228099823,3.0484559535980225
1751448498965192200,17.736192138671875,9.617352485656738,-1.6612170934677124,3.0795626640319824
1751448498984020200,17.755020263671874,9.595816612243652,-2.197209358215332,2.699103832244873
1751448499002848500,17.7738486328125,9.66640567779541,-2.816950559616089,2.60339093208313
1751448499021676500,17.792676513671875,9.832706451416016,-2.675773859024048,1.3435698747634888
1751448499040504600,17.811504638671874,10.182058334350586,-2.8241288661956787,1.2502498626708984
1751448499059332900,17.830332763671876,11.036295890808105,-2.9665019512176514,0.33020952343940735
1751448499078161000,17.849160888671875,9.54796028137207,-3.250051259994507,-0.5312066078186035
1751448499096989000,17.867989013671874,10.73719310760498,-2.228316068649292,-1.7024933099746704
1751448499115817000,17.88681689453125,10.172487258911133,-1.1754741668701172,-2.5842485427856445
1751448499134645200,17.905645263671875,9.94397258758545,-0.22791635990142822,-3.610769271850586
1751448499153473300,17.924473388671874,10.440483093261719,0.6478567123413086,-4.5391845703125
1751448499172301300,17.94330126953125,9.483354568481445,0.6418746709823608,-10.06421184539795
1751448499191129300,17.96212939453125,8.589634895324707,3.046661376953125,-6.678368091583252
1751448499209957600,17.98095751953125,9.851848602294922,1.4829518795013428,-1.277767300605774
1751448499228785700,17.99978564453125,10.077970504760742,1.1910275220870972,-1.5182459354400635
1751448499247613700,18.01861376953125,9.856635093688965,1.1443674564361572,-1.2059825658798218
1751448499285270000,18.05627001953125,10.004989624023438,-0.15493527054786682,-0.729810893535614
1751448499304098000,18.07509814453125,9.648459434509277,0.1417747437953949,-1.5050854682922363
1751448499322926000,18.093926025390626,9.88415241241455,-0.026919255033135414,-2.021935224533081
1751448499341754000,18.112754150390625,9.701101303100586,-0.37507495284080505,-1.6031911373138428
1751448499360582400,18.13158251953125,9.957133293151855,0.17647066712379456,-1.7072789669036865
1751448499379410400,18.150410400390626,9.430712699890137,0.38703906536102295,-2.307877540588379
1751448499398238500,18.169238525390625,9.969097137451172,-0.11306086927652359,-1.8532410860061646
1751448499417066500,18.18806640625,9.991828918457031,-0.7627122402191162,-1.262213945388794
1751448499435894800,18.206894775390627,9.758528709411621,-0.6574280261993408,-0.8530412912368774
1751448499454722800,18.225722900390625,9.671191215515137,-2.073979139328003,-0.014356935396790504
1751448499473550800,18.24455078125,9.635298728942871,-2.4113669395446777,0.9128618240356445
1751448499492379000,18.26337890625,9.780064582824707,-1.8993029594421387,2.0243279933929443
1751448499511207200,18.282207275390626,9.975079536437988,-1.2077772617340088,2.675175666809082
1751448499530035200,18.30103515625,9.89013385772705,-0.1537388563156128,2.3976082801818848
1751448499548863200,18.31986328125,10.067203521728516,-0.27816563844680786,1.8293129205703735
1751448499567691300,18.338691162109374,9.926026344299316,-0.7184450030326843,1.2993026971817017
1751448499586519600,18.35751953125,9.92961597442627,-1.347757339477539,1.4763715267181396
1751448499605347600,18.37634765625,9.881759643554688,-0.6478567123413086,1.4117653369903564
1751448499624175600,18.395175537109374,9.926026344299316,0.06640082597732544,0.6807580590248108
1751448499643003600,18.414003662109376,9.987043380737305,-0.9457631707191467,2.6775684356689453
1751448499661831700,18.432831787109375,9.92124080657959,-1.6827524900436401,3.84765887260437
1751448499680660000,18.451659912109374,9.89133071899414,-2.0584256649017334,3.482753276824951
1751448499699488000,18.470488037109376,9.856635093688965,-2.1278176307678223,3.3092737197875977
1751448499718316000,18.48931591796875,9.398408889770508,-2.822932481765747,2.1714866161346436
1751448499737144300,18.508144287109374,10.337592124938965,-3.2177481651306152,1.290927767753601
1751448499755972400,18.526972412109377,10.337592124938965,-3.3206396102905273,0.2835494875907898
1751448499774800400,18.54580029296875,10.338788032531738,-3.046661376953125,-1.1258230209350586
1751448499793628400,18.56462841796875,10.84606647491455,-2.0129621028900146,-1.765903115272522
1751448499812456400,18.58345654296875,10.426126480102539,-1.685145378112793,-2.6560330390930176
1751448499831284700,18.60228466796875,10.048060417175293,-1.0390832424163818,-3.1094729900360107
1751448499850112800,18.62111279296875,8.919844627380371,-0.6119644045829773,-3.2446675300598145
1751448499868940800,18.63994091796875,10.514660835266113,0.1824527233839035,-3.720839262008667
1751448499887768800,18.658768798828124,10.205986976623535,0.8261220455169678,-4.054637908935547
1751448499906596900,18.677596923828126,9.573084831237793,1.700698733329773,-3.5222349166870117
1751448499925425200,18.696425048828125,9.909276962280273,2.431705951690674,-3.748356580734253
1751448499944253200,18.715253173828124,9.809974670410156,1.5080764293670654,-1.1868400573730469
1751448499963081200,18.734081298828126,10.099506378173828,0.844068169593811,-1.4452649354934692
1751448499981909200,18.7529091796875,9.937990188598633,0.7328019142150879,-1.4811571836471558
1751448500000737300,18.7717373046875,9.94397258758545,0.7734799385070801,-1.5337992906570435
1751448500019565600,18.790565673828127,9.667601585388184,0.875174880027771,-2.572284460067749
1751448500038393600,18.8093935546875,10.63669490814209,0.9517452120780945,-2.444268226623535
1751448500057221600,18.8282216796875,9.984650611877441,0.5772684812545776,-2.390429735183716
1751448500076049700,18.847049560546875,9.911669731140137,-0.04486542567610741,-1.6414763927459717
1751448500094877700,18.865877685546874,10.173684120178223,-0.45523449778556824,-1.5672988891601562
1751448500113706000,18.8847060546875,8.906683921813965,-0.3044866919517517,-2.0231316089630127
1751448500132534000,18.903533935546875,9.427123069763184,-0.649053156375885,-1.664208173751831
1751448500151362000,18.922362060546874,8.760722160339355,-0.7244270443916321,-1.4452649354934692
1751448500170190000,18.941190185546876,10.820941925048828,-0.906281590461731,-0.46420758962631226
1751448500189018000,18.96001806640625,9.625727653503418,-1.2149556875228882,-0.3720839321613312
1751448500207846400,18.978846435546874,10.871191024780273,-1.3776676654815674,0.04666004329919815
1751448500226674400,18.99767431640625,10.501500129699707,-1.9663020372390747,0.5659025311470032
1751448500245502500,19.01650244140625,10.167701721191406,-2.767897605895996,1.5074782371520996
1751448500264330500,19.03533056640625,9.915258407592773,-2.2307088375091553,2.6799614429473877
1751448500283158500,19.054158447265625,9.8207426071167,-1.835893154144287,2.915654420852661
1751448500301986800,19.07298681640625,9.754940032958984,-1.1527422666549683,2.66560435295105
1751448500320814800,19.09181494140625,10.356734275817871,-0.4145565330982208,1.628315806388855
1751448500339643000,19.110642822265625,9.92124080657959,-0.22552353143692017,1.5852450132369995
1751448500358471000,19.129470947265624,9.964311599731445,0.0568295381963253,0.5778666734695435
1751448500377299000,19.148298828125,9.9140625,0.048454657196998596,1.1736794710159302
1751448500396127000,19.167126953125,9.863813400268555,-0.9326026439666748,3.0412776470184326
1751448500414955300,19.185955322265624,9.957133293151855,-1.4374881982803345,3.507878065109253
1751448500433783300,19.204783203125,9.963115692138672,-1.948355793952942,3.3415768146514893
1751448500452611300,19.223611328125,10.103095054626465,-1.7258232831954956,2.410768747329712
1751448500471439400,19.242439453125,9.757332801818848,-1.8873388767242432,1.5649060010910034
1751448500490267400,19.261267333984375,9.879366874694824,-2.3431715965270996,0.8614161610603333
1751448500509095400,19.280095458984373,10.13180923461914,-2.479562520980835,0.6161518096923828
1751448500527923500,19.29892333984375,9.614959716796875,-2.5525436401367188,0.2883351147174835
1751448500546751700,19.317751708984375,9.999007225036621,-2.4987051486968994,-0.26201409101486206
1751448500565579800,19.336579833984374,9.09811019897461,-2.155334949493408,-0.97148597240448
1751448500584407800,19.35540771484375,10.384251594543457,-1.5176477432250977,-2.1619153022766113
1751448500603235800,19.37423583984375,10.03729248046875,-1.0510473251342773,-2.884547710418701
1751448500622063900,19.39306396484375,10.300503730773926,-0.32123643159866333,-3.845266103744507
1751448500640892000,19.411891845703124,10.105487823486328,0.5030909776687622,-3.634697675704956
1751448500659720200,19.43072021484375,10.313663482666016,1.3513466119766235,-3.4061830043792725
1751448500678548200,19.44954833984375,9.661619186401367,1.83828604221344,-3.486342668533325
1751448500697376300,19.468376220703124,10.04686450958252,2.0297117233276367,-3.726821184158325
1751448500716204300,19.487204345703127,9.802796363830566,1.0007981061935425,-0.9379864931106567
1751448500735032300,19.5060322265625,10.095916748046875,1.064207911491394,-1.4416756629943848
1751448500753860400,19.5248603515625,9.990633010864258,0.8249256014823914,-2.097309112548828
1751448500772688600,19.543688720703123,9.988240242004395,0.6658028960227966,-2.4047868251800537
1751448500791516700,19.5625166015625,10.070792198181152,0.05802594870328903,-1.9597218036651611
1751448500810344700,19.5813447265625,10.16171932220459,0.33080771565437317,-1.9657038450241089
1751448500829172700,19.6001728515625,9.5264253616333,0.828514814376831,-1.9716858863830566
1751448500848000800,19.619000732421874,9.086145401000977,0.5904290080070496,-2.513660192489624
1751448500866828800,19.637828857421876,9.92124080657959,-0.01615155301988125,-2.3030917644500732
1751448500885657000,19.656656982421875,9.701101303100586,-0.01734796352684498,-2.03629207611084
1751448500904484900,19.67548486328125,10.194023132324219,-0.722034215927124,-1.8783657550811768
1751448500923313200,19.694313232421877,10.981261253356934,-0.9672985672950745,-1.1018948554992676
1751448500942141200,19.71314111328125,10.804192543029785,-1.633699655532837,-0.3002992272377014
1751448500960969200,19.73196923828125,9.448657989501953,-2.325225353240967,0.39481574296951294
1751448500979797200,19.75079736328125,9.948758125305176,-2.3515465259552,1.1772687435150146
1751448500998625300,19.769625244140624,10.0073823928833,-1.7413766384124756,0.6699903607368469
1751448501017453300,19.788453369140626,9.885348320007324,-1.8335003852844238,0.98703932762146
1751448501036281600,19.807281494140625,9.530014038085938,-1.6827524900436401,1.4452649354934692
1751448501064523500,19.8355234375,10.016953468322754,-1.3489537239074707,2.094916343688965
1751448501083351600,19.8543515625,9.751350402832031,-0.9361918568611145,2.341377019882202
1751448501102179800,19.873179931640625,9.92961597442627,-0.7411768436431885,2.768495798110962
1751448501121007900,19.8920078125,9.917651176452637,0.23748764395713806,0.15672987699508667
1751448501139836000,19.9108359375,9.916455268859863,-0.22791635990142822,0.9583254456520081
1751448501158664000,19.929663818359376,9.894919395446777,-0.8644071817398071,2.338984251022339
1751448501177492000,19.948491943359375,9.960722923278809,-1.0510473251342773,2.968296527862549
1751448501196320000,19.967320068359374,9.894919395446777,-1.4757733345031738,3.1345977783203125
1751448501215148000,19.98614794921875,10.04447078704834,-2.1278176307678223,3.019742250442505
1751448501233976000,20.00497607421875,10.057631492614746,-2.499901533126831,2.2301106452941895
1751448501252804000,20.02380419921875,10.258628845214844,-2.4197418689727783,1.179661512374878
1751448501271632400,20.04263232421875,10.142577171325684,-2.3132612705230713,0.747757077217102
1751448501290460400,20.06146044921875,9.966704368591309,-2.347957134246826,-0.038285162299871445
1751448501309288400,20.080288330078126,10.116255760192871,-2.228316068649292,-0.36251261830329895
1751448501328116500,20.099116455078125,9.434301376342773,-1.7772690057754517,-0.7202396392822266
1751448501346944500,20.117944580078124,9.693922996520996,-1.389631748199463,-1.6199408769607544
1751448501365772500,20.1367724609375,10.13180923461914,-0.6789634227752686,-2.586641311645508
1751448501384600600,20.1556005859375,9.771689414978027,-0.355932354927063,-3.2374889850616455
1751448501403428600,20.1744287109375,9.707083702087402,0.3655036687850952,-3.7639100551605225
1751448501422256600,20.193256591796874,10.01575756072998,0.597607433795929,-8.079365730285645
1751448501441085000,20.2120849609375,9.977472305297852,2.1302103996276855,-5.212764263153076
1751448501459913000,20.230912841796876,9.692726135253906,1.5272190570831299,-1.093519926071167
1751448501478741000,20.249740966796875,10.0612211227417,0.9565308690071106,0.363709032535553
1751448501497569000,20.268569091796873,9.900901794433594,0.5605186820030212,0.2667997181415558
1751448501516397000,20.28739697265625,9.952347755432129,0.8584251403808594,-0.6005984544754028
1751448501535225000,20.30622509765625,9.853045463562012,0.666999340057373,-1.6414763927459717
1751448501554053000,20.32505322265625,10.192826271057129,0.40259242057800293,-1.92741858959198
1751448501572881200,20.343881103515624,9.9140625,0.47557350993156433,-2.730210542678833
1751448501591709200,20.362709228515627,10.288538932800293,0.5557330846786499,-2.7840490341186523
1751448501610537200,20.381537109375,10.807781219482422,0.6526423692703247,-3.119044303894043
1751448501629365500,20.400365478515624,10.186843872070312,0.5413761138916016,-3.314059257507324
1751448501648193500,20.419193603515627,10.780263900756836,-0.1333998590707779,-3.1752755641937256
1751448501667021600,20.438021484375,10.171290397644043,-0.41096729040145874,-2.5878376960754395
1751448501685849600,20.456849609375,9.721440315246582,-1.0893324613571167,-1.6187444925308228
1751448501704677600,20.475677734375,10.5361967086792,-1.4530415534973145,-0.7752745151519775
1751448501723505700,20.494505615234374,9.873384475708008,-2.0811574459075928,0.1782652884721756
1751448501742333700,20.513333740234376,10.39501953125,-2.9186453819274902,1.333998680114746
1751448501761161700,20.53216162109375,9.973882675170898,-2.5884358882904053,1.6773686408996582
1751448501779989800,20.55098974609375,10.103095054626465,-2.1409780979156494,1.9130617380142212
1751448501798817800,20.56981787109375,9.989436149597168,-1.8753747940063477,1.8556339740753174
1751448501817646000,20.58864599609375,9.807581901550293,-0.4336991012096405,1.7826528549194336
1751448501836474000,20.60747412109375,10.020543098449707,-0.5605186820030212,1.6941183805465698
1751448501855302100,20.62630224609375,9.552745819091797,-0.9589236974716187,2.1475582122802734
1751448501874130200,20.645130126953124,9.80399227142334,-1.51166570186615,2.6572296619415283
1751448501892958200,20.663958251953126,9.92243766784668,-0.8967102766036987,1.3866406679153442
1751448501911786200,20.6827861328125,9.946365356445312,-0.6502495408058167,1.841277003288269
1751448501930614300,20.7016142578125,9.952347755432129,-1.1838489770889282,3.0891339778900146
1751448501949442300,20.7204423828125,9.866206169128418,-1.5858432054519653,3.238685369491577
1751448501968270300,20.739270263671877,9.653244972229004,-1.9818553924560547,2.9898319244384766
1751448501987098400,20.758098388671876,9.780064582824707,-2.132603168487549,2.276770830154419
1751448502005926400,20.776926513671874,10.533803939819336,-2.2618155479431152,1.710868239402771
1751448502024754400,20.79575439453125,9.46899700164795,-2.107478618621826,1.2717852592468262
1751448502043582500,20.81458251953125,8.930612564086914,-2.310868501663208,0.5527420043945312
1751448502062410500,20.833410400390626,9.719047546386719,-2.210369825363159,-0.41515472531318665
1751448502081238800,20.85223876953125,10.540982246398926,-1.7629120349884033,-0.7130611538887024
1751448502100066800,20.87106689453125,10.05284595489502,-1.277169108390808,-1.0612168312072754
1751448502118894800,20.889894775390626,9.863813400268555,-0.8560323119163513,-2.0099709033966064
1751448502137723000,20.908722900390625,10.217950820922852,-0.3044866919517517,-3.1621150970458984
1751448502156551000,20.927551025390624,9.535996437072754,0.43968117237091064,-3.9672999382019043
1751448502175379000,20.94637890625,9.714262008666992,0.39541393518447876,-4.150351047515869
1751448502194207000,20.96520703125,10.415358543395996,1.0402796268463135,-4.587040901184082
1751448502213035000,20.984034912109376,9.918848037719727,1.2951152324676514,-4.590630054473877
1751448502231863000,21.002863037109375,9.746564865112305,0.5078766345977783,-0.7932206988334656
1751448502250691000,21.021691162109374,10.223933219909668,0.6789634227752686,-0.7980063557624817
1751448502269519000,21.04051904296875,9.760921478271484,0.7184450030326843,-1.231107234954834
1751448502288347100,21.05934716796875,9.994221687316895,0.357128769159317,-1.7838492393493652
1751448502307175200,21.078175048828125,10.018150329589844,-0.054436713457107544,-2.1643080711364746
1751448502326003200,21.097003173828124,9.823135375976562,-0.11066804826259613,-3.014956474304199
1751448502344831200,21.115831298828127,9.902098655700684,0.1381855010986328,-3.2650065422058105
1751448502363659500,21.134659423828126,9.720243453979492,-0.046061836183071136,-2.806781053543091
1751448502382487600,21.153487548828124,9.739386558532715,-0.09272187948226929,-1.950150489807129
1751448502401315300,21.1723154296875,9.976275444030762,0.2626122832298279,-1.5565310716629028
1751448502420143600,21.1911435546875,10.654641151428223,-0.45164528489112854,-1.0863415002822876
1751448502438971600,21.2099716796875,9.117252349853516,-0.6705885529518127,-0.9882357716560364
1751448502457799700,21.228799560546875,10.639087677001953,-0.8536394834518433,-0.33738797903060913
1751448502476627700,21.247627685546874,9.833903312683105,-1.2161520719528198,0.1579262912273407
1751448502495455700,21.266455810546876,9.715457916259766,-1.6396816968917847,0.6364908218383789
1751448502514283800,21.28528369140625,9.90688419342041,-1.76051926612854,1.2335001230239868
1751448502533111800,21.30411181640625,10.308877944946289,-2.1278176307678223,1.2562319040298462
1751448502551939800,21.32293994140625,9.370891571044922,-1.6348960399627686,1.703689694404602
1751448502570768000,21.341767822265624,9.988240242004395,-1.194616675376892,1.6666009426116943
1751448502589596000,21.360595947265626,9.764511108398438,-0.5988038778305054,1.6941183805465698
1751448502608424000,21.379423828125,10.042078018188477,-0.9672985672950745,1.7371892929077148
1751448502627252000,21.398251953125,10.095916748046875,-0.9337990283966064,2.328216314315796
1751448502646080000,21.417080078125,9.904491424560547,-1.0151549577713013,3.046063184738159
1751448502664908000,21.435907958984377,9.930811882019043,0.1621137410402298,0.4570291340351105
1751448502683736000,21.454736083984375,9.917651176452637,-0.6323033571243286,1.9202401638031006
1751448502702564000,21.473564208984374,9.958329200744629,-0.48394837975502014,2.2337000370025635
1751448502721392000,21.49239208984375,9.866206169128418,-1.059422254562378,2.915654420852661
1751448502740220200,21.51122021484375,9.875777244567871,-1.6971094608306885,3.2231321334838867
1751448502759048200,21.530048095703126,9.937990188598633,-2.534597396850586,3.16331148147583
1751448502777876200,21.548876220703125,10.153345108032227,-3.2309088706970215,3.3403804302215576
1751448502796704300,21.567704345703124,9.960722923278809,-3.336193084716797,2.383251428604126
1751448502815532500,21.586532470703126,9.429515838623047,-3.111267566680908,0.8709874153137207
1751448502834360600,21.605360595703125,9.57787036895752,-2.8145575523376465,-0.6675975322723389
1751448502853188400,21.624188232421876,9.600603103637695,-2.3467607498168945,-1.5481562614440918
1751448502872016600,21.6430166015625,11.647662162780762,-1.800000786781311,-1.9621145725250244
1751448502890844700,21.6618447265625,9.574281692504883,-1.485344648361206,-2.5196423530578613
1751448502909672700,21.680672607421876,9.873384475708008,-0.7782655358314514,-3.500699520111084
1751448502928500700,21.699500732421875,10.165308952331543,-0.001794616924598813,-4.1036906242370605
1751448502947328800,21.718328857421874,10.337592124938965,0.5066801905632019,-4.328616142272949
1751448502966156800,21.73715673828125,10.26461124420166,1.0259226560592651,-4.660022258758545
1751448502984984800,21.75598486328125,9.551549911499023,1.252044439315796,-4.372883319854736
1751448503003812900,21.774812744140625,9.673583984375,1.8861424922943115,-2.895315408706665
1751448503022641000,21.793640869140624,10.01575756072998,1.0965110063552856,-2.2612173557281494
1751448503041469000,21.812468994140627,9.948758125305176,1.48055899143219,-2.8175487518310547
1751448503060297000,21.831296875,9.81117057800293,0.6083751320838928,-2.4909284114837646
1751448503079125000,21.850125,9.78245735168457,0.6418746709823608,-2.280359983444214
1751448503097953000,21.868953125,9.719047546386719,0.2147558331489563,-1.9381862878799438
1751448503116781000,21.887781005859374,9.539586067199707,-0.10707881301641464,-1.6917256116867065
1751448503135609000,21.906609130859376,10.013364791870117,-0.32602208852767944,-1.2203395366668701
1751448503154437000,21.92543701171875,9.824331283569336,-0.47198426723480225,-1.073180913925171
1751448503173265200,21.94426513671875,8.947361946105957,-0.004187439568340778,-1.6019947528839111
1751448503192093200,21.96309326171875,9.072985649108887,-0.4983053207397461,-1.4141582250595093
1751448503210921200,21.981921142578123,9.770493507385254,-0.9613165259361267,-0.6376872062683105
1751448503229749200,22.000749267578126,9.993025779724121,-1.2077772617340088,0.5647061467170715
1751448503248577300,22.019577392578125,9.381659507751465,-1.5822539329528809,0.6364908218383789
1751448503267405300,22.0384052734375,10.361519813537598,-1.4745769500732422,0.5551348328590393
1751448503286233300,22.0572333984375,9.550353050231934,-1.3214362859725952,1.306481122970581
1751448503305061400,22.076061279296876,9.799206733703613,-1.5774682760238647,2.1200408935546875
1751448503323889400,22.094889404296875,10.036096572875977,-1.2245270013809204,2.606980323791504
1751448503342717400,22.113717529296874,9.731011390686035,-0.6323033571243286,2.3509483337402344
1751448503361545500,22.13254541015625,10.039685249328613,-0.5724828243255615,1.8580267429351807
1751448503380373500,22.15137353515625,9.78126049041748,-0.8261220455169678,2.5160529613494873
1751448503399201500,22.170201416015626,9.989436149597168,0.08195417374372482,0.35054850578308105
1751448503418029600,22.189029541015625,9.949954986572266,-0.4061816334724426,1.3794622421264648
1751448503436857600,22.207857666015624,9.941579818725586,-1.2687941789627075,3.008974552154541
1751448503455685600,22.226685546875,10.180862426757812,-2.1409780979156494,4.151547431945801
1751448503474513700,22.245513671875,10.194023132324219,-2.565704107284546,4.143172264099121
1751448503493341700,22.264341796875,9.465408325195312,-2.758326292037964,3.500699520111084
1751448503512169700,22.283169677734374,10.180862426757812,-3.2141590118408203,2.348555326461792
1751448503530997800,22.301997802734373,10.329216957092285,-3.329014539718628,1.3854442834854126
1751448503549825800,22.32082568359375,9.89850902557373,-3.108874797821045,-0.41994038224220276
1751448503568653800,22.33965380859375,10.17846965789795,-2.4293131828308105,-1.5122638940811157
1751448503587481900,22.35848193359375,9.685547828674316,-2.028515338897705,-2.2085752487182617
1751448503606310000,22.377309814453124,9.179466247558594,-1.4243277311325073,-2.359323024749756
1751448503625138000,22.396137939453126,10.032506942749023,-0.6287141442298889,-3.294916868209839
1751448503643965700,22.414965576171873,9.66520881652832,-0.2386840581893921,-3.332005500793457
1751448503662793700,22.433793701171876,10.36630630493164,1.2580264806747437,-4.0558342933654785
1751448503681621800,22.452621826171875,9.817152976989746,1.48055899143219,-4.146761417388916
1751448503700449800,22.47144970703125,9.760921478271484,1.4937195777893066,-4.526023864746094
1751448503719277800,22.49027783203125,9.79083251953125,1.7641085386276245,-3.7328033447265625
1751448503738105900,22.50910595703125,9.818349838256836,1.158724308013916,-1.8269200325012207
1751448503756934000,22.527933837890625,9.753743171691895,0.5234299302101135,-2.194218397140503
1751448503775762000,22.546761962890624,10.134202003479004,0.14656038582324982,-2.475374937057495
1751448503794590000,22.56558984375,9.559925079345703,0.2709871530532837,-1.8137595653533936
1751448503813418000,22.58441796875,10.714461326599121,0.615553617477417,-2.500499725341797
1751448503832246000,22.60324609375,10.068399429321289,0.20757736265659332,-1.6295121908187866
1751448503851074000,22.622073974609375,9.838688850402832,0.23030917346477509,-1.444068431854248
1751448503869902000,22.640902099609374,9.746564865112305,-0.08315058797597885,-1.4536397457122803
1751448503888730000,22.659730224609376,10.211968421936035,-0.36311084032058716,-1.4584254026412964
1751448503907558100,22.67855810546875,9.628120422363281,-0.24466611444950104,-1.534995675086975
1751448503926386200,22.69738623046875,10.081560134887695,-0.4875376224517822,-1.322034478187561
1751448503945214200,22.716214111328124,9.735796928405762,-0.8117650747299194,-0.5443671345710754
1751448503964042200,22.735042236328123,10.451251029968262,-0.7268198728561401,0.18544375896453857
1751448503982870300,22.753870361328126,9.89013385772705,-0.8787640929222107,0.11485548317432404
1751448504001698300,22.7726982421875,8.711668968200684,-1.033101201057434,0.2835494875907898
1751448504020526300,22.7915263671875,10.111470222473145,-1.771286964416504,0.7573283910751343
1751448504039354400,22.810354248046874,9.574281692504883,-1.705484390258789,1.4572290182113647
1751448504058182400,22.829182373046876,9.786046028137207,-1.2675977945327759,1.934597134590149
1751448504077010200,22.84801025390625,9.729815483093262,-1.2951152324676514,2.317448616027832
1751448504095838200,22.866838134765626,10.100702285766602,-1.1455638408660889,2.950350284576416
1751448504114666200,22.885666259765625,9.458230018615723,-1.6002001762390137,3.1453654766082764
1751448504133494300,22.904494384765623,9.981060981750488,-0.3032902777194977,0.9930213689804077
1751448504152322300,22.923322265625,9.815957069396973,-0.8703892230987549,2.462214469909668
1751448504171150300,22.942150390625,9.758528709411621,-1.3573286533355713,3.0891339778900146
1751448504189978400,22.960978271484375,9.5802640914917,-1.6253247261047363,3.6885361671447754
1751448504208806400,22.979806396484374,9.991828918457031,-1.8478572368621826,3.62153697013855
1751448504227634400,22.998634521484377,10.567302703857422,-2.2187447547912598,2.510071039199829
1751448504246462500,23.01746240234375,9.399605751037598,-2.462812662124634,1.7647067308425903
1751448504265290500,23.03629052734375,10.135398864746094,-2.5836503505706787,0.6293123364448547
1751448504284118500,23.055118408203125,9.879366874694824,-2.572882652282715,-0.19621145725250244
1751448504302946600,23.073946533203124,10.384251594543457,-2.191227436065674,-0.45224347710609436
1751448504321774300,23.0927744140625,10.631909370422363,-1.7665013074874878,-1.384247899055481
1751448504340602400,23.111602294921877,9.54796028137207,-1.3022937774658203,-2.5256242752075195
1751448504359430400,23.130430419921876,10.386645317077637,-0.6239284873008728,-3.548556089401245
1751448504378258400,23.149258544921874,9.610174179077148,-0.14297115802764893,-3.4504501819610596
1751448504397086500,23.16808642578125,10.203594207763672,0.6227321028709412,-3.6227335929870605
1751448504415914500,23.18691455078125,9.678369522094727,1.0378868579864502,-3.236292600631714
1751448504434742500,23.205742431640626,10.40339469909668,1.072582721710205,-3.84765887260437
1751448504453570600,23.224570556640625,9.613762855529785,1.654038667678833,-3.6466617584228516
1751448504472398600,23.243398681640624,9.910472869873047,0.9924231767654419,-1.511067509651184
1751448504491226400,23.262226318359374,9.89013385772705,0.9984052777290344,-1.8951154947280884
1751448504510054400,23.281054443359373,10.115059852600098,0.9326026439666748,-2.6213371753692627
1751448504528882400,23.29988232421875,9.926026344299316,0.7854440212249756,-2.7361927032470703
1751448504547710500,23.31871044921875,10.204790115356445,0.7447660565376282,-2.3856441974639893
1751448504566538500,23.33753857421875,10.073184967041016,0.5330012440681458,-2.9527430534362793
1751448504585366500,23.356366455078124,9.978668212890625,0.2554338276386261,-2.8462624549865723
1751448504604194600,23.375194580078126,10.288538932800293,-0.5593222975730896,-2.1020946502685547
1751448504623022600,23.394022705078125,9.995418548583984,-0.3798605799674988,-1.7455641031265259
1751448504641850600,23.4128505859375,10.25743293762207,-0.40378883481025696,-1.6462619304656982
1751448504660678700,23.4316787109375,10.712068557739258,-0.2841476798057556,-1.9417755603790283
1751448504679506400,23.45050634765625,9.57069206237793,-0.8249256014823914,-1.0683952569961548
1751448504698334500,23.46933447265625,10.099506378173828,-1.0031908750534058,-0.4007977843284607
1751448504726576600,23.49757666015625,9.721440315246582,-1.800000786781311,0.6771687865257263
1751448504745404700,23.51640478515625,9.910472869873047,-2.002194404602051,0.8470591902732849
1751448504764232700,23.535232666015624,9.1986083984375,-1.6360924243927002,1.3615161180496216
1751448504783060500,23.554060546875,11.027921676635742,-1.9698911905288696,1.9752750396728516
1751448504801888500,23.572888427734377,8.440083503723145,-2.0452651977539062,1.9752750396728516
1751448504820716500,23.591716552734376,9.428318977355957,-1.9112670421600342,2.4598217010498047
1751448504839544600,23.610544677734374,10.167701721191406,-1.5810575485229492,3.452843189239502
1751448504858372600,23.62937255859375,9.793225288391113,-0.8237292170524597,3.211168050765991
1751448504886614500,23.657614501953127,9.920044898986816,0.24466611444950104,0.7537391185760498
1751448504905442600,23.676442626953126,9.817152976989746,-0.09272187948226929,2.420340061187744
1751448504924270600,23.6952705078125,9.81236743927002,-0.9780662655830383,3.3930225372314453
1751448504943098600,23.7140986328125,9.952347755432129,-1.461416482925415,3.638286828994751
1751448504961926700,23.7329267578125,9.692726135253906,-1.8083757162094116,3.4468610286712646
1751448504980754700,23.751754638671876,10.316056251525879,-2.097907304763794,3.2039895057678223
1751448504999582500,23.77058251953125,10.529017448425293,-2.6039891242980957,2.589034080505371
1751448505018410500,23.789410400390626,9.42353343963623,-3.1375887393951416,1.805384635925293
1751448505037238500,23.808238525390625,9.842277526855469,-3.4127633571624756,0.2787638306617737
1751448505056066600,23.827066650390623,9.839884757995605,-2.953341245651245,-0.6819544434547424
1751448505074894600,23.84589453125,11.23490047454834,-2.1481566429138184,-1.5780665874481201
1751448505093722600,23.86472265625,9.838688850402832,-1.5176477432250977,-2.5112674236297607
1751448505112550400,23.88355029296875,9.683155059814453,-1.1072787046432495,-3.0484559535980225
1751448505131378400,23.90237841796875,10.683355331420898,-0.37028929591178894,-3.517449378967285
1751448505150206500,23.92120654296875,9.81236743927002,0.18963119387626648,-3.5772697925567627
1751448505169034500,23.940034423828124,9.932008743286133,0.6287141442298889,-3.6083765029907227
1751448505187862500,23.958862548828126,9.952347755432129,0.8943174481391907,-3.463610887527466
1751448505206690600,23.977690673828125,9.844670295715332,1.0689935684204102,-3.2542388439178467
1751448505225518600,23.9965185546875,9.892526626586914,1.4243277311325073,-2.669193744659424
1751448505244346400,24.015346435546874,10.016953468322754,0.5772684812545776,-0.778863787651062
1751448505263174400,24.03417431640625,9.89133071899414,0.41216370463371277,-1.3124631643295288
1751448505282002400,24.05300244140625,10.00857925415039,0.7998009920120239,-2.304288148880005
1751448505300830500,24.07183056640625,10.050453186035156,0.8548358678817749,-2.3330020904541016
1751448505319658500,24.090658447265625,9.881759643554688,0.7076773047447205,-2.0865414142608643
1751448505338486300,24.109486328125,9.849455833435059,0.45643091201782227,-2.416750907897949
1751448505357314300,24.128314208984374,9.81954574584961,0.6370890140533447,-2.4155545234680176
1751448505376142300,24.147142333984377,9.573084831237793,-0.06400800496339798,-2.2205393314361572
1751448505394970400,24.165970458984376,10.066006660461426,-0.649053156375885,-2.00518536567688
1751448505413798400,24.18479833984375,8.995218276977539,-0.6753742098808289,-1.9669002294540405
1751448505432626400,24.20362646484375,9.836296081542969,-0.9170492887496948,-1.4991034269332886
1751448505451454200,24.2224541015625,9.720243453979492,-0.9900303483009338,-1.0564311742782593
1751448505470282200,24.2412822265625,9.70229721069336,-0.9601200819015503,-0.5934200286865234
1751448505489110300,24.2601103515625,9.825528144836426,-1.1838489770889282,0.21774685382843018
1751448505507938300,24.278938232421876,9.240483283996582,-1.339382529258728,0.6376872062683105
1751448505526766300,24.297766357421875,10.604392051696777,-1.882553219795227,1.1126625537872314
1751448505545594400,24.316594482421873,9.930811882019043,-2.0787646770477295,1.9920248985290527
