time,seconds_elapsed,z,y,x
1751448481437931000,0.208930908203125,9.803261756896973,0.25775280594825745,0.0017613294767215848
1751448481475587600,0.246587646484375,9.803345680236816,0.25456154346466064,-0.001562817138619721
1751448481494416000,0.265415771484375,9.803407669067383,0.25217169523239136,-0.0018328159349039197
1751448481513244000,0.284243896484375,9.803434371948242,0.2511036992073059,-0.0033138240687549114
1751448481532072200,0.303072265625,9.803446769714355,0.25062596797943115,-0.002975973766297102
1751448481550900500,0.321900390625,9.80344295501709,0.2507850229740143,-0.003920721355825663
1751448481569728800,0.340728759765625,9.803454399108887,0.2502800524234772,-0.0042211804538965225
1751448481588556800,0.359556884765625,9.803444862365723,0.2506954073905945,-0.0035322944168001413
1751448481607385000,0.378385009765625,9.80345630645752,0.25024881958961487,-0.004057844169437885
1751448481626213400,0.39721337890625,9.803487777709961,0.24899719655513763,-0.0051094358786940575
1751448481645041700,0.416041748046875,9.803495407104492,0.24864548444747925,-0.005866473540663719
1751448481663869700,0.43486962890625,9.803483963012695,0.24910640716552734,-0.0061442656442523
1751448481682698000,0.453697998046875,9.803459167480469,0.25007274746894836,-0.005982567556202412
1751448481701526300,0.4725263671875,9.80344009399414,0.25084882974624634,-0.00570659339427948
1751448481720354600,0.4913544921875,9.803435325622559,0.2510377764701843,-0.005196122452616692
1751448481739182600,0.5101826171875,9.80344295501709,0.2507708966732025,-0.005254642106592655
1751448481758011000,0.529010986328125,9.803421974182129,0.2515259087085724,-0.006035089958459139
1751448481776839200,0.547839111328125,9.803397178649902,0.25249534845352173,-0.006462037563323975
1751448481795667500,0.56666748046875,9.803388595581055,0.25283223390579224,-0.006816796958446503
1751448481814495500,0.58549560546875,9.803383827209473,0.2530011236667633,-0.006567389704287052
1751448481833323800,0.60432373046875,9.803377151489258,0.25323665142059326,-0.006747696083039045
1751448481852152000,0.623152099609375,9.803386688232422,0.25288069248199463,-0.006578691303730011
1751448481870980400,0.64198046875,9.803387641906738,0.25288012623786926,-0.006356483791023493
1751448481889808400,0.660808349609375,9.803388595581055,0.25281471014022827,-0.0061458079144358635
1751448481908636700,0.67963671875,9.803391456604004,0.2527228593826294,-0.006474117282778025
1751448481927465000,0.69846484375,9.803380012512207,0.25309044122695923,-0.007731898687779903
1751448481946293000,0.71729296875,9.80337905883789,0.2531380355358124,-0.008419218473136425
1751448481965121300,0.736121337890625,9.803375244140625,0.25327491760253906,-0.008589101023972034
1751448481983949600,0.754949462890625,9.803373336791992,0.2533164322376251,-0.009205113165080547
1751448482002777900,0.77377783203125,9.803367614746094,0.2535640299320221,-0.00924849882721901
1751448482021606100,0.792606201171875,9.803365707397461,0.2536057233810425,-0.009484764188528061
1751448482040434200,0.81143408203125,9.803361892700195,0.2537727355957031,-0.00908149778842926
1751448482059262500,0.830262451171875,9.80336856842041,0.253491073846817,-0.008945715613663197
1751448482078090800,0.8490908203125,9.803370475769043,0.25347116589546204,-0.00921320728957653
1751448482106333200,0.877333251953125,9.803373336791992,0.253315806388855,-0.00949831958860159
1751448482125161200,0.8961611328125,9.80336856842041,0.25350260734558105,-0.009633961133658886
1751448482143989500,0.914989501953125,9.80336856842041,0.2534835934638977,-0.009524289518594742
1751448482162817800,0.93381787109375,9.803365707397461,0.25359830260276794,-0.009790371172130108
1751448482181645800,0.952645751953125,9.803373336791992,0.25332772731781006,-0.009886656887829304
1751448482200474000,0.97147412109375,9.803375244140625,0.25319188833236694,-0.010076397098600864
1751448482219302400,0.990302490234375,9.803373336791992,0.2532438337802887,-0.010496579110622406
1751448482238130700,1.009130615234375,9.803380012512207,0.25300177931785583,-0.010514365509152412
1751448482256958700,1.027958740234375,9.803397178649902,0.2523534595966339,-0.010389328002929688
1751448482275787000,1.046787109375,9.803399085998535,0.25229519605636597,-0.01023922860622406
1751448482294615300,1.065615234375,9.803389549255371,0.252642422914505,-0.010591763071715832
1751448482313443600,1.084443603515625,9.803387641906738,0.2526988089084625,-0.010586024262011051
1751448482332271900,1.10327197265625,9.803391456604004,0.25254493951797485,-0.010786904022097588
1751448482351100000,1.122099853515625,9.803391456604004,0.25259077548980713,-0.010540305636823177
1751448482369928200,1.14092822265625,9.803388595581055,0.2527172863483429,-0.01038356777280569
1751448482388756500,1.159756591796875,9.803388595581055,0.2527056336402893,-0.010598132386803627
1751448482407584500,1.17858447265625,9.803388595581055,0.252692312002182,-0.010775412432849407
1751448482426412800,1.197412841796875,9.803389549255371,0.2526610493659973,-0.010483816266059875
1751448482445241000,1.216240966796875,9.803390502929688,0.25262388586997986,-0.010554375126957893
1751448482464069400,1.2350693359375,9.803384780883789,0.25278592109680176,-0.010777443647384644
1751448482482897700,1.253897705078125,9.803388595581055,0.25267940759658813,-0.010865426622331142
1751448482501725700,1.2727255859375,9.803397178649902,0.2523326575756073,-0.011266711167991161
1751448482520554000,1.291553955078125,9.8034029006958,0.2520832121372223,-0.011119752191007137
1751448482539382300,1.31038232421875,9.803406715393066,0.25190019607543945,-0.011422806419432163
1751448482558210600,1.32921044921875,9.803417205810547,0.25153079628944397,-0.011365707963705063
1751448482577038600,1.34803857421875,9.8034029006958,0.2521052956581116,-0.010931558907032013
1751448482595867000,1.366866943359375,9.80339527130127,0.2523912787437439,-0.011108632199466228
1751448482614695200,1.385695068359375,9.803393363952637,0.25248071551322937,-0.01098591834306717
1751448482633523200,1.404523193359375,9.8034029006958,0.2521011233329773,-0.011324075050652027
1751448482652351500,1.4233515625,9.803401947021484,0.25211378931999207,-0.011497484520077705
1751448482671179800,1.4421796875,9.803404808044434,0.25199437141418457,-0.01142774149775505
1751448482690008000,1.461008056640625,9.803397178649902,0.2522983253002167,-0.011416356079280376
1751448482708836400,1.47983642578125,9.80339241027832,0.25253504514694214,-0.01136829610913992
1751448482737078500,1.50807861328125,9.803399085998535,0.25226345658302307,-0.010885996744036674
1751448482755906800,1.52690673828125,9.80339527130127,0.25239095091819763,-0.010666606947779655
1751448482774735000,1.545735107421875,9.8034029006958,0.25212180614471436,-0.01058286428451538
1751448482812391400,1.583391357421875,9.803396224975586,0.2524288594722748,-0.010424334555864334
1751448482840633900,1.6116337890625,9.803389549255371,0.2526325285434723,-0.01108988281339407
1751448482878290200,1.649290283203125,9.803397178649902,0.2523800730705261,-0.010633477009832859
1751448482915946800,1.68694677734375,9.803390502929688,0.2525824308395386,-0.01110566221177578
1751448482934775000,1.705775146484375,9.803384780883789,0.25277841091156006,-0.011406547389924526
1751448482953603300,1.724603271484375,9.803387641906738,0.2526659369468689,-0.011209464631974697
1751448482972431400,1.743431396484375,9.803383827209473,0.25287777185440063,-0.011240263469517231
1751448483000673800,1.771673828125,9.803385734558105,0.25277194380760193,-0.010991360060870647
1751448483019502000,1.790502197265625,9.803385734558105,0.2527461349964142,-0.011006020940840244
1751448483038330400,1.809330322265625,9.803384780883789,0.2527766525745392,-0.011171157471835613
1751448483057158400,1.828158447265625,9.803382873535156,0.25285351276397705,-0.01118228305131197
1751448483075986700,1.846986572265625,9.803389549255371,0.2525782287120819,-0.011307606473565102
1751448483094815000,1.86581494140625,9.803397178649902,0.25229257345199585,-0.011061910539865494
1751448483113643000,1.88464306640625,9.803396224975586,0.25234106183052063,-0.011060643941164017
1751448483132471300,1.90347119140625,9.803399085998535,0.2522633671760559,-0.010899675078690052
1751448483151299600,1.922299560546875,9.803398132324219,0.2522992491722107,-0.011249730363488197
1751448483170128000,1.9411279296875,9.803400993347168,0.25221118330955505,-0.011116765439510345
1751448483188956000,1.959955810546875,9.803391456604004,0.25254878401756287,-0.011010868474841118
1751448483207784200,1.9787841796875,9.80339241027832,0.25250276923179626,-0.011287066154181957
1751448483226612500,1.997612548828125,9.803399085998535,0.2522485852241516,-0.011625884100794792
1751448483245440800,2.016440673828125,9.803403854370117,0.2520136535167694,-0.011480886489152908
1751448483264269000,2.03526904296875,9.803421020507812,0.2514500319957733,-0.0102767925709486
1751448483283097000,2.05409716796875,9.803428649902344,0.2511501908302307,-0.009852128103375435
1751448483301925400,2.07292529296875,9.803424835205078,0.2513286769390106,-0.00917415227741003
1751448483320753700,2.091753662109375,9.803418159484863,0.2515891492366791,-0.009374842047691345
1751448483339582000,2.11058203125,9.803411483764648,0.2518523931503296,-0.008398555219173431
1751448483358410000,2.129409912109375,9.803410530090332,0.251933217048645,-0.00836833007633686
1751448483377238300,2.14823828125,9.803409576416016,0.25192680954933167,-0.008679295890033245
1751448483396066600,2.167066650390625,9.803418159484863,0.2515715956687927,-0.008685414679348469
1751448483414894800,2.185894775390625,9.803421020507812,0.25148648023605347,-0.008717238903045654
1751448483433723000,2.204722900390625,9.803412437438965,0.2518063485622406,-0.008921250700950623
1751448483452551200,2.22355126953125,9.803409576416016,0.25187787413597107,-0.009705109521746635
1751448483471379500,2.24237939453125,9.80341911315918,0.2515375018119812,-0.009690018370747566
1751448483490207700,2.261207763671875,9.803415298461914,0.25165775418281555,-0.009803930297493935
1751448483509036000,2.2800361328125,9.803393363952637,0.25248992443084717,-0.011210420168936253
1751448483527864000,2.298864013671875,9.803389549255371,0.2525668144226074,-0.011645747348666191
1751448483556106500,2.3271064453125,9.803388595581055,0.2525555193424225,-0.012501995079219341
1751448483574934800,2.345934814453125,9.80339527130127,0.25230148434638977,-0.01245160959661007
1751448483593763000,2.36476318359375,9.803404808044434,0.25199568271636963,-0.011891373433172703
1751448483612591400,2.38359130859375,9.8034029006958,0.25207361578941345,-0.011727357283234596
1751448483631419400,2.40241943359375,9.803388595581055,0.2525552809238434,-0.012529722414910793
1751448483650247700,2.42124755859375,9.803388595581055,0.25258684158325195,-0.012886766344308853
1751448483678490000,2.449489990234375,9.803367614746094,0.2532937824726105,-0.014330738224089146
1751448483697318100,2.468318115234375,9.803372383117676,0.25313451886177063,-0.014026780612766743
1751448483716146400,2.487146484375,9.803384780883789,0.252750962972641,-0.01268010213971138
1751448483734974700,2.505974609375,9.803380966186523,0.2528795301914215,-0.011755662970244884
1751448483753803000,2.524802978515625,9.803372383117676,0.25329554080963135,-0.011641835793852806
1751448483772631300,2.54363134765625,9.803359031677246,0.25373053550720215,-0.012840026058256626
1751448483791459300,2.562459228515625,9.803353309631348,0.2539045214653015,-0.01344204694032669
1751448483810287600,2.58128759765625,9.80336856842041,0.2534279525279999,-0.011640948243439198
1751448483829116000,2.600115966796875,9.803364753723145,0.25353434681892395,-0.0115185072645545
1751448483847944200,2.618944091796875,9.803363800048828,0.25358888506889343,-0.012573614716529846
1751448483866772200,2.637772216796875,9.803359985351562,0.25366148352622986,-0.013672081753611565
1751448483885600500,2.6566005859375,9.803361892700195,0.25355207920074463,-0.013789338991045952
1751448483904428800,2.6754287109375,9.80335521697998,0.253778874874115,-0.01448341365903616
1751448483923257000,2.694257080078125,9.803326606750488,0.2547174096107483,-0.017472216859459877
1751448483942085400,2.71308544921875,9.8032865524292,0.2559334337711334,-0.021304618567228317
1751448483960913400,2.731913330078125,9.803285598754883,0.25597643852233887,-0.02173038199543953
1751448483979741700,2.75074169921875,9.803282737731934,0.2560698688030243,-0.02136409282684326
1751448483998570000,2.769570068359375,9.80329418182373,0.2557368278503418,-0.02041446976363659
1751448484017398300,2.788398193359375,9.803308486938477,0.2552414834499359,-0.01930301822721958
1751448484036226600,2.8072265625,9.803327560424805,0.25468456745147705,-0.01732182875275612
1751448484055054600,2.8260546875,9.803325653076172,0.25474438071250916,-0.017224328592419624
1751448484073883000,2.8448828125,9.803316116333008,0.25504568219184875,-0.01793316751718521
1751448484092711200,2.863711181640625,9.803428649902344,0.2513135075569153,-0.0035792095586657524
1751448484111539500,2.88253955078125,9.80361270904541,0.2430567592382431,0.022294742986559868
1751448484130367700,2.90136767578125,9.803622245788574,0.23982976377010345,0.04295477271080017
1751448484149195800,2.92019580078125,9.803445816040039,0.24575291574001312,0.049506381154060364
1751448484168024000,2.939024169921875,9.80321979522705,0.2554163932800293,0.04503273218870163
1751448484186852400,2.957852294921875,9.803337097167969,0.25247272849082947,0.034996092319488525
1751448484205680600,2.9766806640625,9.803540229797363,0.24413542449474335,0.03729015216231346
1751448484224508700,2.9955087890625,9.80329418182373,0.2537401616573334,0.03784271702170372
1751448484243337000,3.0143369140625,9.803260803222656,0.2557855546474457,0.03198384866118431
1751448484262165200,3.033165283203125,9.803146362304688,0.26030367612838745,0.030911894515156746
1751448484290407700,3.06140771484375,9.803277969360352,0.2554166615009308,0.029571445658802986
1751448484309236000,3.080236083984375,9.803426742553711,0.25018182396888733,0.025002814829349518
1751448484337478100,3.10847802734375,9.803925514221191,0.229909285902977,0.02366775833070278
1751448484356306400,3.127306396484375,9.804234504699707,0.2166062891483307,0.021495293825864792
1751448484375134700,3.146134765625,9.804265022277832,0.2156493216753006,0.016188256442546844
1751448484393963000,3.164962890625,9.80434799194336,0.21220923960208893,0.010776197537779808
1751448484412791300,3.183791259765625,9.804169654846191,0.22051575779914856,0.0014455869095399976
1751448484431619300,3.202619384765625,9.803712844848633,0.23900465667247772,-0.02177051268517971
1751448484450447600,3.221447509765625,9.803437232971191,0.24863028526306152,-0.034574832767248154
1751448484469276000,3.24027587890625,9.802754402160645,0.27139872312545776,-0.05229751765727997
1751448484488104200,3.259104248046875,9.801590919494629,0.2985289394855499,-0.10042158514261246
1751448484506932500,3.277932373046875,9.801280975341797,0.30767762660980225,-0.1030462235212326
1751448484525760800,3.2967607421875,9.80081558227539,0.32039469480514526,-0.10847330838441849
1751448484544588800,3.3155888671875,9.799969673156738,0.33675843477249146,-0.13252751529216766
1751448484563417000,3.3344169921875,9.799806594848633,0.3436111807823181,-0.1268891543149948
1751448484582245400,3.353245361328125,9.799922943115234,0.3448599874973297,-0.11387341469526291
1751448484601073700,3.37207373046875,9.800077438354492,0.34467411041259766,-0.10033031553030014
1751448484619902000,3.39090185546875,9.800302505493164,0.3410283029079437,-0.0903838723897934
1751448484638730000,3.40972998046875,9.800527572631836,0.3362630009651184,-0.08346336334943771
1751448484657558300,3.428558349609375,9.800644874572754,0.3336773216724396,-0.08006379753351212
1751448484676386600,3.447386474609375,9.800661087036133,0.33327457308769226,-0.07970496267080307
1751448484695214800,3.46621484375,9.800683975219727,0.3327997922897339,-0.07890588790178299
1751448484714043100,3.485043212890625,9.800707817077637,0.3322848677635193,-0.07809291779994965
1751448484732871400,3.503871337890625,9.800724029541016,0.33190926909446716,-0.0775790736079216
1751448484751699500,3.522699462890625,9.800874710083008,0.3283613920211792,-0.0735955461859703
1751448484770527700,3.54152783203125,9.80111312866211,0.3225657045841217,-0.06710028648376465
1751448484789356000,3.56035595703125,9.801445960998535,0.31439265608787537,-0.05663525313138962
1751448484808184300,3.579184326171875,9.801772117614746,0.3042031228542328,-0.0556894987821579
1751448484827012600,3.5980126953125,9.80211353302002,0.29320335388183594,-0.054799798876047134
1751448484845841000,3.6168408203125,9.802440643310547,0.2813222408294678,-0.05840154364705086
1751448484864669000,3.6356689453125,9.802687644958496,0.272203266620636,-0.060082584619522095
1751448484883497200,3.654497314453125,9.802812576293945,0.2652886211872101,-0.069800466299057
1751448484902325500,3.673325439453125,9.802972793579102,0.2586221396923065,-0.07233616709709167
1751448484921153800,3.69215380859375,9.803075790405273,0.25380751490592957,-0.07533615082502365
1751448484939982000,3.710982177734375,9.803248405456543,0.2498646378517151,-0.06533008813858032
1751448484958810400,3.729810302734375,9.803215980529785,0.2495127171278,-0.07130889594554901
1751448484977638400,3.748638427734375,9.803000450134277,0.2534428834915161,-0.08562902361154556
1751448484996466700,3.767466796875,9.80272102355957,0.2586030662059784,-0.10084669291973114
1751448485015295000,3.786294921875,9.802536010742188,0.2640145421028137,-0.10468325763940811
1751448485034123300,3.805123291015625,9.802223205566406,0.2735116183757782,-0.10957091301679611
1751448485052951600,3.82395166015625,9.80174446105957,0.2865270972251892,-0.11875671148300171
1751448485071779800,3.84277978515625,9.801177024841309,0.3007796108722687,-0.12984523177146912
1751448485090608000,3.861608154296875,9.80079174041748,0.31310808658599854,-0.1296793520450592
1751448485109436200,3.880436279296875,9.80055046081543,0.3233802318572998,-0.12251509726047516
1751448485128264400,3.899264404296875,9.800268173217773,0.3347238600254059,-0.11432338505983353
1751448485147092700,3.9180927734375,9.800237655639648,0.3396603465080261,-0.10179819166660309
1751448485165921000,3.936921142578125,9.800219535827637,0.3435635268688202,-0.08971259742975235
1751448485184749300,3.955749267578125,9.800210952758789,0.3460317552089691,-0.08067356795072556
1751448485203577600,3.97457763671875,9.800243377685547,0.3458075225353241,-0.0776669830083847
1751448485222406000,3.993406005859375,9.800241470336914,0.34522297978401184,-0.08041476458311081
1751448485241234000,4.01223388671875,9.800436019897461,0.3410031497478485,-0.07460939139127731
1751448485260062200,4.031062255859375,9.800521850585938,0.33871740102767944,-0.07374538481235504
1751448485278890500,4.049890380859375,9.800512313842773,0.3387163281440735,-0.07498934864997864
1751448485297718800,4.06871875,9.800564765930176,0.3375537693500519,-0.07339461147785187
1751448485316547000,4.087547119140625,9.800761222839355,0.33363378047943115,-0.06442395597696304
1751448485335375400,4.106375244140625,9.801054000854492,0.3272482752799988,-0.051323600113391876
1751448485354203600,4.12520361328125,9.801534652709961,0.31463611125946045,-0.03620651364326477
1751448485373032000,4.144031982421875,9.801942825317383,0.30236172676086426,-0.029979534447193146
1751448485391860000,4.16285986328125,9.802370071411133,0.2886524796485901,-0.024699680507183075
1751448485410688300,4.181688232421875,9.802696228027344,0.2770403325557709,-0.027937235310673714
1751448485429516500,4.2005166015625,9.802947998046875,0.26789000630378723,-0.02877700701355934
1751448485448344800,4.2193447265625,9.803247451782227,0.2566547393798828,-0.02964494377374649
1751448485467173000,4.238173095703125,9.803548812866211,0.24471285939216614,-0.030504591763019562
1751448485486001400,4.25700146484375,9.803711891174316,0.23672379553318024,-0.03971584141254425
1751448485514243800,4.285243896484375,9.803628921508789,0.23557817935943604,-0.06128222495317459
1751448485533072100,4.304072021484375,9.80336856842041,0.24062702059745789,-0.08022408187389374
1751448485551900400,4.322900390625,9.803046226501465,0.2482749968767166,-0.09499005973339081
1751448485570728700,4.341728759765625,9.802719116210938,0.2582390606403351,-0.10187609493732452
1751448485589556700,4.360556640625,9.802316665649414,0.26975780725479126,-0.11048201471567154
1751448485608385000,4.379385009765625,9.801916122436523,0.2809353768825531,-0.1178472489118576
1751448485627213300,4.39821337890625,9.801451683044434,0.2943900525569916,-0.12357388436794281
1751448485646041600,4.41704150390625,9.801015853881836,0.3081997334957123,-0.12444984912872314
1751448485664870000,4.435869873046875,9.80074405670166,0.3200320899486542,-0.11564143002033234
1751448485683698200,4.4546982421875,9.800626754760742,0.32794252038002014,-0.10276626795530319
1751448485702526500,4.4735263671875,9.800304412841797,0.33794984221458435,-0.10107671469449997
1751448485721354800,4.492354736328125,9.800151824951172,0.34345743060112,-0.09722292423248291
1751448485740182800,4.511182861328125,9.8002347946167,0.3439200520515442,-0.08660630881786346
1751448485759011000,4.530010986328125,9.800307273864746,0.34314319491386414,-0.08138663321733475
1751448485777839400,4.54883935546875,9.800538063049316,0.33892956376075745,-0.07041225582361221
1751448485796667600,4.567667724609375,9.800737380981445,0.3351422846317291,-0.060064733028411865
1751448485815496000,4.586495849609375,9.800755500793457,0.33463284373283386,-0.05994666367769241
1751448485834324200,4.60532421875,9.80095100402832,0.32972604036331177,-0.055032409727573395
1751448485853152500,4.624152587890625,9.801322937011719,0.320304274559021,-0.04318675398826599
1751448485871980800,4.642980712890625,9.8018159866333,0.3069740831851959,-0.02371123991906643
1751448485890809000,4.66180908203125,9.802303314208984,0.2916104197502136,-0.014093441888689995
1751448485909637400,4.680637451171875,9.802862167358398,0.27244439721107483,0.007856344804167747
1751448485928465700,4.699465576171875,9.80325698852539,0.2579057812690735,0.0021572879049926996
1751448485947294000,4.7182939453125,9.803678512573242,0.2409478724002838,0.014751562848687172
1751448485966122200,4.737122314453125,9.804033279418945,0.2239104062318802,0.034289587289094925
1751448485984950500,4.755950439453125,9.804070472717285,0.22448569536209106,0.013984797522425652
1751448486003778600,4.774778564453125,9.803747177124023,0.23704122006893158,-0.02736348658800125
1751448486022606800,4.79360693359375,9.803196907043457,0.25329142808914185,-0.05966426804661751
1751448486041435100,4.81243505859375,9.80264663696289,0.26849740743637085,-0.08013573288917542
1751448486060263400,4.831263427734375,9.802102088928223,0.2832835018634796,-0.09458344429731369
1751448486079091700,4.850091796875,9.80160903930664,0.2975294291973114,-0.10163213312625885
1751448486097920000,4.868919921875,9.80103588104248,0.31185394525527954,-0.11330211907625198
1751448486116748300,4.887748291015625,9.800415992736816,0.3277041018009186,-0.12187904864549637
1751448486135576600,4.90657666015625,9.800071716308594,0.3384544551372528,-0.12015602737665176
1751448486154404900,4.92540478515625,9.800002098083496,0.34523656964302063,-0.10558539628982544
1751448486173233200,4.944233154296875,9.800437927246094,0.3412535786628723,-0.07301238924264908
1751448486192061400,4.9630615234375,9.800641059875488,0.33921200037002563,-0.05250214412808418
1751448486210889700,4.9818896484375,9.80063247680664,0.33972498774528503,-0.050778988748788834
1751448486229718000,5.000718017578125,9.800734519958496,0.337032675743103,-0.04911036789417267
1751448486248546300,5.01954638671875,9.800655364990234,0.33788836002349854,-0.05808454006910324
1751448486267374600,5.03837451171875,9.800631523132324,0.33759117126464844,-0.06353481858968735
1751448486286202600,5.05720263671875,9.800832748413086,0.33288684487342834,-0.05705324932932854
1751448486305031000,5.076031005859375,9.8012113571167,0.3229857087135315,-0.04826976731419563
1751448486323859200,5.094859130859375,9.80180549621582,0.30672451853752136,-0.030270731076598167
1751448486342687500,5.1136875,9.802398681640625,0.28842028975486755,-0.013517865911126137
1751448486361515800,5.132515869140625,9.80297565460205,0.268432080745697,-0.002657525707036257
1751448486380344000,5.151343994140625,9.80357551574707,0.2442413866519928,0.025471536442637444
1751448486399172400,5.17017236328125,9.803837776184082,0.23421475291252136,0.017226122319698334
1751448486418000600,5.189000732421875,9.804038047790527,0.22631439566612244,0.002810956910252571
1751448486436829000,5.207828857421875,9.804215431213379,0.21854084730148315,0.0007621141849085689
1751448486455657200,5.2266572265625,9.804136276245117,0.2212478518486023,-0.018930042162537575
1751448486474485500,5.245485595703125,9.803873062133789,0.229198157787323,-0.04400978609919548
1751448486493313800,5.264313720703125,9.803389549255371,0.24308285117149353,-0.0696270614862442
1751448486512142000,5.28314208984375,9.802982330322266,0.2547096014022827,-0.08395600318908691
1751448486530970400,5.301970458984375,9.802502632141113,0.26797032356262207,-0.09758087247610092
1751448486549798700,5.320798583984375,9.801969528198242,0.28113406896591187,-0.11287444829940796
1751448486568627000,5.339626953125,9.80146598815918,0.2950860261917114,-0.1207621693611145
1751448486587455200,5.358455322265625,9.801029205322266,0.30852070450782776,-0.12264350056648254
1751448486606283500,5.377283447265625,9.800554275512695,0.3210228383541107,-0.12829387187957764
1751448486625111800,5.39611181640625,9.8004732131958,0.3272225856781006,-0.11853987723588943
1751448486643940000,5.414940185546875,9.80051326751709,0.33148816227912903,-0.10224194824695587
1751448486662768400,5.433768310546875,9.80040454864502,0.3358069956302643,-0.0984245017170906
1751448486681596700,5.4525966796875,9.800544738769531,0.3348942697048187,-0.08702383190393448
1751448486700424700,5.4714248046875,9.800735473632812,0.33167895674705505,-0.07714375108480453
1751448486719253000,5.4902529296875,9.800872802734375,0.32926151156425476,-0.06982550770044327
1751448486738081300,5.509081298828125,9.800983428955078,0.32688552141189575,-0.06531284749507904
1751448486756909600,5.52790966796875,9.801011085510254,0.3260386288166046,-0.06518590450286865
1751448486775737900,5.54673779296875,9.801039695739746,0.3254142105579376,-0.06406136602163315
1751448486794566400,5.56556640625,9.801255226135254,0.32074809074401855,-0.05394710600376129
1751448486813394700,5.584394775390625,9.801695823669434,0.3093726933002472,-0.037818778306245804
1751448486832223000,5.603222900390625,9.80229663848877,0.2913706600666046,-0.021776776760816574
1751448486851051000,5.622051025390625,9.802845001220703,0.27282312512397766,-0.013386809267103672
1751448486869879300,5.64087939453125,9.803380966186523,0.25315845012664795,0.003726273775100708
1751448486888707600,5.65970751953125,9.803797721862793,0.23598824441432953,0.016244588419795036
1751448486907536000,5.678535888671875,9.804125785827637,0.22238878905773163,0.007739841006696224
1751448486926364200,5.6973642578125,9.804226875305176,0.21776553988456726,-0.009583419188857079
1751448486945192400,5.7161923828125,9.804162979125977,0.21892650425434113,-0.0290064699947834
1751448486964020700,5.735020751953125,9.803815841674805,0.22905197739601135,-0.05580022558569908
1751448486982849000,5.75384912109375,9.803465843200684,0.24017472565174103,-0.06892594695091248
1751448487001677300,5.77267724609375,9.803011894226074,0.25436636805534363,-0.08145949989557266
1751448487020505600,5.791505615234375,9.802450180053711,0.26990994811058044,-0.0974469855427742
1751448487039334000,5.810333984375,9.801848411560059,0.2863929271697998,-0.11020144820213318
1751448487058162200,5.829162109375,9.801118850708008,0.3042932450771332,-0.12598250806331635
1751448487076990500,5.847990478515625,9.800636291503906,0.31754133105278015,-0.13074706494808197
1751448487095818800,5.86681884765625,9.800385475158691,0.3265664279460907,-0.1272745281457901
1751448487114647000,5.88564697265625,9.800291061401367,0.33321642875671387,-0.11681022495031357
1751448487133475300,5.904475341796875,9.800308227539062,0.33802157640457153,-0.10040507465600967
1751448487152303600,5.9233037109375,9.800296783447266,0.341045618057251,-0.09085898846387863
1751448487171132000,5.9421318359375,9.800296783447266,0.3431214392185211,-0.08266320824623108
1751448487189960200,5.960960205078125,9.800358772277832,0.3432096838951111,-0.07453247159719467
1751448487208788500,5.97978857421875,9.80045223236084,0.3422582447528839,-0.06632819771766663
1751448487227616800,5.99861669921875,9.800651550292969,0.3382514715194702,-0.05657171085476875
1751448487246445000,6.017445068359375,9.800798416137695,0.33534735441207886,-0.047803450375795364
1751448487265273300,6.0362734375,9.800959587097168,0.33159691095352173,-0.04027913510799408
1751448487284101600,6.0551015625,9.801380157470703,0.32058048248291016,-0.023693008348345757
1751448487302930000,6.073929931640625,9.801984786987305,0.30245015025138855,-0.003235457232221961
1751448487321758200,6.09275830078125,9.802599906921387,0.2815468907356262,0.012385816313326359
1751448487340586500,6.11158642578125,9.803155899047852,0.2614878714084625,0.012291734106838703
1751448487359414800,6.130414794921875,9.803657531738281,0.24180211126804352,0.01503333356231451
1751448487378243000,6.1492431640625,9.80405044555664,0.22319290041923523,0.03408560901880264
1751448487406485500,6.177485595703125,9.804193496704102,0.2194700539112091,-0.002710857195779681
1751448487425313800,6.196313720703125,9.803887367248535,0.2301708310842514,-0.03478410094976425
1751448487444142300,6.215142333984375,9.803328514099121,0.24746541678905487,-0.062423065304756165
1751448487462970600,6.233970703125,9.802674293518066,0.26646688580513,-0.08341637998819351
1751448487481799000,6.252798828125,9.801955223083496,0.28508663177490234,-0.10383937507867813
1751448487500627000,6.271626953125,9.80121898651123,0.30363911390304565,-0.11957726627588272
1751448487528869600,6.29986962890625,9.800411224365234,0.32597482204437256,-0.12673568725585938
1751448487547698000,6.318697998046875,9.800036430358887,0.3385881781578064,-0.12260695546865463
1751448487566526200,6.337526123046875,9.800040245056152,0.346456378698349,-0.0977201908826828
1751448487585354500,6.3563544921875,9.799615859985352,0.360119491815567,-0.09079642593860626
1751448487604182800,6.375182861328125,9.79931640625,0.37058183550834656,-0.08024623245000839
1751448487623011000,6.394010986328125,9.799458503723145,0.3698226809501648,-0.06501846760511398
1751448487641839400,6.41283935546875,9.7996244430542,0.3664267361164093,-0.05899454280734062
1751448487660667600,6.431667724609375,9.799949645996094,0.35929441452026367,-0.04778582230210304
1751448487679496000,6.450495849609375,9.800139427185059,0.355241596698761,-0.03805437311530113
1751448487698324200,6.46932421875,9.800268173217773,0.35248884558677673,-0.02971614897251129
1751448487717152500,6.488152587890625,9.800277709960938,0.35243794322013855,-0.027187777683138847
1751448487735980800,6.506980712890625,9.800519943237305,0.34624919295310974,-0.017567798495292664
1751448487754809000,6.52580908203125,9.801004409790039,0.3327389061450958,-0.0008604577742516994
1751448487773637400,6.544637451171875,9.801552772521973,0.3158898651599884,0.012720371596515179
1751448487792465700,6.563465576171875,9.80212116241455,0.29720038175582886,0.02221672609448433
1751448487811294000,6.5822939453125,9.802726745605469,0.2760293483734131,0.027095433324575424
1751448487830122200,6.601122314453125,9.803284645080566,0.25231316685676575,0.048403456807136536
1751448487848950500,6.619950439453125,9.803704261779785,0.23745383322238922,0.03736266493797302
1751448487867778800,6.63877880859375,9.804083824157715,0.20988410711288452,0.07916642725467682
1751448487886607000,6.657607177734375,9.804449081420898,0.19979378581047058,0.05710608884692192
1751448487905435400,6.676435302734375,9.804810523986816,0.1838272213935852,0.04776569455862045
1751448487924263700,6.695263671875,9.805096626281738,0.1676594614982605,0.048416074365377426
1751448487943092000,6.714092041015625,9.805277824401855,0.1613280475139618,0.02956441044807434
1751448487961920300,6.732920166015625,9.805157661437988,0.17086443305015564,-0.009055979549884796
1751448487980748500,6.75174853515625,9.80508804321289,0.1729646772146225,-0.02671082690358162
1751448487999576800,6.770576904296875,9.804729461669922,0.1861153393983841,-0.05499822646379471
1751448488018405000,6.789405029296875,9.804430961608887,0.19701245427131653,-0.06861267983913422
1751448488037233400,6.8082333984375,9.804191589355469,0.2048390954732895,-0.07913445681333542
1751448488056061700,6.827061767578125,9.803796768188477,0.2147097885608673,-0.09930810332298279
1751448488074890000,6.845889892578125,9.803293228149414,0.22718356549739838,-0.11922534555196762
1751448488093718300,6.86471826171875,9.803043365478516,0.23864665627479553,-0.11737547814846039
1751448488112546800,6.883546875,9.802538871765137,0.25475427508354187,-0.1253771334886551
1751448488131375000,6.902375,9.801939010620117,0.27403923869132996,-0.13150250911712646
1751448488150203400,6.921203369140625,9.801189422607422,0.2943357825279236,-0.14299637079238892
1751448488169031700,6.94003173828125,9.800683975219727,0.31209486722946167,-0.13996845483779907
1751448488187860000,6.95885986328125,9.799973487854004,0.33259162306785583,-0.1424514651298523
1751448488206688300,6.977688232421875,9.799687385559082,0.3459586501121521,-0.1297612190246582
1751448488225516500,6.9965166015625,9.799637794494629,0.3541319668292999,-0.10987662523984909
1751448488244344800,7.0153447265625,9.799849510192871,0.35596251487731934,-0.08142808824777603
1751448488263173000,7.034173095703125,9.799982070922852,0.35570472478866577,-0.06492307037115097
1751448488282001400,7.05300146484375,9.799985885620117,0.35665830969810486,-0.05879320204257965
1751448488300829700,7.07182958984375,9.800130844116211,0.3542785942554474,-0.04805789142847061
1751448488319658000,7.090657958984375,9.800145149230957,0.353945791721344,-0.04759926348924637
1751448488338486300,7.109486328125,9.800240516662598,0.3522729277610779,-0.03975110873579979
1751448488357314600,7.128314453125,9.800325393676758,0.350737601518631,-0.031492430716753006
1751448488376142800,7.147142822265625,9.800559997558594,0.3448384702205658,-0.022301234304904938
1751448488394971100,7.16597119140625,9.800654411315918,0.342311829328537,-0.019715499132871628
1751448488413799400,7.18479931640625,9.800857543945312,0.3369103968143463,-0.008169837296009064
1751448488432627700,7.203627685546875,9.801246643066406,0.32550451159477234,0.003496028482913971
1751448488451456000,7.2224560546875,9.801712989807129,0.31091734766960144,0.011151205748319626
1751448488470284300,7.2412841796875,9.802191734313965,0.29518362879753113,0.01739608868956566
1751448488489112600,7.260112548828125,9.802704811096191,0.2774858772754669,0.019125234335660934
1751448488507940900,7.27894091796875,9.803271293640137,0.2562214732170105,0.02500840090215206
1751448488526769200,7.29776904296875,9.80373477935791,0.2366667538881302,0.034306857734918594
1751448488545597400,7.316597412109375,9.80421257019043,0.21248403191566467,0.05153588578104973
1751448488564425700,7.33542578125,9.80455207824707,0.19401231408119202,0.05915941298007965
1751448488583254300,7.354254150390625,9.80479907989502,0.17885063588619232,0.0656505674123764
1751448488602082600,7.37308251953125,9.805092811584473,0.1655372828245163,0.0561511404812336
1751448488620910600,7.39191064453125,9.805309295654297,0.1585165113210678,0.03437311202287674
1751448488639739000,7.41073876953125,9.805411338806152,0.15585067868232727,0.002027261769399047
1751448488658567400,7.4295673828125,9.804829597473145,0.17916443943977356,-0.06008165329694748
1751448488677395700,7.448395751953125,9.804491996765137,0.19274355471134186,-0.0719108060002327
1751448488696224000,7.46722412109375,9.804190635681152,0.2038642168045044,-0.08161069452762604
1751448488715052300,7.48605224609375,9.80386734008789,0.2155749499797821,-0.09007110446691513
1751448488733880600,7.504880615234375,9.80357837677002,0.22533753514289856,-0.09722141176462173
1751448488752708900,7.523708984375,9.80328369140625,0.23643267154693604,-0.10049696266651154
1751448488771537200,7.542537109375,9.802879333496094,0.2502736449241638,-0.10639703273773193
1751448488790365400,7.561365478515625,9.802434921264648,0.2645314335823059,-0.11264266073703766
1751448488809193700,7.58019384765625,9.801997184753418,0.2790684401988983,-0.11556633561849594
1751448488828022000,7.59902197265625,9.801627159118652,0.29294249415397644,-0.11258646100759506
1751448488846850300,7.617850341796875,9.801325798034668,0.30679696798324585,-0.10133720189332962
1751448488865678600,7.6366787109375,9.80123519897461,0.31537842750549316,-0.08190387487411499
1751448488884507000,7.6555068359375,9.80158519744873,0.31211939454078674,-0.04365631192922592
1751448488903335200,7.674335205078125,9.801505088806152,0.31660035252571106,-0.02544526942074299
1751448488922163500,7.69316357421875,9.80136775970459,0.3209843039512634,-0.023405522108078003
1751448488940991700,7.71199169921875,9.800535202026367,0.3400718569755554,-0.06532364338636398
1751448488959820000,7.730820068359375,9.800670623779297,0.33946913480758667,-0.04485061764717102
1751448488978648300,7.7496484375,9.800576210021973,0.342240571975708,-0.044217683374881744
1751448488997476600,7.7684765625,9.800407409667969,0.34657737612724304,-0.047768015414476395
1751448489016305000,7.787304931640625,9.800414085388184,0.3476587235927582,-0.037424806505441666
1751448489035133200,7.80613330078125,9.800536155700684,0.3453211784362793,-0.02532355673611164
1751448489053961500,7.82496142578125,9.800703048706055,0.34119537472724915,-0.013728058896958828
1751448489072789800,7.843789794921875,9.800834655761719,0.3375709652900696,-0.008848113007843494
1751448489091618000,7.8626181640625,9.800993919372559,0.333006888628006,0.002718490781262517
1751448489110446300,7.8814462890625,9.801433563232422,0.31939026713371277,0.01670013926923275
1751448489129274600,7.900274658203125,9.801928520202637,0.30305251479148865,0.02696320228278637
1751448489148103000,7.91910302734375,9.802383422851562,0.28772154450416565,0.029625650495290756
1751448489166931200,7.93793115234375,9.802765846252441,0.27389806509017944,0.03407082334160805
1751448489185759500,7.956759521484375,9.803201675415039,0.2566962242126465,0.041834622621536255
1751448489204587800,7.975587890625,9.803709030151367,0.2297065705060959,0.07008868455886841
1751448489223416000,7.994416015625,9.804289817810059,0.20332872867584229,0.07037403434515
1751448489242244400,8.013244384765626,9.80463981628418,0.17986127734184265,0.08413200825452805
1751448489261072600,8.03207275390625,9.8046875,0.1530918926000595,0.1227058470249176
1751448489279901000,8.05090087890625,9.804610252380371,0.13340531289577484,0.14901860058307648
1751448489298729500,8.0697294921875,9.80513858795166,0.13905085623264313,0.10162326693534851
1751448489317557800,8.088557861328125,9.805410385131836,0.15357746183872223,0.02676364965736866
1751448489336386000,8.107385986328126,9.805419921875,0.15511611104011536,-0.007833215408027172
1751448489355214300,8.12621435546875,9.805144309997559,0.16842986643314362,-0.0339987576007843
1751448489374042600,8.145042724609375,9.804861068725586,0.18006694316864014,-0.05174412950873375
1751448489392871000,8.163870849609374,9.804673194885254,0.18755531311035156,-0.05988685414195061
1751448489411699200,8.18269921875,9.804523468017578,0.19310609996318817,-0.06645684689283371
1751448489430527500,8.201527587890626,9.804312705993652,0.20117220282554626,-0.0733226090669632
1751448489449355800,8.220355712890624,9.803923606872559,0.21355028450489044,-0.08863061666488647
1751448489468184000,8.23918408203125,9.803712844848633,0.22268912196159363,-0.08951341360807419
1751448489487012400,8.258012451171876,9.803297996520996,0.23498350381851196,-0.10254555940628052
1751448489505840600,8.276840576171875,9.802939414978027,0.247594952583313,-0.10711627453565598
1751448489524669000,8.2956689453125,9.802392959594727,0.2638404965400696,-0.11780667304992676
1751448489543497200,8.314497314453124,9.802133560180664,0.2762696444988251,-0.11062444746494293
1751448489562325500,8.333325439453125,9.801764488220215,0.2901347577571869,-0.10772565007209778
1751448489581153800,8.35215380859375,9.801135063171387,0.3061322569847107,-0.12013044953346252
1751448489599982000,8.370982177734374,9.800688743591309,0.31886062026023865,-0.1233418732881546
1751448489618810400,8.389810302734375,9.800511360168457,0.32828426361083984,-0.11230136454105377
1751448489637638700,8.408638671875,9.800424575805664,0.3336748778820038,-0.1035245805978775
1751448489656467000,8.427467041015625,9.80051040649414,0.3372976779937744,-0.08128643780946732
1751448489675295200,8.446295166015625,9.800463676452637,0.3404350280761719,-0.07339979708194733
1751448489694123500,8.46512353515625,9.80020523071289,0.3466190993785858,-0.07891283929347992
1751448489712951800,8.483951904296875,9.800268173217773,0.3476662337779999,-0.0652627944946289
1751448489731780000,8.502780029296876,9.800213813781738,0.350567489862442,-0.05743473768234253
1751448489750608400,8.5216083984375,9.800302505493164,0.34971606731414795,-0.04628262668848038
1751448489769436700,8.540436767578125,9.800459861755371,0.3469291031360626,-0.0317792147397995
1751448489788265000,8.559264892578126,9.800623893737793,0.3430766463279724,-0.020799538120627403
1751448489807093200,8.57809326171875,9.800726890563965,0.34062469005584717,-0.011053203605115414
1751448489825921500,8.596921630859375,9.800798416137695,0.33866432309150696,-0.00693941256031394
1751448489844749800,8.615749755859374,9.801039695739746,0.33168089389801025,0.0014590846840292215
1751448489863578000,8.634578125,9.801268577575684,0.32458630204200745,0.012389391660690308
1751448489882406400,8.653406494140626,9.801679611206055,0.3108755052089691,0.02849048748612404
1751448489901234700,8.672234619140625,9.802104949951172,0.2963310182094574,0.03613646700978279
1751448489920063000,8.69106298828125,9.80257797241211,0.2794191539287567,0.04228862002491951
1751448489938891300,8.709891357421874,9.802977561950684,0.26427191495895386,0.04665381461381912
1751448489957719600,8.728719482421875,9.803445816040039,0.24447834491729736,0.05537743121385574
1751448489976547800,8.7475478515625,9.803932189941406,0.22299757599830627,0.059852663427591324
1751448489995376000,8.766376220703124,9.804300308227539,0.20262573659420013,0.0708591565489769
1751448490014204400,8.785204345703125,9.804601669311523,0.18320775032043457,0.08137542754411697
1751448490033032700,8.80403271484375,9.804784774780273,0.16547489166259766,0.09589038789272308
1751448490051861000,8.822861083984375,9.80500316619873,0.15509867668151855,0.09084776043891907
1751448490070689300,8.841689208984375,9.80520248413086,0.149834543466568,0.07709065079689026
1751448490089517600,8.860517578125,9.805360794067383,0.15413528680801392,0.03899519145488739
1751448490108345900,8.879345947265625,9.805283546447754,0.16301229596138,-0.015711495652794838
1751448490127174100,8.898174072265626,9.80501937866211,0.1744498312473297,-0.03932805359363556
1751448490146002400,8.91700244140625,9.804804801940918,0.183978870511055,-0.0484146885573864
1751448490164830700,8.935830810546875,9.804496765136719,0.19654186069965363,-0.060137778520584106
1751448490183659000,8.954658935546876,9.804241180419922,0.20661911368370056,-0.06740587204694748
1751448490202487300,8.9734873046875,9.803844451904297,0.2172316014766693,-0.08851619064807892
1751448490221315600,8.992315673828125,9.803431510925293,0.22929111123085022,-0.10270139575004578
1751448490240144000,9.011143798828124,9.802948951721191,0.24624000489711761,-0.10931295901536942
1751448490258972200,9.02997216796875,9.802321434020996,0.26344865560531616,-0.12432335317134857
1751448490277800400,9.048800537109376,9.802095413208008,0.27467161417007446,-0.11773090064525604
1751448490296628700,9.067628662109374,9.801627159118652,0.29072993993759155,-0.11821278184652328
1751448490315457000,9.08645703125,9.800739288330078,0.3123260736465454,-0.13547810912132263
1751448490334285300,9.105285400390626,9.80048942565918,0.32414278388023376,-0.12539085745811462
1751448490353113600,9.124113525390625,9.800463676452637,0.3319951593875885,-0.10531935095787048
1751448490371941600,9.142941650390625,9.800458908081055,0.33681753277778625,-0.08919844031333923
1751448490390770000,9.16177001953125,9.800515174865723,0.3385435938835144,-0.07549088448286057
1751448490409598200,9.18059814453125,9.800126075744629,0.34682703018188477,-0.08736654371023178
1751448490428426500,9.199426513671876,9.800280570983887,0.3460898697376251,-0.07146739214658737
1751448490447254800,9.2182548828125,9.800273895263672,0.34886759519577026,-0.0575452484190464
1751448490466083000,9.2370830078125,9.800233840942383,0.3518317639827728,-0.044888757169246674
1751448490484911400,9.255911376953126,9.800298690795898,0.35153916478157043,-0.03089802712202072
1751448490503739600,9.27473974609375,9.80040454864502,0.3493973910808563,-0.019462313503026962
1751448490522568000,9.29356787109375,9.800643920898438,0.34304603934288025,-0.009402976371347904
1751448490541396200,9.312396240234374,9.80085277557373,0.3370912969112396,-0.006327021401375532
1751448490560224500,9.331224609375,9.800955772399902,0.33411455154418945,-0.004452690482139587
1751448490579052800,9.350052734375,9.801189422607422,0.3272289037704468,0.003980693407356739
1751448490597881000,9.368881103515625,9.801477432250977,0.3179298937320709,0.018805311992764473
1751448490616709400,9.38770947265625,9.801833152770996,0.30526888370513916,0.035768620669841766
1751448490635537700,9.40653759765625,9.802266120910645,0.28997185826301575,0.04326960816979408
1751448490654366000,9.425365966796875,9.802700996398926,0.274277925491333,0.04702562093734741
1751448490673194200,9.4441943359375,9.80316162109375,0.2567266821861267,0.050119128078222275
1751448490692022500,9.4630224609375,9.803559303283691,0.23895150423049927,0.05921272933483124
1751448490710850800,9.481850830078125,9.8040132522583,0.21903212368488312,0.06113564968109131
1751448490729679000,9.50067919921875,9.804315567016602,0.19935981929302216,0.07778991758823395
1751448490748507400,9.51950732421875,9.804564476013184,0.18892602622509003,0.07210209220647812
1751448490767335700,9.538335693359375,9.804800033569336,0.17826305329799652,0.06711256504058838
1751448490786164000,9.5571640625,9.804939270019531,0.16824600100517273,0.07244189828634262
1751448490804992300,9.5759921875,9.805044174194336,0.1638217717409134,0.06824313849210739
1751448490823820500,9.594820556640625,9.805076599121094,0.17234164476394653,0.03390597552061081
1751448490842648800,9.61364892578125,9.804882049560547,0.18617933988571167,-0.0025448263622820377
1751448490861477000,9.63247705078125,9.804706573486328,0.19360367953777313,-0.02505730465054512
1751448490880305400,9.651305419921876,9.804624557495117,0.1958741694688797,-0.036854859441518784
1751448490899133700,9.6701337890625,9.804403305053711,0.2035968154668808,-0.05110837519168854
1751448490917962000,9.6889619140625,9.804176330566406,0.2120419591665268,-0.059758260846138
1751448490936790000,9.7077900390625,9.803821563720703,0.22376470267772675,-0.07353921234607697
1751448490955618300,9.726618408203125,9.803484916687012,0.23515450954437256,-0.08233752101659775
1751448490974446600,9.745446533203125,9.803044319152832,0.2482292652130127,-0.0953315943479538
1751448490993275000,9.76427490234375,9.802632331848145,0.2606452405452728,-0.10418614000082016
1751448491012103200,9.783103271484375,9.802221298217773,0.2715839147567749,-0.11437123268842697
1751448491030931500,9.801931396484376,9.801852226257324,0.2847946584224701,-0.11392319947481155
1751448491049759700,9.820759765625,9.80153751373291,0.29793262481689453,-0.1071193516254425
1751448491068588000,9.839588134765625,9.8016357421875,0.3026063144207001,-0.08217999339103699
1751448491087416300,9.858416259765624,9.801542282104492,0.3085533082485199,-0.07034338265657425
1751448491106244600,9.87724462890625,9.80158519744873,0.31167247891426086,-0.04673093557357788
1751448491125073000,9.896072998046876,9.801687240600586,0.3117678761482239,-0.010855640284717083
1751448491143901200,9.914901123046874,9.801779747009277,0.30845898389816284,0.018578078597784042
1751448491162729500,9.9337294921875,9.80142593383789,0.319945752620697,-0.008377933874726295
1751448491181557800,9.952557861328126,9.800492286682129,0.34233200550079346,-0.05969678983092308
1751448491200386000,9.971385986328125,9.800657272338867,0.3399188220500946,-0.04437900334596634
1751448491219214300,9.99021435546875,9.800779342651367,0.33794793486595154,-0.03022887371480465
1751448491238042400,10.00904248046875,9.800928115844727,0.3344181478023529,-0.019061913713812828
1751448491256870700,10.02787060546875,9.801085472106934,0.3301147222518921,-0.01077160332351923
1751448491275699000,10.046698974609376,9.801216125488281,0.3263583183288574,-0.005292593967169523
1751448491294527200,10.06552734375,9.801229476928711,0.32595449686050415,-0.006034574005752802
1751448491313355500,10.08435546875,9.801326751708984,0.3230920732021332,-0.003825156716629863
1751448491332183800,10.103183837890626,9.801525115966797,0.31698378920555115,0.005217983853071928
1751448491351012000,10.12201220703125,9.801735877990723,0.3097054958343506,0.021100591868162155
1751448491369840400,10.14084033203125,9.802079200744629,0.2976599335670471,0.03209209814667702
1751448491388668700,10.159668701171874,9.802473068237305,0.28296515345573425,0.042947523295879364
1751448491407497000,10.1784970703125,9.802870750427246,0.26675480604171753,0.054373849183321
1751448491426325200,10.1973251953125,9.803232192993164,0.2522174119949341,0.058502115309238434
1751448491445153500,10.216153564453125,9.803564071655273,0.23639045655727386,0.06810073554515839
1751448491463981800,10.23498193359375,9.80401611328125,0.21907910704612732,0.06066117063164711
1751448491482810000,10.25381005859375,9.804255485534668,0.19745291769504547,0.08934855461120605
1751448491501638100,10.27263818359375,9.804567337036133,0.18537940084934235,0.08060463517904282
1751448491520466400,10.291466552734375,9.804678916931152,0.1691453605890274,0.10022073984146118
1751448491539294700,10.310294677734374,9.804509162902832,0.14820803701877594,0.14154890179634094
1751448491558123000,10.329123046875,9.804495811462402,0.14324000477790833,0.1474054753780365
1751448491576951300,10.347951416015626,9.804630279541016,0.14112788438796997,0.14036798477172852
1751448491595779600,10.366779541015624,9.804887771606445,0.15243513882160187,0.1064584031701088
1751448491614608000,10.38560791015625,9.804985046386719,0.18070946633815765,-0.001057815388776362
1751448491633436200,10.404436279296876,9.804803848266602,0.1888146847486496,-0.02359640970826149
1751448491652264400,10.423264404296875,9.804643630981445,0.19539228081703186,-0.03402859717607498
1751448491671092700,10.4420927734375,9.804439544677734,0.20226356387138367,-0.04932373762130737
1751448491689921000,10.460921142578124,9.804125785827637,0.21073932945728302,-0.07136283069849014
1751448491708749000,10.4797490234375,9.8038911819458,0.21830669045448303,-0.08031027764081955
1751448491727577300,10.498577392578126,9.803617477416992,0.22705718874931335,-0.08901399374008179
1751448491746405600,10.517405517578124,9.80324935913086,0.23938380181789398,-0.0969119593501091
1751448491765234000,10.53623388671875,9.802865028381348,0.24983210861682892,-0.10864419490098953
1751448491784062200,10.555062255859376,9.802557945251465,0.26180967688560486,-0.1081206202507019
1751448491802890500,10.573890380859375,9.802380561828613,0.27126502990722656,-0.10068806260824203
1751448491821718800,10.59271875,9.802074432373047,0.282207190990448,-0.10041748732328415
1751448491840547000,10.611547119140624,9.801372528076172,0.29877379536628723,-0.1191638633608818
1751448491859375400,10.630375244140625,9.800899505615234,0.31183016300201416,-0.12460444122552872
1751448491878203600,10.64920361328125,9.800748825073242,0.3214928209781647,-0.11109709739685059
1751448491897031700,10.66803173828125,9.800698280334473,0.3283259868621826,-0.09437635540962219
1751448491915860000,10.68685986328125,9.801222801208496,0.3231137990951538,-0.04486169293522835
1751448491934688300,10.705688232421876,9.801375389099121,0.3207150995731354,-0.023967813700437546
1751448491953516500,10.7245166015625,9.80136489868164,0.3215065598487854,-0.016297422349452972
1751448491972344800,10.7433447265625,9.801413536071777,0.32042843103408813,-0.0029839370399713516
1751448491991173000,10.762173095703124,9.801332473754883,0.3228689432144165,-0.005098840221762657
1751448492010001400,10.78100146484375,9.801376342773438,0.32155391573905945,-0.003605205798521638
1751448492028829700,10.79982958984375,9.801262855529785,0.32464805245399475,-0.015375937335193157
1751448492047657700,10.81865771484375,9.801405906677246,0.3206055164337158,-0.006101143080741167
1751448492066486000,10.837486083984375,9.801445960998535,0.3193904161453247,-0.004989464767277241
1751448492085314300,10.856314208984376,9.801606178283691,0.314506858587265,0.0013273892691358924
1751448492104142600,10.875142578125,9.801878929138184,0.3056126534938812,0.012237746268510818
1751448492122971000,10.893970947265625,9.802190780639648,0.29489046335220337,0.02204371616244316
1751448492141799200,10.912799072265624,9.802523612976074,0.2827068567276001,0.031693100929260254
1751448492160627500,10.93162744140625,9.802786827087402,0.2728565037250519,0.03617580607533455
1751448492179455700,10.950455810546876,9.803132057189941,0.2596641182899475,0.039614126086235046
1751448492198283800,10.96928369140625,9.803462982177734,0.2411574274301529,0.0660247728228569
1751448492217112000,10.988112060546875,9.8035249710083,0.22130121290683746,0.11101391166448593
1751448492235940400,11.0069404296875,9.803877830505371,0.21310660243034363,0.09461711347103119
1751448492254768600,11.0257685546875,9.804253578186035,0.20164355635643005,0.0796528086066246
1751448492273597000,11.044596923828125,9.804512023925781,0.1841973215341568,0.08940040320158005
1751448492292425200,11.06342529296875,9.80457592010498,0.1704561561346054,0.10779847949743271
1751448492311253500,11.08225341796875,9.804607391357422,0.15558455884456635,0.12591290473937988
1751448492339496000,11.110495849609375,9.804316520690918,0.1364445835351944,0.16477593779563904
1751448492358324000,11.129323974609376,9.804389953613281,0.1363925039768219,0.16032306849956512
1751448492377152300,11.14815234375,9.80474853515625,0.14390616118907928,0.12881337106227875
1751448492395980500,11.16698046875,9.805037498474121,0.16205506026744843,0.07312723249197006
1751448492414808800,11.185808837890624,9.804679870605469,0.19585086405277252,-0.016740519553422928
1751448492433637000,11.20463720703125,9.804426193237305,0.2056402713060379,-0.03648114204406738
1751448492452465400,11.22346533203125,9.804142951965332,0.21504251658916473,-0.05415845662355423
1751448492471293700,11.242293701171874,9.803899765014648,0.22296160459518433,-0.06499287486076355
1751448492490121700,11.261121826171875,9.803574562072754,0.2325466275215149,-0.07889006286859512
1751448492508950000,11.279949951171876,9.80307388305664,0.24536488950252533,-0.09962363541126251
1751448492527778300,11.2987783203125,9.802839279174805,0.2540924549102783,-0.1008734256029129
1751448492546606600,11.317606689453125,9.802727699279785,0.2604171633720398,-0.0953649953007698
1751448492565435000,11.336434814453124,9.802651405334473,0.26650315523147583,-0.08604133129119873
1751448492584263200,11.35526318359375,9.802473068237305,0.27497512102127075,-0.07934493571519852
1751448492603091200,11.37409130859375,9.802136421203613,0.286554217338562,-0.07996693253517151
1751448492621919500,11.39291943359375,9.801807403564453,0.29605963826179504,-0.08544899523258209
1751448492640747800,11.411747802734375,9.801484107971191,0.30560848116874695,-0.08883757144212723
1751448492659576000,11.430576171875,9.801363945007324,0.3106796443462372,-0.08446977287530899
1751448492678404400,11.449404296875,9.80123233795166,0.31570711731910706,-0.08104032278060913
1751448492697232600,11.468232666015625,9.801310539245605,0.3164227306842804,-0.06766216456890106
1751448492716061000,11.48706103515625,9.801290512084961,0.31797778606414795,-0.06312780827283859
1751448492734889000,11.505888916015625,9.801389694213867,0.31649720668792725,-0.05459735542535782
1751448492753717200,11.52471728515625,9.801375389099121,0.3181740641593933,-0.04659318923950195
1751448492772545500,11.543545654296874,9.801241874694824,0.32255667448043823,-0.04472189024090767
1751448492791373800,11.562373779296875,9.801257133483887,0.3231108486652374,-0.036741144955158234
1751448492810202000,11.5812021484375,9.801308631896973,0.3224456310272217,-0.027697911486029625
1751448492829030100,11.600030029296875,9.801505088806152,0.31711676716804504,-0.017750678583979607
1751448492847858400,11.6188583984375,9.801750183105469,0.3098553419113159,-0.009254999458789825
1751448492866686700,11.637686767578124,9.80180835723877,0.3080374002456665,-0.007646399550139904
1751448492885515000,11.656514892578125,9.801947593688965,0.30365344882011414,-0.0015181150520220399
1751448492904343300,11.67534326171875,9.802098274230957,0.29868629574775696,0.006722721736878157
1751448492923171600,11.694171630859374,9.802314758300781,0.2910826504230499,0.016569742932915688
1751448492941999600,11.71299951171875,9.802602767944336,0.2805691063404083,0.025353599339723587
1751448492960828000,11.731827880859376,9.80295467376709,0.26652243733406067,0.03799305483698845
1751448492979656200,11.75065625,9.803305625915527,0.25251835584640503,0.04275834187865257
1751448492998484500,11.769484375,9.803651809692383,0.23544524610042572,0.058023858815431595
1751448493017312800,11.788312744140624,9.803954124450684,0.22056487202644348,0.0648118108510971
1751448493036140800,11.807140869140625,9.804152488708496,0.20260049402713776,0.08914444595575333
1751448493054969000,11.825968994140625,9.80441951751709,0.18781650066375732,0.09198955446481705
1751448493073797400,11.84479736328125,9.8046236038208,0.1748867928981781,0.09561076015233994
1751448493092625700,11.863625732421875,9.804854393005371,0.16881732642650604,0.08202739804983139
1751448493111454000,11.882453857421876,9.804977416992188,0.1624750941991806,0.08004017174243927
1751448493130282200,11.9012822265625,9.805021286010742,0.15670359134674072,0.08589813113212585
1751448493149110300,11.9201103515625,9.805081367492676,0.16277535259723663,0.06547592580318451
1751448493167938600,11.9389384765625,9.80501937866211,0.17726236581802368,0.023259636014699936
1751448493186766800,11.957766845703125,9.804888725280762,0.1858690083026886,0.0024803143460303545
1751448493205595100,11.97659521484375,9.804780006408691,0.19116930663585663,-0.01172682549804449
1751448493224423400,11.99542333984375,9.804600715637207,0.1986822634935379,-0.02701861970126629
1751448493243251500,12.01425146484375,9.804224014282227,0.20976585149765015,-0.05969440937042236
1751448493262079700,12.033079833984376,9.80395221710205,0.21729274094104767,-0.0753735601902008
1751448493280908000,12.051907958984375,9.80358600616455,0.227146178483963,-0.09213754534721375
1751448493299736300,12.070736328125,9.803236961364746,0.23794546723365784,-0.10159052908420563
1751448493318564400,12.089564453125,9.802967071533203,0.24964065849781036,-0.09950802475214005
1751448493337392600,12.108392578125,9.802586555480957,0.26322969794273376,-0.1018829494714737
1751448493356221000,12.127220947265625,9.801996231079102,0.2792928218841553,-0.11520496755838394
1751448493375049200,12.14604931640625,9.80157470703125,0.2940954267978668,-0.11412961035966873
1751448493393877500,12.16487744140625,9.801261901855469,0.30565163493156433,-0.11052949726581573
1751448493412705500,12.18370556640625,9.801162719726562,0.3131371736526489,-0.09766868501901627
1751448493431533800,12.202533935546874,9.801447868347168,0.3128625154495239,-0.06422016769647598
1751448493450362000,12.221362060546875,9.801563262939453,0.31271031498908997,-0.04440256208181381
1751448493469190400,12.2401904296875,9.800666809082031,0.3312928080558777,-0.08692961931228638
1751448493488018700,12.259018798828125,9.801047325134277,0.3255177140235901,-0.06234811246395111
1751448493506846700,12.2778466796875,9.800992012023926,0.328480988740921,-0.05521230399608612
1751448493525675000,12.296675048828124,9.801107406616211,0.3272031843662262,-0.04030737280845642
1751448493544503300,12.31550341796875,9.801212310791016,0.32523566484451294,-0.028919409960508347
1751448493563331600,12.33433154296875,9.801382064819336,0.3208969831466675,-0.017672443762421608
1751448493582159600,12.35315966796875,9.801549911499023,0.3160972595214844,-0.009671325795352459
1751448493600988000,12.37198779296875,9.801615715026855,0.3140720725059509,-0.008547787554562092
1751448493619816200,12.390816162109376,9.801716804504395,0.31097185611724854,-0.004867641720920801
1751448493638644500,12.40964453125,9.80184555053711,0.30695730447769165,0.00098693638574332
1751448493657472800,12.42847265625,9.802048683166504,0.3002200126647949,0.009613847360014915
1751448493676300800,12.44730078125,9.80235481262207,0.28953665494918823,0.019603967666625977
1751448493695129000,12.466129150390625,9.802713394165039,0.27623069286346436,0.029930733144283295
1751448493713957400,12.484957275390625,9.803040504455566,0.2629428803920746,0.04041231423616409
1751448493732785400,12.503785400390624,9.803285598754883,0.2522263526916504,0.048643093556165695
1751448493751613700,12.52261376953125,9.803506851196289,0.24006487429141998,0.06336130201816559
1751448493770442000,12.54144189453125,9.803751945495605,0.2242017388343811,0.08117038756608963
1751448493789270300,12.560270263671875,9.80390739440918,0.2034473717212677,0.11135164648294449
1751448493808098300,12.579098388671875,9.804232597351074,0.19139648973941803,0.10378630459308624
1751448493826926600,12.597926513671876,9.804471969604492,0.17996804416179657,0.10171248018741608
1751448493845755000,12.6167548828125,9.8046293258667,0.16962023079395294,0.10425660014152527
1751448493864583200,12.635583251953125,9.804793357849121,0.16685427725315094,0.09250355511903763
1751448493883411200,12.6544111328125,9.804886817932129,0.16395257413387299,0.0877770259976387
1751448493902239500,12.673239501953125,9.804920196533203,0.16003809869289398,0.09122610092163086
1751448493921067800,12.69206787109375,9.805072784423828,0.16719494760036469,0.05452660471200943
1751448493939896000,12.71089599609375,9.805108070373535,0.1722911149263382,0.02337801456451416
1751448493958724000,12.72972412109375,9.805030822753906,0.17791524529457092,-0.010441400110721588
1751448493977552400,12.748552490234376,9.804953575134277,0.18158289790153503,-0.016988635063171387
1751448493996380700,12.767380615234375,9.80483627319336,0.18754136562347412,-0.020301787182688713
1751448494015209000,12.786208984375,9.804719924926758,0.1928633153438568,-0.025557801127433777
1751448494034037000,12.805037109375,9.804555892944336,0.19880715012550354,-0.03941771015524864
1751448494052865300,12.823865234375,9.80415153503418,0.21040160953998566,-0.06876218318939209
1751448494071693600,12.842693603515626,9.803853034973145,0.21966613829135895,-0.08118677884340286
1751448494090521600,12.861521484375,9.803351402282715,0.2342231422662735,-0.09915142506361008
1751448494109350000,12.880349853515625,9.802679061889648,0.2511850893497467,-0.12160160392522812
1751448494128178200,12.89917822265625,9.802300453186035,0.26533880829811096,-0.12202714383602142
1751448494147006500,12.91800634765625,9.801714897155762,0.2816602289676666,-0.1321152299642563
1751448494165834500,12.93683447265625,9.801406860351562,0.2951053977012634,-0.12538594007492065
1751448494184662800,12.955662841796874,9.801138877868652,0.30666619539260864,-0.1184074655175209
1751448494203491000,12.974490966796875,9.80112075805664,0.31258365511894226,-0.10347049683332443
1751448494222319400,12.9933193359375,9.801301002502441,0.3116729259490967,-0.08799144625663757
1751448494241147400,13.0121474609375,9.801654815673828,0.3072175085544586,-0.05976421758532524
1751448494259975700,13.0309755859375,9.801658630371094,0.30889666080474854,-0.049575403332710266
1751448494278804000,13.049803955078126,9.80132007598877,0.3174044191837311,-0.061375536024570465
1751448494297632000,13.068632080078125,9.801396369934082,0.3164735734462738,-0.05346791446208954
1751448494316460300,13.087460205078125,9.801553726196289,0.31348761916160583,-0.04073881357908249
1751448494335288600,13.10628857421875,9.801725387573242,0.309243768453598,-0.030430255457758904
1751448494354116600,13.12511669921875,9.801812171936035,0.3073112368583679,-0.02088877372443676
1751448494372945000,13.14394482421875,9.801898002624512,0.30503320693969727,-0.011951910331845284
1751448494391773200,13.162773193359374,9.802027702331543,0.300954133272171,-0.007958848029375076
1751448494410601200,13.181601318359375,9.802291870117188,0.29231172800064087,0.0015502324094995856
1751448494429429500,13.200429443359376,9.802627563476562,0.2805594801902771,0.013240672647953033
1751448494448257800,13.2192578125,9.802955627441406,0.2681918740272522,0.022830577567219734
1751448494467086000,13.238086181640625,9.803284645080566,0.2539615035057068,0.03890208154916763
1751448494485914000,13.2569140625,9.803576469421387,0.23978044092655182,0.052749551832675934
1751448494514156500,13.285156494140624,9.803882598876953,0.22094061970710754,0.07383784651756287
1751448494532984800,13.30398486328125,9.804067611694336,0.20584183931350708,0.09087821841239929
1751448494551812900,13.322812744140625,9.804326057434082,0.19330795109272003,0.09056996554136276
1751448494570641200,13.34164111328125,9.80448055267334,0.178736612200737,0.1029505580663681
1751448494589469200,13.36046923828125,9.804686546325684,0.1775972843170166,0.08344835042953491
1751448494608297500,13.37929736328125,9.804834365844727,0.17265230417251587,0.0761035829782486
1751448494627125800,13.398125732421875,9.805044174194336,0.16680121421813965,0.060710471123456955
1751448494645954000,13.4169541015625,9.80517864227295,0.16141527891159058,0.05297308415174484
1751448494664782000,13.435781982421876,9.805293083190918,0.1565043181180954,0.04609585925936699
1751448494683610400,13.4546103515625,9.80529499053955,0.15307161211967468,0.05608141049742699
1751448494702438700,13.473438720703125,9.80525016784668,0.16387459635734558,0.02482881210744381
1751448494721266700,13.4922666015625,9.805107116699219,0.17376619577407837,-0.0071959528140723705
1751448494740095000,13.511094970703125,9.804923057556152,0.18242396414279938,-0.02437877096235752
1751448494758923300,13.52992333984375,9.804759979248047,0.18929921090602875,-0.03520868718624115
1751448494777751300,13.548751220703124,9.804452896118164,0.19895032048225403,-0.059233248233795166
1751448494796579600,13.56757958984375,9.80346965789795,0.21837997436523438,-0.12109410017728806
1751448494815407900,13.586407958984376,9.803131103515625,0.22928109765052795,-0.12823233008384705
1751448494834236000,13.60523583984375,9.802806854248047,0.2413940727710724,-0.1307554394006729
1751448494853064200,13.624064208984375,9.802490234375,0.25495147705078125,-0.12876252830028534
1751448494871892500,13.642892578125,9.802220344543457,0.2679268419742584,-0.12276312708854675
1751448494890720500,13.661720458984375,9.802085876464844,0.2780304253101349,-0.11041926592588425
1751448494909548800,13.680548828125,9.801438331604004,0.2945498824119568,-0.12427087128162384
1751448494928377000,13.699377197265624,9.801229476928711,0.3049505054950714,-0.11531149595975876
1751448494947205000,13.718205078125,9.801432609558105,0.3079797625541687,-0.08629518002271652
1751448494966033400,13.737033447265626,9.801923751831055,0.30301332473754883,-0.02947322651743889
1751448494984861700,13.75586181640625,9.802020072937012,0.3012892007827759,-0.002339336322620511
1751448495003689700,13.774689697265625,9.801945686340332,0.3037002384662628,-0.0008465619757771492
1751448495022518000,13.79351806640625,9.802022933959961,0.3011564314365387,0.006739260163158178
1751448495041346300,13.81234619140625,9.802074432373047,0.29927653074264526,0.011938013136386871
1751448495060174300,13.83117431640625,9.802043914794922,0.3005370497703552,0.002480827271938324
1751448495079002600,13.850002685546874,9.801901817321777,0.30457794666290283,-0.018750270828604698
1751448495097830700,13.86883056640625,9.80197811126709,0.30230116844177246,-0.015004093758761883
1751448495116659000,13.887658935546876,9.802017211914062,0.3011259138584137,-0.012723277322947979
1751448495135487200,13.9064873046875,9.802054405212402,0.3000944256782532,-0.009005194529891014
1751448495154315300,13.925315185546875,9.80221176147461,0.29500266909599304,-0.00031318538822233677
1751448495173143600,13.9441435546875,9.80247974395752,0.28569239377975464,0.01254298910498619
1751448495191971800,13.962971923828125,9.802705764770508,0.277092844247818,0.023517247289419174
1751448495210799900,13.9817998046875,9.803023338317871,0.26483991742134094,0.031357746571302414
1751448495229628200,14.000628173828124,9.80331039428711,0.2509913444519043,0.04993290454149246
1751448495248456400,14.01945654296875,9.80355167388916,0.23777137696743011,0.06505919992923737
1751448495267284500,14.038284423828125,9.80373477935791,0.2312057763338089,0.0609128400683403
1751448495286112800,14.05711279296875,9.803982734680176,0.22085823118686676,0.05947795882821083
1751448495304940800,14.07594091796875,9.804206848144531,0.21163342893123627,0.056033905595541
1751448495323769000,14.09476904296875,9.804302215576172,0.2011684775352478,0.07476430386304855
1751448495342597400,14.113597412109375,9.804512977600098,0.19200672209262848,0.07098208367824554
1751448495361425400,14.13242529296875,9.8046236038208,0.1865815967321396,0.07024427503347397
1751448495380253700,14.151253662109376,9.80473518371582,0.18044278025627136,0.07071216404438019
1751448495399082000,14.17008203125,9.80478286743164,0.1795692890882492,0.06614305078983307
1751448495417910000,14.188909912109375,9.804853439331055,0.18175145983695984,0.04704179987311363
1751448495436738300,14.20773828125,9.804896354675293,0.1838708072900772,0.02428300864994526
1751448495455566300,14.22656640625,9.804912567138672,0.1845485121011734,0.005711710080504417
1751448495474394600,14.24539453125,9.804964065551758,0.18185386061668396,-0.0029650614596903324
1751448495493223000,14.264222900390624,9.804952621459961,0.18240110576152802,-0.004111089278012514
1751448495512051000,14.283051025390625,9.804885864257812,0.18580982089042664,-0.008265088312327862
1751448495530879200,14.301879150390626,9.804697036743164,0.19478991627693176,-0.019181936979293823
1751448495549707300,14.320707275390625,9.80450439453125,0.2032713145017624,-0.027329428121447563
1751448495568535600,14.33953564453125,9.804292678833008,0.21081270277500153,-0.042152803391218185
1751448495587363800,14.35836376953125,9.803773880004883,0.22496233880519867,-0.07623410224914551
1751448495606191900,14.37719189453125,9.803491592407227,0.23468981683254242,-0.08278091996908188
1751448495625020200,14.396020263671875,9.803147315979004,0.24551257491111755,-0.09182732552289963
1751448495643848200,14.41484814453125,9.802732467651367,0.2585677206516266,-0.09977462142705917
1751448495662676500,14.433676513671875,9.802350044250488,0.2708226442337036,-0.10479312390089035
1751448495681504800,14.4525048828125,9.802120208740234,0.28034770488739014,-0.10117915272712708
1751448495700332800,14.471332763671874,9.802142143249512,0.28554436564445496,-0.08276539295911789
1751448495719161000,14.4901611328125,9.802299499511719,0.28651484847068787,-0.0568745918571949
1751448495737989000,14.508989013671876,9.802375793457031,0.28719624876976013,-0.036383554339408875
1751448495756817400,14.5278173828125,9.802590370178223,0.2821531891822815,-0.002641421975567937
1751448495775645400,14.5466455078125,9.802645683288574,0.28008583188056946,0.008501804433763027
1751448495794473700,14.5654736328125,9.802679061889648,0.2787680923938751,0.012313617393374443
1751448495813302000,14.584302001953125,9.80266284942627,0.27962052822113037,0.0005241013132035732
1751448495832130000,14.603130126953126,9.802549362182617,0.2830687165260315,-0.016679150983691216
1751448495850958300,14.621958251953124,9.802644729614258,0.2801121473312378,-0.008667807094752789
1751448495869786400,14.640786376953125,9.802863121032715,0.2724769115447998,0.0042882501147687435
1751448495888614700,14.65961474609375,9.80316162109375,0.2611560523509979,0.014082642272114754
1751448495907443000,14.67844287109375,9.803494453430176,0.24685505032539368,0.030767953023314476
1751448495926271000,14.69727099609375,9.803812980651855,0.23036199808120728,0.050763826817274094
1751448495945099300,14.716099365234374,9.804145812988281,0.2116744965314865,0.06553862988948822
1751448495963927300,14.73492724609375,9.804442405700684,0.19314727187156677,0.07743383944034576
1751448495982755600,14.753755615234375,9.804365158081055,0.165193110704422,0.13234971463680267
1751448496001583600,14.77258349609375,9.80403995513916,0.1420172154903412,0.17613522708415985
1751448496020412000,14.791411865234375,9.803434371948242,0.11726878583431244,0.22204938530921936
1751448496039240200,14.810240234375,9.803504943847656,0.11356101185083389,0.22086584568023682
1751448496058068200,14.829068115234374,9.803780555725098,0.11293474584817886,0.20863530039787292
1751448496076896500,14.847896484375,9.803853988647461,0.11251191794872284,0.20537574589252472
1751448496095724500,14.866724609375,9.80424690246582,0.11495111882686615,0.1841769814491272
1751448496114552800,14.885552734375,9.804916381835938,0.1207079142332077,0.13937786221504211
1751448496133380900,14.904380859375,9.80536937713623,0.14593107998371124,0.06185152754187584
1751448496152209200,14.923209228515624,9.805207252502441,0.168166384100914,-0.001379624824039638
1751448496171037200,14.942037109375,9.805054664611816,0.1757589876651764,-0.020104441791772842
1751448496189865500,14.960865478515625,9.80492877960205,0.18084748089313507,-0.03249926492571831
1751448496208693500,14.979693603515624,9.804753303527832,0.18774333596229553,-0.044121481478214264
1751448496227521800,14.998521728515625,9.804518699645996,0.1960963010787964,-0.05776677280664444
1751448496246350000,15.01735009765625,9.804255485534668,0.20656630396842957,-0.06543531268835068
1751448496265178000,15.03617822265625,9.803925514221191,0.2179228663444519,-0.07704795151948929
1751448496284006400,15.05500634765625,9.803563117980957,0.2304719090461731,-0.08605947345495224
1751448496302834400,15.07383447265625,9.803096771240234,0.24388450384140015,-0.10100339353084564
1751448496321662700,15.092662841796875,9.802851676940918,0.25227877497673035,-0.10414192080497742
1751448496340490800,15.11149072265625,9.802709579467773,0.2580927014350891,-0.10323614627122879
1751448496359319000,15.130319091796874,9.80252456665039,0.26584315299987793,-0.10114546865224838
1751448496378147000,15.14914697265625,9.802642822265625,0.2678724527359009,-0.08265795558691025
1751448496396975400,15.167975341796875,9.802695274353027,0.26990464329719543,-0.06860896199941635
1751448496415803600,15.1868037109375,9.802773475646973,0.2700278162956238,-0.05581876263022423
1751448496434631700,15.205631591796875,9.802934646606445,0.26763656735420227,-0.035206932574510574
1751448496453459700,15.224459716796876,9.803001403808594,0.26696106791496277,-0.01697017066180706
1751448496472288000,15.2432880859375,9.803062438964844,0.26524069905281067,-0.0014033927582204342
1751448496491116300,15.2621162109375,9.803019523620605,0.2665516138076782,0.012137241661548615
1751448496509944300,15.2809443359375,9.802986145019531,0.26727938652038574,0.020551633089780807
1751448496528772600,15.299772705078125,9.802970886230469,0.26677820086479187,0.03140046447515488
1751448496547600600,15.3186005859375,9.802964210510254,0.26581239700317383,0.04047238081693649
1751448496566429000,15.337428955078124,9.80297565460205,0.26440495252609253,0.04645058140158653
1751448496585257000,15.356257080078125,9.802933692932129,0.2657467722892761,0.04757802188396454
1751448496604085200,15.375085205078125,9.802820205688477,0.26939859986305237,0.05028893053531647
1751448496622913300,15.393913330078124,9.802720069885254,0.273284912109375,0.04868791252374649
1751448496641741600,15.412741455078125,9.802621841430664,0.2781679332256317,0.04044407233595848
1751448496660569600,15.431569580078126,9.802595138549805,0.2816336154937744,0.013739476911723614
1751448496679398000,15.45039794921875,9.802864074707031,0.2720476984977722,0.015059438534080982
1751448496698226000,15.469225830078125,9.802995681762695,0.26751530170440674,0.009430108591914177
1751448496717054200,15.48805419921875,9.803288459777832,0.25473397970199585,0.03206934779882431
1751448496735882200,15.50688232421875,9.803579330444336,0.24173186719417572,0.04234248772263527
1751448496754710500,15.52571044921875,9.803918838500977,0.23018230497837067,0.024220485240221024
1751448496773538600,15.54453857421875,9.804216384887695,0.2137412428855896,0.045138899236917496
1751448496792366800,15.563366943359375,9.804533958435059,0.19815285503864288,0.04711756482720375
1751448496811195000,15.58219482421875,9.804808616638184,0.18163155019283295,0.055882882326841354
1751448496830023200,15.601023193359374,9.805084228515625,0.16807299852371216,0.04955777898430824
1751448496848851200,15.619851318359375,9.805278778076172,0.15781332552433014,0.04457005485892296
1751448496867679200,15.63867919921875,9.805408477783203,0.15042690932750702,0.04157927259802818
1751448496886507500,15.657507568359375,9.80546760559082,0.1491052806377411,0.031034374609589577
1751448496905335600,15.67633544921875,9.805424690246582,0.15322314202785492,0.023852147161960602
1751448496924163800,15.695163818359376,9.805389404296875,0.15342594683170319,0.03455283120274544
1751448496942992000,15.713991943359375,9.80524730682373,0.16587404906749725,0.000043255884520476684
1751448496961820200,15.732820068359375,9.805041313171387,0.17555099725723267,-0.026775743812322617
1751448496980648200,15.751648193359374,9.804910659790039,0.18141084909439087,-0.03462802246212959
1751448496999476500,15.7704765625,9.804729461669922,0.18915311992168427,-0.043564993888139725
1751448497018304500,15.789304443359375,9.804498672485352,0.19850647449493408,-0.0526542030274868
1751448497037132800,15.8081328125,9.804240226745605,0.20942768454551697,-0.05820860713720322
1751448497055960800,15.8269609375,9.803915023803711,0.2219378501176834,-0.06619038432836533
1751448497074789000,15.8457890625,9.803438186645508,0.23718999326229095,-0.08215022087097168
1751448497093617200,15.8646171875,9.803023338317871,0.2515636682510376,-0.08850172907114029
1751448497112445400,15.883445556640625,9.802818298339844,0.26160919666290283,-0.0819811001420021
1751448497131273500,15.9022734375,9.802453994750977,0.2739381492137909,-0.08518286794424057
1751448497150101800,15.921101806640625,9.802047729492188,0.2855042517185211,-0.09345953911542892
1751448497168929800,15.9399296875,9.801971435546875,0.29150858521461487,-0.08226969838142395
1751448497187758000,15.958758056640624,9.802155494689941,0.2916713058948517,-0.0555185005068779
1751448497206586000,15.977586181640625,9.802457809448242,0.28544607758522034,-0.027038143947720528
1751448497225414100,15.9964140625,9.802351951599121,0.2889494001865387,-0.02802444063127041
1751448497244242400,16.015242431640626,9.802030563354492,0.298081636428833,-0.04172118008136749
1751448497263070500,16.034070556640625,9.801750183105469,0.30648073554039,-0.046370238065719604
1751448497281898800,16.052898681640624,9.801610946655273,0.31185632944107056,-0.03936367109417915
1751448497300726800,16.071726806640626,9.80157470703125,0.31391674280166626,-0.03129911422729492
1751448497319554800,16.090554931640625,9.801569938659668,0.3149038851261139,-0.021201562136411667
1751448497338383000,16.109383056640624,9.801753997802734,0.3097381591796875,-0.007792959921061993
1751448497357211100,16.128211181640626,9.801898002624512,0.3052426874637604,0.001038809772580862
1751448497376039400,16.147039306640625,9.802092552185059,0.29869866371154785,0.011756502091884613
1751448497394867500,16.165867431640624,9.802404403686523,0.2874405086040497,0.02536981925368309
1751448497413695700,16.18469580078125,9.802742958068848,0.27477356791496277,0.03350434452295303
1751448497432523800,16.203523681640625,9.803070068359375,0.26252517104148865,0.03593222051858902
1751448497451352000,16.22235205078125,9.803394317626953,0.2505309581756592,0.03283263370394707
1751448497470180000,16.24118017578125,9.803778648376465,0.23289160430431366,0.045459140092134476
1751448497489008000,16.260008056640626,9.804094314575195,0.21148909628391266,0.07349935173988342
1751448497507836400,16.27883642578125,9.804408073425293,0.19793926179409027,0.06918683648109436
1751448497526664400,16.29766455078125,9.804659843444824,0.17542660236358643,0.0908210352063179
1751448497545492700,16.31649267578125,9.804787635803223,0.16039782762527466,0.1038527712225914
1751448497564320800,16.33532080078125,9.80479907989502,0.14467664062976837,0.12400466203689575
1751448497583149000,16.354149169921875,9.804652214050293,0.1296285092830658,0.14954477548599243
1751448497601977000,16.37297705078125,9.804779052734375,0.1239011362195015,0.14613379538059235
1751448497620805000,16.39180517578125,9.805145263671875,0.13301333785057068,0.10869323462247849
1751448497639633400,16.41063330078125,9.805304527282715,0.16070285439491272,0.024052642285823822
1751448497658461400,16.42946142578125,9.805228233337402,0.16662678122520447,0.011346361599862576
1751448497677289700,16.448289794921877,9.805132865905762,0.1725151240825653,-0.0009011601214297116
1751448497696117800,16.46711767578125,9.805082321166992,0.17524553835391998,-0.007042247802019119
1751448497714945800,16.48594580078125,9.805051803588867,0.1766343116760254,-0.011678364127874374
1751448497733774000,16.504774169921873,9.805001258850098,0.17891405522823334,-0.017763430252671242
1751448497752602000,16.52360205078125,9.804916381835938,0.18188248574733734,-0.03016296960413456
1751448497771430100,16.54243017578125,9.804694175720215,0.1901291012763977,-0.04705504700541496
1751448497790258400,16.561258544921873,9.804323196411133,0.20314602553844452,-0.06618199497461319
1751448497809086500,16.58008642578125,9.803445816040039,0.22420987486839294,-0.11210274696350098
1751448497827914800,16.598914794921875,9.802823066711426,0.24081824719905853,-0.1305559277534485
1751448497846742800,16.61774267578125,9.802563667297363,0.254755437374115,-0.1234058067202568
1751448497865570800,16.63657080078125,9.802375793457031,0.2669483423233032,-0.11202459037303925
1751448497884399000,16.655399169921875,9.802155494689941,0.28017088770866394,-0.09819415211677551
1751448497903227100,16.67422705078125,9.802044868469238,0.2896159887313843,-0.08009820431470871
1751448497922055400,16.693055419921876,9.802019119262695,0.29640746116638184,-0.054301440715789795
1751448497940883500,16.711883544921875,9.8020658493042,0.2989218235015869,-0.023339448496699333
1751448497959711500,16.73071142578125,9.802108764648438,0.2983853816986084,0.0038520251400768757
1751448497978539800,16.749539794921876,9.802109718322754,0.2963651418685913,0.034473445266485214
1751448497997367800,16.768367919921875,9.801713943481445,0.31092384457588196,-0.011161749251186848
1751448498016195800,16.78719580078125,9.8015718460083,0.3147331178188324,-0.022986387833952904
1751448498035024100,16.806024169921876,9.801386833190918,0.3190605640411377,-0.03746217116713524
1751448498053852200,16.82485205078125,9.801347732543945,0.32082927227020264,-0.03237271308898926
1751448498072680200,16.84368017578125,9.801361083984375,0.3212492763996124,-0.02261207066476345
1751448498091508500,16.862508544921877,9.801384925842285,0.32109156250953674,-0.012211158871650696
1751448498110336500,16.88133642578125,9.801529884338379,0.3168501555919647,0.0016881556948646903
1751448498129164800,16.900164794921874,9.801578521728516,0.3153545558452606,0.0035772754345089197
1751448498147992800,16.918992919921877,9.801717758178711,0.3107320964336395,0.012899466790258884
1751448498166820900,16.93782080078125,9.801962852478027,0.3020816445350647,0.025503821671009064
1751448498185649200,16.956649169921874,9.802257537841797,0.2908565402030945,0.039187848567962646
1751448498204477200,16.975477294921873,9.802534103393555,0.28063663840293884,0.04419366642832756
1751448498223305200,16.99430517578125,9.802910804748535,0.2665826082229614,0.047519538551568985
1751448498242133500,17.013133544921875,9.803362846374512,0.2481939196586609,0.05367663502693176
1751448498260961500,17.03196142578125,9.803786277770996,0.2301652878522873,0.056534696370363235
1751448498279789600,17.05078955078125,9.804136276245117,0.2082454413175583,0.07695893198251724
1751448498298617900,17.069617919921875,9.80439281463623,0.1806526929140091,0.10780925303697586
1751448498317446000,17.08844580078125,9.804600715637207,0.15817715227603912,0.12318532168865204
1751448498336274000,17.10727392578125,9.804616928100586,0.14546917378902435,0.1368132084608078
1751448498355102200,17.126102294921875,9.804944038391113,0.14649727940559387,0.1094718724489212
1751448498373930200,17.14493017578125,9.805216789245605,0.1523265391588211,0.07007476687431335
1751448498392758300,17.16375830078125,9.805373191833496,0.1526266485452652,0.04182252287864685
1751448498411586600,17.182586669921875,9.805438041687012,0.1526046097278595,0.021825551986694336
1751448498430414600,17.20141455078125,9.805400848388672,0.15644337236881256,0.005954431835561991
1751448498449242600,17.22024267578125,9.805328369140625,0.16071300208568573,-0.009651754051446915
1751448498468071000,17.23907080078125,9.805318832397461,0.16091331839561462,-0.014414822682738304
1751448498486899000,17.25789892578125,9.805307388305664,0.16154156625270844,-0.015368890948593616
1751448498505727000,17.27672705078125,9.805298805236816,0.16204655170440674,-0.015577848069369793
1751448498524555300,17.29555517578125,9.805281639099121,0.16289998590946198,-0.01731325499713421
1751448498543383300,17.31438330078125,9.805169105529785,0.1685904711484909,-0.024939384311437607
1751448498562211300,17.33321142578125,9.804938316345215,0.17909860610961914,-0.03875886648893356
1751448498581039600,17.35203955078125,9.80454158782959,0.1969616562128067,-0.05057975649833679
1751448498599867600,17.37086767578125,9.804133415222168,0.21314087510108948,-0.06265668570995331
1751448498618695700,17.38969580078125,9.803531646728516,0.23082390427589417,-0.08878356218338013
1751448498637523700,17.408523681640624,9.802871704101562,0.2491178810596466,-0.10975845158100128
1751448498656352000,17.42735205078125,9.802453994750977,0.26213911175727844,-0.11649676412343979
1751448498675180000,17.446179931640625,9.802109718322754,0.2740330696105957,-0.11803489923477173
1751448498694008000,17.465008056640624,9.801653861999512,0.2880988121032715,-0.12233004719018936
1751448498712836400,17.48383642578125,9.801702499389648,0.29567548632621765,-0.09790513664484024
1751448498731664400,17.502664306640625,9.801986694335938,0.2948748469352722,-0.06703610718250275
1751448498750492400,17.521492431640624,9.802040100097656,0.2964494824409485,-0.050239358097314835
1751448498769320700,17.54032080078125,9.801820755004883,0.30379295349121094,-0.04926831275224686
1751448498788148700,17.559148681640625,9.801477432250977,0.3129715323448181,-0.05909314006567001
1751448498806976800,17.577976806640624,9.801507949829102,0.31373509764671326,-0.04907945916056633
1751448498825805000,17.59680517578125,9.801603317260742,0.31191709637641907,-0.040941137820482254
1751448498844633000,17.615633056640625,9.801583290100098,0.31305763125419617,-0.036595165729522705
1751448498863461000,17.634461181640624,9.80162525177002,0.31274929642677307,-0.026885030791163445
1751448498882289200,17.6532890625,9.801797866821289,0.3081572949886322,-0.014175809919834137
1751448498901117400,17.672117431640626,9.802041053771973,0.30061662197113037,-0.0028552692383527756
1751448498919945500,17.690945556640624,9.802167892456055,0.2964460253715515,0.0024069366045296192
1751448498938773500,17.7097734375,9.802398681640625,0.2886626124382019,0.006932309828698635
1751448498957601800,17.728601806640626,9.80271053314209,0.2776050567626953,0.013925593346357346
1751448498976429800,17.747429931640625,9.803022384643555,0.26539984345436096,0.026546208187937737
1751448498995257900,17.7662578125,9.803418159484863,0.24804219603538513,0.04299214854836464
1751448499014086000,17.7850859375,9.803818702697754,0.22983917593955994,0.052017901092767715
1751448499032914200,17.8039140625,9.804204940795898,0.20967721939086914,0.06318902224302292
1751448499051742200,17.8227421875,9.8045654296875,0.19069351255893707,0.06722838431596756
1751448499070570200,17.8415703125,9.804609298706055,0.16589100658893585,0.11176919937133789
1751448499089398500,17.8603984375,9.804887771606445,0.14906498789787292,0.1111336350440979
1751448499108226600,17.8792265625,9.804730415344238,0.12662895023822784,0.14702154695987701
1751448499127054600,17.8980546875,9.804259300231934,0.10492049902677536,0.18937861919403076
1751448499145882600,17.916882568359377,9.803751945495605,0.0905693769454956,0.22050592303276062
1751448499164711000,17.9357109375,9.804758071899414,0.09790500998497009,0.16589082777500153
1751448499183539000,17.9545390625,9.80562686920166,0.14163053035736084,-0.00022607155551668257
1751448499202367000,17.973366943359373,9.805423736572266,0.15425418317317963,-0.016292277723550797
1751448499221195000,17.992195068359376,9.805234909057617,0.16348034143447876,-0.032071419060230255
1751448499240023300,18.011023193359375,9.805058479309082,0.1722901612520218,-0.03911531716585159
1751448499258851300,18.029851318359373,9.804866790771484,0.1814572662115097,-0.045237936079502106
1751448499277679400,18.048679443359376,9.804703712463379,0.1888515055179596,-0.05005958676338196
1751448499296507400,18.06750732421875,9.804518699645996,0.19723142683506012,-0.05375705659389496
1751448499315335700,18.086335693359374,9.804195404052734,0.2076721340417862,-0.07064623385667801
1751448499334163700,18.105163818359376,9.80394458770752,0.21628032624721527,-0.07921537011861801
1751448499352991700,18.12399169921875,9.803662300109863,0.22780467569828033,-0.08182493597269058
1751448499371819800,18.14281982421875,9.80331039428711,0.24234212934970856,-0.08234080672264099
1751448499390648000,18.16164794921875,9.802739143371582,0.2592085003852844,-0.09747675061225891
1751448499409476000,18.18047607421875,9.802482604980469,0.2715357542037964,-0.08943289518356323
1751448499428304100,18.19930419921875,9.802448272705078,0.2796773910522461,-0.06468876451253891
1751448499447132200,18.218132080078124,9.802458763122559,0.2842522859573364,-0.03734768554568291
1751448499465960400,18.23696044921875,9.802708625793457,0.27797460556030273,0.006611539516597986
1751448499484788500,18.25578857421875,9.802435874938965,0.287453830242157,-0.0010845344513654709
1751448499503616500,18.274616455078124,9.801910400390625,0.3027796149253845,-0.03560706973075867
1751448499522444500,18.293444580078123,9.801658630371094,0.3101468086242676,-0.04098154604434967
1751448499541272800,18.31227294921875,9.801566123962402,0.3137030005455017,-0.03576842322945595
1751448499560100900,18.331100830078125,9.801609992980957,0.3131413161754608,-0.027692215517163277
1751448499578929000,18.349928955078123,9.801780700683594,0.30834412574768066,-0.020076986402273178
1751448499597757000,18.3687568359375,9.80197525024414,0.3024403154850006,-0.01453799195587635
1751448499616585200,18.387585205078125,9.802062034606934,0.2996777594089508,-0.01262280810624361
1751448499635413200,18.406413330078124,9.802168846130371,0.29633015394210815,-0.007661842741072178
1751448499654241300,18.4252412109375,9.802480697631836,0.28590795397758484,0.004134229850023985
1751448499673069300,18.4440693359375,9.802870750427246,0.27173539996147156,0.017201010137796402
1751448499691897600,18.462897705078124,9.803277015686035,0.2560104727745056,0.02477150596678257
1751448499710725600,18.4817255859375,9.803689956665039,0.2380160093307495,0.03724457323551178
1751448499729553700,18.5005537109375,9.80409049987793,0.2186119109392166,0.04912539944052696
1751448499748381700,18.519381591796876,9.804498672485352,0.19677084684371948,0.058972567319869995
1751448499767209700,18.538209716796874,9.804837226867676,0.17483635246753693,0.07048500329256058
1751448499786038000,18.5570380859375,9.804939270019531,0.15584154427051544,0.09619536995887756
1751448499804866000,18.575865966796876,9.80495548248291,0.13867290318012238,0.11832168698310852
1751448499823694000,18.594694091796875,9.805017471313477,0.12155289947986603,0.13131453096866608
1751448499842522000,18.613522216796873,9.80498218536377,0.10586393624544144,0.14661726355552673
1751448499861350100,18.63235009765625,9.805365562438965,0.10442925244569778,0.11953841149806976
1751448499880178400,18.651178466796875,9.805591583251953,0.11167144030332565,0.09102185070514679
1751448499899006500,18.67000634765625,9.805665016174316,0.11491527408361435,0.07818814367055893
1751448499917834500,18.68883447265625,9.805740356445312,0.1262897551059723,0.043526481837034225
1751448499936662500,18.70766259765625,9.805639266967773,0.1383255273103714,0.026645170524716377
1751448499955490600,18.726490478515625,9.805453300476074,0.1527503877878189,-0.011212059296667576
1751448499974318800,18.74531884765625,9.805343627929688,0.15853214263916016,-0.022232938557863235
1751448499993147000,18.76414697265625,9.805211067199707,0.16479501128196716,-0.03250403329730034
1751448500011975000,18.782974853515626,9.805015563964844,0.1739998161792755,-0.04225165769457817
1751448500030803000,18.801802978515624,9.80477523803711,0.1833820790052414,-0.05610060691833496
1751448500049631000,18.820630859375,9.804526329040527,0.1946210116147995,-0.06133709475398064
1751448500068459300,18.839459228515626,9.804145812988281,0.20874890685081482,-0.07451656460762024
1751448500087287300,18.858287353515625,9.803587913513184,0.2258777618408203,-0.09505043178796768
1751448500106115300,18.877115234375,9.802704811096191,0.24522627890110016,-0.13126720488071442
1751448500124943400,18.895943359375,9.802236557006836,0.26046469807624817,-0.1367620974779129
1751448500143771400,18.914771484375,9.802130699157715,0.2718609571456909,-0.1213148832321167
1751448500162599700,18.933599609375,9.802043914794922,0.2814258933067322,-0.10553672164678574
1751448500181427700,18.952427734375,9.801896095275879,0.29317188262939453,-0.0852285772562027
1751448500200255700,18.971255859375,9.801877975463867,0.29976168274879456,-0.061024438589811325
1751448500219083800,18.990083740234375,9.801867485046387,0.30440545082092285,-0.03360264003276825
1751448500237911800,19.008911865234374,9.802106857299805,0.2984655499458313,-0.00025295864907093346
1751448500256740000,19.027739990234377,9.802323341369629,0.28874140977859497,0.03838394209742546
1751448500275568000,19.046568115234376,9.802336692810059,0.2851884365081787,0.057061318308115005
1751448500294396200,19.065396240234374,9.802295684814453,0.29026201367378235,0.03356661647558212
1751448500313224200,19.08422412109375,9.80186939239502,0.30539166927337646,-0.02182329073548317
1751448500332052200,19.10305224609375,9.801883697509766,0.30501824617385864,-0.020821979269385338
1751448500350880500,19.121880615234375,9.801969528198242,0.30255499482154846,-0.015353831462562084
1751448500369708500,19.14070849609375,9.802007675170898,0.30141589045524597,-0.014064561575651169
1751448500388536600,19.15953662109375,9.802118301391602,0.29799094796180725,-0.007565377280116081
1751448500407364600,19.178364501953126,9.802383422851562,0.2891670763492584,0.006478393916040659
1751448500426192600,19.197192626953125,9.802715301513672,0.27708929777145386,0.019581452012062073
1751448500445020700,19.216020751953124,9.803095817565918,0.2623099982738495,0.029923688620328903
1751448500463849000,19.234848876953127,9.80340576171875,0.24922020733356476,0.03865888714790344
1751448500482677000,19.253677001953125,9.803771018981934,0.23379755020141602,0.042326007038354874
1751448500501505000,19.272505126953124,9.804089546203613,0.2175930291414261,0.05359770357608795
1751448500520333000,19.2913330078125,9.80441665649414,0.19760741293430328,0.06894738972187042
1751448500539161000,19.3101611328125,9.804661750793457,0.18173880875110626,0.07724229991436005
1751448500557989000,19.328989013671876,9.80480670928955,0.16585999727249146,0.09294109046459198
1751448500576817200,19.347817138671875,9.804973602294922,0.1558125615119934,0.09270192682743073
1751448500595645400,19.3666455078125,9.8052339553833,0.14756716787815094,0.07745335251092911
1751448500614473500,19.385473388671876,9.805427551269531,0.14109981060028076,0.06385018676519394
1751448500633301500,19.404301513671875,9.805572509765625,0.13455307483673096,0.0550149567425251
1751448500652129500,19.423129638671874,9.805610656738281,0.1293320208787918,0.06046004965901375
1751448500670957600,19.44195751953125,9.805553436279297,0.12741968035697937,0.07259625196456909
1751448500689785600,19.46078564453125,9.80555534362793,0.1427384912967682,0.03312858194112778
1751448500708614000,19.47961376953125,9.805449485778809,0.1532335877418518,0.008703256025910378
1751448500727442000,19.49844189453125,9.805296897888184,0.1625668853521347,-0.010861381888389587
1751448500746270000,19.51727001953125,9.805157661437988,0.16963838040828705,-0.022170942276716232
1751448500765098000,19.536097900390626,9.805024147033691,0.17551490664482117,-0.03290945664048195
1751448500783926000,19.554926025390625,9.804842948913574,0.1824338436126709,-0.04648248106241226
1751448500802754000,19.573754150390624,9.804679870605469,0.18901532888412476,-0.05399785190820694
1751448500821582300,19.592582275390626,9.804423332214355,0.20052632689476013,-0.05884677916765213
1751448500840410400,19.611410400390625,9.803971290588379,0.2172648310661316,-0.07293941080570221
1751448500859238400,19.63023828125,9.803366661071777,0.2358330339193344,-0.09372325986623764
1751448500878066400,19.64906640625,9.802826881408691,0.2530535161495209,-0.10460838675498962
1751448500896894500,19.66789453125,9.802347183227539,0.2693268060684204,-0.10878366976976395
1751448500915722500,19.686722412109376,9.801812171936035,0.2856156527996063,-0.115219347178936
1751448500934550500,19.705550537109374,9.801276206970215,0.30043837428092957,-0.12291644513607025
1751448500953378600,19.724378662109373,9.801336288452148,0.30715158581733704,-0.0992221087217331
1751448500972206800,19.743206787109376,9.801814079284668,0.3021048903465271,-0.059725359082221985
1751448500991035000,19.762034912109375,9.801775932312012,0.30507946014404297,-0.049814265221357346
1751448501009863000,19.78086279296875,9.801830291748047,0.30483484268188477,-0.039805978536605835
1751448501028691000,19.79969091796875,9.801817893981934,0.3058096766471863,-0.035055894404649734
1751448501056933000,19.82793310546875,9.801854133605957,0.3056362271308899,-0.024946918711066246
1751448501075761200,19.84676123046875,9.80181884765625,0.30642151832580566,-0.02884499728679657
1751448501094589200,19.865589111328124,9.801959991455078,0.3028367757797241,-0.015922510996460915
1751448501113417200,19.884417236328126,9.802081108093262,0.2992976903915405,-0.00439810287207365
1751448501132245200,19.903245361328125,9.802098274230957,0.2987067997455597,-0.004461861681193113
1751448501151073300,19.9220732421875,9.802227020263672,0.29450711607933044,0.001456628437153995
1751448501169901600,19.940901611328126,9.80244255065918,0.2870286703109741,0.011279384605586529
1751448501188729600,19.9597294921875,9.802702903747559,0.27724340558052063,0.02314142882823944
1751448501207557600,19.9785576171875,9.803016662597656,0.264953076839447,0.03230879083275795
1751448501226385700,19.9973857421875,9.80341625213623,0.2483818382024765,0.041364893317222595
1751448501245213700,20.016213623046873,9.80374813079834,0.23402270674705505,0.046400148421525955
1751448501264041700,20.035041748046876,9.804132461547852,0.21669696271419525,0.04919814318418503
1751448501282869800,20.053869873046875,9.804354667663574,0.20144818723201752,0.06669212132692337
1751448501301697800,20.07269775390625,9.804618835449219,0.18036171793937683,0.08550180494785309
1751448501320525800,20.09152587890625,9.804741859436035,0.16450142860412598,0.10183733701705933
1751448501339354000,20.11035400390625,9.804845809936523,0.15484456717967987,0.10674392431974411
1751448501358182100,20.12918212890625,9.805039405822754,0.14759530127048492,0.09909006208181381
1751448501377010200,20.14801025390625,9.805229187011719,0.14426256716251373,0.08400055021047592
1751448501395838200,20.166838134765626,9.805388450622559,0.13919973373413086,0.07320206612348557
1751448501414666200,20.185666259765625,9.805561065673828,0.1359262764453888,0.053704068064689636
1751448501433494300,20.204494384765624,9.805583000183105,0.1446295827627182,0.002666918095201254
1751448501452322300,20.223322265625,9.805452346801758,0.15277700126171112,-0.012931179255247116
1751448501471150300,20.242150390625,9.805374145507812,0.15777133405208588,-0.011679685674607754
1751448501489978400,20.260978271484376,9.805286407470703,0.16288523375988007,-0.01466620434075594
1751448501508806700,20.279806640625,9.805230140686035,0.16623948514461517,-0.014831487089395523
1751448501527634700,20.298634765625,9.805122375488281,0.17169542610645294,-0.021741747856140137
1751448501546462700,20.317462646484376,9.804994583129883,0.17740866541862488,-0.031623631715774536
1751448501565290800,20.336290771484375,9.804828643798828,0.18452562391757965,-0.04075734317302704
1751448501584118800,20.355118896484374,9.804604530334473,0.19347651302814484,-0.051869865506887436
1751448501602946800,20.37394677734375,9.804177284240723,0.20832127332687378,-0.07136507332324982
1751448501621774800,20.39277490234375,9.803506851196289,0.2270270138978958,-0.10040004551410675
1751448501640603000,20.411602783203126,9.802502632141113,0.2489835023880005,-0.13903598487377167
1751448501659431000,20.430430908203125,9.80202579498291,0.2671867907047272,-0.13888594508171082
1751448501678259000,20.449259033203123,9.801822662353516,0.28103676438331604,-0.12521246075630188
1751448501697087200,20.468087158203126,9.801637649536133,0.2946242392063141,-0.10717595368623734
1751448501715915300,20.486915283203125,9.801545143127441,0.30574357509613037,-0.08135123550891876
1751448501734743300,20.505743408203124,9.801714897155762,0.3075648546218872,-0.0466449111700058
1751448501753571300,20.5245712890625,9.801895141601562,0.304872065782547,-0.016951095312833786
1751448501772399400,20.5433994140625,9.801366806030273,0.3174929618835449,-0.05300348997116089
1751448501791227400,20.562227294921875,9.801009178161621,0.32505542039871216,-0.07040736079216003
1751448501810055400,20.581055419921874,9.801177978515625,0.3229599595069885,-0.05471901223063469
1751448501828883500,20.599883544921877,9.801161766052246,0.32517972588539124,-0.043288663029670715
1751448501847711500,20.61871142578125,9.80128288269043,0.3231222331523895,-0.028685247525572777
1751448501866539500,20.63753955078125,9.801478385925293,0.3180837333202362,-0.015161576680839062
1751448501885367600,20.656367431640625,9.801753044128418,0.30987122654914856,-0.0015329044545069337
1751448501904195800,20.67519580078125,9.801896095275879,0.30529966950416565,0.003117476822808385
1751448501923023600,20.694023681640626,9.802090644836426,0.298757940530777,0.012384271249175072
1751448501941852000,20.712851806640625,9.802339553833008,0.28977322578430176,0.02378246560692787
1751448501960680000,20.731679931640624,9.802677154541016,0.2763799726963043,0.03881660848855972
1751448501979508000,20.750508056640626,9.80303955078125,0.2619059085845947,0.04684945568442345
1751448501998336000,20.7693359375,9.803417205810547,0.24640922248363495,0.0517420619726181
1751448502017164000,20.7881640625,9.803712844848633,0.23283614218235016,0.05825219675898552
1751448502035992000,20.806991943359375,9.803950309753418,0.21729926764965057,0.0757453516125679
1751448502054820000,20.825820068359373,9.804288864135742,0.20313489437103271,0.07094138860702515
1751448502073648000,20.844648193359376,9.80443000793457,0.19000181555747986,0.08627410233020782
1751448502092476200,20.86347607421875,9.804649353027344,0.18008345365524292,0.08246432989835739
1751448502111304200,20.88230419921875,9.804697036743164,0.1680745929479599,0.10029524564743042
1751448502130132200,20.90113232421875,9.80482292175293,0.16096805036067963,0.09969614446163177
1751448502148960300,20.919960205078127,9.804708480834961,0.14226026833057404,0.13357874751091003
1751448502167788500,20.93878857421875,9.804391860961914,0.12106301635503769,0.17212647199630737
1751448502186616300,20.9576162109375,9.804418563842773,0.11053653806447983,0.1776021420955658
1751448502205444600,20.976444580078127,9.804849624633789,0.11715394258499146,0.1469610333442688
1751448502224272600,20.995272705078126,9.805266380310059,0.13286860287189484,0.09746179729700089
1751448502243100700,21.0141005859375,9.805367469787598,0.1543942093849182,0.03642662987112999
1751448502261928700,21.0329287109375,9.805205345153809,0.16831474006175995,0.0006403129082173109
1751448502280756700,21.0517568359375,9.804914474487305,0.1817604899406433,-0.03160504624247551
1751448502299584800,21.070584716796876,9.804803848266602,0.18596842885017395,-0.04032804071903229
1751448502318412800,21.089412841796875,9.804659843444824,0.19088725745677948,-0.05067833513021469
1751448502337240800,21.10824072265625,9.804402351379395,0.1991073340177536,-0.06645864248275757
1751448502356068900,21.12706884765625,9.803972244262695,0.21076276898384094,-0.09001705795526505
1751448502374897000,21.14589697265625,9.803536415100098,0.22457639873027802,-0.10303103923797607
1751448502393725000,21.164724853515626,9.803179740905762,0.23834379017353058,-0.10614778101444244
1751448502412553000,21.183552978515625,9.802581787109375,0.2545830309391022,-0.12230727076530457
1751448502431381000,21.202381103515624,9.802284240722656,0.269846647977829,-0.11312144994735718
1751448502450209000,21.221208984375,9.802066802978516,0.2816219627857208,-0.1027505174279213
1751448502469037000,21.240037109375,9.802037239074707,0.29043543338775635,-0.07808330655097961
1751448502487865000,21.258864990234375,9.802181243896484,0.2929251492023468,-0.04296749457716942
1751448502506693000,21.277693115234374,9.802144050598145,0.2961121201515198,-0.026182111352682114
1751448502525521400,21.296521484375,9.80180835723877,0.3059629201889038,-0.03649144619703293
1751448502544349200,21.31534912109375,9.802044868469238,0.30038776993751526,-0.00834033451974392
1751448502563177500,21.334177490234374,9.80181884765625,0.30693894624710083,-0.02263113670051098
1751448502582005500,21.353005615234373,9.801791191101074,0.3081084191799164,-0.018756002187728882
1751448502600833500,21.37183349609375,9.80151653289795,0.3156066834926605,-0.03233962506055832
1751448502619661600,21.39066162109375,9.801559448242188,0.3150147497653961,-0.024463072419166565
1751448502638489600,21.409489501953125,9.801701545715332,0.3112696707248688,-0.011545843444764614
1751448502657317600,21.428317626953124,9.801849365234375,0.3067832589149475,0.00220682006329298
1751448502676145700,21.447145751953126,9.80190372467041,0.3049997389316559,0.00583002669736743
1751448502694973700,21.4659736328125,9.802056312561035,0.2997831106185913,0.014900948852300644
1751448502713801700,21.4848017578125,9.802214622497559,0.2938028573989868,0.025622935965657234
1751448502732629800,21.503629638671875,9.802484512329102,0.2834452688694,0.036671578884124756
1751448502751457800,21.522457763671873,9.802788734436035,0.2707463800907135,0.0491667278110981
1751448502770285800,21.541285888671876,9.803196907043457,0.25239044427871704,0.06340975314378738
1751448502789113900,21.56011376953125,9.803476333618164,0.23019210994243622,0.0961158350110054
1751448502807942000,21.57894189453125,9.803840637207031,0.21318870782852173,0.09814996272325516
1751448502826770000,21.59777001953125,9.804108619689941,0.1937616765499115,0.11088638007640839
1751448502845598000,21.616597900390627,9.804344177246094,0.1781398057937622,0.11612448841333389
1751448502864426000,21.635426025390625,9.804594993591309,0.1633434146642685,0.1166970282793045
1751448502883254000,21.65425390625,9.804086685180664,0.1366608589887619,0.17776212096214294
1751448502902082000,21.67308203125,9.803352355957031,0.11050760746002197,0.2290002554655075
1751448502920910000,21.69191015625,9.803497314453125,0.1027398481965065,0.226427361369133
1751448502939738000,21.710738037109376,9.804093360900879,0.10177989304065704,0.19947098195552826
1751448502958566100,21.729566162109375,9.805045127868652,0.11501927673816681,0.13505831360816956
1751448502977394200,21.748394287109374,9.805383682250977,0.12240777909755707,0.09924466907978058
1751448502996222200,21.76722216796875,9.805526733398438,0.1344650238752365,0.0629647970199585
1751448503015050200,21.78605029296875,9.805289268493652,0.16324803233146667,-0.006970224902033806
1751448503033878300,21.804878173828126,9.805121421813965,0.17150969803333282,-0.02375190146267414
1751448503052706300,21.823706298828125,9.804896354675293,0.1811693161725998,-0.039692506194114685
1751448503071534300,21.842534423828123,9.804594039916992,0.19117137789726257,-0.061440419405698776
1751448503090362400,21.8613623046875,9.804104804992676,0.20492994785308838,-0.08897079527378082
1751448503109190400,21.8801904296875,9.803231239318848,0.22400015592575073,-0.12987837195396423
1751448503128018400,21.899018310546875,9.803071022033691,0.2365671843290329,-0.11932989954948425
1751448503146846500,21.917846435546874,9.802722930908203,0.25111448764801025,-0.11811484396457672
1751448503165674500,21.936674560546876,9.802555084228516,0.2637048363685608,-0.10368537902832031
1751448503184502500,21.95550244140625,9.80221176147461,0.278158962726593,-0.09823263436555862
1751448503203330600,21.97433056640625,9.802088737487793,0.28781619668006897,-0.08129091560840607
1751448503222158600,21.99315869140625,9.802152633666992,0.2911832928657532,-0.05838853120803833
1751448503240986600,22.011986572265624,9.802216529846191,0.29317066073417664,-0.031544893980026245
1751448503278642700,22.049642578125,9.80226993560791,0.29302263259887695,0.005027438048273325
1751448503297470700,22.068470703125,9.802302360534668,0.2907726466655731,0.02647845633327961
1751448503316298800,22.087298828125,9.802387237548828,0.2844862639904022,0.05157390981912613
1751448503335126800,22.106126708984377,9.802383422851562,0.2809787392616272,0.06858938932418823
1751448503353954800,22.124954833984376,9.802392959594727,0.28022855520248413,0.07039661705493927
1751448503372782800,22.143782958984374,9.802448272705078,0.27979806065559387,0.06407728791236877
1751448503391611000,22.16261083984375,9.802530288696289,0.28042954206466675,0.04652721807360649
1751448503410439000,22.18143896484375,9.802520751953125,0.2830628454685211,0.029136188328266144
1751448503429267000,22.200266845703126,9.802611351013184,0.280239462852478,0.025913652032613754
1751448503448095000,22.219094970703125,9.80278491973877,0.27521756291389465,0.008073295466601849
1751448503466923000,22.237923095703124,9.80317497253418,0.26044467091560364,0.01798577792942524
1751448503485751000,22.2567509765625,9.80361270904541,0.24217616021633148,0.03064008057117462
1751448503504579000,22.2755791015625,9.803971290588379,0.22272972762584686,0.05399174988269806
1751448503523407000,22.294406982421876,9.803921699523926,0.20222091674804688,0.11226349323987961
1751448503542235100,22.313235107421875,9.804303169250488,0.18880975246429443,0.10193992406129837
1751448503561063200,22.332063232421874,9.804676055908203,0.17289069294929504,0.09393154829740524
1751448503579891200,22.35089111328125,9.804702758789062,0.14963167905807495,0.12565146386623383
1751448503598719200,22.36971923828125,9.804793357849121,0.1347755640745163,0.13506989181041718
1751448503617547300,22.38854736328125,9.80506420135498,0.1314830183982849,0.11757955700159073
1751448503636375300,22.407375244140624,9.805092811584473,0.12311621010303497,0.124028280377388
1751448503655203300,22.426203369140627,9.805312156677246,0.125076025724411,0.1029396504163742
1751448503674031400,22.44503125,9.805251121520996,0.11786878108978271,0.11640196293592453
1751448503692859400,22.463859375,9.805109024047852,0.10710036754608154,0.13699957728385925
1751448503711687400,22.4826875,9.80533504486084,0.11395618319511414,0.11316172778606415
1751448503730515500,22.501515380859374,9.805534362792969,0.13628338277339935,0.057673379778862
1751448503749343500,22.520343505859376,9.805351257324219,0.15952131152153015,0.0020768262911587954
1751448503768171500,22.539171630859375,9.805227279663086,0.1655779331922531,-0.02203405275940895
1751448503786999600,22.55799951171875,9.805063247680664,0.17181885242462158,-0.03992666304111481
1751448503805827600,22.57682763671875,9.8048095703125,0.18231692910194397,-0.05329389125108719
1751448503824655600,22.595655517578123,9.804463386535645,0.19456394016742706,-0.07084593921899796
1751448503843483600,22.614483642578126,9.803679466247559,0.21485082805156708,-0.10999827831983566
1751448503862311400,22.6333115234375,9.802732467651367,0.23710647225379944,-0.14357347786426544
1751448503881139500,22.652139404296875,9.802324295043945,0.25108253955841064,-0.14764028787612915
1751448503899967500,22.670967529296874,9.802135467529297,0.26317381858825684,-0.13882698118686676
1751448503918795500,22.68979541015625,9.80197525024414,0.27418893575668335,-0.12838535010814667
1751448503937623600,22.70862353515625,9.801840782165527,0.2849060297012329,-0.11457102000713348
1751448503956451600,22.72745166015625,9.801783561706543,0.2933558523654938,-0.09677042067050934
1751448503975279600,22.746279541015625,9.801729202270508,0.30079352855682373,-0.07743536680936813
1751448503994107600,22.765107666015624,9.801725387573242,0.30619537830352783,-0.053051408380270004
1751448504012935700,22.783935791015626,9.801761627197266,0.3080851435661316,-0.03085901029407978
1751448504031763700,22.802763671875,9.801871299743652,0.3060376048088074,-0.008039731532335281
1751448504050591700,22.821591796875,9.801959037780762,0.302839070558548,0.01665128581225872
1751448504069419800,22.840419677734374,9.801995277404785,0.2994544208049774,0.04001394659280777
1751448504088247800,22.859247802734377,9.802048683166504,0.2940883934497833,0.06125354766845703
1751448504107075800,22.878075927734375,9.802032470703125,0.28975123167037964,0.08120011538267136
1751448504125904000,22.89690380859375,9.80224323272705,0.283685564994812,0.07701825350522995
1751448504144732000,22.91573193359375,9.802372932434082,0.2840023636817932,0.056777458637952805
1751448504163560000,22.934559814453124,9.80255126953125,0.27569445967674255,0.06615954637527466
1751448504182388000,22.953387939453126,9.802739143371582,0.2669195830821991,0.07382317632436752
1751448504201215700,22.9722158203125,9.803000450134277,0.256958544254303,0.0745219737291336
1751448504220043800,22.991043701171876,9.803324699401855,0.2455817461013794,0.0699804350733757
1751448504238871800,23.009871826171874,9.803574562072754,0.23303180932998657,0.07749459147453308
1751448504257699800,23.028699951171873,9.803925514221191,0.22086545825004578,0.06831471621990204
1751448504276527900,23.04752783203125,9.804206848144531,0.20661212503910065,0.07222204655408859
1751448504295356000,23.06635595703125,9.804444313049316,0.19622062146663666,0.06906500458717346
1751448504314184000,23.085183837890625,9.804758071899414,0.18548357486724854,0.051942069083452225
1751448504333012000,23.104011962890624,9.805002212524414,0.1756984144449234,0.03814668580889702
1751448504351840000,23.122840087890626,9.805180549621582,0.16874656081199646,0.01855378784239292
1751448504370668000,23.14166796875,9.805365562438965,0.15524840354919434,0.033050935715436935
1751448504389496000,23.16049609375,9.805231094360352,0.13433153927326202,0.09891095012426376
1751448504408324000,23.179323974609375,9.80518627166748,0.1284676492214203,0.11051266640424728
1751448504427152000,23.19815185546875,9.805371284484863,0.13293561339378357,0.08605468273162842
1751448504445980000,23.21697998046875,9.805458068847656,0.14192673563957214,0.05695909634232521
1751448504464808000,23.235807861328126,9.80539608001709,0.1539049744606018,0.029965464025735855
1751448504483636000,23.254635986328125,9.805301666259766,0.16240543127059937,0.008569248951971531
1751448504502464000,23.273464111328124,9.805156707763672,0.17061296105384827,-0.01327096950262785
1751448504521292000,23.2922919921875,9.804986953735352,0.17807286977767944,-0.030165014788508415
1751448504540120000,23.3111201171875,9.804556846618652,0.19223764538764954,-0.06400143355131149
1751448504558948000,23.329947998046876,9.803598403930664,0.21536387503147125,-0.11606862396001816
1751448504577776000,23.348776123046875,9.802891731262207,0.23172295093536377,-0.14145833253860474
1751448504596604200,23.367604248046874,9.801993370056152,0.252155601978302,-0.16658344864845276
1751448504615432200,23.38643212890625,9.801859855651855,0.2633398175239563,-0.15675847232341766
1751448504634260000,23.405260009765627,9.801595687866211,0.2769010365009308,-0.14979074895381927
1751448504653088000,23.424087890625,9.80137825012207,0.28993597626686096,-0.1389089822769165
1751448504671916000,23.442916015625,9.801156997680664,0.3030385971069336,-0.12597425282001495
1751448504690744000,23.461744140625,9.801074981689453,0.31375569105148315,-0.1042829230427742
1751448504718986000,23.489986083984373,9.801196098327637,0.3219761848449707,-0.05718723312020302
1751448504737814000,23.50881396484375,9.801219940185547,0.3243420422077179,-0.035561639815568924
1751448504756642000,23.52764208984375,9.801275253295898,0.3246101438999176,-0.005143594928085804
1751448504775470000,23.546469970703125,9.80134391784668,0.3218897581100464,0.020835010334849358
1751448504794298000,23.565298095703124,9.801430702209473,0.3171330690383911,0.042010195553302765
1751448504813126100,23.584126220703126,9.801591873168945,0.31416159868240356,0.0219888836145401
1751448504831954000,23.602953857421873,9.801752090454102,0.3095003664493561,0.016399336978793144
1751448504850782000,23.621781982421876,9.801753997802734,0.30983448028564453,-0.003013798501342535
1751448504879024000,23.650024169921874,9.801807403564453,0.30801159143447876,-0.008513159118592739
1751448504897852200,23.66885205078125,9.80185317993164,0.3066606819629669,-0.005540620069950819
1751448504916680000,23.687679931640623,9.801986694335938,0.3022955060005188,0.007288437802344561
1751448504935508000,23.706508056640626,9.802160263061523,0.29607605934143066,0.020043808966875076
1751448504954336000,23.7253359375,9.802450180053711,0.28545477986335754,0.029579656198620796
1751448504973164000,23.7441640625,9.802851676940918,0.27015912532806396,0.03872287645936012
1751448504991992000,23.762991943359374,9.803187370300293,0.2559804916381836,0.04867278039455414
1751448505010820000,23.781820068359377,9.803537368774414,0.24007421731948853,0.05833093822002411
1751448505029648100,23.800648193359375,9.803569793701172,0.22269219160079956,0.10411541163921356
1751448505048476000,23.819475830078126,9.803871154785156,0.20677874982357025,0.10834121704101562
1751448505067304000,23.838303955078125,9.804272651672363,0.19364644587039948,0.09550520777702332
1751448505086132000,23.857132080078124,9.8046236038208,0.1852654069662094,0.07364505529403687
1751448505104960000,23.8759599609375,9.804882049560547,0.1768961250782013,0.05807279050350189
1751448505123788000,23.8947880859375,9.804925918579102,0.15643729269504547,0.09664330631494522
1751448505142616000,23.913615966796876,9.80512809753418,0.15529976785182953,0.07567708194255829
1751448505161444000,23.932444091796874,9.805171012878418,0.15035799145698547,0.07996772229671478
1751448505180271900,23.95127197265625,9.805252075195312,0.1529000997543335,0.0635036826133728
1751448505199100000,23.970099853515624,9.805314064025879,0.15553823113441467,0.04479348286986351
1751448505217928000,23.988927978515626,9.805309295654297,0.16016091406345367,0.025537170469760895
