time,seconds_elapsed,z,y,x
1751448481484430300,0.255430419921875,9.874580383300781,0.26620152592658997,-0.02512463741004467
1751448481498551600,0.269551513671875,9.850652694702148,0.24227328598499298,-0.020338991656899452
1751448481517379800,0.2883798828125,9.917651176452637,0.24227328598499298,-0.04426721855998039
1751448481538561500,0.3095615234375,9.92243766784668,0.2757728099822998,-0.02512463741004467
1751448481552682800,0.323682861328125,9.855438232421875,0.2566302418708801,-0.0011964113218709826
1751448481571510800,0.3425107421875,9.888937950134277,0.23748764395713806,-0.0011964113218709826
1751448481587985700,0.358985595703125,9.888937950134277,0.24227328598499298,0.003589233849197626
1751448481599753200,0.370753173828125,9.865009307861328,0.24227328598499298,-0.02512463741004467
1751448481616227800,0.387227783203125,9.89850902557373,0.23748764395713806,-0.029910283163189888
1751448481627995600,0.39899560546875,9.888937950134277,0.2470589429140091,0.008374879136681557
1751448481639763200,0.41076318359375,9.917651176452637,0.22791635990142822,-0.005982056725770235
1751448481660945000,0.43194482421875,9.903294563293457,0.2709871530532837,0.008374879136681557
1751448481675066000,0.446066162109375,9.855438232421875,0.26141586899757385,-0.005982056725770235
1751448481686833700,0.457833740234375,9.879366874694824,0.2709871530532837,-0.020338991656899452
1751448481698601500,0.4696015625,9.869794845581055,0.24227328598499298,-0.005982056725770235
1751448481712722400,0.483722412109375,9.927223205566406,0.2566302418708801,-0.005982056725770235
1751448481724490200,0.495490234375,9.908080101013184,0.26620152592658997,-0.02512463741004467
1751448481738611500,0.509611572265625,9.850652694702148,0.2470589429140091,-0.015553346835076809
1751448481752732400,0.523732421875,9.874580383300781,0.28534409403800964,-0.03469592705368996
1751448481766853600,0.537853515625,9.908080101013184,0.2566302418708801,0.003589233849197626
1751448481778621400,0.549621337890625,9.941579818725586,0.28534409403800964,-0.02512463741004467
1751448481795096000,0.566095947265625,9.88415241241455,0.26620152592658997,0.0323031060397625
1751448481813924400,0.58492431640625,9.888937950134277,0.251844584941864,0.037088751792907715
1751448481825692000,0.59669189453125,9.91286563873291,0.26620152592658997,-0.03469592705368996
1751448481839813000,0.610813232421875,9.92243766784668,0.2470589429140091,-0.005982056725770235
1751448481851580700,0.62258056640625,9.869794845581055,0.2231307178735733,-0.005982056725770235
1751448481865702000,0.636701904296875,9.874580383300781,0.28534409403800964,0.02273181453347206
1751448481882176500,0.653176513671875,9.903294563293457,0.23270200192928314,-0.02512463741004467
1751448481901004800,0.6720048828125,9.89850902557373,0.2183450609445572,-0.010767702013254166
1751448481922186500,0.6931865234375,9.869794845581055,0.24227328598499298,-0.04905286431312561
1751448481936307700,0.7073076171875,9.91286563873291,0.29012975096702576,-0.029910283163189888
1751448481950429000,0.721428955078125,9.88415241241455,0.26620152592658997,-0.005982056725770235
1751448481962196500,0.733196533203125,9.874580383300781,0.2709871530532837,-0.005982056725770235
1751448481976317700,0.747317626953125,9.88415241241455,0.2709871530532837,-0.04426721855998039
1751448481988085200,0.759085205078125,9.893723487854004,0.26620152592658997,0.017946170642971992
1751448482006913500,0.77791357421875,9.908080101013184,0.2709871530532837,-0.0011964113218709826
1751448482021034800,0.79203466796875,9.917651176452637,0.2566302418708801,0.003589233849197626
1751448482037509400,0.80850927734375,9.874580383300781,0.2231307178735733,0.017946170642971992
1751448482058691000,0.829691162109375,9.908080101013184,0.2231307178735733,-0.0011964113218709826
1751448482070459000,0.841458984375,9.91286563873291,0.2566302418708801,-0.005982056725770235
1751448482082226400,0.853226318359375,9.869794845581055,0.24227328598499298,-0.020338991656899452
1751448482093994000,0.864993896484375,9.893723487854004,0.23270200192928314,-0.020338991656899452
1751448482110468900,0.88146875,9.893723487854004,0.2566302418708801,-0.010767702013254166
1751448482124589800,0.89558984375,9.869794845581055,0.2709871530532837,-0.03469592705368996
1751448482136357600,0.907357666015625,9.903294563293457,0.2757728099822998,0.017946170642971992
1751448482152832300,0.923832275390625,9.903294563293457,0.26141586899757385,0.003589233849197626
1751448482164599800,0.935599853515625,9.88415241241455,0.26620152592658997,-0.029910283163189888
1751448482178721000,0.949720947265625,9.908080101013184,0.2709871530532837,-0.029910283163189888
1751448482190488800,0.96148876953125,9.908080101013184,0.2470589429140091,0.008374879136681557
1751448482202256400,0.97325634765625,9.91286563873291,0.26141586899757385,-0.029910283163189888
1751448482216377600,0.987377685546875,9.869794845581055,0.26141586899757385,-0.010767702013254166
1751448482230498600,1.00149853515625,9.89850902557373,0.251844584941864,-0.0011964113218709826
1751448482242266400,1.013266357421875,9.917651176452637,0.2566302418708801,0.003589233849197626
1751448482258741000,1.029740966796875,9.831509590148926,0.26141586899757385,0.037088751792907715
1751448482270508800,1.0415087890625,9.874580383300781,0.26620152592658997,0.0323031060397625
1751448482282276400,1.0532763671875,9.89850902557373,0.2757728099822998,-0.015553346835076809
1751448482301104600,1.072104736328125,9.89850902557373,0.2566302418708801,-0.02512463741004467
1751448482312872200,1.0838720703125,9.850652694702148,0.251844584941864,-0.02512463741004467
1751448482326993400,1.097993408203125,9.855438232421875,0.2470589429140091,-0.0011964113218709826
1751448482338761000,1.109760986328125,9.917651176452637,0.23748764395713806,-0.010767702013254166
1751448482350528500,1.121528564453125,9.865009307861328,0.2566302418708801,-0.020338991656899452
1751448482364649700,1.135649658203125,9.888937950134277,0.26141586899757385,-0.005982056725770235
1751448482376417500,1.14741748046875,9.869794845581055,0.26141586899757385,-0.020338991656899452
1751448482397599200,1.16859912109375,9.865009307861328,0.2470589429140091,0.003589233849197626
1751448482409366800,1.18036669921875,9.893723487854004,0.24227328598499298,-0.015553346835076809
1751448482428195000,1.199195068359375,9.908080101013184,0.29012975096702576,-0.0011964113218709826
1751448482439962600,1.210962646484375,9.888937950134277,0.22791635990142822,-0.010767702013254166
1751448482451730400,1.22273046875,9.860223770141602,0.2757728099822998,-0.010767702013254166
1751448482465851400,1.236851318359375,9.908080101013184,0.2470589429140091,-0.015553346835076809
1751448482477619200,1.248619140625,9.908080101013184,0.26620152592658997,-0.005982056725770235
1751448482494093800,1.26509375,9.88415241241455,0.2757728099822998,-0.03469592705368996
1751448482510568400,1.281568359375,9.874580383300781,0.23748764395713806,-0.005982056725770235
1751448482524689700,1.295689697265625,9.88415241241455,0.24227328598499298,-0.015553346835076809
1751448482538811000,1.309810791015625,9.89850902557373,0.23748764395713806,-0.010767702013254166
1751448482552932000,1.32393212890625,9.888937950134277,0.2470589429140091,0.003589233849197626
1751448482569406700,1.34040673828125,9.88415241241455,0.2757728099822998,-0.005982056725770235
1751448482581174500,1.352174560546875,9.865009307861328,0.24227328598499298,-0.015553346835076809
1751448482600002600,1.37100244140625,9.917651176452637,0.2709871530532837,-0.010767702013254166
1751448482611770400,1.382770263671875,9.888937950134277,0.2470589429140091,-0.010767702013254166
1751448482628245000,1.399244873046875,9.8267240524292,0.22791635990142822,-0.015553346835076809
1751448482640012500,1.411012451171875,9.874580383300781,0.21355941891670227,-0.0011964113218709826
1751448482658840800,1.4298408203125,9.893723487854004,0.26620152592658997,-0.020338991656899452
1751448482677669000,1.448669189453125,9.879366874694824,0.2566302418708801,-0.015553346835076809
1751448482703558000,1.474557861328125,9.888937950134277,0.2757728099822998,-0.020338991656899452
1751448482720032500,1.491032470703125,9.888937950134277,0.2709871530532837,-0.005982056725770235
1751448482738860800,1.50986083984375,9.888937950134277,0.24227328598499298,-0.015553346835076809
1751448482760042500,1.53104248046875,9.879366874694824,0.2470589429140091,-0.015553346835076809
1751448482792992000,1.563991943359375,9.908080101013184,0.23748764395713806,0.008374879136681557
1751448482814173700,1.585173583984375,9.874580383300781,0.2757728099822998,-0.02512463741004467
1751448482842416000,1.613416015625,9.917651176452637,0.251844584941864,-0.02512463741004467
1751448482882426000,1.653426025390625,9.89850902557373,0.24227328598499298,0.02273181453347206
1751448482896547000,1.667547119140625,9.888937950134277,0.251844584941864,-0.02512463741004467
1751448482908315000,1.67931494140625,9.888937950134277,0.2709871530532837,0.008374879136681557
1751448482924789500,1.69578955078125,9.860223770141602,0.251844584941864,-0.015553346835076809
1751448482945971200,1.71697119140625,9.845867156982422,0.2709871530532837,-0.02512463741004467
1751448482957739000,1.728739013671875,9.874580383300781,0.2566302418708801,-0.0011964113218709826
1751448482971860000,1.74285986328125,9.91286563873291,0.24227328598499298,-0.03469592705368996
1751448482983627800,1.754627685546875,9.89850902557373,0.2470589429140091,0.017946170642971992
1751448483011870200,1.7828701171875,9.88415241241455,0.2566302418708801,-0.0011964113218709826
1751448483023637800,1.7946376953125,9.89850902557373,0.26141586899757385,0.008374879136681557
1751448483044819500,1.8158193359375,9.91286563873291,0.2566302418708801,-0.0011964113218709826
1751448483066001200,1.837001220703125,9.888937950134277,0.23748764395713806,-0.020338991656899452
1751448483087183000,1.85818310546875,9.88415241241455,0.23748764395713806,-0.0011964113218709826
1751448483098950700,1.86995068359375,9.89850902557373,0.2566302418708801,-0.020338991656899452
1751448483110718200,1.88171826171875,9.874580383300781,0.26141586899757385,0.008374879136681557
1751448483131900200,1.902900146484375,9.888937950134277,0.22791635990142822,0.013160524889826775
1751448483150728200,1.921728271484375,9.888937950134277,0.23270200192928314,0.003589233849197626
1751448483167203000,1.938203125,9.91286563873291,0.2709871530532837,0.003589233849197626
1751448483202506000,1.973506103515625,9.855438232421875,0.2470589429140091,0.003589233849197626
1751448483218980600,1.989980712890625,9.88415241241455,0.2566302418708801,-0.02512463741004467
1751448483237809000,2.008808837890625,9.879366874694824,0.24227328598499298,-0.015553346835076809
1751448483249576400,2.020576416015625,9.855438232421875,0.26620152592658997,-0.020338991656899452
1751448483261344000,2.032343994140625,9.888937950134277,0.26620152592658997,-0.015553346835076809
1751448483275465200,2.04646533203125,9.91286563873291,0.23270200192928314,0.037088751792907715
1751448483289586400,2.06058642578125,9.865009307861328,0.24227328598499298,0.013160524889826775
1751448483303707600,2.074707763671875,9.879366874694824,0.2566302418708801,-0.0011964113218709826
1751448483322536000,2.093535888671875,9.79801082611084,0.2566302418708801,0.04187439754605293
1751448483367253000,2.1382529296875,9.836296081542969,0.251844584941864,0.017946170642971992
1751448483388434700,2.1594345703125,9.850652694702148,0.24227328598499298,-0.010767702013254166
1751448483400202200,2.1712021484375,9.955936431884766,0.2709871530532837,-0.03469592705368996
1751448483416677000,2.187677001953125,9.850652694702148,0.251844584941864,0.017946170642971992
1751448483435505200,2.206505126953125,9.893723487854004,0.2566302418708801,0.02273181453347206
1751448483447273000,2.21827294921875,9.941579818725586,0.26620152592658997,-0.039481572806835175
1751448483459040500,2.23004052734375,9.865009307861328,0.251844584941864,0.013160524889826775
1751448483475515100,2.24651513671875,9.879366874694824,0.2566302418708801,-0.005982056725770235
1751448483489636400,2.26063623046875,9.850652694702148,0.26141586899757385,0.008374879136681557
1751448483501404200,2.272404052734375,9.93679428100586,0.2997010350227356,-0.039481572806835175
1751448483517878800,2.288878662109375,9.79801082611084,0.2566302418708801,0.008374879136681557
1751448483536707000,2.30770703125,9.893723487854004,0.26620152592658997,0.013160524889826775
1751448483560242200,2.3312421875,9.951150894165039,0.2470589429140091,-0.039481572806835175
1751448483572010000,2.343010009765625,9.841081619262695,0.2566302418708801,0.017946170642971992
1751448483586131200,2.357131103515625,9.88415241241455,0.23270200192928314,-0.005982056725770235
1751448483602605800,2.373605712890625,9.874580383300781,0.24227328598499298,-0.010767702013254166
1751448483616727000,2.38772705078125,9.874580383300781,0.23270200192928314,0.013160524889826775
1751448483630848000,2.401847900390625,9.879366874694824,0.23748764395713806,-0.015553346835076809
1751448483644969200,2.41596923828125,9.874580383300781,0.2470589429140091,-0.020338991656899452
1751448483661444000,2.432444091796875,9.893723487854004,0.251844584941864,-0.029910283163189888
1751448483677918700,2.448918701171875,9.888937950134277,0.26620152592658997,-0.02512463741004467
1751448483694393300,2.465393310546875,9.941579818725586,0.2470589429140091,-0.020338991656899452
1751448483706161200,2.4771611328125,9.836296081542969,0.23748764395713806,-0.03469592705368996
1751448483717928700,2.4889287109375,9.88415241241455,0.26620152592658997,-0.015553346835076809
1751448483736757000,2.507757080078125,9.903294563293457,0.251844584941864,-0.02512463741004467
1751448483753231600,2.524231689453125,9.908080101013184,0.26141586899757385,-0.005982056725770235
1751448483769706200,2.540706298828125,9.850652694702148,0.2566302418708801,0.013160524889826775
1751448483781474000,2.55247412109375,9.903294563293457,0.26141586899757385,-0.010767702013254166
1751448483793241600,2.56424169921875,9.893723487854004,0.2566302418708801,-0.039481572806835175
1751448483814423300,2.58542333984375,9.850652694702148,0.2566302418708801,0.017946170642971992
1751448483826191000,2.597191162109375,9.865009307861328,0.2709871530532837,-0.005982056725770235
1751448483842665700,2.613665771484375,9.88415241241455,0.2566302418708801,-0.005982056725770235
1751448483856787000,2.627786865234375,9.893723487854004,0.26141586899757385,-0.015553346835076809
1751448483868554500,2.639554443359375,9.869794845581055,0.251844584941864,-0.04426721855998039
1751448483880322000,2.651322021484375,9.888937950134277,0.23270200192928314,0.02751746028661728
1751448483892089900,2.66308984375,9.850652694702148,0.2757728099822998,0.017946170642971992
1751448483906211000,2.677211181640625,9.841081619262695,0.26141586899757385,0.003589233849197626
1751448483920332300,2.691332275390625,9.888937950134277,0.2709871530532837,-0.020338991656899452
1751448483932099800,2.703099853515625,9.89850902557373,0.23748764395713806,-0.010767702013254166
1751448483948574500,2.719574462890625,9.869794845581055,0.24227328598499298,-0.015553346835076809
1751448483962695700,2.73369580078125,9.903294563293457,0.23270200192928314,-0.020338991656899452
1751448483979170300,2.75017041015625,9.869794845581055,0.28534409403800964,-0.020338991656899452
1751448483990938000,2.761938232421875,9.855438232421875,0.2470589429140091,-0.0011964113218709826
1751448484005059300,2.776059326171875,9.89850902557373,0.23748764395713806,-0.015553346835076809
1751448484016827000,2.787826904296875,9.879366874694824,0.23270200192928314,-0.03469592705368996
1751448484033301500,2.804301513671875,9.89850902557373,0.251844584941864,-0.020338991656899452
1751448484047422700,2.818422607421875,9.865009307861328,0.2470589429140091,-0.0011964113218709826
1751448484059190500,2.8301904296875,9.869794845581055,0.2709871530532837,-0.010767702013254166
1751448484073311500,2.8443115234375,9.836296081542969,0.24227328598499298,0.008374879136681557
1751448484089786400,2.860786376953125,9.860223770141602,0.10348957777023315,0.5970092415809631
1751448484101554000,2.872553955078125,9.893723487854004,0.026919255033135414,0.8315058946609497
1751448484113321500,2.884321533203125,9.903294563293457,0.046061836183071136,0.5156532526016235
1751448484129796400,2.90079638671875,9.941579818725586,0.33798620104789734,0.5300102233886719
1751448484141564000,2.91256396484375,9.927223205566406,0.3236292600631714,0.23808585107326508
1751448484153331700,2.924331787109375,9.802796363830566,0.8069794178009033,0.05623133108019829
1751448484165099300,2.936099365234375,9.879366874694824,0.5533402562141418,-0.1782652884721756
1751448484181574000,2.952573974609375,9.754940032958984,0.36191442608833313,-0.1495514214038849
1751448484193341700,2.964341796875,9.764511108398438,-0.13579268753528595,0.02273181453347206
1751448484205109200,2.976109130859375,10.03729248046875,0.12263216078281403,0.10887342691421509
1751448484216876800,2.987876708984375,9.960722923278809,0.6873382925987244,-0.1495514214038849
1751448484240412200,3.011412109375,9.89850902557373,0.21355941891670227,0.20937198400497437
1751448484252179700,3.0231796875,10.032506942749023,0.36191442608833313,0.17587246000766754
1751448484263947500,3.034947509765625,9.711869239807129,0.4911268353462219,0.0323031060397625
1751448484280422100,3.051422119140625,9.965508460998535,-0.0687936544418335,0.0323031060397625
1751448484296897000,3.06789697265625,9.793225288391113,0.1944168359041214,-0.1256231814622879
1751448484308664600,3.07966455078125,9.807581901550293,0.0364905446767807,-0.2356930375099182
1751448484320432000,3.09143212890625,10.04686450958252,-0.006580262444913387,-0.25004997849464417
1751448484343967500,3.114967529296875,9.817152976989746,-0.09272187948226929,0.02751746028661728
1751448484367502800,3.1385029296875,9.836296081542969,0.17527425289154053,-0.1543370634317398
1751448484386331100,3.1573310546875,9.817152976989746,0.16091732680797577,-0.14476576447486877
1751448484402805800,3.1738056640625,9.845867156982422,0.6011967062950134,-0.2548356056213379
1751448484421634000,3.192634033203125,9.850652694702148,0.706480860710144,-0.7190431952476501
1751448484433401600,3.204401611328125,9.836296081542969,1.0845468044281006,-1.1210373640060425
1751448484452230000,3.22322998046875,9.91286563873291,0.5102694034576416,-0.04905286431312561
1751448484466351000,3.23735107421875,9.869794845581055,1.0606186389923096,-1.1545369625091553
1751448484480472300,3.251472412109375,9.802796363830566,1.103689432144165,-1.9010975360870361
1751448484492240000,3.263239990234375,10.310074806213379,1.036690354347229,-1.7479569911956787
1751448484508714500,3.279714599609375,9.750154495239258,1.1563315391540527,-1.9298114776611328
1751448484520482300,3.291482421875,10.85563850402832,1.098903775215149,-0.5994020700454712
1751448484534603500,3.305603515625,9.544371604919434,0.4336991012096405,-0.5659025311470032
1751448484546371000,3.31737109375,11.056634902954102,0.03170489892363548,-0.16390834748744965
1751448484558138600,3.329138671875,8.285746574401855,0.0364905446767807,-0.21655045449733734
1751448484569906400,3.340906494140625,10.4823579788208,-0.3415754437446594,0.9846464991569519
1751448484581674000,3.352674072265625,10.965707778930664,-0.5042873620986938,1.0277173519134521
1751448484593441800,3.36444189453125,9.396016120910645,-0.494716078042984,1.2143574953079224
1751448484605209300,3.376209228515625,9.4390869140625,-0.9541380405426025,1.5014961957931519
1751448484616977000,3.387976806640625,10.506285667419434,-0.8632107973098755,1.3914263248443604
1751448484631098000,3.40209814453125,10.013364791870117,-0.8679963946342468,1.1665010452270508
1751448484647573000,3.418572998046875,9.845867156982422,-0.5665007829666138,1.042074203491211
1751448484664047600,3.435047607421875,10.018150329589844,0.2470589429140091,-0.0011964113218709826
1751448484675815200,3.446815185546875,9.908080101013184,0.26141586899757385,-0.02512463741004467
1751448484687583000,3.4585830078125,9.888937950134277,0.26141586899757385,0.008374879136681557
1751448484704057600,3.4750576171875,9.908080101013184,0.22791635990142822,-0.010767702013254166
1751448484715825400,3.486825439453125,9.88415241241455,0.26141586899757385,-0.0011964113218709826
1751448484727593000,3.498593017578125,9.888937950134277,0.24227328598499298,-0.020338991656899452
1751448484741714200,3.512714111328125,9.893723487854004,0.10348957777023315,0.1663011759519577
1751448484753481700,3.524481689453125,9.8267240524292,-0.7148557901382446,1.3004990816116333
1751448484767603000,3.53860302734375,9.946365356445312,-0.13579268753528595,1.2813565731048584
1751448484779370500,3.55037060546875,9.831509590148926,-0.45164528489112854,2.0231316089630127
1751448484795845400,3.566845458984375,9.793225288391113,-0.8057830333709717,1.3244273662567139
1751448484807613000,3.578613037109375,9.860223770141602,-0.6526423692703247,1.3244273662567139
1751448484821734100,3.592734130859375,11.587841987609863,-0.7292127013206482,1.4871392250061035
1751448484835855400,3.60685546875,11.200204849243164,-0.50907301902771,0.49172505736351013
1751448484847623000,3.618622802734375,10.089935302734375,-0.6287141442298889,0.6400800347328186
1751448484859390700,3.630390625,9.151947975158691,-0.04007977992296219,-0.34576287865638733
1751448484871158300,3.642158203125,9.93679428100586,-0.025722842663526535,-0.5946164131164551
1751448484887633000,3.6586328125,10.080363273620605,0.5676971673965454,-0.37447673082351685
1751448484899400700,3.670400634765625,10.889137268066406,0.28534409403800964,-0.8099704384803772
1751448484913522000,3.68452197265625,10.42492961883545,0.649053156375885,-0.7334001660346985
1751448484927643100,3.69864306640625,8.529814720153809,0.5102694034576416,-0.09690931439399719
1751448484939410700,3.71041064453125,9.30030345916748,0.47676992416381836,-0.058624155819416046
1751448484962946000,3.733946044921875,10.00857925415039,1.3908281326293945,-1.7240287065505981
1751448484977067300,3.7480673828125,9.582656860351562,1.6013965606689453,-2.4370899200439453
1751448484988834800,3.759834716796875,10.027721405029297,1.252044439315796,-2.8773691654205322
1751448485000602600,3.7716025390625,10.027721405029297,0.8069794178009033,-1.4225330352783203
1751448485017077200,3.7880771484375,9.726225852966309,1.500898003578186,-1.4656038284301758
1751448485038259000,3.809259033203125,9.620942115783691,1.5343974828720093,-2.1164517402648926
1751448485050026800,3.82102685546875,9.769296646118164,1.1611171960830688,-2.355733871459961
1751448485061794300,3.832794189453125,10.487143516540527,1.3381860256195068,-2.5088746547698975
1751448485073561900,3.844561767578125,9.209376335144043,0.9361918568611145,-2.2600209712982178
1751448485087683000,3.85868310546875,10.434501647949219,0.24227328598499298,-1.1976077556610107
1751448485101804300,3.87280419921875,9.19023323059082,0.2183450609445572,-0.7094719409942627
1751448485120632600,3.891632568359375,8.6303129196167,0.06999006122350693,-0.2021935135126114
1751448485132400400,3.903400390625,7.95553731918335,-0.45643091201782227,0.1663011759519577
1751448485146521300,3.917521240234375,9.223732948303223,-0.12622138857841492,0.20458634197711945
1751448485162996200,3.933996337890625,8.797810554504395,-0.45643091201782227,0.5874379873275757
1751448485174763800,3.945763671875,9.223732948303223,-0.719641387462616,1.1425727605819702
1751448485188885000,3.959885009765625,9.989436149597168,-1.212562918663025,1.5637096166610718
1751448485200652800,3.97165283203125,9.79801082611084,-1.0259226560592651,1.4488540887832642
1751448485217127400,3.98812744140625,9.415159225463867,-1.1838489770889282,1.4105689525604248
1751448485228895000,3.99989501953125,9.951150894165039,-1.217348575592041,1.4344971179962158
1751448485245369900,4.016369873046875,9.908080101013184,-1.0163514614105225,1.568495273590088
1751448485259491000,4.030490966796875,9.769296646118164,0.251844584941864,-0.1543370634317398
1751448485280672800,4.0516728515625,9.888937950134277,0.24227328598499298,-0.010767702013254166
1751448485294794000,4.0657939453125,9.860223770141602,0.0029910283628851175,0.4486542344093323
1751448485311268600,4.0822685546875,10.03729248046875,-0.2027917206287384,1.439282774925232
1751448485327743500,4.098743408203125,9.721440315246582,-0.2267199456691742,1.9465612173080444
1751448485339511000,4.110510986328125,9.89850902557373,-0.5904290080070496,2.008774518966675
1751448485351278800,4.12227880859375,9.333803176879883,-1.1886346340179443,2.0135602951049805
1751448485367753500,4.13875341796875,9.821938514709473,-0.8727820515632629,1.415354609489441
1751448485379521000,4.15052099609375,9.257232666015625,-0.8823533654212952,1.568495273590088
1751448485393642200,4.164642333984375,10.515857696533203,-0.4707878530025482,0.4103690981864929
1751448485407763500,4.178763427734375,9.453444480895996,-0.7818548083305359,0.3242274820804596
1751448485421884700,4.192884765625,8.898308753967285,-0.47557350993156433,0.836291491985321
1751448485438359300,4.209359375,10.27178955078125,-0.37507495284080505,0.4534398913383484
1751448485450127000,4.221127197265625,9.960722923278809,-0.494716078042984,0.18065811693668365
1751448485461894700,4.232894775390625,8.209176063537598,-0.5042873620986938,0.137587308883667
1751448485476015900,4.247015869140625,11.166705131530762,0.2183450609445572,-1.2789636850357056
1751448485492490800,4.26349072265625,10.53499984741211,0.582054078578949,-1.95852530002594
1751448485525440000,4.29643994140625,9.429515838623047,1.7114664316177368,-3.2315070629119873
1751448485541915000,4.312914794921875,9.750154495239258,2.1708884239196777,-4.164707660675049
1751448485553682400,4.324682373046875,9.836296081542969,1.3621143102645874,-1.470389485359192
1751448485565450200,4.3364501953125,9.975079536437988,1.472184181213379,-1.8005990982055664
1751448485577217800,4.3482177734375,9.764511108398438,1.472184181213379,-2.6524438858032227
1751448485593692400,4.3646923828125,10.774282455444336,0.6729813814163208,-2.465803623199463
1751448485614874400,4.385874267578125,10.41057300567627,0.3044866919517517,-2.121237277984619
1751448485626642000,4.397641845703125,9.778867721557617,0.29012975096702576,-2.1068804264068604
1751448485638409700,4.40940966796875,11.08056354522705,0.2709871530532837,-1.604387640953064
1751448485650177300,4.42117724609375,8.802596092224121,0.39062830805778503,-1.2885349988937378
1751448485669005600,4.440005615234375,10.688140869140625,-0.3655036687850952,-0.13040883839130402
1751448485685480400,4.45648046875,8.807381629943848,-0.5760720372200012,0.4582255482673645
1751448485699601700,4.4706015625,9.343374252319336,-0.8344969153404236,1.0803594589233398
1751448485716076300,4.487076171875,9.597013473510742,-0.9014959335327148,1.3100703954696655
1751448485732551000,4.503551025390625,10.506285667419434,-1.0785647630691528,1.2765709161758423
1751448485749025800,4.52002587890625,9.434301376342773,-0.7818548083305359,1.3196417093276978
1751448485763147000,4.53414697265625,10.176076889038086,-1.2029916048049927,1.8891334533691406
1751448485779621600,4.55062158203125,10.166504859924316,-1.3130614757537842,2.6213371753692627
1751448485791389200,4.56238916015625,9.93679428100586,-0.7674978375434875,2.7218358516693115
1751448485803157000,4.574156982421875,9.88415241241455,0.3810569941997528,0.017946170642971992
1751448485817278200,4.5882783203125,9.836296081542969,-0.12143574655056,0.4295116662979126
1751448485829045800,4.600045654296875,9.93679428100586,-0.6430711150169373,1.1377872228622437
1751448485845520600,4.616520751953125,10.13300609588623,-1.0450652837753296,2.2959132194519043
1751448485859641900,4.630641845703125,9.93679428100586,-1.059422254562378,2.750549554824829
1751448485873763000,4.64476318359375,10.02293586730957,-1.327418327331543,2.286342144012451
1751448485885530600,4.656530517578125,9.841081619262695,-1.394417405128479,2.30069899559021
1751448485897298400,4.66829833984375,10.051650047302246,-1.1168500185012817,1.6737794876098633
1751448485909066000,4.68006591796875,9.845867156982422,-1.3561322689056396,1.0612168312072754
1751448485920833500,4.69183349609375,10.051650047302246,-1.155135154724121,0.7645068168640137
1751448485932601300,4.703601318359375,10.76949691772461,-0.8009973764419556,0.04187439754605293
1751448485946722600,4.71772265625,10.14736270904541,-0.5521438121795654,-0.5754738450050354
1751448485958490000,4.729489990234375,8.898308753967285,-0.07357929646968842,-1.207179069519043
1751448485972611300,4.743611328125,13.817952156066895,1.1467602252960205,-2.695514678955078
1751448485991439600,4.762439697265625,9.443872451782227,2.1278176307678223,-3.8057844638824463
1751448486005560800,4.776560791015625,10.401001930236816,2.6111676692962646,-4.671986103057861
1751448486017328600,4.78832861328125,9.999007225036621,2.7738797664642334,-4.351347923278809
1751448486031449600,4.80244970703125,9.573084831237793,2.1756739616394043,-2.3365912437438965
1751448486043217400,4.814217529296875,9.917651176452637,2.3096721172332764,-3.087937593460083
1751448486059692000,4.830692138671875,9.984650611877441,1.323829174041748,-2.8582265377044678
1751448486071459800,4.8424599609375,9.664012908935547,0.7495517134666443,-2.4849462509155273
1751448486083227400,4.854227294921875,11.73141098022461,0.5485545992851257,-1.719243049621582
1751448486097348600,4.8683486328125,11.449058532714844,-0.18843477964401245,-1.0875378847122192
1751448486109116400,4.880116455078125,9.530014038085938,0.17527425289154053,-1.23589289188385
1751448486125591000,4.896591064453125,9.108877182006836,0.2805584669113159,-1.2023934125900269
1751448486139712300,4.910712158203125,10.692926406860352,-0.4899304509162903,-0.06819544732570648
1751448486156187100,4.927187255859375,10.305289268493652,-1.1647064685821533,1.0085747241973877
1751448486175015400,4.946015380859375,9.908080101013184,-1.700698733329773,2.008774518966675
1751448486189136400,4.960136474609375,9.630513191223145,-1.4039887189865112,2.30069899559021
1751448486200904200,4.971904296875,9.64965534210205,-1.4374881982803345,2.104487419128418
1751448486212671700,4.983671630859375,9.994221687316895,-1.179063320159912,2.118844509124756
1751448486224439600,4.995439453125,9.78843879699707,-1.1886346340179443,2.2241287231445312
1751448486240914200,5.0119140625,9.81236743927002,-0.15972091257572174,1.6737794876098633
1751448486257389000,5.02838916015625,9.932008743286133,0.06041877344250679,0.11844471842050552
1751448486269156600,5.040156494140625,10.075577735900879,-0.11186445504426956,0.6352944374084473
1751448486285631500,5.056631591796875,9.93679428100586,-0.7339983582496643,2.1475582122802734
1751448486297399000,5.06839892578125,10.099506378173828,-1.059422254562378,2.6739792823791504
1751448486309166800,5.080166748046875,9.520442962646484,-1.485344648361206,2.851048231124878
1751448486325641500,5.096641357421875,9.81236743927002,-1.7581263780593872,2.740978240966797
1751448486339762700,5.1107626953125,10.597213745117188,-1.662413477897644,2.2576282024383545
1751448486351530200,5.1225302734375,9.731011390686035,-1.8442680835723877,1.5876377820968628
1751448486363298000,5.134298095703125,8.95095157623291,-1.906481385231018,1.482353687286377
1751448486379772700,5.150772705078125,11.176276206970215,-1.2652050256729126,0.02273181453347206
1751448486391540500,5.16254052734375,9.659226417541504,-0.34636107087135315,-0.747757077217102
1751448486405661700,5.17666162109375,6.888338088989258,-0.020937198773026466,-1.456032633781433
1751448486417429200,5.18842919921875,9.597013473510742,0.5964110493659973,-2.7050859928131104
1751448486429197000,5.200197021484375,11.405987739562988,1.017547845840454,-3.2793633937835693
1751448486440964600,5.211964599609375,10.52064323425293,0.8787640929222107,-3.2554352283477783
1751448486455085800,5.2260859375,9.376873970031738,1.563111424446106,-2.968296527862549
1751448486466853600,5.237853515625,10.779067993164062,1.965105652809143,-3.0687949657440186
1751448486483328300,5.254328369140625,9.616155624389648,2.7499513626098633,-3.6526436805725098
1751448486497449500,5.268449462890625,10.353145599365234,1.49611234664917,-1.2646067142486572
1751448486509217300,5.28021728515625,9.965508460998535,2.017747640609741,-2.307877540588379
1751448486523338500,5.29433837890625,10.200004577636719,1.4769697189331055,-2.7529425621032715
1751448486535106000,5.30610595703125,9.965508460998535,1.3334003686904907,-3.073580741882324
1751448486549227300,5.320227294921875,7.658827304840088,0.7926225066184998,-3.0687949657440186
1751448486560994800,5.331994873046875,8.10389232635498,0.2805584669113159,-2.3844478130340576
1751448486572762600,5.3437626953125,10.429716110229492,-0.04486542567610741,-1.5326029062271118
1751448486584530200,5.3555302734375,12.937394142150879,-0.26500511169433594,-0.6664010882377625
1751448486598651400,5.3696513671875,9.917651176452637,-0.5808576941490173,-0.5994020700454712
1751448486610419200,5.381419189453125,10.812567710876465,-0.8967102766036987,0.381655216217041
1751448486626893800,5.397893798828125,11.918051719665527,-1.2939188480377197,1.3674981594085693
1751448486638661600,5.40966162109375,9.419944763183594,-0.906281590461731,1.5445669889450073
1751448486650429200,5.42142919921875,8.773882865905762,-0.47557350993156433,1.568495273590088
1751448486662197000,5.433197021484375,10.295717239379883,-1.0067801475524902,1.7982062101364136
1751448486673964500,5.444964599609375,9.754940032958984,-0.8201399445533752,1.9513468742370605
1751448486685732400,5.456732421875,10.898709297180176,-1.2556337118148804,2.0374884605407715
1751448486697500000,5.4685,10.089935302734375,-0.7722834944725037,1.659422516822815
1751448486711621000,5.48262109375,9.960722923278809,-0.50907301902771,1.3627125024795532
1751448486725742300,5.496742431640625,9.927223205566406,-0.23629122972488403,1.0085747241973877
1751448486737510100,5.50851025390625,9.903294563293457,-0.2267199456691742,0.8841479420661926
1751448486751631400,5.52263134765625,9.888937950134277,0.26620152592658997,-0.06819544732570648
1751448486763399000,5.53439892578125,9.783653259277344,0.20398813486099243,-0.010767702013254166
1751448486777520000,5.54852001953125,9.893723487854004,0.06041877344250679,0.7070791125297546
1751448486789288000,5.560287841796875,9.831509590148926,-0.4372883439064026,1.9178473949432373
1751448486801055500,5.572055419921875,10.02293586730957,-1.0307083129882812,2.6117658615112305
1751448486812823300,5.5838232421875,9.539586067199707,-1.5858432054519653,3.3678979873657227
1751448486824590800,5.5955908203125,9.888937950134277,-1.9112670421600342,3.276970624923706
1751448486836358700,5.607358642578125,10.664212226867676,-2.2031915187835693,2.8414769172668457
1751448486848126200,5.619126220703125,9.486943244934082,-1.9351953268051147,2.592623233795166
1751448486859894000,5.63089404296875,11.654840469360352,-1.4327025413513184,1.6211373805999756
1751448486874015200,5.64501513671875,11.472986221313477,-1.2891331911087036,0.47258245944976807
1751448486888136400,5.659136474609375,9.386445045471191,-1.0785647630691528,-0.37926238775253296
1751448486902257700,5.673257568359375,9.640084266662598,-0.2554338276386261,-1.7575281858444214
1751448486916379000,5.68737890625,11.659626960754395,0.5676971673965454,-2.843869686126709
1751448486928146400,5.699146484375,8.620741844177246,0.768694281578064,-3.0305099487304688
1751448486939914000,5.7109140625,9.343374252319336,1.49611234664917,-3.6287155151367188
1751448486951681800,5.722681884765625,10.056435585021973,2.472383975982666,-5.193621635437012
1751448486968156700,5.73915673828125,9.984650611877441,3.3098719120025635,-5.509474277496338
1751448486979924200,5.75092431640625,10.03729248046875,1.8598214387893677,-2.513660192489624
1751448486991692000,5.762692138671875,10.094720840454102,2.166102647781372,-3.0927233695983887
1751448487008166700,5.779166748046875,9.419944763183594,1.7688941955566406,-3.896711587905884
1751448487019934500,5.7909345703125,9.793225288391113,1.1084750890731812,-3.3367912769317627
1751448487031702000,5.802701904296875,8.94137954711914,0.7256234884262085,-3.0927233695983887
1751448487043469800,5.8144697265625,10.788639068603516,-0.054436713457107544,-2.121237277984619
1751448487055237400,5.8262373046875,10.027721405029297,-0.31764721870422363,-1.6857435703277588
1751448487067005000,5.8380048828125,11.061420440673828,-0.48035913705825806,-1.4081761837005615
1751448487081126400,5.85212646484375,10.128219604492188,-0.6717849373817444,0.003589233849197626
1751448487095247400,5.866247314453125,11.166705131530762,-1.0402796268463135,0.6687939167022705
1751448487109368600,5.88036865234375,10.592427253723145,-1.150349497795105,0.7692924737930298
1751448487121136400,5.892136474609375,9.271589279174805,-0.5473581552505493,0.6017948985099792
1751448487132904000,5.903904052734375,9.137591361999512,-0.7722834944725037,0.6975077986717224
1751448487144671700,5.915671630859375,9.472586631774902,-0.8105686902999878,1.3004990816116333
1751448487158793000,5.92979296875,10.649855613708496,-1.0115658044815063,1.4727823734283447
1751448487175267600,5.946267578125,10.113862991333008,-0.8153542876243591,1.6737794876098633
1751448487187035400,5.958035400390625,10.166504859924316,-0.9110672473907471,1.5589239597320557
1751448487198803000,5.969802978515625,9.807581901550293,-0.6813562512397766,1.6211373805999756
1751448487210570800,5.98157080078125,9.376873970031738,-0.906281590461731,1.3914263248443604
1751448487222338300,5.99333837890625,10.310074806213379,-0.7722834944725037,2.056631088256836
1751448487236459800,6.007459716796875,9.88415241241455,-0.7004988193511963,2.396411895751953
1751448487248227300,6.019227294921875,9.841081619262695,0.046061836183071136,0.4295116662979126
1751448487264702000,6.035701904296875,9.908080101013184,-0.6287141442298889,2.1954147815704346
1751448487276469800,6.0474697265625,10.262218475341797,-1.4231312274932861,3.425325632095337
1751448487292944600,6.063944580078125,10.214361190795898,-2.2893331050872803,4.679164886474609
1751448487307065900,6.07806591796875,10.300503730773926,-2.5046870708465576,4.023531436920166
1751448487318833400,6.08983349609375,9.180662155151367,-2.4711875915527344,2.9802606105804443
1751448487332954600,6.10395458984375,10.39621639251709,-2.270190477371216,1.1521440744400024
1751448487347075800,6.118075927734375,9.946365356445312,-2.3324038982391357,0.2667997181415558
1751448487358843600,6.12984375,9.434301376342773,-1.576271891593933,-0.5515456199645996
1751448487370611200,6.141611083984375,9.544371604919434,-1.0498509407043457,-1.4368900060653687
1751448487382379000,6.15337890625,8.568099975585938,-0.01136590726673603,-2.465803623199463
1751448487398853600,6.169853515625,9.400801658630371,1.3956137895584106,-4.222135543823242
1751448487415328500,6.18632861328125,9.343374252319336,2.572882652282715,-5.763113498687744
1751448487427096000,6.198095947265625,9.845867156982422,4.056432723999023,-7.581658363342285
1751448487438864000,6.20986376953125,10.314860343933105,2.8600213527679443,-4.9639105796813965
1751448487450631400,6.22163134765625,9.620942115783691,3.290729284286499,-4.614558696746826
1751448487464752600,6.235752685546875,10.314860343933105,2.4053850173950195,-4.356133460998535
1751448487478873900,6.249873779296875,10.070792198181152,1.1371889114379883,-3.9876389503479004
1751448487492995000,6.2639951171875,10.156933784484863,0.34277185797691345,-3.207578659057617
1751448487509470000,6.280469970703125,9.128020286560059,-0.21236300468444824,-2.0159530639648438
1751448487521237500,6.292237548828125,10.592427253723145,-0.7579265832901001,-1.5900306701660156
1751448487540065800,6.311065673828125,7.998608112335205,-0.8105686902999878,-0.9248259663581848
1751448487551833600,6.32283349609375,11.405987739562988,-1.1264212131500244,0.037088751792907715
1751448487563601200,6.33460107421875,9.927223205566406,-0.9014959335327148,0.5682953596115112
1751448487575369000,6.346368896484375,10.941780090332031,-0.35114672780036926,0.6879364848136902
1751448487589490200,6.360490234375,9.56351375579834,-0.3128615617752075,0.5970092415809631
1751448487601257700,6.3722578125,10.60678482055664,-1.0067801475524902,0.36251261830329895
1751448487617732600,6.388732666015625,9.970293998718262,-2.184048891067505,1.0707881450653076
1751448487631853800,6.402853759765625,9.396016120910645,-2.5573291778564453,1.3914263248443604
1751448487643621400,6.414621337890625,9.448657989501953,-2.6291139125823975,1.8699909448623657
1751448487660096300,6.43109619140625,9.754940032958984,-2.246262311935425,2.42512583732605
1751448487676571000,6.44757080078125,10.334002494812012,-1.4087743759155273,2.8797619342803955
1751448487688338700,6.459338623046875,10.128219604492188,-0.4995017349720001,2.472982168197632
1751448487702460000,6.4734599609375,9.778867721557617,0.2949153780937195,1.9417755603790283
1751448487714227700,6.485227783203125,9.821938514709473,0.3284149169921875,0.22372891008853912
1751448487725995300,6.496995361328125,9.91286563873291,-0.48514479398727417,1.2861422300338745
1751448487740116500,6.511116455078125,9.93679428100586,-1.3178470134735107,2.6356940269470215
1751448487758944800,6.52994482421875,9.329017639160156,-2.1409780979156494,3.300898790359497
1751448487770712600,6.541712646484375,9.54915714263916,-2.3084757328033447,3.4205398559570312
1751448487789540900,6.560540771484375,9.305088996887207,-2.1409780979156494,2.937189817428589
1751448487806015500,6.577015380859375,10.850852012634277,-2.5573291778564453,1.8939191102981567
1751448487817783300,6.588783203125,9.951150894165039,-2.5429723262786865,1.7982062101364136
1751448487831904500,6.602904541015625,10.688140869140625,-2.475973129272461,1.2239288091659546
1751448487846025700,6.617025634765625,9.132805824279785,-1.72941255569458,0.06580262631177902
1751448487857793300,6.628793212890625,9.544371604919434,-1.633699655532837,-0.5850451588630676
1751448487871914500,6.64291455078125,9.582656860351562,-1.5236297845840454,-1.6761722564697266
1751448487888389400,6.659389404296875,9.458230018615723,-1.2317054271697998,-2.2600209712982178
1751448487902510600,6.673510498046875,10.444072723388672,-1.2652050256729126,-2.1308085918426514
1751448487916631800,6.6876318359375,11.099705696105957,-1.083350419998169,-2.307877540588379
1751448487928399400,6.6993994140625,11.951550483703613,-0.4181457459926605,-2.7146573066711426
1751448487942520600,6.7135205078125,6.629913330078125,0.4815555512905121,-2.695514678955078
1751448487958995500,6.729995361328125,10.295717239379883,1.5726827383041382,-3.5330026149749756
1751448487975470000,6.746469970703125,8.931808471679688,1.8885352611541748,-3.269792079925537
1751448487987238000,6.75823779296875,11.946764945983887,2.6973092555999756,-3.810570001602173
1751448488001359000,6.772359130859375,10.113862991333008,2.950948476791382,-5.796612739562988
1751448488020187400,6.7911875,9.955936431884766,1.4003994464874268,-0.6855437159538269
1751448488036662300,6.807662353515625,9.917651176452637,1.074975609779358,-1.3651052713394165
1751448488048429800,6.819429931640625,10.0612211227417,1.347757339477539,-1.9872392416000366
1751448488060197600,6.83119775390625,10.51107120513916,1.1228320598602295,-2.0781664848327637
1751448488071965200,6.842965087890625,12.477972030639648,0.9074779748916626,-2.025524377822876
1751448488083733000,6.85473291015625,10.793424606323242,0.649053156375885,-2.748156785964966
1751448488095500500,6.86650048828125,10.089935302734375,0.9696913957595825,-2.9970104694366455
1751448488107268400,6.878268310546875,9.592227935791016,0.768694281578064,-3.016152858734131
1751448488119036000,6.890035888671875,11.061420440673828,0.5964110493659973,-2.781656265258789
1751448488133157000,6.9041572265625,9.845867156982422,0.2470589429140091,-2.2408783435821533
1751448488149632000,6.920632080078125,13.05224895477295,0.529412031173706,-1.4177473783493042
1751448488161399600,6.932399658203125,10.109077453613281,0.0364905446767807,-1.5134602785110474
1751448488180227800,6.951227783203125,11.463415145874023,-0.6717849373817444,-0.8291130661964417
1751448488199056100,6.97005615234375,8.529814720153809,-0.6957131624221802,-0.5084748268127441
1751448488210824000,6.981823974609375,10.405787467956543,-1.327418327331543,0.12801600992679596
1751448488224945200,6.995945068359375,9.530014038085938,-1.4662020206451416,0.41515472531318665
1751448488241419800,7.012419677734375,7.438687324523926,-1.700698733329773,0.592223584651947
1751448488257894700,7.028894775390625,9.946365356445312,-1.7916259765625,1.113858938217163
1751448488272016000,7.043015869140625,11.00877857208252,-1.6145570278167725,1.415354609489441
1751448488283783700,7.05478369140625,10.420144081115723,-1.8873388767242432,2.032702922821045
1751448488297905000,7.06890478515625,9.92243766784668,-1.547558069229126,1.8987047672271729
1751448488309672400,7.08067236328125,10.252646446228027,-1.3417752981185913,1.6737794876098633
1751448488321440300,7.092440185546875,10.779067993164062,-0.9397810697555542,1.817348837852478
1751448488335561500,7.1065615234375,10.13300609588623,-0.4468596279621124,1.3866406679153442
1751448488352036000,7.1230361328125,9.601799011230469,-0.2267199456691742,1.4679967164993286
1751448488366157300,7.1371572265625,9.888937950134277,-0.8297112584114075,2.1954147815704346
1751448488380278500,7.151278564453125,9.893723487854004,-1.1216355562210083,1.200000524520874
1751448488392046300,7.16304638671875,9.91286563873291,0.16091732680797577,0.4295116662979126
1751448488403814000,7.17481396484375,9.893723487854004,-0.3798605799674988,2.066202402114868
1751448488415581700,7.186581787109375,9.697511672973633,-0.997208833694458,3.128615617752075
1751448488427349200,7.198349365234375,9.582656860351562,-1.6480566263198853,3.5066816806793213
1751448488439117000,7.210116943359375,10.88435173034668,-1.6049858331680298,3.032902717590332
1751448488453238300,7.22423828125,10.649855613708496,-2.0213370323181152,2.908475875854492
1751448488465005800,7.236005859375,9.778867721557617,-2.097907304763794,3.229114055633545
1751448488476773600,7.247773681640625,5.878567218780518,-2.4711875915527344,3.1334011554718018
1751448488488541200,7.259541259765625,6.328417778015137,-2.562114953994751,2.7601208686828613
1751448488502662700,7.27366259765625,10.377073287963867,-2.222334146499634,1.726421594619751
1751448488514430200,7.28543017578125,11.085349082946777,-2.6291139125823975,1.042074203491211
1751448488528551400,7.299551513671875,9.396016120910645,-1.973480463027954,0.04666004329919815
1751448488540319000,7.311319091796875,11.401201248168945,-2.2845473289489746,-0.2309073805809021
1751448488552086800,7.323086669921875,9.238089561462402,-2.0309081077575684,-0.6711867451667786
1751448488563854300,7.334854248046875,10.02293586730957,-1.8921245336532593,-1.604387640953064
1751448488575622100,7.3466220703125,10.200004577636719,-1.7629120349884033,-1.719243049621582
1751448488592097000,7.363096923828125,10.027721405029297,-0.8871390223503113,-2.638087034225464
1751448488608571600,7.379571533203125,3.8781673908233643,-0.877567708492279,-2.9826533794403076
1751448488625046500,7.396046630859375,10.678568840026855,0.5054838061332703,-4.686343193054199
1751448488641521200,7.412521240234375,11.137990951538086,1.9028922319412231,-11.3718900680542
1751448488653289000,7.4242890625,8.572885513305664,3.6544384956359863,-7.385447025299072
1751448488665056500,7.436056396484375,8.520243644714355,3.142374277114868,-3.1692936420440674
1751448488681531400,7.452531494140625,9.620942115783691,1.9172492027282715,-2.063809633255005
1751448488693299000,7.464298828125,9.640084266662598,1.5487544536590576,-2.365305185317993
1751448488705066800,7.476066650390625,8.94137954711914,0.9936196208000183,-2.5088746547698975
1751448488716834300,7.487834228515625,9.611370086669922,0.5006981492042542,-1.4416756629943848
1751448488733309200,7.50430908203125,9.759725570678711,0.022133609279990196,-1.8580267429351807
1751448488747430400,7.518430419921875,9.721440315246582,0.4049852192401886,-2.3365912437438965
1751448488761551600,7.532551513671875,10.281360626220703,0.39541393518447876,-2.6668007373809814
1751448488778026200,7.549026123046875,11.35813045501709,0.05563312768936157,-1.561316728591919
1751448488789794000,7.5607939453125,10.515857696533203,-0.15972091257572174,-1.4895321130752563
1751448488801561600,7.5725615234375,10.104291915893555,-0.5712863802909851,-1.2454642057418823
1751448488815683000,7.58668310546875,8.089534759521484,-0.39900317788124084,-1.389033555984497
1751448488827450600,7.59845068359375,8.113463401794434,-0.4612165689468384,-1.1976077556610107
1751448488839218400,7.610218505859375,9.4390869140625,-0.48514479398727417,-1.058824062347412
1751448488855693000,7.626693115234375,5.9407806396484375,-1.0019944906234741,-0.747757077217102
1751448488867460900,7.6384609375,10.27178955078125,-1.3992030620574951,-0.2787638306617737
1751448488881582000,7.65258203125,10.439287185668945,-1.3800604343414307,0.2763710021972656
1751448488900410400,7.671410400390625,12.406187057495117,-1.7533408403396606,0.5826523303985596
1751448488914531600,7.685531494140625,8.247461318969727,-1.4279168844223022,-0.06340979784727097
1751448488926299100,7.697299072265625,11.487342834472656,-1.3561322689056396,0.3242274820804596
1751448488940420400,7.71142041015625,5.356931686401367,-1.3178470134735107,0.17108681797981262
1751448488954541600,7.72554150390625,9.965508460998535,-1.3130614757537842,1.3196417093276978
1751448488971016400,7.742016357421875,9.984650611877441,-1.2843475341796875,1.2430713176727295
1751448488982784000,7.753783935546875,9.726225852966309,-0.9302098155021667,1.7168502807617188
1751448488994551800,7.7655517578125,10.735997200012207,-0.7292127013206482,1.5397813320159912
1751448489006319400,7.7773193359375,10.152148246765137,-0.7004988193511963,1.664208173751831
1751448489018087200,7.789087158203125,9.544371604919434,-0.18843477964401245,2.0135602951049805
1751448489029854700,7.800854736328125,10.13300609588623,-0.7100701332092285,2.5399811267852783
1751448489046329600,7.81732958984375,9.78843879699707,-0.5377869009971619,2.6261229515075684
1751448489058097200,7.82909716796875,9.860223770141602,0.06520441919565201,0.50129634141922
1751448489069865000,7.840864990234375,9.946365356445312,-0.4707878530025482,1.6259230375289917
1751448489081632800,7.8526328125,10.02293586730957,-0.01615155301988125,2.5734808444976807
1751448489093400300,7.864400390625,10.04686450958252,-0.5712863802909851,3.2626137733459473
1751448489112228600,7.883228515625,9.68794059753418,-2.294118642807007,3.789034605026245
1751448489123996200,7.89499609375,9.793225288391113,-2.241476535797119,3.5545380115509033
1751448489140471000,7.911470947265625,10.14736270904541,-2.002194404602051,2.6356940269470215
1751448489152238800,7.92323876953125,8.347960472106934,-1.7629120349884033,1.7982062101364136
1751448489166359800,7.93735986328125,13.28674602508545,-1.6241283416748047,1.1521440744400024
1751448489182834700,7.953834716796875,6.883552551269531,-2.7008986473083496,1.4584254026412964
1751448489194602500,7.9656025390625,11.13320541381836,-3.1651060581207275,0.7884350419044495
1751448489208723500,7.979723388671875,8.089534759521484,-3.6340994834899902,0.8506484627723694
1751448489220491300,7.9914912109375,8.38145923614502,-3.6293137073516846,0.7357929348945618
1751448489234612500,8.005612548828125,10.712068557739258,-2.5334010124206543,-0.6711867451667786
1751448489248733700,8.019733642578124,9.472586631774902,-1.810768485069275,-1.4895321130752563
1751448489260501500,8.03150146484375,7.543971538543701,-1.4949159622192383,-1.6809579133987427
1751448489272269000,8.04326904296875,7.907680511474609,-0.9110672473907471,-1.963310956954956
1751448489288744000,8.059743896484376,11.276775360107422,-0.4468596279621124,-2.599801778793335
1751448489305218600,8.076218505859375,6.787839412689209,-0.020937198773026466,-2.599801778793335
1751448489316986400,8.087986328125,9.93679428100586,0.4624129831790924,-3.55214524269104
1751448489328754000,8.09975390625,12.229118347167969,1.2281162738800049,-10.323833465576172
1751448489340521700,8.111521728515624,11.822338104248047,2.850450038909912,-6.4666032791137695
1751448489356996400,8.127996337890625,9.960722923278809,3.1902308464050293,-5.164907455444336
1751448489368764200,8.13976416015625,9.764511108398438,1.9028922319412231,-2.9347970485687256
1751448489385238800,8.15623876953125,9.831509590148926,1.280758261680603,-1.867598056793213
1751448489401713700,8.172713623046874,9.960722923278809,0.6251249313354492,-2.0398812294006348
1751448489415835000,8.1868349609375,10.066006660461426,0.5437689423561096,-2.0781664848327637
1751448489427602400,8.1986025390625,10.027721405029297,0.582054078578949,-1.805384635925293
1751448489441723600,8.2127236328125,9.68794059753418,0.6873382925987244,-1.7910277843475342
1751448489453491500,8.224491455078125,13.243675231933594,0.4384847581386566,-1.5469598770141602
1751448489465259000,8.236259033203124,9.553942680358887,0.4815555512905121,-1.8149559497833252
1751448489477026800,8.24802685546875,11.348559379577637,0.15134602785110474,-1.3603196144104004
1751448489488794400,8.25979443359375,9.745368003845215,0.16091732680797577,-1.6618152856826782
1751448489502915600,8.27391552734375,10.075577735900879,-0.049651071429252625,-1.4033905267715454
1751448489517036800,8.288036865234375,10.802995681762695,0.22791635990142822,-1.451246976852417
1751448489531158000,8.302157958984376,12.40140151977539,-0.07357929646968842,-1.2263215780258179
1751448489549986300,8.320986328125,9.128020286560059,-0.04486542567610741,-1.6187444925308228
1751448489561754000,8.332754150390626,7.443472862243652,-0.11186445504426956,-1.7096717357635498
1751448489573521700,8.344521728515625,10.654641151428223,-0.844068169593811,-0.900897741317749
1751448489587643000,8.358642822265624,9.659226417541504,-0.6143572330474854,-0.9966106414794922
1751448489599410700,8.37041064453125,9.553942680358887,-0.753140926361084,-1.077966570854187
1751448489611178500,8.382178466796875,10.13300609588623,-1.2747762203216553,-0.747757077217102
1751448489622946000,8.393946044921876,7.76889705657959,-1.0689935684204102,-0.7381857633590698
1751448489634713900,8.4057138671875,11.932408332824707,-2.3802602291107178,-0.40797626972198486
1751448489648834800,8.419834716796874,10.123434066772461,-1.2652050256729126,-0.6472585201263428
1751448489665309700,8.436309814453125,8.50588607788086,-1.394417405128479,-0.04905286431312561
1751448489679431000,8.450430908203124,10.917851448059082,-1.3992030620574951,0.22851456701755524
1751448489695905500,8.466905517578125,10.802995681762695,-1.7533408403396606,0.8315058946609497
1751448489707673300,8.47867333984375,11.286346435546875,-1.4374881982803345,1.4249259233474731
1751448489721794600,8.492794677734375,9.544371604919434,-0.8919246196746826,2.128415822982788
1751448489733562000,8.50456201171875,10.405787467956543,-1.2317054271697998,1.8460626602172852
1751448489750037000,8.521037109375,9.654440879821777,-0.8105686902999878,1.9130617380142212
1751448489761804800,8.5328046875,8.984451293945312,-0.8009973764419556,2.008774518966675
1751448489782986500,8.553986572265625,9.644869804382324,-0.6191428303718567,1.92741858959198
1751448489794754300,8.56575439453125,9.927223205566406,-0.3080759048461914,2.090130567550659
1751448489806521900,8.57752197265625,9.888937950134277,-0.2027917206287384,2.0470597743988037
1751448489820643000,8.59164306640625,9.855438232421875,0.1178465187549591,0.08973085135221481
1751448489834764300,8.605764404296876,9.92243766784668,-0.6622136831283569,1.6546368598937988
1751448489846531800,8.61753173828125,9.927223205566406,-1.1934202909469604,3.0233314037323
1751448489860653300,8.6316533203125,10.104291915893555,-0.8105686902999878,3.181257724761963
1751448489872420900,8.6434208984375,9.893723487854004,-1.571486234664917,3.535395383834839
1751448489884188400,8.6551884765625,10.37228775024414,-2.059622049331665,3.5736806392669678
1751448489900663300,8.671663330078125,9.510871887207031,-1.7916259765625,2.750549554824829
1751448489914784500,8.685784423828125,9.664012908935547,-2.1649062633514404,2.702693223953247
1751448489928905700,8.69990576171875,9.539586067199707,-2.241476535797119,1.8939191102981567
1751448489940673500,8.711673583984375,9.501300811767578,-2.38983154296875,1.4057832956314087
1751448489952441000,8.723441162109374,5.208576679229736,-3.122035264968872,1.26699960231781
1751448489968915700,8.739915771484375,10.917851448059082,-2.648256540298462,0.5395814776420593
1751448489985390600,8.756390625,7.012764930725098,-3.13639235496521,0.4821537733078003
1751448489997158100,8.768158203125,11.190633773803711,-2.6051857471466064,-0.2069791555404663
1751448490008926000,8.779926025390624,12.19083309173584,-2.51425838470459,-1.0492527484893799
1751448490025400800,8.79640087890625,11.721839904785156,-2.0931215286254883,-1.8580267429351807
1751448490041875500,8.81287548828125,8.869595527648926,-1.083350419998169,-2.9491539001464844
1751448490055996700,8.82699658203125,12.745967864990234,-0.3415754437446594,-3.9972102642059326
1751448490067764500,8.838764404296874,7.496115207672119,0.0029910283628851175,-4.246063709259033
1751448490081885400,8.852885498046875,11.056634902954102,1.1850453615188599,-5.050052165985107
1751448490096006700,8.867006591796875,9.434301376342773,1.8502501249313354,-5.423332691192627
1751448490110128000,8.881128173828126,11.271988868713379,2.5393829345703125,-8.155936241149902
1751448490121895700,8.892895751953125,9.664012908935547,2.7930221557617188,-5.107480049133301
1751448490136017000,8.907016845703126,9.93679428100586,1.3094722032546997,-1.9776679277420044
1751448490150138000,8.92113818359375,9.845867156982422,1.8741782903671265,-1.690529227256775
1751448490164259300,8.93525927734375,10.176076889038086,1.3573286533355713,-2.26959228515625
1751448490176027000,8.94702685546875,9.888937950134277,1.0079765319824219,-2.0542383193969727
1751448490187794700,8.958794677734375,9.769296646118164,0.28534409403800964,-1.9968105554580688
1751448490199562200,8.970562255859376,9.79801082611084,0.357128769159317,-2.33180570602417
1751448490211330000,8.982330078125,10.401001930236816,0.5198407173156738,-2.843869686126709
1751448490223097600,8.99409765625,8.271389961242676,0.3284149169921875,-2.475374937057495
1751448490234865400,9.005865478515625,10.807781219482422,0.7304090857505798,-2.89172625541687
1751448490251340000,9.022340087890624,10.735997200012207,-0.15972091257572174,-2.3222343921661377
1751448490265461200,9.036461181640625,11.525628089904785,-0.8919246196746826,-1.8436698913574219
1751448490281936100,9.05293603515625,11.281560897827148,-0.3032902777194977,-0.7621139883995056
1751448490293703700,9.06470361328125,11.683554649353027,-0.12622138857841492,-0.9822536706924438
1751448490307825000,9.078824951171875,10.750353813171387,-0.2841476798057556,-1.389033555984497
1751448490321946000,9.092946044921876,8.955737113952637,-0.7339983582496643,-1.4033905267715454
1751448490336067300,9.1070673828125,9.171091079711914,-1.2987045049667358,-1.0205388069152832
1751448490347835100,9.118835205078126,8.529814720153809,-1.705484390258789,-0.6520441770553589
1751448490361956400,9.132956298828125,11.032707214355469,-2.1409780979156494,-0.3601198196411133
1751448490378431000,9.149430908203126,11.286346435546875,-1.4039887189865112,0.017946170642971992
1751448490392552200,9.16355224609375,8.414958953857422,-1.9351953268051147,0.02751746028661728
1751448490409027000,9.180027099609376,8.223533630371094,-1.9543378353118896,0.8841479420661926
1751448490420794600,9.191794677734375,9.544371604919434,-2.2893331050872803,1.109073281288147
1751448490432562400,9.2035625,10.501500129699707,-1.8490537405014038,1.5493526458740234
1751448490444330000,9.215330078125,7.70668363571167,-0.8153542876243591,1.6163517236709595
1751448490456097800,9.227097900390625,10.568499565124512,-0.6382854580879211,2.23848557472229
1751448490467865300,9.238865234375,10.649855613708496,-0.8297112584114075,1.8843477964401245
1751448490479633200,9.250633056640625,9.659226417541504,-0.47557350993156433,1.9609181880950928
1751448490491400700,9.262400634765624,10.386645317077637,-0.6622136831283569,2.094916343688965
1751448490503168300,9.274168212890626,10.793424606323242,-0.8871390223503113,2.2719850540161133
1751448490514936000,9.28593603515625,9.979865074157715,-1.1264212131500244,2.066202402114868
1751448490526703600,9.29770361328125,9.70229721069336,-1.700698733329773,2.472982168197632
1751448490540824800,9.311824951171875,9.821938514709473,0.09391828626394272,0.30508488416671753
1751448490554946300,9.3259462890625,9.994221687316895,-0.2267199456691742,0.5682953596115112
1751448490569067300,9.3400673828125,9.89850902557373,-0.9541380405426025,1.8508483171463013
1751448490580835000,9.3518349609375,9.817152976989746,-0.8344969153404236,2.669193744659424
1751448490594956300,9.365956298828126,9.309874534606934,-1.3657035827636719,3.568894863128662
1751448490606723800,9.377723876953125,9.099306106567383,-1.4039887189865112,3.482753276824951
1751448490618491600,9.38949169921875,10.41057300567627,-1.6002001762390137,3.3439695835113525
1751448490632612900,9.40361279296875,9.91286563873291,-1.9974087476730347,2.324627161026001
1751448490646734000,9.417734130859374,11.200204849243164,-2.0309081077575684,1.9178473949432373
1751448490658501600,9.429501708984375,7.773682594299316,-2.303689956665039,1.7312071323394775
1751448490672622800,9.443622802734374,7.290332317352295,-2.892324447631836,1.4775680303573608
1751448490684390700,9.455390625,10.214361190795898,-2.973680257797241,1.3004990816116333
1751448490696158200,9.467158203125,11.209775924682617,-2.815753936767578,1.0133603811264038
1751448490707926000,9.478926025390624,11.147562026977539,-2.633899450302124,0.38644084334373474
1751448490719693600,9.490693603515625,8.783453941345215,-2.5908286571502686,0.04666004329919815
1751448490731461400,9.50246142578125,12.535399436950684,-1.9830517768859863,-1.058824062347412
1751448490745582600,9.51658251953125,7.299903869628906,-2.011765718460083,-0.7668996453285217
1751448490759703800,9.530703857421875,11.587841987609863,-1.5044872760772705,-2.0685951709747314
1751448490773825000,9.544824951171876,9.54915714263916,-0.5569294691085815,-3.0448668003082275
1751448490785592600,9.556592529296875,12.186047554016113,-0.32243284583091736,-3.920639991760254
1751448490797360000,9.568360107421874,7.515257835388184,0.2757728099822998,-3.762713670730591
1751448490809128000,9.5801279296875,10.549356460571289,1.7114664316177368,-5.179264545440674
1751448490825602800,9.596602783203124,10.740782737731934,2.998805046081543,-6.361319065093994
1751448490839723800,9.610723876953125,10.616355895996094,2.8839495182037354,-6.107679843902588
1751448490851491600,9.62249169921875,9.764511108398438,2.1517457962036133,-5.227120876312256
1751448490863259100,9.634259033203126,10.812567710876465,0.357128769159317,-2.7433712482452393
1751448490875027000,9.64602685546875,9.994221687316895,-0.049651071429252625,-2.035095691680908
1751448490889148200,9.660148193359374,10.180862426757812,0.529412031173706,-1.0301101207733154
1751448490900915700,9.671915771484375,10.276575088500977,0.8787640929222107,-1.2789636850357056
1751448490919744000,9.690743896484374,11.420344352722168,0.8883354067802429,-1.9010975360870361
1751448490933865200,9.704865234375,10.616355895996094,0.8452646136283875,-1.6857435703277588
1751448490945633000,9.716633056640624,8.812167167663574,0.97926265001297,-2.4131617546081543
1751448490957400600,9.728400634765626,9.783653259277344,0.4624129831790924,-2.317448616027832
1751448490971521800,9.742521728515625,10.228718757629395,0.39541393518447876,-2.480160713195801
1751448490985643000,9.75664306640625,11.286346435546875,-0.0975075215101242,-2.059023857116699
1751448490997410600,9.76841064453125,10.76949691772461,-0.39421752095222473,-2.3222343921661377
1751448491009178400,9.780178466796874,10.448858261108398,-0.4899304509162903,-2.2743778228759766
1751448491020946000,9.79194580078125,8.654241561889648,0.10348957777023315,-2.2025933265686035
1751448491035067100,9.806067138671875,10.319645881652832,-0.20757736265659332,-1.4273186922073364
1751448491049188400,9.820188232421875,8.682954788208008,-0.6861419081687927,-1.1736794710159302
1751448491065663200,9.836663330078125,9.917651176452637,-1.3800604343414307,-0.5754738450050354
1751448491079784400,9.850784423828125,10.946565628051758,-1.8299111127853394,-0.4175475537776947
1751448491091552000,9.862552001953125,10.003793716430664,-1.6002001762390137,-0.1256231814622879
1751448491105673200,9.876673095703126,11.34377384185791,-1.2508480548858643,0.25722843408584595
1751448491122148000,9.893148193359375,8.754739761352539,-1.2604193687438965,0.18065811693668365
1751448491133915600,9.90491552734375,10.97049331665039,-1.5140584707260132,0.6544370055198669
1751448491145683200,9.91668310546875,12.262618064880371,-1.6719847917556763,1.2239288091659546
1751448491162158000,9.933157958984374,9.754940032958984,-1.1934202909469604,1.597209095954895
1751448491178632700,9.9496328125,11.056634902954102,-0.8344969153404236,2.3437697887420654
1751448491190400500,9.961400390625,11.00877857208252,-1.552343726158142,2.640479803085327
1751448491204521700,9.975521728515625,9.716654777526855,-0.8057830333709717,2.2432711124420166
1751448491216289300,9.987289306640625,10.099506378173828,-0.6478567123413086,2.496910333633423
1751448491228057000,9.99905712890625,10.0612211227417,-0.7483552694320679,1.9561325311660767
1751448491239824600,10.01082470703125,9.975079536437988,-0.8297112584114075,1.6929219961166382
1751448491265713700,10.036713623046875,9.975079536437988,-0.8632107973098755,1.6115660667419434
1751448491277481200,10.048481201171874,9.754940032958984,0.2183450609445572,0.47258245944976807
1751448491289248800,10.060248779296876,9.893723487854004,0.22791635990142822,-0.02512463741004467
1751448491303370000,10.074369873046875,9.917651176452637,0.04127619042992592,0.08973085135221481
1751448491315137800,10.0861376953125,9.908080101013184,-0.6047859191894531,1.333998680114746
1751448491326905300,10.0979052734375,9.869794845581055,-0.6813562512397766,2.090130567550659
1751448491338673200,10.109673095703124,9.821938514709473,-0.47557350993156433,2.932404041290283
1751448491355147800,10.126147705078125,10.37228775024414,-1.3178470134735107,3.937389612197876
1751448491366915600,10.13791552734375,9.644869804382324,-1.700698733329773,3.789034605026245
1751448491378683100,10.14968310546875,10.391430854797363,-1.9304096698760986,3.425325632095337
1751448491392804400,10.163804443359375,6.4289164543151855,-2.4807589054107666,3.1716864109039307
1751448491406925600,10.177925537109376,8.970093727111816,-2.2606191635131836,2.2959132194519043
1751448491418693400,10.189693359375,10.39621639251709,-2.0069799423217773,1.6307085752487183
1751448491430461000,10.2014609375,11.305488586425781,-2.246262311935425,1.2143574953079224
1751448491442228500,10.213228515625,9.128020286560059,-2.1984057426452637,1.0564311742782593
1751448491453996300,10.224996337890625,10.515857696533203,-2.5046870708465576,0.17108681797981262
1751448491470471000,10.241470947265626,6.481558322906494,-2.696112871170044,-0.19262222945690155
1751448491484592000,10.255592041015625,10.013364791870117,-2.035693883895874,-0.8865407705307007
1751448491498713300,10.26971337890625,9.979865074157715,-1.8729819059371948,-1.8005990982055664
1751448491510481200,10.281481201171875,11.501700401306152,-1.1647064685821533,-1.9441684484481812
1751448491522248700,10.293248779296874,9.946365356445312,-0.7722834944725037,-2.2648067474365234
1751448491538723600,10.3097236328125,11.090134620666504,0.3858426511287689,-2.6428725719451904
1751448491552844800,10.3238447265625,13.545170783996582,0.8883354067802429,-3.2027931213378906
1751448491564612400,10.3356123046875,11.472986221313477,0.9218349456787109,-2.906083106994629
1751448491576380000,10.3473798828125,10.788639068603516,1.6971094608306885,-4.073780536651611
1751448491588147700,10.359147705078126,14.248661041259766,2.0512471199035645,-4.600201606750488
1751448491602269000,10.37326904296875,11.56869888305664,1.6923238039016724,-8.644071578979492
1751448491616390100,10.38739013671875,9.802796363830566,0.33798620104789734,-2.9108686447143555
1751448491628157700,10.39915771484375,9.664012908935547,0.357128769159317,-1.939382791519165
1751448491644632300,10.41563232421875,8.35274600982666,0.5054838061332703,-1.95852530002594
1751448491656400100,10.427400146484375,7.950751304626465,0.1417747437953949,-1.9776679277420044
1751448491668167700,10.439167724609375,6.945765972137451,0.11306086927652359,-2.504088878631592
1751448491679935500,10.450935546875,12.621541023254395,-0.16450655460357666,-1.3124631643295288
1751448491691703000,10.462703125,12.128620147705078,0.5006981492042542,-1.7048860788345337
1751448491705824300,10.47682421875,10.716854095458984,-0.04007977992296219,-1.5804593563079834
1751448491717592000,10.488592041015625,9.233304023742676,0.251844584941864,-2.0685951709747314
1751448491734066700,10.505066650390624,9.93679428100586,0.3044866919517517,-1.5852450132369995
1751448491748188000,10.51918798828125,14.34437370300293,0.31405797600746155,-0.9104689955711365
1751448491762309000,10.53330908203125,10.338788032531738,0.16091732680797577,-1.5086746215820312
1751448491774076700,10.54507666015625,11.013564109802246,0.15613168478012085,-1.1306086778640747
1751448491788198000,10.559197998046875,9.486943244934082,-0.4181457459926605,-1.9202401638031006
1751448491799965700,10.570965576171876,10.850852012634277,-0.37028929591178894,-1.5134602785110474
1751448491811733200,10.582733154296875,10.822138786315918,-0.45643091201782227,-1.1018948554992676
1751448491823500800,10.594500732421874,7.807182312011719,-0.39421752095222473,-0.8386843204498291
1751448491837622000,10.6086220703125,8.525029182434082,-0.5569294691085815,-0.8147560954093933
1751448491849389800,10.620389892578125,11.353344917297363,-0.48035913705825806,-0.48454657196998596
1751448491861157400,10.632157470703126,10.965707778930664,-0.13100704550743103,-0.34576287865638733
1751448491875278600,10.646278564453125,13.540385246276855,-0.20757736265659332,-0.19740787148475647
1751448491891753500,10.66275341796875,9.869794845581055,-0.9014959335327148,0.3290131092071533
1751448491905874700,10.676874755859375,9.56351375579834,-1.2891331911087036,0.778863787651062
1751448491919995600,10.69099560546875,11.396415710449219,-1.6480566263198853,1.7168502807617188
1751448491931763500,10.702763427734375,9.707083702087402,-1.6432709693908691,1.4344971179962158
1751448491945884700,10.716884765625,9.506086349487305,-0.8871390223503113,1.3770694732666016
1751448491960006000,10.731005859375,10.104291915893555,-0.8297112584114075,1.0085747241973877
1751448491971773400,10.7427734375,9.855438232421875,-1.0498509407043457,1.5637096166610718
1751448491985894700,10.756894775390625,9.946365356445312,-1.0498509407043457,2.1379871368408203
1751448491997662200,10.768662109375,9.668798446655273,-1.1312068700790405,2.0709879398345947
1751448492011783400,10.782783447265626,10.013364791870117,-1.0019944906234741,2.3054845333099365
1751448492025904600,10.796904541015625,9.860223770141602,-0.4612165689468384,2.228914260864258
1751448492040025900,10.81102587890625,9.357730865478516,-0.7579265832901001,1.9561325311660767
1751448492051793700,10.822793701171875,9.951150894165039,-0.4899304509162903,1.8604196310043335
1751448492065915000,10.836914794921874,9.946365356445312,0.06999006122350693,0.3290131092071533
1751448492082389500,10.853389404296875,9.88415241241455,-0.7483552694320679,1.6546368598937988
1751448492094157000,10.865156982421874,10.032506942749023,-1.217348575592041,2.520838737487793
1751448492108278300,10.8792783203125,10.04686450958252,-1.485344648361206,2.9419753551483154
1751448492124753200,10.895753173828124,9.659226417541504,-1.2317054271697998,2.937189817428589
1751448492138874400,10.909874267578125,10.003793716430664,-1.3369896411895752,2.4634108543395996
1751448492152995300,10.923995361328124,7.132406234741211,-1.9016958475112915,2.4059832096099854
1751448492164763100,10.93576318359375,8.25703239440918,-1.3752747774124146,2.0039889812469482
1751448492178884400,10.94988427734375,8.496315002441406,-1.5332010984420776,1.4871392250061035
1751448492190652000,10.96165185546875,11.056634902954102,-1.6289139986038208,1.4488540887832642
1751448492204773000,10.975773193359375,9.17587661743164,-1.705484390258789,0.989432156085968
1751448492216541000,10.987541015625,11.937193870544434,-1.7198412418365479,0.4534398913383484
1751448492228308500,10.99930859375,13.238889694213867,-1.7389838695526123,0.0323031060397625
1751448492242429700,11.0134296875,9.271589279174805,-1.6863417625427246,-0.5228317379951477
1751448492258904300,11.029904296875,13.521242141723633,-1.389631748199463,-1.542174220085144
1751448492270672100,11.041672119140625,8.395816802978516,-1.41834557056427,-1.0923235416412354
1751448492284793300,11.05579345703125,7.83111047744751,-0.8871390223503113,-1.3794622421264648
1751448492296561000,11.067560791015625,15.009578704833984,-0.5186443328857422,-2.551945447921753
1751448492308328700,11.07932861328125,8.376673698425293,-0.1740778535604477,-2.355733871459961
1751448492322449700,11.09344970703125,10.14736270904541,0.5150550603866577,-3.087937593460083
1751448492343631600,11.114631591796876,11.386844635009766,1.5583257675170898,-4.140779495239258
1751448492357752800,11.1287529296875,8.673383712768555,1.43389892578125,-3.7531423568725586
1751448492369520400,11.140520263671876,8.123034477233887,1.1132607460021973,-2.93001127243042
1751448492385995000,11.1569951171875,9.692726135253906,1.4865410327911377,-3.5808591842651367
1751448492397762800,11.1687626953125,9.754940032958984,0.9744769930839539,-2.2121646404266357
1751448492411884000,11.182884033203125,10.042078018188477,1.7353945970535278,-1.781456470489502
1751448492423651600,11.194651611328124,8.726025581359863,1.2664014101028442,-2.5184457302093506
1751448492435419100,11.206419189453126,9.845867156982422,0.8500502705574036,-2.575873613357544
1751448492449540400,11.220540283203125,10.472786903381348,0.4336991012096405,-1.5852450132369995
1751448492461308200,11.23230810546875,10.276575088500977,0.20877377688884735,-1.7001005411148071
1751448492477782800,11.24878271484375,8.907880783081055,0.37148571014404297,-1.8197416067123413
1751448492491904000,11.262904052734376,10.353145599365234,0.47676992416381836,-1.6761722564697266
1751448492508378600,11.279378662109375,9.54915714263916,0.1657029688358307,-1.7336000204086304
1751448492522499800,11.293499755859376,9.496515274047852,0.10827522724866867,-1.0013962984085083
1751448492538974700,11.309974609375,13.894522666931152,-0.32243284583091736,-0.259621262550354
1751448492550742300,11.3217421875,7.228118896484375,-0.4612165689468384,-0.8434699773788452
1751448492564863500,11.335863525390625,9.91286563873291,-0.12143574655056,-0.7668996453285217
1751448492581338000,11.352338134765626,10.630712509155273,-0.04486542567610741,-0.2021935135126114
1751448492593106000,11.36410595703125,9.309874534606934,-0.006580262444913387,-0.5563312768936157
1751448492609580500,11.38058056640625,9.147162437438965,-0.001794616924598813,-0.7381857633590698
1751448492623701800,11.39470166015625,8.395816802978516,0.3044866919517517,-0.4893322288990021
1751448492637823000,11.408822998046874,11.650054931640625,-0.8967102766036987,-0.3936193287372589
1751448492654297600,11.425297607421875,9.137591361999512,-0.8871390223503113,-0.24526432156562805
1751448492670772500,11.4417724609375,10.582856178283691,-0.9254241585731506,0.4103690981864929
1751448492682540000,11.4535400390625,12.870394706726074,-1.1120643615722656,0.4007977843284607
1751448492696661200,11.4676611328125,6.33798885345459,-0.4085744619369507,0.02273181453347206
1751448492708428800,11.4794287109375,10.630712509155273,-1.2029916048049927,0.836291491985321
1751448492722550000,11.493550048828125,9.204590797424316,-1.179063320159912,0.9272187948226929
1751448492736671200,11.507671142578126,9.568299293518066,-1.1838489770889282,1.444068431854248
1751448492753145900,11.524145751953125,10.501500129699707,-0.28893333673477173,0.9942178130149841
1751448492767267000,11.53826708984375,9.10409164428711,0.5676971673965454,0.4630111753940582
1751448492779035000,11.550034912109375,10.491929054260254,-0.3032902777194977,0.7166503667831421
1751448492790802400,11.561802490234374,9.893723487854004,-0.24586252868175507,0.5970092415809631
1751448492802570000,11.573570068359375,9.664012908935547,-0.42293140292167664,1.0564311742782593
1751448492816691200,11.587691162109374,9.841081619262695,-0.7722834944725037,1.3100703954696655
1751448492828459000,11.599458984375,10.104291915893555,-1.3752747774124146,1.841277003288269
1751448492840226600,11.6112265625,10.089935302734375,-1.5619150400161743,1.9465612173080444
1751448492851994400,11.622994384765626,9.927223205566406,-0.3655036687850952,1.4967105388641357
1751448492863762000,11.634761962890625,9.93679428100586,-0.01136590726673603,0.22851456701755524
1751448492875529500,11.646529541015624,9.88415241241455,-0.20757736265659332,1.171286702156067
1751448492889650700,11.660650634765625,9.874580383300781,-0.4325026869773865,2.3054845333099365
1751448492901418500,11.67241845703125,9.955936431884766,-0.01136590726673603,2.449054002761841
1751448492917893000,11.68889306640625,10.554142951965332,-0.5712863802909851,2.496910333633423
1751448492934367700,11.70536767578125,9.419944763183594,-1.1647064685821533,2.851048231124878
1751448492948489000,11.719489013671875,9.874580383300781,-1.6719847917556763,2.678765058517456
1751448492962610200,11.733610107421875,12.588041305541992,-2.0548365116119385,2.6261229515075684
1751448492979084800,11.750084716796875,9.333803176879883,-2.4089741706848145,1.9561325311660767
1751448492990852600,11.7618525390625,10.865209579467773,-1.9112670421600342,1.176072359085083
1751448493002620200,11.7736201171875,10.37228775024414,-1.8299111127853394,0.9607182741165161
1751448493016741400,11.787741455078125,11.070992469787598,-1.547558069229126,0.7501499056816101
1751448493028509000,11.799509033203124,10.439287185668945,-1.9591234922409058,0.2667997181415558
1751448493042630100,11.813630126953125,9.128020286560059,-1.8634105920791626,-0.3409772217273712
1751448493061458400,11.83245849609375,11.181061744689941,-1.6049858331680298,-1.5469598770141602
1751448493073226000,11.84422607421875,12.678969383239746,-1.179063320159912,-2.149951219558716
1751448493084993800,11.855993896484375,8.24267578125,-0.7244270443916321,-2.1882362365722656
1751448493099115000,11.870114990234375,10.52064323425293,-0.4181457459926605,-2.6572296619415283
1751448493113236000,11.884236083984375,10.185647964477539,0.1417747437953949,-2.685943365097046
1751448493125003800,11.896003662109376,9.951150894165039,0.6729813814163208,-2.513660192489624
1751448493139125000,11.910125,9.850652694702148,1.2472587823867798,-2.853440999984741
1751448493153246000,11.924245849609376,10.219147682189941,1.8550357818603516,-3.8632121086120605
1751448493165013800,11.936013671875,9.2859468460083,2.032104730606079,-4.150351047515869
1751448493179135000,11.950135009765624,9.888937950134277,2.0991036891937256,-4.537988185882568
1751448493197963300,11.96896337890625,10.085148811340332,0.8117650747299194,-1.7910277843475342
1751448493214438000,11.98543798828125,9.88415241241455,0.9553344249725342,-1.9010975360870361
1751448493226205400,11.997205322265625,9.46301555633545,0.8835497498512268,-1.8197416067123413
1751448493242680300,12.013680419921876,10.180862426757812,0.6059823632240295,-2.2648067474365234
1751448493268569000,12.039569091796874,9.888937950134277,0.7591229677200317,-2.3030917644500732
1751448493280336600,12.051336669921875,11.439486503601074,0.3332005441188812,-2.1643080711364746
1751448493292104200,12.063104248046875,8.4771728515625,0.3284149169921875,-2.3126630783081055
1751448493308579000,12.0795791015625,9.754940032958984,0.5485545992851257,-1.7048860788345337
1751448493322700300,12.0937001953125,10.908280372619629,0.9266205430030823,-1.3938192129135132
1751448493334467800,12.1054677734375,11.238490104675293,0.2566302418708801,-1.934597134590149
1751448493348589000,12.119589111328125,10.712068557739258,0.13220344483852386,-1.6809579133987427
1751448493362710300,12.133710205078126,10.066006660461426,-0.03529413416981697,-1.7240287065505981
1751448493381538300,12.152538330078125,9.352945327758789,-0.3655036687850952,-1.5326029062271118
1751448493395659500,12.166659423828126,8.285746574401855,-0.6430711150169373,-1.3555340766906738
1751448493407427300,12.17842724609375,10.348360061645508,-1.1120643615722656,-0.900897741317749
1751448493419195000,12.19019482421875,9.735796928405762,-1.3130614757537842,-0.39840495586395264
1751448493430962400,12.20196240234375,11.248061180114746,-1.949552297592163,0.0323031060397625
1751448493442730200,12.213730224609375,9.22851848602295,-2.035693883895874,-0.04905286431312561
1751448493461558500,12.23255859375,10.783853530883789,-1.6767704486846924,1.1856436729431152
1751448493475679700,12.2466796875,12.434901237487793,-2.32761812210083,1.568495273590088
1751448493489800700,12.26080078125,8.529814720153809,-1.332203984260559,1.6307085752487183
1751448493501568500,12.272568603515625,7.792825222015381,-0.9110672473907471,1.5637096166610718
1751448493513336000,12.284336181640626,12.616755485534668,-1.2269197702407837,2.458625316619873
1751448493525103600,12.296103515625,10.209575653076172,-1.1982059478759766,2.2576282024383545
1751448493536871400,12.307871337890624,9.252447128295898,-0.8871390223503113,2.166700839996338
1751448493555699500,12.326699462890625,10.152148246765137,-0.9397810697555542,2.6356940269470215
1751448493567467300,12.33846728515625,10.166504859924316,-1.2317054271697998,2.506481647491455
1751448493581588500,12.35258837890625,9.879366874694824,-0.6143572330474854,2.118844509124756
1751448493595709400,12.36670947265625,9.960722923278809,0.1657029688358307,-0.16390834748744965
1751448493607477200,12.378477294921876,9.932008743286133,0.1944168359041214,-0.05383851006627083
1751448493619244800,12.390244873046875,9.908080101013184,-0.34636107087135315,0.7405785918235779
1751448493631012600,12.4020126953125,9.802796363830566,-0.0975075215101242,1.3866406679153442
1751448493647487200,12.4184873046875,9.860223770141602,-0.494716078042984,1.8795621395111084
1751448493659254800,12.4302548828125,10.075577735900879,-0.8823533654212952,2.42512583732605
1751448493673376000,12.4443759765625,9.70229721069336,-1.3800604343414307,2.7840490341186523
1751448493685143600,12.4561435546875,10.434501647949219,-1.547558069229126,2.8319056034088135
1751448493701618400,12.472618408203125,9.927223205566406,-1.9399809837341309,2.946761131286621
1751448493718093000,12.489093017578124,10.37228775024414,-1.327418327331543,2.386840581893921
1751448493734567700,12.505567626953125,9.486943244934082,-1.4039887189865112,2.23848557472229
1751448493748689000,12.51968896484375,12.793824195861816,-1.7102699279785156,1.1856436729431152
1751448493762810000,12.53381005859375,11.922837257385254,-1.8394824266433716,0.9272187948226929
1751448493776931300,12.547931396484374,11.123634338378906,-2.035693883895874,0.8410771489143372
1751448493788699000,12.559698974609375,9.683155059814453,-2.246262311935425,0.8506484627723694
1751448493805173500,12.576173583984374,10.8699951171875,-2.0931215286254883,-0.16869398951530457
1751448493816941000,12.587941162109376,7.945965766906738,-1.9256240129470825,-0.714257538318634
1751448493828708900,12.599708984375,7.567899703979492,-1.5092729330062866,-1.1497513055801392
1751448493840476400,12.611476318359376,8.845666885375977,-0.9780662655830383,-1.8293129205703735
1751448493856951300,12.627951416015625,10.764710426330566,-0.14057832956314087,-2.3126630783081055
1751448493868718800,12.63971875,8.797810554504395,-0.06400800496339798,-1.8867406845092773
1751448493880486400,12.651486328125,12.08076286315918,0.4576273262500763,-2.585444927215576
1751448493892254200,12.663254150390625,11.2576322555542,0.5964110493659973,-2.623729944229126
1751448493908728800,12.679728759765625,8.668598175048828,0.36191442608833313,-2.7290141582489014
1751448493925203500,12.696203369140624,6.457630157470703,0.9744769930839539,-3.6095728874206543
1751448493941678000,12.712677978515625,10.582856178283691,1.256830096244812,-8.452646255493164
1751448493958153000,12.729153076171874,10.13300609588623,1.2233306169509888,-3.3128628730773926
1751448493974627600,12.745627685546875,10.13300609588623,0.6059823632240295,-1.1114661693572998
1751448493988748800,12.759748779296874,9.635298728942871,0.9984052777290344,-0.4701896607875824
1751448494007577000,12.7785771484375,9.807581901550293,0.7926225066184998,-1.2646067142486572
1751448494021698000,12.792697998046876,9.888937950134277,0.6969096064567566,-1.6761722564697266
1751448494035819300,12.8068193359375,12.631112098693848,0.6299105882644653,-1.4799607992172241
1751448494049940500,12.8209404296875,8.290532112121582,0.36670008301734924,-2.5184457302093506
1751448494061708000,12.8327080078125,10.755139350891113,0.5676971673965454,-2.5806591510772705
1751448494073475800,12.844475830078125,9.477372169494629,0.649053156375885,-3.0448668003082275
1751448494087596800,12.8585966796875,11.190633773803711,0.7782655358314514,-3.0352954864501953
1751448494101718000,12.872718017578125,9.013164520263672,0.4336991012096405,-2.8965117931365967
1751448494118192600,12.889192626953125,6.52462911605835,0.13698910176753998,-2.317448616027832
1751448494129960400,12.90096044921875,11.530414581298828,-0.0975075215101242,-1.8771693706512451
1751448494141728000,12.91272802734375,10.75992488861084,-0.26979073882102966,-1.6474584341049194
1751448494153495600,12.92449560546875,12.229118347167969,-0.2602194547653198,-1.6187444925308228
1751448494165263400,12.936263427734374,8.414958953857422,-0.6047859191894531,-1.5852450132369995
1751448494177031000,12.948031005859375,11.45384407043457,-0.9780662655830383,-1.3411771059036255
1751448494191152000,12.962152099609375,8.434102058410645,-1.4279168844223022,-0.8578268885612488
1751448494202919700,12.973919677734376,10.98006534576416,-1.8921245336532593,0.013160524889826775
1751448494217041000,12.988041015625,10.798210144042969,-2.131406784057617,0.6879364848136902
1751448494228808400,12.999808349609374,8.137392044067383,-1.7629120349884033,0.50129634141922
1751448494242929700,13.0139296875,8.812167167663574,-1.8394824266433716,1.597209095954895
1751448494271171800,13.042171875,9.56351375579834,-1.6002001762390137,2.018345832824707
1751448494290000100,13.061000244140626,10.142577171325684,-1.7389838695526123,2.0374884605407715
1751448494301767700,13.072767578125,10.587641716003418,-0.9684949517250061,2.066202402114868
1751448494313535500,13.084535400390624,9.080163955688477,-1.064207911491394,2.0279171466827393
1751448494327656700,13.09865673828125,9.750154495239258,-0.9397810697555542,2.3533411026000977
1751448494341777700,13.112777587890625,9.764511108398438,-0.5330012440681458,2.17627215385437
1751448494353545500,13.12454541015625,9.692726135253906,-0.26979073882102966,2.1954147815704346
1751448494367666400,13.13866650390625,9.975079536437988,-0.37028929591178894,2.6452653408050537
1751448494379434200,13.150434326171874,9.960722923278809,0.01734796352684498,0.4007977843284607
1751448494391201800,13.162201904296875,9.932008743286133,-0.6287141442298889,1.3196417093276978
1751448494407676400,13.178676513671874,9.960722923278809,-1.1312068700790405,2.0518453121185303
1751448494421797600,13.192797607421875,9.640084266662598,-1.41834557056427,2.812762975692749
1751448494435918800,13.2069189453125,9.893723487854004,-1.7437695264816284,3.1956145763397217
1751448494447686400,13.218686279296875,10.716854095458984,-1.4374881982803345,2.96111798286438
1751448494459454200,13.2304541015625,9.506086349487305,-1.8203397989273071,3.119044303894043
1751448494475928800,13.2469287109375,10.860424041748047,-1.7341982126235962,2.970689296722412
1751448494487696400,13.2586962890625,9.573084831237793,-1.7820546627044678,2.554338216781616
1751448494499464000,13.2704638671875,10.448858261108398,-1.705484390258789,1.7886348962783813
1751448494518292200,13.289292236328125,8.458029747009277,-1.8251254558563232,1.2861422300338745
1751448494530059800,13.301059814453126,9.30030345916748,-1.724626898765564,0.6687939167022705
1751448494544181000,13.315180908203125,7.424330234527588,-1.7581263780593872,0.3002992272377014
1751448494558302200,13.32930224609375,9.405587196350098,-1.638485312461853,-0.8195417523384094
1751448494572423400,13.34342333984375,11.2576322555542,-1.1838489770889282,-1.5086746215820312
1751448494586544400,13.35754443359375,11.090134620666504,-0.666999340057373,-1.8628123998641968
1751448494600665600,13.37166552734375,10.539785385131836,-0.6430711150169373,-1.939382791519165
1751448494614786800,13.385786865234374,7.036693096160889,-0.8105686902999878,-1.9154545068740845
1751448494626554400,13.397554443359375,9.305088996887207,-0.6478567123413086,-2.221735715866089
1751448494638322200,13.409322265625,8.974879264831543,-0.5808576941490173,-2.6668007373809814
1751448494650089700,13.42108984375,6.969694137573242,-0.29371899366378784,-2.685943365097046
1751448494664211000,13.4352109375,8.204390525817871,0.5916253924369812,-3.073580741882324
1751448494680685600,13.451685546875,9.965508460998535,1.6061822175979614,-3.9349968433380127
1751448494692453000,13.463453125,9.908080101013184,2.2570300102233887,-4.226921081542969
1751448494708927700,13.479927734375,9.965508460998535,2.1708884239196777,-7.074379920959473
1751448494720695600,13.491695556640625,9.888937950134277,0.8404789566993713,-2.3222343921661377
1751448494732463000,13.503463134765624,10.530214309692383,1.103689432144165,-1.6809579133987427
1751448494748937700,13.519937744140625,9.946365356445312,0.9314061999320984,-2.245664119720459
1751448494760705300,13.531705322265625,10.353145599365234,0.893121063709259,-2.6572296619415283
1751448494772473000,13.54347314453125,11.425129890441895,0.5389832854270935,-2.5471596717834473
1751448494784240600,13.55524072265625,7.974679470062256,0.4815555512905121,-2.6572296619415283
1751448494800715300,13.57171533203125,11.918051719665527,0.5246263742446899,-2.2887349128723145
1751448494814836500,13.58583642578125,9.22851848602295,0.13698910176753998,-2.623729944229126
1751448494831311000,13.60231103515625,9.56351375579834,0.26620152592658997,-2.4705893993377686
1751448494847785700,13.61878564453125,10.123434066772461,0.15134602785110474,-2.417947292327881
1751448494859553500,13.630553466796876,10.223933219909668,-0.001794616924598813,-2.2025933265686035
1751448494876028200,13.647028076171875,7.668398380279541,0.03170489892363548,-1.848455548286438
1751448494887795700,13.658795654296876,6.826124668121338,-0.08315058797597885,-1.5852450132369995
1751448494901917000,13.6729169921875,9.70229721069336,-0.4995017349720001,-1.1545369625091553
1751448494918391600,13.6893916015625,13.593027114868164,-1.0307083129882812,-0.364905446767807
1751448494930159000,13.7011591796875,12.463615417480469,-1.547558069229126,-0.24526432156562805
1751448494941927000,13.712927001953124,10.027721405029297,-1.0785647630691528,-0.039481572806835175
1751448494956048000,13.7270478515625,5.352146148681641,-1.1455638408660889,0.11844471842050552
1751448494967815700,13.738815673828125,10.530214309692383,-1.8729819059371948,1.420140266418457
1751448494979583200,13.750583251953126,10.692926406860352,-1.8681962490081787,1.6402798891067505
1751448494993704400,13.764704345703125,10.377073287963867,-1.5092729330062866,1.7216359376907349
1751448495007825400,13.778825439453126,10.02293586730957,-1.7389838695526123,2.1954147815704346
1751448495024300300,13.79530029296875,9.817152976989746,-1.6241283416748047,2.496910333633423
1751448495036067800,13.80706787109375,9.716654777526855,-1.3848460912704468,2.0997018814086914
1751448495050189000,13.82118896484375,10.88435173034668,-1.3992030620574951,2.4299113750457764
1751448495061956600,13.83295654296875,9.587442398071289,-1.2077772617340088,2.4011974334716797
1751448495076077800,13.847077880859375,9.510871887207031,-0.9924231767654419,2.3150558471679688
1751448495090198800,13.86119873046875,9.501300811767578,-0.5808576941490173,1.9657038450241089
1751448495101966600,13.872966552734376,9.711869239807129,-0.4995017349720001,2.066202402114868
1751448495113734100,13.884734130859375,9.831509590148926,0.18484555184841156,-0.06340979784727097
1751448495125501700,13.896501708984376,9.951150894165039,0.2231307178735733,0.486939400434494
1751448495137269200,13.908269287109375,9.932008743286133,-0.006580262444913387,1.4344971179962158
1751448495156097500,13.92709765625,9.726225852966309,-0.9541380405426025,2.640479803085327
1751448495167865000,13.938864990234375,9.582656860351562,-1.155135154724121,3.0041887760162354
1751448495181986300,13.952986328125,10.28614616394043,-0.9732806086540222,2.932404041290283
1751448495196107500,13.967107421875,11.037492752075195,-1.41834557056427,2.8558337688446045
1751448495207875000,13.978875,10.697711944580078,-1.7868403196334839,2.827120065689087
1751448495221996300,13.992996337890625,10.506285667419434,-1.6480566263198853,2.2959132194519043
1751448495240824300,14.01182421875,9.467801094055176,-1.2891331911087036,1.9609181880950928
1751448495254945500,14.025945556640625,9.93679428100586,-1.0929217338562012,1.2143574953079224
1751448495266713000,14.037713134765625,12.142976760864258,-0.5138586759567261,0.7884350419044495
1751448495278481000,14.04948095703125,10.88435173034668,-1.3178470134735107,0.1902294009923935
1751448495292601900,14.063601806640625,11.051849365234375,-1.0785647630691528,-0.07776673883199692
1751448495311430100,14.08243017578125,10.683355331420898,-1.1168500185012817,-0.3409772217273712
1751448495323197700,14.09419775390625,7.548757076263428,-0.9876375198364258,-0.4654040038585663
1751448495334965500,14.105965576171876,13.664812088012695,-0.9397810697555542,-1.231107234954834
1751448495349086500,14.12008642578125,11.92762279510498,-0.4660021960735321,-1.3363914489746094
1751448495363207700,14.134207763671874,10.831709861755371,-0.08315058797597885,-1.8580267429351807
1751448495374975200,14.145975341796875,9.750154495239258,-0.020937198773026466,-2.0303099155426025
1751448495389096400,14.160096435546874,8.501100540161133,0.9218349456787109,-2.939582586288452
1751448495400864000,14.171864013671875,11.836695671081543,0.6299105882644653,-3.7196428775787354
1751448495414985200,14.185985107421875,9.252447128295898,1.1132607460021973,-3.9397823810577393
1751448495426752800,14.197752685546876,7.156334400177002,0.8452646136283875,-3.867997884750366
1751448495438520600,14.2095205078125,10.568499565124512,0.4624129831790924,-3.992424488067627
1751448495452641500,14.2236416015625,10.156933784484863,0.4289134442806244,-3.4229328632354736
1751448495466762800,14.2377626953125,10.377073287963867,-0.5856433510780334,-2.307877540588379
1751448495478530300,14.2495302734375,9.807581901550293,-0.32721850275993347,0.09451649338006973
1751448495495005000,14.2660048828125,10.094720840454102,0.34277185797691345,-0.020338991656899452
1751448495509126100,14.280126220703124,9.903294563293457,0.893121063709259,-0.7956135272979736
1751448495520893700,14.291893798828125,9.994221687316895,1.2855439186096191,-2.1164517402648926
1751448495532661500,14.30366162109375,9.865009307861328,1.7497515678405762,-2.781656265258789
1751448495546782500,14.317782470703126,10.051650047302246,1.2616157531738281,-3.1405797004699707
1751448495558550000,14.329550048828125,9.132805824279785,0.7256234884262085,-3.2554352283477783
1751448495577378300,14.34837841796875,10.357931137084961,-0.14057832956314087,-2.6668007373809814
1751448495591499500,14.36249951171875,9.57787036895752,0.03170489892363548,-2.4945175647735596
1751448495605620700,14.376620849609376,9.879366874694824,-0.39900317788124084,-1.5469598770141602
1751448495617388300,14.38838818359375,12.032906532287598,-0.01136590726673603,-1.7336000204086304
1751448495636216300,14.40721630859375,8.376673698425293,-0.2027917206287384,-1.848455548286438
1751448495650337500,14.421337646484375,10.104291915893555,-0.2745763957500458,-0.867398202419281
1751448495666812200,14.437812255859376,10.826924324035645,-1.0259226560592651,-0.4366901218891144
1751448495678579700,14.449579833984375,10.707283020019531,-1.088136076927185,-0.05383851006627083
1751448495690347500,14.461347412109374,7.098906517028809,-0.6239284873008728,-0.2787638306617737
1751448495702115000,14.473114990234375,10.62114143371582,-0.8344969153404236,0.381655216217041
1751448495716236300,14.487236328125,9.56351375579834,-0.8249256014823914,0.4630111753940582
1751448495732711000,14.5037109375,9.711869239807129,-1.0929217338562012,1.4057832956314087
1751448495744478500,14.515478515625,9.209376335144043,-1.0450652837753296,1.6929219961166382
1751448495758599700,14.529599609375,10.391430854797363,-1.2460623979568481,2.190629243850708
1751448495770367200,14.5413671875,8.635098457336426,-1.389631748199463,2.2097716331481934
1751448495782134800,14.553134765625,10.018150329589844,-1.4518451690673828,2.8462624549865723
1751448495793902300,14.56490234375,10.405787467956543,-1.3704891204833984,3.741178274154663
1751448495808023600,14.5790234375,8.156534194946289,-1.4231312274932861,3.975674867630005
1751448495822144800,14.593144775390625,10.104291915893555,-0.16450655460357666,2.3533411026000977
1751448495833912300,14.604912353515624,7.543971538543701,-0.7770691514015198,2.1619153022766113
1751448495845679900,14.616679931640626,9.539586067199707,-0.08793623000383377,1.908276081085205
1751448495859801000,14.630801025390625,9.975079536437988,-0.4325026869773865,2.2576282024383545
1751448495873922300,14.64492236328125,10.04686450958252,-0.9828519225120544,2.6117658615112305
1751448495888043300,14.659043212890625,9.970293998718262,-1.4901303052902222,2.803191661834717
1751448495899811000,14.67081103515625,9.941579818725586,-1.6911274194717407,2.932404041290283
1751448495911578600,14.68257861328125,9.630513191223145,-1.8921245336532593,2.42512583732605
1751448495925699600,14.696699462890624,9.582656860351562,-2.2606191635131836,2.1379871368408203
1751448495937467400,14.70846728515625,9.477372169494629,-2.1649062633514404,1.568495273590088
1751448495949235000,14.72023486328125,9.510871887207031,-2.1026928424835205,1.1282159090042114
1751448495961002500,14.73200244140625,12.975679397583008,-1.882553219795227,0.778863787651062
1751448495972770000,14.74377001953125,10.262218475341797,-1.8969101905822754,0.41515472531318665
1751448495989244700,14.76024462890625,12.693325996398926,-1.5427724123001099,-0.21655045449733734
1751448496008073000,14.779072998046875,8.386244773864746,-1.0977073907852173,-0.4989035129547119
1751448496019840500,14.790840576171876,8.931808471679688,-0.7674978375434875,-1.23589289188385
1751448496033961700,14.804961669921875,10.02293586730957,-0.22193430364131927,-2.001596212387085
1751448496050436400,14.821436279296876,11.372488021850586,0.4049852192401886,-2.6428725719451904
1751448496062204000,14.833203857421875,10.922636985778809,0.6873382925987244,-2.379662036895752
1751448496078678500,14.849678466796876,11.190633773803711,0.8500502705574036,-2.7290141582489014
1751448496095153200,14.866153076171875,11.539985656738281,1.3094722032546997,-3.183650493621826
1751448496109274400,14.8802744140625,10.185647964477539,0.7926225066184998,-8.72064208984375
1751448496121042000,14.8920419921875,10.243075370788574,1.7018951177597046,-7.21316385269165
1751448496132809700,14.903809814453124,10.223933219909668,0.7304090857505798,-1.2406785488128662
1751448496144577300,14.915577392578125,9.845867156982422,0.6203392744064331,-1.3651052713394165
1751448496161052000,14.932052001953124,10.300503730773926,0.6634100675582886,-1.1306086778640747
1751448496172819500,14.9438193359375,10.142577171325684,0.6394818425178528,-0.3696911036968231
1751448496189294000,14.960294189453125,9.740582466125488,0.6729813814163208,-1.0875378847122192
1751448496201061600,14.9720615234375,10.491929054260254,0.9170492887496948,-1.389033555984497
1751448496215182800,14.986182861328125,9.821938514709473,0.8548358678817749,-1.95852530002594
1751448496226950400,14.997950439453126,8.797810554504395,0.6873382925987244,-1.8867406845092773
1751448496238718200,15.00971826171875,8.424530029296875,0.8213363885879517,-2.379662036895752
1751448496252839200,15.023839111328124,6.653841495513916,0.8261220455169678,-2.389233350753784
1751448496266960400,15.03796044921875,8.548956871032715,0.5054838061332703,-2.0207388401031494
1751448496281081600,15.05208154296875,10.65942668914795,0.2949153780937195,-1.4608181715011597
1751448496292849200,15.06384912109375,10.668997764587402,0.18005990982055664,-1.714457392692566
1751448496304616700,15.07561669921875,9.31466007232666,0.05563312768936157,-1.2167502641677856
1751448496316384300,15.08738427734375,12.755538940429688,-0.48035913705825806,-0.8051848411560059
1751448496328151800,15.09915185546875,9.8267240524292,-1.0450652837753296,-1.3411771059036255
1751448496342273000,15.11327294921875,11.157134056091309,-1.0211371183395386,-0.27397820353507996
1751448496358747600,15.12974755859375,8.213961601257324,-0.7292127013206482,-0.46061834692955017
1751448496372868900,15.143868896484374,9.41037368774414,-0.9732806086540222,-0.2021935135126114
1751448496384636400,15.155636474609375,9.908080101013184,-0.9302098155021667,0.05144568532705307
1751448496398757600,15.169757568359374,9.726225852966309,-1.6145570278167725,0.6735795736312866
1751448496417585700,15.188585693359375,9.601799011230469,-1.8586249351501465,0.9463613629341125
1751448496429353200,15.200353271484374,10.97049331665039,-1.5954145193099976,1.6307085752487183
1751448496441121000,15.21212109375,9.242876052856445,-1.2508480548858643,1.6307085752487183
1751448496455242000,15.226241943359375,7.1850481033325195,-0.6765705943107605,1.3483555316925049
1751448496467009500,15.238009521484376,8.295317649841309,-0.37507495284080505,1.089930772781372
1751448496483484400,15.254484375,9.908080101013184,0.07477571070194244,1.6450655460357666
1751448496495252000,15.266251953125,9.558728218078613,-0.04486542567610741,1.5158531665802002
1751448496511726600,15.2827265625,9.8267240524292,-0.03529413416981697,1.444068431854248
1751448496523494100,15.294494140625,10.27178955078125,-0.1740778535604477,1.4871392250061035
1751448496535261700,15.30626171875,10.070792198181152,0.03170489892363548,1.6785650253295898
1751448496549383000,15.3203828125,9.21416187286377,0.0364905446767807,1.7599210739135742
1751448496565857500,15.336857421875,9.769296646118164,-0.0975075215101242,1.8939191102981567
1751448496577625000,15.348625,10.094720840454102,0.582054078578949,0.4486542344093323
1751448496591746300,15.362746337890625,10.434501647949219,0.7830511927604675,0.44386860728263855
1751448496605867300,15.3768671875,8.893523216247559,1.4769697189331055,1.3387842178344727
1751448496619988500,15.390988525390625,9.821938514709473,1.0510473251342773,1.0133603811264038
1751448496631756000,15.402756103515625,8.74038314819336,1.0223335027694702,1.3674981594085693
1751448496643523600,15.414523681640626,7.658827304840088,0.8979067206382751,1.597209095954895
1751448496655291400,15.42629150390625,9.726225852966309,0.10348957777023315,1.0133603811264038
1751448496669412400,15.440412353515624,9.084949493408203,-1.2891331911087036,0.6592226624488831
1751448496685887000,15.456886962890625,9.640084266662598,-0.5760720372200012,1.4679967164993286
1751448496700008200,15.47100830078125,9.740582466125488,-0.7435696125030518,1.7694923877716064
1751448496716482800,15.48748291015625,11.92762279510498,-1.4662020206451416,1.8699909448623657
1751448496730604000,15.50160400390625,11.721839904785156,-1.5810575485229492,1.9178473949432373
1751448496742371600,15.51337158203125,9.003593444824219,-1.906481385231018,2.2432711124420166
1751448496758846200,15.52984619140625,10.252646446228027,-1.9974087476730347,1.970489501953125
1751448496770613800,15.54161376953125,11.583056449890137,-1.7916259765625,1.444068431854248
1751448496784735000,15.55573486328125,12.750753402709961,-1.9304096698760986,0.46779683232307434
1751448496796502500,15.56750244140625,10.506285667419434,-2.097907304763794,-0.5228317379951477
1751448496808270000,15.57927001953125,9.266803741455078,-2.193620204925537,-1.1258230209350586
1751448496824744700,15.59574462890625,9.400801658630371,-1.6719847917556763,-1.384247899055481
1751448496838866000,15.609865966796875,9.81236743927002,-1.3800604343414307,-1.1258230209350586
1751448496855340500,15.626340576171875,8.84088134765625,-1.0067801475524902,-1.1114661693572998
1751448496867108000,15.638108154296875,11.271988868713379,-0.26979073882102966,-1.7288143634796143
1751448496878875600,15.649875732421876,8.994022369384766,0.26141586899757385,-1.8436698913574219
1751448496890643200,15.661643310546875,10.13300609588623,0.768694281578064,-2.906083106994629
1751448496902410800,15.67341064453125,9.769296646118164,2.0656042098999023,-3.0975089073181152
1751448496916532000,15.687531982421875,10.276575088500977,2.0656042098999023,-3.6909289360046387
1751448496930653200,15.701653076171874,9.434301376342773,1.922034740447998,-3.647858142852783
1751448496942420700,15.713420654296876,9.874580383300781,1.965105652809143,-3.638286828994751
1751448496958895400,15.729895263671875,9.764511108398438,0.6969096064567566,-1.5326029062271118
1751448496973016300,15.744016357421875,9.975079536437988,0.7304090857505798,-1.475175142288208
1751448496984784100,15.7557841796875,9.802796363830566,0.8787640929222107,-1.8340985774993896
1751448496996551700,15.7675517578125,10.262218475341797,0.9074779748916626,-2.1882362365722656
1751448497008319200,15.7793193359375,10.712068557739258,0.8117650747299194,-1.934597134590149
1751448497024793900,15.7957939453125,10.267004013061523,0.41934216022491455,-1.8436698913574219
1751448497036561400,15.8075615234375,9.81236743927002,0.5772684812545776,-1.786242127418518
1751448497048329000,15.819328857421874,8.831310272216797,0.37148571014404297,-2.3844478130340576
1751448497064803600,15.835803466796875,10.381858825683594,0.6394818425178528,-2.4131617546081543
1751448497076571400,15.8475712890625,9.295517921447754,0.2805584669113159,-2.441875457763672
1751448497088339000,15.8593388671875,11.415558815002441,-0.08793623000383377,-1.9250258207321167
1751448497100106500,15.8711064453125,10.310074806213379,-0.4707878530025482,-1.5996019840240479
1751448497116581000,15.8875810546875,10.965707778930664,-0.877567708492279,-1.054038405418396
1751448497130702000,15.9017021484375,10.889137268066406,-1.5236297845840454,-0.16869398951530457
1751448497142470000,15.913469970703124,12.812967300415039,-1.4901303052902222,0.02751746028661728
1751448497156590800,15.9275908203125,5.160720348358154,-1.4518451690673828,-0.2787638306617737
1751448497170712000,15.941712158203124,9.970293998718262,-1.7437695264816284,0.24287149310112
1751448497184833000,15.9558330078125,14.387444496154785,-1.5906288623809814,1.3387842178344727
1751448497198954200,15.969954345703124,12.123833656311035,-2.294118642807007,0.7501499056816101
1751448497213075500,15.984075439453125,9.281160354614258,-1.5236297845840454,0.9032905697822571
1751448497224843000,15.995843017578125,10.176076889038086,-1.389631748199463,1.2478569746017456
1751448497238964000,16.0099638671875,9.453444480895996,-1.0689935684204102,1.1473584175109863
1751448497255438600,16.0264384765625,8.711668968200684,-0.355932354927063,0.8841479420661926
1751448497271913200,16.042913330078125,11.48255729675293,-0.2554338276386261,0.9032905697822571
1751448497286034400,16.057034423828124,10.616355895996094,-0.2745763957500458,1.353141188621521
1751448497300155400,16.0711552734375,10.338788032531738,0.0029910283628851175,1.482353687286377
1751448497311923200,16.082923095703126,10.051650047302246,0.07477571070194244,1.7312071323394775
1751448497328397800,16.099397705078125,10.099506378173828,-0.7962117195129395,2.1236300468444824
1751448497342518800,16.113518798828125,9.984650611877441,-1.4279168844223022,2.9515466690063477
1751448497358993400,16.129993408203124,9.989436149597168,-0.21236300468444824,1.1042876243591309
1751448497373114600,16.144114501953126,9.802796363830566,-0.9732806086540222,2.286342144012451
1751448497384882200,16.155882080078126,10.0612211227417,-1.4039887189865112,3.104687452316284
1751448497399003400,16.17000341796875,9.932008743286133,-1.8634105920791626,3.3056845664978027
1751448497413124400,16.184124267578124,11.023136138916016,-1.8681962490081787,2.520838737487793
1751448497427245600,16.19824560546875,11.865408897399902,-1.4087743759155273,1.8556339740753174
1751448497439013000,16.21001318359375,11.659626960754395,-1.4231312274932861,1.0277173519134521
1751448497455487700,16.22648779296875,10.089935302734375,-1.700698733329773,1.0660024881362915
1751448497467255300,16.23825537109375,11.11884880065918,-2.1361923217773438,1.3770694732666016
1751448497479022800,16.25002294921875,10.927422523498535,-1.949552297592163,0.8315058946609497
1751448497490790400,16.261790283203126,9.845867156982422,-2.0931215286254883,0.39122650027275085
1751448497507265000,16.27826513671875,11.472986221313477,-1.9543378353118896,-0.3936193287372589
1751448497519032600,16.290032470703125,8.123034477233887,-2.1649062633514404,-0.8099704384803772
1751448497533153800,16.30415380859375,10.305289268493652,-1.485344648361206,-1.7575281858444214
1751448497544921300,16.31592138671875,10.989636421203613,-0.9397810697555542,-1.8819550275802612
1751448497556689000,16.32768896484375,10.860424041748047,-0.8249256014823914,-1.9968105554580688
1751448497568456400,16.33945654296875,11.415558815002441,-0.40378883481025696,-2.5902304649353027
1751448497580224000,16.35122412109375,6.739983081817627,0.046061836183071136,-2.662015199661255
1751448497591991800,16.36299169921875,7.141977310180664,0.022133609279990196,-2.149951219558716
1751448497608466200,16.379466064453126,13.01396369934082,0.7543373107910156,-3.3367912769317627
1751448497622587400,16.39358740234375,11.34377384185791,1.0845468044281006,-3.2554352283477783
1751448497634355000,16.40535498046875,9.118449211120605,1.6588243246078491,-2.9012975692749023
1751448497646122500,16.41712255859375,11.85583782196045,1.8167506456375122,-2.5806591510772705
1751448497660243700,16.43124365234375,9.81236743927002,1.7593228816986084,-2.5806591510772705
1751448497679071700,16.45007177734375,10.13300609588623,1.2664014101028442,-1.7718851566314697
1751448497693193000,16.46419287109375,9.946365356445312,0.34277185797691345,-0.5706881880760193
1751448497707314000,16.47831396484375,9.92243766784668,0.046061836183071136,-0.7190431952476501
1751448497719081500,16.49008154296875,10.113862991333008,0.22791635990142822,-0.8482556343078613
1751448497730849000,16.50184912109375,9.888937950134277,-0.020937198773026466,-0.7956135272979736
1751448497744970200,16.51597021484375,9.841081619262695,0.1704886108636856,-1.293320655822754
1751448497759091500,16.530091552734376,10.137791633605957,0.5485545992851257,-2.0398812294006348
1751448497770859000,16.54185888671875,10.75992488861084,0.9409775137901306,-2.609373092651367
1751448497782626600,16.55362646484375,11.305488586425781,1.0893324613571167,-2.748156785964966
1751448497796747500,16.56774755859375,9.836296081542969,1.3956137895584106,-3.0352954864501953
1751448497810868700,16.58186865234375,10.223933219909668,0.8356932997703552,-2.6763720512390137
1751448497824990000,16.595989990234376,7.481758117675781,0.24227328598499298,-2.9204399585723877
1751448497839111000,16.61011083984375,10.668997764587402,-0.0687936544418335,-1.9010975360870361
1751448497853232000,16.624232177734374,9.0514497756958,0.0029910283628851175,-1.4895321130752563
1751448497864999700,16.635999755859373,10.190433502197266,-0.2793620526790619,-1.475175142288208
1751448497876767200,16.647767333984376,8.974879264831543,-0.20757736265659332,-1.5804593563079834
1751448497893241900,16.664241943359375,8.563314437866211,-0.7244270443916321,-1.542174220085144
1751448497905009400,16.676009521484374,12.123833656311035,-1.0498509407043457,-0.8099704384803772
1751448497919130400,16.69013037109375,8.883952140808105,-1.2747762203216553,-0.3074777126312256
1751448497935605000,16.70660498046875,12.377472877502441,-1.882553219795227,0.7262216806411743
1751448497947372800,16.718372802734375,8.587242126464844,-1.7485551834106445,0.23808585107326508
1751448497959140400,16.730140380859375,10.678568840026855,-1.700698733329773,0.5587241053581238
1751448497973261300,16.74426123046875,10.831709861755371,-1.5667005777359009,1.92741858959198
1751448497985028900,16.75602880859375,10.03729248046875,-1.9399809837341309,1.6019947528839111
1751448497999150000,16.770150146484376,7.481758117675781,-1.6049858331680298,1.195214867591858
1751448498013271000,16.78427099609375,12.420543670654297,-1.973480463027954,2.3676979541778564
1751448498027392300,16.798392333984374,9.41037368774414,-1.3513466119766235,1.046859860420227
1751448498043867000,16.814866943359377,10.850852012634277,-0.6861419081687927,1.1282159090042114
1751448498055634400,16.826634521484376,7.912466049194336,-0.6478567123413086,1.0133603811264038
1751448498067402000,16.838402099609375,8.711668968200684,-0.6478567123413086,1.2957134246826172
1751448498079169500,16.85016943359375,10.075577735900879,-0.2841476798057556,1.7312071323394775
1751448498090937000,16.86193701171875,10.032506942749023,-0.4660021960735321,2.018345832824707
1751448498102704600,16.87370458984375,9.869794845581055,-0.6382854580879211,2.7361927032470703
1751448498116825900,16.887825927734376,10.003793716430664,-0.24586252868175507,0.5156532526016235
1751448498128593400,16.899593505859375,9.994221687316895,0.18484555184841156,0.592223584651947
1751448498142714400,16.91371435546875,10.03729248046875,-0.5282155871391296,2.056631088256836
1751448498159189000,16.93018896484375,9.955936431884766,-0.7483552694320679,3.793820381164551
1751448498175663600,16.94666357421875,9.79801082611084,-1.3178470134735107,3.6119658946990967
1751448498192138200,16.96313818359375,10.616355895996094,-1.0211371183395386,3.0041887760162354
1751448498203905800,16.97490576171875,8.582456588745117,-1.4518451690673828,2.874976396560669
1751448498215673300,16.98667333984375,9.510871887207031,-2.1409780979156494,2.338984251022339
1751448498227441200,16.998441162109376,11.353344917297363,-2.437688112258911,1.7742780447006226
1751448498239208700,17.010208740234376,14.698511123657227,-3.1028928756713867,0.9080761671066284
1751448498255683300,17.026683349609375,11.951550483703613,-3.088535785675049,0.8123632669448853
1751448498269804300,17.04080419921875,12.611969947814941,-2.9306094646453857,0.2667997181415558
1751448498281571800,17.05257177734375,8.434102058410645,-3.088535785675049,0.6017948985099792
1751448498293339400,17.06433935546875,10.807781219482422,-2.973680257797241,0.017946170642971992
1751448498305107000,17.07610693359375,12.54975700378418,-2.2127628326416016,-0.7716853022575378
1751448498319228200,17.090228271484374,4.634299278259277,-2.375474691390991,-0.8913264274597168
1751448498330995700,17.10199560546875,9.491728782653809,-1.5427724123001099,-2.0398812294006348
1751448498345116700,17.11611669921875,9.731011390686035,-1.1264212131500244,-2.8247270584106445
1751448498356884500,17.127884521484376,8.060821533203125,-0.5138586759567261,-2.944368362426758
1751448498373358800,17.14435888671875,10.726426124572754,0.11306086927652359,-4.4135613441467285
1751448498385126400,17.15612646484375,9.266803741455078,0.39062830805778503,-4.384847640991211
1751448498396894200,17.167894287109377,11.047063827514648,0.7974081635475159,-4.121636867523193
1751448498413368600,17.18436865234375,8.773882865905762,1.2089736461639404,-3.882354736328125
1751448498429843200,17.20084326171875,9.759725570678711,1.5726827383041382,-3.4947173595428467
1751448498441610800,17.21261083984375,10.429716110229492,1.2089736461639404,-3.61435866355896
1751448498455732000,17.22673193359375,9.769296646118164,0.15613168478012085,-2.365305185317993
1751448498469853200,17.240853271484376,10.013364791870117,0.3332005441188812,0.11844471842050552
1751448498481620700,17.252620849609375,9.836296081542969,0.2757728099822998,-0.06340979784727097
1751448498495741700,17.26674169921875,9.908080101013184,0.24227328598499298,-0.02512463741004467
1751448498509863000,17.28086279296875,9.917651176452637,0.2183450609445572,-0.2069791555404663
1751448498523984000,17.29498388671875,9.932008743286133,0.5006981492042542,-0.8003991842269897
1751448498540458500,17.31145849609375,9.960722923278809,1.1419745683670044,-1.7575281858444214
1751448498554579500,17.325579345703126,9.92243766784668,1.1754741668701172,-2.1786649227142334
1751448498568700700,17.33970068359375,10.319645881652832,1.80717933177948,-3.4612178802490234
1751448498580468200,17.35146826171875,13.377673149108887,1.7258232831954956,-2.5328028202056885
1751448498594589200,17.365589111328124,9.372088432312012,1.1611171960830688,-3.3607194423675537
1751448498608710400,17.37971044921875,10.831709861755371,0.5724828243255615,-3.4372897148132324
1751448498620478000,17.39147802734375,9.022735595703125,0.3284149169921875,-3.1453654766082764
1751448498634599200,17.40559912109375,9.204590797424316,-0.19322042167186737,-2.7864420413970947
1751448498651073500,17.422073486328124,12.152547836303711,-1.179063320159912,-2.3126630783081055
1751448498662841000,17.433841064453127,9.041878700256348,-1.2652050256729126,-1.8245272636413574
1751448498676962300,17.44796240234375,11.36770248413086,-0.9206385016441345,-0.7381857633590698
1751448498691083300,17.462083251953125,10.922636985778809,-1.1312068700790405,0.06580262631177902
1751448498705204500,17.47620458984375,9.932008743286133,-1.6049858331680298,0.534795880317688
1751448498719325400,17.490325439453127,9.831509590148926,-2.169692039489746,1.2861422300338745
1751448498731093000,17.502093017578126,8.276175498962402,-2.428116798400879,1.8077775239944458
1751448498742860500,17.513860595703125,8.654241561889648,-1.6432709693908691,2.0518453121185303
1751448498754628000,17.525628173828125,8.749954223632812,-1.327418327331543,1.683350682258606
1751448498766396000,17.53739599609375,8.668598175048828,-0.40378883481025696,0.9367900490760803
1751448498778163500,17.54916357421875,10.032506942749023,-0.21714866161346436,0.7932206988334656
1751448498789931000,17.560930908203126,11.626127243041992,-0.48514479398727417,0.6352944374084473
1751448498801698600,17.572698486328125,10.357931137084961,-0.7483552694320679,0.33858439326286316
1751448498815819500,17.586819580078124,9.553942680358887,-0.9349954724311829,0.5252245664596558
1751448498827587000,17.598587158203124,8.888737678527832,-0.7244270443916321,0.4582255482673645
1751448498839354600,17.610354736328127,10.032506942749023,-0.3798605799674988,0.8123632669448853
1751448498851122200,17.6221220703125,9.735796928405762,0.0364905446767807,0.8219345808029175
1751448498867596800,17.6385966796875,10.185647964477539,-0.9349954724311829,1.6737794876098633
1751448498881718000,17.652718017578124,9.893723487854004,-1.2987045049667358,2.4155545234680176
1751448498893485600,17.664485595703123,9.888937950134277,-1.7581263780593872,3.080759048461914
1751448498905253000,17.676253173828126,9.994221687316895,-0.7627122402191162,1.26699960231781
1751448498917020700,17.688020751953125,10.027721405029297,-0.3032902777194977,1.6354942321777344
1751448498928788200,17.699788330078125,9.77408218383789,-0.9780662655830383,2.204986095428467
1751448498945262800,17.716262939453124,9.946365356445312,-1.4087743759155273,3.0424740314483643
1751448498957030400,17.728030517578127,9.831509590148926,-1.5092729330062866,3.1477582454681396
1751448498968798000,17.7397978515625,7.587042331695557,-1.8921245336532593,3.1956145763397217
1751448498982919200,17.753919189453125,9.754940032958984,-2.131406784057617,2.717050075531006
1751448498994686700,17.765686767578124,6.055635929107666,-2.973680257797241,3.1477582454681396
1751448499008807700,17.7798076171875,8.706883430480957,-2.734398126602173,2.2432711124420166
1751448499020575200,17.7915751953125,9.845867156982422,-2.648256540298462,1.4775680303573608
1751448499034696400,17.805696533203125,10.109077453613281,-2.633899450302124,0.9463613629341125
