time,seconds_elapsed,z,y,x
1751281722565269500,0.12726953125,-0.04783153533935547,0.006743282079696655,-0.0033377408981323242
1751281722584096300,0.14609619140625,0.017301559448242188,-0.024616777896881104,-0.0042073726654052734
1751281722602923000,0.164923095703125,0.03287982940673828,-0.01010221242904663,0.020117640495300293
1751281722631163400,0.193163330078125,0.00949859619140625,0.017460227012634277,0.0028661489486694336
1751281722649990100,0.211990234375,-0.04111766815185547,0.006571561098098755,-0.021321773529052734
1751281722668817000,0.23081689453125,0.04303932189941406,0.006569892168045044,0.015358448028564453
1751281722687643600,0.2496435546875,-0.0047855377197265625,-0.003351181745529175,-0.007482647895812988
1751281722706470400,0.268470458984375,-0.01865673065185547,-0.012878268957138062,-0.011095404624938965
1751281722725297200,0.287297119140625,0.02411174774169922,0.015205979347229004,-0.0005214214324951172
1751281722744124000,0.3061240234375,-0.04046344757080078,-0.00815737247467041,0.003921627998352051
1751281722762951000,0.324950927734375,0.02969074249267578,0.006576210260391235,0.008022308349609375
1751281722781777700,0.343777587890625,0.0014438629150390625,-0.012005478143692017,-0.006184101104736328
1751281722800604400,0.3626044921875,-0.008103370666503906,0.006921619176864624,0.003837108612060547
1751281722819431200,0.38143115234375,0.0058574676513671875,-0.006679505109786987,0.01328885555267334
1751281722838258000,0.4002578125,-0.00363922119140625,0.002734839916229248,0.012636542320251465
1751281722857084700,0.419084716796875,-0.013003349304199219,0.011737585067749023,-0.006798505783081055
1751281722875911700,0.43791162109375,0.0055141448974609375,0.015611708164215088,0.00714421272277832
1751281722894738400,0.456738525390625,0.00080108642578125,-0.0039799511432647705,-0.007071852684020996
1751281722913565200,0.475565185546875,0.010451316833496094,-0.008966445922851562,-0.0161440372467041
1751281722932392000,0.494391845703125,0.009839057922363281,0.009668231010437012,-0.0021288394927978516
1751281722951218700,0.51321875,-0.0040798187255859375,-0.004711836576461792,0.0024557113647460938
1751281722970045400,0.53204541015625,-0.008774757385253906,-0.004414886236190796,-0.006992459297180176
1751281722988872400,0.55087255859375,0.0148162841796875,0.0005351006984710693,0.01167309284210205
1751281723007699200,0.56969921875,-0.018215179443359375,0.0004963278770446777,-0.002562403678894043
1751281723026526000,0.58852587890625,0.010169029235839844,0.0003490447998046875,0.016542673110961914
1751281723045352700,0.607352783203125,0.00022411346435546875,-0.0000782310962677002,-0.007016301155090332
1751281723064179500,0.626179443359375,-0.15387916564941406,0.0449194610118866,0.04810225963592529
1751281723083006500,0.64500634765625,0.10831069946289062,0.01733154058456421,-0.036226749420166016
1751281723101833200,0.663833251953125,0.11846160888671875,-0.06424063444137573,0.025975465774536133
1751281723120660000,0.682659912109375,0.02982616424560547,-0.06708240509033203,0.05717170238494873
1751281723139486700,0.70148681640625,0.010141372680664062,-0.002443969249725342,-0.027095913887023926
1751281723158313500,0.7203134765625,-0.08826732635498047,0.05066961050033569,-0.021100521087646484
1751281723177140200,0.73914013671875,-0.05181121826171875,0.02390006184577942,-0.01652657985687256
1751281723195967200,0.75796728515625,0.05204486846923828,-0.03502210974693298,-0.0036629438400268555
1751281723214794000,0.7767939453125,0.03149223327636719,-0.01636919379234314,0.020224809646606445
1751281723233620700,0.795620849609375,0.011884689331054688,0.0097065269947052,0.0020761489868164062
1751281723252447500,0.814447509765625,-0.044960975646972656,0.027850627899169922,-0.01701056957244873
1751281723271274200,0.833274169921875,0.008035659790039062,0.0006662905216217041,-0.012588024139404297
1751281723290101200,0.852101318359375,0.026785850524902344,-0.02187424898147583,-0.0027893781661987305
1751281723308928000,0.870927978515625,0.0022344589233398438,0.015284150838851929,-0.007313132286071777
1751281723327754800,0.889754638671875,-0.0070705413818359375,0.014134705066680908,0.011954307556152344
1751281723346581500,0.90858154296875,0.007172584533691406,0.014370322227478027,0.0070247650146484375
1751281723365408300,0.927408203125,-0.0024862289428710938,0.00044596195220947266,-0.002979755401611328
1751281723384235300,0.9462353515625,0.016228675842285156,-0.004200845956802368,0.0019174814224243164
1751281723403062000,0.96506201171875,0.01604461669921875,0.014146268367767334,-0.002602100372314453
1751281723421888800,0.983888671875,-0.01725292205810547,0.0043752193450927734,-0.021767854690551758
1751281723440715500,1.002715576171875,0.030219078063964844,0.009335815906524658,0.007021903991699219
1751281723459542300,1.021542236328125,-0.18117713928222656,0.05000320076942444,0.04881703853607178
1751281723478369300,1.040369384765625,0.043628692626953125,0.023283272981643677,-0.04279518127441406
1751281723497196000,1.059196044921875,0.14049720764160156,-0.01741853356361389,-0.0020246505737304688
1751281723516022800,1.078022705078125,0.033720970153808594,-0.07193458080291748,0.05356454849243164
1751281723534849500,1.096849609375,0.16277027130126953,-0.04795393347740173,-0.041619062423706055
1751281723553676300,1.11567626953125,-0.12255287170410156,0.04511946439743042,0.011035442352294922
1751281723572503300,1.13450341796875,-0.06228065490722656,0.058126300573349,-0.05969947576522827
1751281723591330000,1.153330078125,-0.0443572998046875,0.039968013763427734,0.01913464069366455
1751281723610156800,1.17215673828125,0.017144203186035156,-0.013949692249298096,0.0019371509552001953
1751281723628983600,1.190983642578125,0.12459087371826172,-0.04199686646461487,0.023078441619873047
1751281723647810600,1.209810546875,0.06988048553466797,-0.02842634916305542,-0.034949421882629395
1751281723666637300,1.22863720703125,-0.04521369934082031,0.01589101552963257,0.021328330039978027
1751281723685464000,1.247464111328125,-0.06618690490722656,0.038423240184783936,-0.005503177642822266
1751281723704290800,1.266290771484375,0.009444236755371094,0.006271243095397949,-0.07447510957717896
1751281723723117800,1.285117919921875,0.015091896057128906,-0.0003975331783294678,0.03149545192718506
1751281723741944600,1.303944580078125,0.019412994384765625,-0.026635944843292236,0.00543212890625
1751281723760771300,1.322771240234375,-0.03726482391357422,0.012652099132537842,0.030133605003356934
1751281723779598000,1.34159814453125,-0.007855415344238281,0.005781322717666626,-0.02533113956451416
1751281723798424800,1.3604248046875,-0.045212745666503906,0.029374271631240845,0.003518223762512207
1751281723817251600,1.37925146484375,0.03619670867919922,-0.0074554383754730225,0.003868579864501953
1751281723836078600,1.39807861328125,0.020664215087890625,-0.03142288327217102,-0.00951683521270752
1751281723854905300,1.4169052734375,0.029679298400878906,-0.00021836161613464355,-0.0226287841796875
1751281723873732000,1.435732177734375,0.000762939453125,0.026638567447662354,-0.028563380241394043
1751281723892558800,1.454558837890625,0.0019216537475585938,0.023878931999206543,-0.04629552364349365
1751281723911385900,1.4733857421875,-0.025098800659179688,0.007140159606933594,0.00579988956451416
1751281723930212600,1.492212646484375,0.035553932189941406,-0.003449767827987671,-0.05120432376861572
1751281723949039400,1.511039306640625,0.08976078033447266,0.03376525640487671,-0.11153584718704224
1751281723967866000,1.5298662109375,0.16232967376708984,0.2224491536617279,-0.589789867401123
1751281723986693000,1.548693115234375,0.2866172790527344,0.41011857986450195,-0.8832812309265137
1751281724005520000,1.567519775390625,0.16798114776611328,-0.25004538893699646,-0.40741831064224243
1751281724024346600,1.5863466796875,-0.17415332794189453,-0.5817033052444458,0.2858543395996094
1751281724043173400,1.60517333984375,-0.6773843765258789,0.18939615786075592,0.7096290588378906
1751281724062000000,1.624000244140625,-0.028558731079101562,0.12778405845165253,0.4793269634246826
1751281724080827100,1.6428271484375,0.11709976196289062,-0.3497662842273712,0.6748894453048706
1751281724099654000,1.66165380859375,-0.14749908447265625,-0.10641041398048401,0.2239675521850586
1751281724118480600,1.680480712890625,0.39801025390625,-0.11161059141159058,-0.15979784727096558
1751281724137307400,1.699307373046875,-0.19469738006591797,0.10548627376556396,-0.0359797477722168
1751281724156134400,1.718134521484375,-0.13511943817138672,0.09985300898551941,-0.09171813726425171
1751281724174961200,1.736961181640625,-0.10384273529052734,0.03860160708427429,0.07312548160552979
1751281724193788000,1.755787841796875,0.0873575210571289,-0.06995540857315063,0.03973281383514404
1751281724212614700,1.77461474609375,0.09209918975830078,-0.05277344584465027,-0.029748082160949707
1751281724231441700,1.793441650390625,-0.17365360260009766,-0.07644730806350708,0.17576491832733154
1751281724250268400,1.812268310546875,0.03093433380126953,-0.09786134958267212,0.20780766010284424
1751281724269095200,1.83109521484375,0.10401058197021484,-0.23199516534805298,0.595144510269165
1751281724287922000,1.849921875,0.038349151611328125,-0.6407962441444397,0.9862277507781982
1751281724306749000,1.8687490234375,-0.08176517486572266,-0.2063814252614975,0.18063116073608398
1751281724325575700,1.88757568359375,-0.3034353256225586,0.4477141499519348,-0.7212770581245422
1751281724344402400,1.90640234375,-0.09632205963134766,0.8640246987342834,-1.7486191987991333
1751281724363229200,1.925229248046875,0.800724983215332,0.4049709737300873,-0.4838573932647705
1751281724382056200,1.94405615234375,-0.6906442642211914,-0.3848605751991272,0.750876784324646
1751281724400883000,1.962883056640625,0.37442493438720703,-0.05109569430351257,0.009640216827392578
1751281724419709700,1.981709716796875,-0.18461894989013672,0.1347445249557495,-0.08376145362854004
1751281724438536400,2.000536376953125,0.05949974060058594,0.024327784776687622,-0.04455006122589111
1751281724457363200,2.01936328125,0.025979995727539062,0.029013127088546753,0.002385377883911133
1751281724476190200,2.038190185546875,0.0261688232421875,0.13131389021873474,-0.17077618837356567
1751281724495017000,2.057016845703125,-0.1302509307861328,0.23710353672504425,-0.3179105520248413
1751281724513843700,2.07584375,0.21357440948486328,0.19694113731384277,-0.42781054973602295
1751281724532670700,2.094670654296875,0.28115367889404297,0.14300265908241272,-0.5981030464172363
1751281724551497500,2.11349755859375,0.11721515655517578,0.07885891199111938,-0.563878059387207
1751281724570324200,2.13232421875,0.06875896453857422,0.2403850257396698,-0.6366578936576843
1751281724589151000,2.15115087890625,0.19984722137451172,0.4781631827354431,-0.9388539791107178
1751281724607977700,2.169977783203125,0.12854957580566406,-0.17961880564689636,-0.5561149716377258
1751281724626804700,2.1888046875,0.03804492950439453,-0.5781631469726562,0.09799861907958984
1751281724645631500,2.207631591796875,-0.06287193298339844,-0.46814048290252686,0.237473726272583
1751281724664458200,2.226458251953125,-0.120147705078125,-0.15445595979690552,0.3098263740539551
1751281724683285000,2.245284912109375,-0.05222034454345703,-0.33382895588874817,0.5216859579086304
1751281724702112000,2.264112060546875,-0.2035655975341797,-0.3616088032722473,0.8102630376815796
1751281724720938800,2.282938720703125,-0.1634502410888672,-0.0995689332485199,0.936896800994873
1751281724739765500,2.301765625,-0.3702678680419922,-0.30300986766815186,1.0799741744995117
1751281724758592500,2.320592529296875,-0.337982177734375,-0.44122445583343506,1.017116904258728
1751281724777419300,2.339419189453125,0.46010780334472656,-0.2468152940273285,0.25624263286590576
1751281724796246000,2.35824609375,-0.15034103393554688,-0.5035250782966614,0.974748969078064
1751281724815072800,2.37707275390625,-0.11453819274902344,-0.6128164529800415,1.0499311685562134
1751281724833899500,2.3958994140625,-0.3704519271850586,-0.4827318787574768,1.3005962371826172
1751281724852726500,2.4147265625,-0.1305999755859375,-0.3612622320652008,0.9697256088256836
1751281724871553300,2.43355322265625,-0.034820556640625,-0.23499655723571777,0.5020508766174316
1751281724890380000,2.452380126953125,-0.03469562530517578,-0.2796817421913147,0.043260812759399414
1751281724909207000,2.47120703125,0.1260509490966797,-0.7080585956573486,0.06272053718566895
1751281724928033800,2.49003369140625,-0.09240150451660156,-0.876861572265625,0.5565266609191895
1751281724946860500,2.508860595703125,0.017536163330078125,-0.14182040095329285,0.47076141834259033
1751281724965687300,2.527687255859375,-0.2804880142211914,0.0882720947265625,-0.029003620147705078
1751281724984514000,2.54651416015625,0.027688980102539062,-0.1411324441432953,-0.34816521406173706
1751281725003341000,2.565341064453125,0.22692489624023438,-0.21847262978553772,-0.4768083691596985
1751281725022167800,2.584167724609375,0.37033843994140625,0.3175325393676758,-0.8265544176101685
1751281725040994600,2.60299462890625,-0.06320571899414062,0.2937309741973877,-1.0845190286636353
1751281725059821600,2.621821533203125,0.06677627563476562,0.03265884518623352,-1.3194842338562012
1751281725078648300,2.6406484375,0.20946598052978516,0.07610344886779785,-1.1229153871536255
1751281725097475000,2.65947509765625,0.10307121276855469,0.27316009998321533,-0.7627332210540771
1751281725116301800,2.6783017578125,0.052481651306152344,0.45376110076904297,-1.1594288349151611
1751281725135128800,2.69712890625,0.8933591842651367,0.1832991987466812,-1.7630406618118286
1751281725153955600,2.71595556640625,-0.16281700134277344,0.18673548102378845,-0.5776406526565552
1751281725172782300,2.7347822265625,-0.3985586166381836,0.7375568151473999,-1.0644687414169312
1751281725191609000,2.753609130859375,0.3476428985595703,0.4407810866832733,-1.2881009578704834
1751281725210436000,2.77243603515625,0.30510711669921875,0.3032097816467285,-0.5092151165008545
1751281725229262800,2.791262939453125,0.0990915298461914,-0.22892442345619202,-0.30337995290756226
1751281725248089600,2.810089599609375,0.1018381118774414,-0.13715749979019165,-0.4180567264556885
1751281725266916400,2.828916259765625,0.02036285400390625,0.4665866494178772,-0.99817955493927
1751281725285743400,2.847743408203125,0.09334278106689453,0.46123450994491577,-1.263404369354248
1751281725304570000,2.866570068359375,0.4464569091796875,-0.13904687762260437,-0.9745398163795471
1751281725323396900,2.88539697265625,0.13442230224609375,-0.6163987517356873,-0.5578232407569885
1751281725342223600,2.9042236328125,-0.15340805053710938,-1.1351125240325928,-0.09307616949081421
1751281725361050600,2.923050537109375,-0.32565784454345703,-1.0664454698562622,0.5748248100280762
1751281725379877400,2.94187744140625,-0.3192138671875,-0.6569620966911316,0.8271880149841309
1751281725398704000,2.9607041015625,0.10634994506835938,0.2236746847629547,0.007467031478881836
1751281725417531000,2.97953076171875,0.2749319076538086,0.32397741079330444,-0.6180846691131592
1751281725436358000,2.99835791015625,-0.018866539001464844,-0.730510950088501,0.0631333589553833
1751281725455184600,3.0171845703125,-0.2336750030517578,-1.20259428024292,1.3039445877075195
1751281725474011400,3.036011474609375,-0.46431732177734375,-0.8731691837310791,2.045578956604004
1751281725492838100,3.054838134765625,-0.577204704284668,-0.6885015964508057,2.415353298187256
1751281725511665200,3.0736650390625,-0.46074962615966797,-0.9124331474304199,2.423217296600342
1751281725530492000,3.092491943359375,0.4424142837524414,-0.3507465124130249,0.777666449546814
1751281725549318700,3.111318603515625,0.11498641967773438,-0.3964157998561859,0.8719595670700073
1751281725568145700,3.130145751953125,0.010087013244628906,-0.5731754302978516,0.922329306602478
1751281725586972400,3.148972412109375,-0.26517295837402344,-0.682411789894104,1.130686640739441
1751281725605799200,3.167799072265625,-0.45961570739746094,-1.38594651222229,1.5959054231643677
1751281725624626000,3.1866259765625,-0.09128189086914062,-0.9742046594619751,1.7258720397949219
1751281725643453000,3.205452880859375,-0.16297626495361328,-0.6282514333724976,0.6154575347900391
1751281725662279700,3.22427978515625,-0.028258323669433594,0.23327505588531494,-1.1003670692443848
1751281725681106400,3.2431064453125,0.4367494583129883,0.4983205199241638,-1.8055837154388428
1751281725699933200,3.26193310546875,0.8000354766845703,-0.33900073170661926,-0.9333043098449707
1751281725718760200,3.28076025390625,-0.37277793884277344,-0.3877965211868286,-0.2193136215209961
1751281725737587000,3.2995869140625,0.15556907653808594,-0.24767166376113892,-0.3243064284324646
1751281725756413700,3.31841357421875,-0.09342765808105469,-0.19618088006973267,-0.27759623527526855
1751281725775240400,3.337240478515625,-0.1542186737060547,0.0023705661296844482,-0.44938111305236816
1751281725794067500,3.3560673828125,0.41893577575683594,0.4334953725337982,-1.163606882095337
1751281725812894200,3.374894287109375,0.20139789581298828,0.6580467820167542,-1.6418876647949219
1751281725831721000,3.393720947265625,0.3178834915161133,0.8539376854896545,-1.7330154180526733
1751281725850548000,3.4125478515625,0.13990020751953125,0.752793550491333,-1.3773753643035889
1751281725869374700,3.431374755859375,0.07690048217773438,0.2274591475725174,-0.799080491065979
1751281725888201500,3.450201416015625,-0.20988750457763672,0.29150739312171936,-0.6474502086639404
1751281725907028200,3.4690283203125,0.27721500396728516,0.413055956363678,-1.324317455291748
1751281725925855200,3.487855224609375,0.12335777282714844,0.23179295659065247,-0.8524353504180908
1751281725944682000,3.506681884765625,0.2593679428100586,-0.6395180821418762,-0.3899943232536316
1751281725963508700,3.5255087890625,0.0970315933227539,-0.662010669708252,-0.033400118350982666
1751281725982335500,3.54433544921875,-0.20213794708251953,0.10291942954063416,-0.2431260347366333
1751281726001162500,3.56316259765625,-0.09002494812011719,0.9426243901252747,-1.4603455066680908
1751281726019989200,3.5819892578125,0.591526985168457,0.1503809094429016,-0.8317402601242065
1751281726038816000,3.60081591796875,0.013434410095214844,-1.2331398725509644,0.6751177310943604
1751281726057643000,3.61964306640625,-0.19486045837402344,-0.9505029916763306,1.0249096155166626
1751281726076469800,3.6384697265625,-0.6954069137573242,-0.05546450614929199,0.7947803735733032
1751281726095296500,3.657296630859375,-0.060538291931152344,-0.4621012806892395,1.0235387086868286
1751281726114123300,3.676123291015625,-0.11740779876708984,-0.6135359406471252,1.4806321859359741
1751281726132950300,3.6949501953125,-0.15149307250976562,-0.12237122654914856,0.9602588415145874
1751281726151777000,3.713777099609375,-0.2214193344116211,-0.10657516121864319,0.5548520088195801
1751281726170603800,3.732603759765625,-0.12865543365478516,-0.542328953742981,1.0592223405838013
1751281726189430800,3.7514306640625,0.409637451171875,-0.3640993535518646,0.36263585090637207
1751281726208257500,3.770257568359375,0.28543567657470703,-0.3710501790046692,0.4633740186691284
1751281726227084300,3.789084228515625,-0.3309144973754883,-0.2999703884124756,0.9942789077758789
1751281726245911000,3.8079111328125,-0.6653127670288086,-0.12670189142227173,0.9839036464691162
1751281726264738000,3.826738037109375,0.08666133880615234,-0.4962988495826721,0.8096736669540405
1751281726283564800,3.845564697265625,-0.1262340545654297,-0.7459053993225098,0.8104692697525024
1751281726302391600,3.8643916015625,0.09923171997070312,-0.9900534152984619,0.6866443157196045
1751281726321218300,3.88321826171875,-0.055024147033691406,-0.8974967002868652,0.5317788124084473
1751281726340045300,3.90204541015625,-0.34710121154785156,-0.5063130855560303,0.29834580421447754
1751281726358872000,3.9208720703125,0.2761077880859375,0.5392163991928101,-0.5282257199287415
1751281726377698800,3.93969873046875,0.18391704559326172,0.504383385181427,-0.7030901908874512
1751281726396525800,3.95852587890625,-0.09267520904541016,-0.2213607132434845,-0.29860156774520874
1751281726415352600,3.9773525390625,0.036139488220214844,-0.6012282371520996,-0.10108578205108643
1751281726434179300,3.996179443359375,-0.11471748352050781,-0.46473395824432373,-0.11206305027008057
1751281726453006000,4.015006103515625,0.19639873504638672,-0.2798604369163513,-0.2640371322631836
1751281726471833000,4.0338330078125,-0.0945749282836914,0.11084434390068054,-0.4967194199562073
1751281726490659800,4.052659912109375,0.15035057067871094,0.9204078912734985,-1.2674490213394165
1751281726509486600,4.071486572265625,0.5108852386474609,1.1637165546417236,-1.9652193784713745
1751281726528313600,4.090313720703125,0.519536018371582,0.38483935594558716,-2.204383373260498
1751281726547140400,4.109140380859375,0.39351463317871094,0.017124980688095093,-0.8465522527694702
1751281726565967000,4.127967041015625,-0.12347793579101562,0.20449790358543396,-0.506227433681488
1751281726584793900,4.1467939453125,-0.2611064910888672,0.4724884331226349,-0.687468945980072
1751281726603620900,4.165620849609375,-0.024415969848632812,0.651176929473877,-1.2160394191741943
1751281726622447600,4.184447509765625,0.4700202941894531,0.679682731628418,-1.131671667098999
1751281726641274400,4.2032744140625,0.16879749298095703,-0.03534191846847534,-0.7696540951728821
1751281726660101000,4.22210107421875,0.33818817138671875,-0.43632766604423523,-0.4531971216201782
1751281726678928100,4.24092822265625,-0.2657327651977539,-0.4277859032154083,-0.2568846344947815
1751281726697755000,4.2597548828125,-0.15019989013671875,0.0656789243221283,-0.23981165885925293
1751281726716581600,4.27858154296875,0.2917623519897461,-0.651276707649231,0.18669724464416504
1751281726735408600,4.29740869140625,-0.17597103118896484,-0.7522140145301819,0.6550859212875366
1751281726754235400,4.3162353515625,-0.1483287811279297,-0.18178650736808777,0.09621131420135498
1751281726773062100,4.335062255859375,-0.04157447814941406,0.0758928656578064,-0.07609236240386963
1751281726791889000,4.353888916015625,-0.4792623519897461,-0.2617964744567871,0.3286391496658325
1751281726810716000,4.3727158203125,0.4905815124511719,-0.5187922716140747,0.43266141414642334
1751281726829542700,4.391542724609375,-0.32375240325927734,-0.03714844584465027,0.1704782247543335
1751281726848369400,4.410369384765625,-0.0371551513671875,-0.3780541718006134,0.43413007259368896
1751281726867196400,4.429196533203125,-0.09553813934326172,-0.5384669303894043,0.8472304344177246
1751281726886023200,4.448023193359375,-0.11203861236572266,-0.5189127326011658,1.2785115242004395
1751281726904850000,4.466849853515625,-0.27170467376708984,-0.35262051224708557,1.2765486240386963
1751281726923676700,4.4856767578125,-0.23410320281982422,-0.2278880476951599,0.7711184024810791
1751281726942503700,4.504503662109375,0.22078323364257812,0.021403640508651733,-0.3128913640975952
1751281726961330400,4.523330322265625,0.13495635986328125,-0.24627095460891724,0.052219271659851074
1751281726980157200,4.5421572265625,-0.22420787811279297,-0.10478658974170685,0.43956196308135986
1751281726998984000,4.56098388671875,-0.04907417297363281,-0.3683382272720337,0.8570352792739868
1751281727017811000,4.57981103515625,0.30389404296875,-0.506080150604248,1.13126540184021
1751281727036637700,4.5986376953125,-0.7583932876586914,-0.28812605142593384,0.9213269948959351
1751281727055464400,4.61746435546875,-0.39386558532714844,-0.3831785023212433,0.7747725248336792
1751281727074291500,4.63629150390625,-0.038150787353515625,-0.7070889472961426,0.7917410135269165
1751281727093118200,4.6551181640625,0.21369361877441406,-0.5346975326538086,0.6817768812179565
1751281727111945000,4.673945068359375,0.1543407440185547,-0.3209468126296997,0.33182013034820557
1751281727130771700,4.692771728515625,-0.15275001525878906,-0.23114490509033203,0.061977386474609375
1751281727149598700,4.7115986328125,-0.16513442993164062,-0.26944243907928467,-0.2704992890357971
1751281727168425500,4.730425537109375,0.30819129943847656,-0.2856510281562805,-0.3295156955718994
1751281727187252200,4.749252197265625,-0.0301513671875,-0.02460387349128723,-0.18845254182815552
1751281727206079200,4.768079345703125,-0.04772758483886719,-0.1185133159160614,-0.26982396841049194
1751281727224906000,4.786906005859375,0.20703887939453125,0.09566652774810791,-0.6202081441879272
1751281727243732700,4.805732666015625,-0.07856273651123047,-0.007000267505645752,-0.7997445464134216
1751281727262559700,4.824559814453125,0.43951892852783203,0.22970376908779144,-1.1165679693222046
1751281727281386500,4.843386474609375,0.27413368225097656,0.5505657196044922,-1.3613054752349854
1751281727300213200,4.862213134765625,0.11074161529541016,0.3489129841327667,-1.2040473222732544
1751281727319040000,4.8810400390625,0.033782958984375,0.4818885326385498,-1.2276231050491333
1751281727337867000,4.899866943359375,0.12980937957763672,0.448052316904068,-0.7956623435020447
1751281727356693800,4.91869384765625,0.002788543701171875,0.4203775227069855,-0.7270453572273254
1751281727375520500,4.9375205078125,0.4520225524902344,0.37632066011428833,-1.1561752557754517
1751281727394347300,4.95634716796875,0.16806507110595703,0.14784857630729675,-1.1331099271774292
1751281727413174300,4.97517431640625,0.09962844848632812,0.13631483912467957,-0.9168111085891724
1751281727432001000,4.9940009765625,-0.15398311614990234,0.19624429941177368,-0.5071104764938354
1751281727450827800,5.012827880859375,0.09968852996826172,-0.003430396318435669,-0.4181194305419922
1751281727469654800,5.03165478515625,0.2088022232055664,-0.21818864345550537,-0.4329736828804016
1751281727488481500,5.0504814453125,0.17371654510498047,-0.19282111525535583,-0.45569586753845215
1751281727507308300,5.069308349609375,-0.08069038391113281,-0.4881545603275299,-0.2355051040649414
1751281727526135000,5.088135009765625,-0.08276844024658203,-0.5119439959526062,0.16839110851287842
1751281727544962000,5.106962158203125,-0.10890483856201172,-0.10810855031013489,0.23991894721984863
1751281727563788800,5.125788818359375,-0.265167236328125,-0.12349587678909302,0.048011958599090576
1751281727582615600,5.144615478515625,0.14856338500976562,-0.2872408926486969,0.32692182064056396
1751281727601442600,5.163442626953125,-0.012742042541503906,-0.7612898349761963,0.8978853225708008
1751281727620269300,5.182269287109375,-0.21436023712158203,-0.7982610464096069,1.3647220134735107
1751281727639096000,5.201095947265625,-0.2337799072265625,-0.2569451928138733,1.3377227783203125
1751281727657923000,5.219923095703125,-0.1517629623413086,-0.32970428466796875,1.3903584480285645
1751281727676749800,5.238749755859375,-0.0641622543334961,-0.3840152323246002,1.5184526443481445
1751281727695576600,5.25757666015625,0.12830638885498047,-0.1636964976787567,0.502185583114624
1751281727714403300,5.2764033203125,-0.07249641418457031,-0.5849183797836304,1.130976915359497
1751281727733230300,5.295230224609375,-0.291412353515625,-0.6178433299064636,1.501160740852356
1751281727752057000,5.31405712890625,-0.5523414611816406,-0.6226869821548462,1.158704400062561
1751281727770883800,5.3328837890625,-0.08226299285888672,-0.5135025382041931,0.8051055669784546
1751281727799124200,5.361124267578125,0.26618194580078125,-0.36403971910476685,0.6585733890533447
1751281727817951000,5.379950927734375,-0.11623477935791016,-0.3939089775085449,0.47865796089172363
1751281727836777700,5.39877783203125,-0.11972522735595703,-0.4536153972148895,0.43225693702697754
1751281727855604700,5.417604736328125,-0.25214195251464844,-0.25424909591674805,0.12575769424438477
1751281727874431500,5.436431396484375,0.33558177947998047,-0.06624728441238403,-0.3580368161201477
1751281727893258200,5.45525830078125,0.2154378890991211,-0.09275612235069275,-0.34913480281829834
1751281727912085000,5.4740849609375,-0.037781715393066406,-0.27123361825942993,-0.19971919059753418
1751281727930912000,5.492912109375,0.12902259826660156,-0.31128552556037903,-0.5261009931564331
1751281727949738800,5.51173876953125,-0.0678253173828125,-0.3259417712688446,-0.7907493710517883
1751281727968565500,5.5305654296875,0.008051872253417969,0.3296032249927521,-1.5333958864212036
1751281727987392500,5.549392578125,0.21400928497314453,0.8386470079421997,-2.374694585800171
1751281728006219300,5.56821923828125,0.4813346862792969,0.6332324147224426,-2.564924955368042
1751281728025046000,5.5870458984375,0.7226076126098633,0.5034526586532593,-1.5299252271652222
1751281728043873000,5.605873046875,0.06702423095703125,0.48787418007850647,-1.149053692817688
1751281728062699800,5.62469970703125,0.03477287292480469,0.57901930809021,-1.2921608686447144
1751281728081526500,5.643526611328125,0.01768207550048828,0.33705028891563416,-0.9112442135810852
1751281728100353300,5.662353271484375,-0.12499427795410156,0.25551483035087585,-0.5093005299568176
1751281728119180300,5.68118017578125,0.05634593963623047,0.39182963967323303,-1.0050147771835327
1751281728138007000,5.700007080078125,0.28945446014404297,0.16254973411560059,-0.8332500457763672
1751281728156833800,5.718833740234375,0.20159149169921875,-0.5527803897857666,-0.32517290115356445
1751281728175660500,5.73766064453125,-0.007258415222167969,-0.744373083114624,-0.10426586866378784
1751281728194487600,5.756487548828125,-0.004036903381347656,-0.33682674169540405,-0.1664520502090454
1751281728213314300,5.775314208984375,0.05929851531982422,-0.19314053654670715,-0.03799504041671753
1751281728232141000,5.79414111328125,-0.1927051544189453,-0.6897711753845215,0.7560549974441528
1751281728250968000,5.812968017578125,-0.02115631103515625,-0.6027560234069824,0.8423376083374023
1751281728269794800,5.831794921875,-0.26964569091796875,-0.07667526602745056,0.7174763083457947
1751281728288621600,5.85062158203125,-0.2199087142944336,-0.0174105167388916,0.573100209236145
1751281728307448600,5.869448486328125,-0.018195152282714844,-0.14125269651412964,0.525496244430542
1751281728326275300,5.888275390625,0.11034297943115234,-0.3361421525478363,0.4244709014892578
1751281728345102000,5.90710205078125,0.0041980743408203125,-0.38096320629119873,0.5811800956726074
1751281728363928800,5.9259287109375,-0.0964975357055664,-0.19513803720474243,0.5408148765563965
1751281728382755800,5.944755859375,-0.0954599380493164,-0.05282914638519287,0.44631004333496094
1751281728401582600,5.96358251953125,-0.1658315658569336,-0.4315895438194275,1.0847687721252441
1751281728420409300,5.982409423828125,0.0712127685546875,-0.49882960319519043,1.0162668228149414
1751281728439236400,6.001236328125,0.23985767364501953,-0.07792443037033081,0.2076842188835144
1751281728458063000,6.02006298828125,-0.7393589019775391,-0.1938239187002182,1.018690824508667
1751281728476889900,6.038889892578125,0.24515819549560547,-0.493196964263916,1.0690865516662598
1751281728495716600,6.057716552734375,-0.64447021484375,-0.4562545120716095,1.3857746124267578
1751281728514543600,6.076543701171875,-0.5509767532348633,-0.3228045403957367,0.8728153705596924
1751281728533370400,6.095370361328125,0.09130573272705078,-0.11293774843215942,0.7419703006744385
1751281728552197000,6.114197021484375,0.1992025375366211,-0.20363619923591614,0.3555934429168701
1751281728571024100,6.133024169921875,0.238311767578125,-0.5647776126861572,0.10919249057769775
1751281728589851000,6.151850830078125,-0.15166282653808594,-0.7292923927307129,0.008495688438415527
1751281728608677600,6.170677734375,0.07222747802734375,-0.43820130825042725,-0.46053075790405273
1751281728627504600,6.189504638671875,0.2517814636230469,0.019323766231536865,-0.7171637415885925
1751281728646331400,6.208331298828125,0.09718990325927734,0.13127705454826355,-0.642127513885498
1751281728665158100,6.227158203125,-0.05353069305419922,0.18586349487304688,-0.794959306716919
1751281728683985000,6.24598486328125,0.013869285583496094,0.21047869324684143,-1.1264945268630981
1751281728702812000,6.26481201171875,0.4182262420654297,0.6735595464706421,-1.6685048341751099
1751281728721638700,6.283638671875,0.5214414596557617,0.9461691975593567,-2.112147808074951
1751281728740465400,6.30246533203125,0.13871288299560547,0.30588722229003906,-0.8363061547279358
1751281728759292400,6.32129248046875,-0.3234434127807617,0.49163323640823364,-0.6362510919570923
1751281728778119200,6.340119140625,0.1465301513671875,0.4133932888507843,-0.8901119232177734
1751281728796946000,6.35894580078125,-0.0068912506103515625,0.03084695339202881,-0.24044406414031982
1751281728815773000,6.37777294921875,0.023654937744140625,-0.044345468282699585,-0.38270366191864014
1751281728834599700,6.396599609375,0.10593891143798828,0.3286975622177124,-0.7318332195281982
1751281728853426400,6.415426513671875,0.2718658447265625,0.4983851909637451,-0.9667628407478333
1751281728872253200,6.434253173828125,0.19041824340820312,0.2589992880821228,-0.9281229972839355
1751281728891080200,6.453080078125,0.32219600677490234,-0.014418065547943115,-0.8871318697929382
1751281728909907000,6.471906982421875,0.032340049743652344,-0.5163552761077881,-0.4266420006752014
1751281728928733700,6.490733642578125,-0.33770275115966797,-0.8307927250862122,0.2872372269630432
1751281728947560400,6.509560546875,-0.21984577178955078,-0.42622026801109314,0.20801466703414917
1751281728966387500,6.528387451171875,0.12924575805664062,0.12977774441242218,-0.24309086799621582
1751281728985214200,6.547214111328125,0.21780967712402344,0.3886272609233856,-0.4593537449836731
1751281729004041000,6.566041015625,0.19107913970947266,-0.6926249265670776,0.3120495676994324
1751281729022868000,6.584867919921875,-0.14753437042236328,-1.3541271686553955,1.3999459743499756
1751281729041694700,6.60369482421875,-0.6211318969726562,-0.8821092844009399,1.7609236240386963
1751281729060521500,6.622521484375,-0.5185394287109375,-0.48603659868240356,1.811771035194397
1751281729079348500,6.641348388671875,0.01719379425048828,-0.5372380018234253,1.8842151165008545
1751281729098175200,6.66017529296875,-0.3704719543457031,-0.5149490237236023,1.5874247550964355
1751281729117002000,6.679001953125,0.3796815872192383,-0.001780688762664795,-0.14783823490142822
1751281729135828700,6.697828857421875,-0.07497501373291016,-0.2461748868227005,0.3696136474609375
1751281729154655700,6.71665576171875,0.04880237579345703,-0.2885068655014038,0.5222243070602417
1751281729173482500,6.735482421875,-0.4333181381225586,-0.43675610423088074,0.9300463199615479
1751281729192309200,6.754309326171875,-0.30230140686035156,-0.7424037456512451,1.411399245262146
1751281729211136300,6.77313623046875,-0.04314231872558594,-0.5728907585144043,1.523348331451416
1751281729229963000,6.791962890625,-0.27973365783691406,-0.25908493995666504,1.130943775177002
1751281729248789800,6.810789794921875,0.0951080322265625,-0.5545668601989746,0.7870979309082031
1751281729267616800,6.82961669921875,-0.11925697326660156,-0.6219139099121094,0.6236374378204346
1751281729286443500,6.848443603515625,-0.10496044158935547,-0.3141665756702423,0.2705761194229126
1751281729305270300,6.867270263671875,-0.18048477172851562,-0.2064324915409088,-0.0011611580848693848
1751281729324097000,6.886096923828125,-0.07761001586914062,-0.6996594667434692,0.10911011695861816
1751281729342924000,6.904924072265625,0.1003274917602539,-1.1346769332885742,0.18495726585388184
1751281729361750800,6.923750732421875,0.2426624298095703,-0.5106251239776611,0.015086650848388672
1751281729380577500,6.94257763671875,-0.0017995834350585938,0.29015377163887024,-0.7071548104286194
1751281729399404500,6.961404541015625,0.22251415252685547,0.49510854482650757,-1.5955709218978882
1751281729418231300,6.980231201171875,0.2259378433227539,0.24967226386070251,-1.7191717624664307
1751281729437058000,6.99905810546875,0.1189413070678711,-0.030928432941436768,-1.384739637374878
1751281729455885000,7.017885009765625,0.0027332305908203125,0.6621565818786621,-1.2550575733184814
1751281729474711800,7.0367119140625,0.18418312072753906,1.1436463594436646,-1.689568042755127
1751281729493538600,7.05553857421875,0.2390155792236328,0.5605912208557129,-1.684391975402832
1751281729512365300,7.074365234375,0.42599010467529297,0.2805236577987671,-0.7522804141044617
1751281729531192300,7.0931923828125,0.40419673919677734,0.3998713493347168,-1.1438101530075073
1751281729550019000,7.11201904296875,0.14420223236083984,0.5067549347877502,-1.338514804840088
1751281729568845800,7.130845703125,0.02042388916015625,0.31981635093688965,-1.1639697551727295
1751281729587672600,7.149672607421875,-0.008461952209472656,-0.06130114197731018,-0.831687331199646
1751281729606499600,7.16849951171875,-0.00530242919921875,0.07000407576560974,-0.6884063482284546
1751281729625326300,7.187326416015625,0.050835609436035156,0.4510338306427002,-0.9052557349205017
1751281729644153000,7.206153076171875,0.2943153381347656,0.2110479474067688,-0.9014107584953308
1751281729662980000,7.22497998046875,0.18896198272705078,-0.5054738521575928,-0.324407696723938
1751281729681806800,7.243806884765625,-0.060527801513671875,-0.9180982112884521,0.11714780330657959
1751281729700633600,7.262633544921875,-0.2857475280761719,-0.9893739223480225,0.20015937089920044
1751281729719460600,7.281460693359375,-0.18486690521240234,-0.9066813588142395,0.4449622631072998
1751281729738287400,7.300287353515625,-0.041118621826171875,-0.9871461391448975,0.9456856846809387
1751281729757114000,7.319114013671875,-0.027011871337890625,-0.617509126663208,1.073739767074585
1751281729775940900,7.33794091796875,-0.20737171173095703,-0.2375742346048355,0.9666921496391296
1751281729794768000,7.356767822265625,-0.26789093017578125,-0.2621923089027405,1.0278278589248657
1751281729813594600,7.3755947265625,-0.21978187561035156,-0.46541184186935425,1.1861366033554077
1751281729832421400,7.39442138671875,-0.21525001525878906,-0.41971075534820557,1.3700588941574097
1751281729851248400,7.413248291015625,-0.2389545440673828,-0.3423846960067749,1.4753143787384033
1751281729870075100,7.4320751953125,0.019060134887695312,-0.1886259913444519,0.525217592716217
1751281729888902000,7.45090185546875,0.23241901397705078,-0.5177779197692871,0.7226319313049316
1751281729907729000,7.46972900390625,-0.2898111343383789,-0.5815771222114563,1.4319109916687012
1751281729926555600,7.4885556640625,-0.43207740783691406,-0.6343412399291992,1.4000177383422852
1751281729954795800,7.516795654296875,-0.3570709228515625,-0.6568467617034912,1.4475526809692383
1751281729973622500,7.53562255859375,-0.026114463806152344,-0.553425669670105,1.129274845123291
1751281729992449500,7.554449462890625,-0.1405935287475586,-0.8258516192436218,0.9947916269302368
1751281730011276300,7.5732763671875,-0.14058685302734375,-0.5594134330749512,0.5217542052268982
1751281730030103000,7.59210302734375,0.1747283935546875,-0.4262045919895172,-0.04360729455947876
1751281730048930000,7.610929931640625,-0.07871532440185547,-0.8108688592910767,0.13393914699554443
1751281730067756800,7.6297568359375,0.09670639038085938,-0.5112808346748352,0.004212379455566406
1751281730086583600,7.64858349609375,-0.1428546905517578,-0.09196892380714417,-0.5506852269172668
1751281730105410600,7.66741064453125,0.044653892517089844,0.11792156100273132,-1.2573704719543457
1751281730124237300,7.6862373046875,0.25081348419189453,0.09562844038009644,-1.7977924346923828
1751281730143064000,7.70506396484375,0.48824596405029297,0.4141113758087158,-2.123741865158081
1751281730161890800,7.723890869140625,0.25278282165527344,0.514082133769989,-2.340451955795288
1751281730180717800,7.7427177734375,0.591583251953125,0.7512627840042114,-2.907785177230835
1751281730199544600,7.761544677734375,0.27050209045410156,0.40364113450050354,-1.5260907411575317
1751281730218371300,7.780371337890625,0.1415576934814453,0.4047367572784424,-1.2631219625473022
1751281730237198300,7.7991982421875,-0.006545066833496094,0.5830431580543518,-1.1337454319000244
1751281730256025000,7.818025146484375,0.09020328521728516,0.680670976638794,-1.2072677612304688
1751281730274851800,7.836851806640625,0.09003639221191406,-0.053124576807022095,-0.708918035030365
1751281730293678600,7.8556787109375,-0.053404808044433594,-0.029296070337295532,-0.7057501673698425
1751281730312505600,7.874505615234375,-0.3646411895751953,0.27833184599876404,-1.3983161449432373
1751281730331332400,7.893332275390625,0.23355579376220703,0.41614601016044617,-1.6950781345367432
1751281730350159000,7.9121591796875,0.7300500869750977,-0.29242610931396484,-1.3742918968200684
1751281730368986000,7.930986083984375,0.40685367584228516,-1.5418084859848022,-0.6863464713096619
1751281730387812900,7.949812744140625,0.22141170501708984,-2.035623073577881,0.3619946837425232
1751281730406639600,7.9686396484375,-0.6863698959350586,-0.9850011467933655,1.080850601196289
1751281730425466600,7.987466552734375,-1.1160268783569336,-0.4082188308238983,1.416162371635437
1751281730444293400,8.00629345703125,0.24292564392089844,-0.6554793119430542,1.9466724395751953
1751281730463120100,8.0251201171875,-0.07382011413574219,-0.9067628979682922,1.6386957168579102
1751281730481947000,8.04394677734375,-0.21238327026367188,-0.9014609456062317,1.6266179084777832
1751281730500774000,8.06277392578125,-0.19253158569335938,-0.6154685616493225,1.5237022638320923
1751281730519600600,8.0816005859375,-0.39691734313964844,-0.37619906663894653,1.4852405786514282
1751281730538427400,8.100427490234376,-0.18190765380859375,-0.23776210844516754,0.5722604990005493
1751281730557254100,8.119254150390624,0.3229990005493164,-0.3921745717525482,0.4848957657814026
1751281730576081200,8.1380810546875,-0.8475418090820312,0.03959490358829498,1.1064411401748657
1751281730594908000,8.156907958984375,0.1573648452758789,-0.5030467510223389,1.8369711637496948
1751281730613734700,8.175734619140625,-0.11313438415527344,-0.8425685167312622,2.5462915897369385
1751281730632561700,8.194561767578126,-0.34084606170654297,-1.174847960472107,2.373955011367798
1751281730651388400,8.213388427734374,-0.40012168884277344,-1.2294745445251465,1.747141718864441
1751281730670215200,8.232215087890625,-0.2131061553955078,-1.4830222129821777,0.8975800275802612
1751281730689042200,8.251042236328125,-0.1282806396484375,-1.3141679763793945,0.5339335799217224
1751281730707869000,8.269868896484375,0.4577665328979492,-0.3291289210319519,-0.3324000835418701
1751281730726695700,8.28869580078125,0.2144603729248047,-0.4971173107624054,-0.8625168800354004
1751281730745522400,8.3075224609375,-0.34915828704833984,-0.5876062512397766,-1.5136773586273193
1751281730764349400,8.326349365234375,0.2423839569091797,0.30962586402893066,-2.6680502891540527
1751281730783176200,8.34517626953125,2.0944480895996094,0.21152585744857788,-2.790863037109375
1751281730802003000,8.3640029296875,-0.9093112945556641,0.2501744329929352,-2.4293062686920166
1751281730820830000,8.382829833984376,0.12024784088134766,1.026050329208374,-3.6700589656829834
1751281730839656700,8.40165673828125,1.4863529205322266,1.0245691537857056,-2.662719488143921
1751281730858483500,8.4204833984375,0.6996440887451172,0.5915960073471069,-2.0871057510375977
1751281730877310200,8.439310302734375,0.09598255157470703,0.012479722499847412,-1.6189695596694946
1751281730896137200,8.45813720703125,-0.5439491271972656,-0.2887224555015564,-0.9582227468490601
1751281730914964000,8.4769638671875,-0.5067062377929688,-0.1324237883090973,-0.7416930198669434
1751281730933790700,8.495790771484375,0.7674856185913086,-0.30366480350494385,-0.5303105115890503
1751281730952617700,8.51461767578125,-0.36282920837402344,0.3090541958808899,-0.8386716842651367
1751281730971444500,8.533444580078125,0.3441953659057617,-0.2596067786216736,-0.7707615494728088
1751281730990271200,8.552271240234376,0.2631502151489258,-1.3756674528121948,0.07653415203094482
1751281731009098200,8.57109814453125,-0.8042917251586914,-1.2244330644607544,0.8544034957885742
1751281731027925000,8.589925048828125,0.0703125,-0.8300833106040955,1.2143357992172241
1751281731046751700,8.608751708984375,-0.18206405639648438,-0.6578962802886963,1.2247837781906128
1751281731065578500,8.62757861328125,0.07723140716552734,-0.5952717661857605,0.8935524225234985
1751281731084405500,8.646405517578126,-0.3760509490966797,-0.3546985983848572,0.6823292970657349
1751281731103232300,8.665232177734374,-0.01743030548095703,-0.39357393980026245,0.6957359313964844
1751281731122059000,8.68405908203125,-0.08856964111328125,-0.36708784103393555,0.5251848697662354
1751281731140885800,8.7028857421875,-0.07823944091796875,-0.2969956696033478,0.6626980304718018
1751281731159712800,8.721712646484375,-0.05862617492675781,-0.32674574851989746,0.6006096601486206
1751281731178539500,8.74053955078125,-0.14400672912597656,-0.31309807300567627,0.6334234476089478
1751281731197366300,8.7593662109375,-0.052659034729003906,-0.31344035267829895,0.6579064130783081
1751281731216193300,8.778193359375,-0.1334095001220703,-0.303751140832901,0.6632394790649414
1751281731235020000,8.79702001953125,-0.07073307037353516,-0.29313525557518005,0.7174292802810669
1751281731253846800,8.8158466796875,-0.022795677185058594,0.028098121285438538,-0.04325532913208008
1751281731272673800,8.834673828125,0.043918609619140625,-0.05858597159385681,0.014450311660766602
1751281731291500500,8.85350048828125,-0.022867202758789062,0.003982916474342346,0.027912139892578125
1751281731310327300,8.872327392578125,0.020139694213867188,-0.024204879999160767,0.004532456398010254
1751281731329154000,8.891154052734375,-0.018114089965820312,-0.06210821866989136,0.01812613010406494
1751281731347981000,8.90998095703125,0.0059223175048828125,-0.047057121992111206,0.05181145668029785
1751281731366807800,8.928807861328124,0.0058574676513671875,-0.07059694826602936,0.008276700973510742
1751281731395048000,8.9570478515625,-0.017892837524414062,-0.06531533598899841,0.05120658874511719
1751281731413875000,8.975875,-0.03639507293701172,-0.19325067102909088,-0.07324308156967163
1751281731432701700,8.99470166015625,-0.08893394470214844,0.014469325542449951,0.0738375186920166
1751281731451528400,9.013528564453125,-0.1300344467163086,0.044839754700660706,0.10403633117675781
1751281731470355500,9.03235546875,0.36569881439208984,0.010728821158409119,-0.2814450263977051
1751281731489182200,9.05118212890625,-0.36134910583496094,0.0076257288455963135,0.18061351776123047
1751281731508009000,9.070009033203124,0.16353702545166016,-0.2577875554561615,0.2122664451599121
1751281731526835700,9.088835693359375,0.12106609344482422,-0.20598118007183075,0.2682216167449951
1751281731545662700,9.107662841796875,-0.1589202880859375,-0.23953785002231598,0.2068474292755127
1751281731564489500,9.126489501953126,-0.19236278533935547,-0.3044506311416626,0.3525559902191162
1751281731583316200,9.145316162109374,0.09002017974853516,-0.509000301361084,0.5776495933532715
1751281731602143200,9.164143310546875,-0.16138935089111328,-0.3446754217147827,0.4365595579147339
1751281731620970000,9.182969970703125,-0.11088848114013672,-0.11746898293495178,0.31900012493133545
1751281731639796700,9.201796630859375,0.07351207733154297,-0.05193471908569336,0.1392275094985962
1751281731658623700,9.220623779296876,-0.06486701965332031,-0.24222835898399353,0.0771944522857666
1751281731677450500,9.239450439453124,0.007856369018554688,-0.3389323353767395,0.17216289043426514
1751281731696277200,9.25827734375,-0.000949859619140625,-0.2620876729488373,0.15487921237945557
1751281731715104000,9.27710400390625,-0.017919540405273438,-0.09433898329734802,0.08109593391418457
1751281731733931000,9.295930908203125,-0.035079002380371094,-0.02435728907585144,0.01692652702331543
1751281731752757800,9.3147578125,-0.0014314651489257812,0.017504990100860596,-0.06771183013916016
1751281731771584500,9.33358447265625,0.0773000717163086,0.10482779145240784,-0.13957929611206055
1751281731790411500,9.35241162109375,0.0037145614624023438,0.11181429028511047,-0.226740300655365
1751281731809238300,9.37123828125,0.09101295471191406,0.17434701323509216,-0.3140021562576294
1751281731828065000,9.39006494140625,0.07303714752197266,0.20553997159004211,-0.39988428354263306
1751281731846891800,9.408891845703126,0.04324913024902344,0.21190261840820312,-0.4439679980278015
1751281731865718800,9.42771875,0.08911895751953125,0.1728173941373825,-0.4288311004638672
1751281731884545500,9.446545654296875,0.035126686096191406,0.20401589572429657,-0.41916996240615845
1751281731903372300,9.465372314453125,0.18405818939208984,0.331039696931839,-0.6419500708580017
1751281731922199000,9.484198974609376,-0.18096637725830078,0.3033478558063507,-0.6719619631767273
1751281731941026000,9.503026123046874,0.2216653823852539,0.26389825344085693,-0.5477606058120728
1751281731959852800,9.521852783203125,0.1808614730834961,0.18241485953330994,-0.640583336353302
1751281731978679600,9.540679443359375,-0.05046272277832031,0.04258045554161072,-0.03588271141052246
1751281731997506600,9.559506591796875,-0.14576148986816406,0.00683671236038208,0.1385698914527893
1751281732016333300,9.578333251953126,0.06884479522705078,-0.02435198426246643,0.08345985412597656
1751281732035160000,9.59716015625,0.3812990188598633,-0.2074665129184723,0.025653839111328125
1751281732053987000,9.615987060546875,-0.1991128921508789,0.07043194770812988,0.3246666193008423
1751281732072813800,9.634813720703125,-0.4114360809326172,0.057096272706985474,0.6074753999710083
1751281732091640600,9.653640625,0.7186594009399414,-0.09063760936260223,0.7623729705810547
1751281732110467300,9.67246728515625,-1.112593650817871,0.057018548250198364,-1.206594467163086
1751281732129294300,9.69129443359375,1.781813621520996,0.5839601755142212,-1.3320016860961914
1751281732148121000,9.71012109375,-0.7083721160888672,0.9603146910667419,-1.6030083894729614
1751281732166947800,9.72894775390625,0.27471351623535156,0.850382387638092,-1.1224874258041382
1751281732185774800,9.74777490234375,0.15203475952148438,0.29411837458610535,-0.4319803714752197
1751281732204601600,9.7666015625,-0.13110828399658203,-0.14052551984786987,-0.1812930703163147
1751281732223428400,9.785428466796875,0.32155418395996094,-0.5418910980224609,-0.1039508581161499
1751281732242255000,9.804255126953125,0.18541717529296875,-0.7167797088623047,-0.12558335065841675
1751281732261082000,9.82308203125,-0.24792003631591797,-0.4432713985443115,-0.2571074962615967
1751281732279908900,9.841908935546876,0.0028581619262695312,-0.4509754180908203,0.023328304290771484
1751281732298735600,9.860735595703124,0.10392379760742188,-0.6041601896286011,0.48218441009521484
1751281732317562600,9.879562744140625,-0.2713499069213867,-0.49964654445648193,0.8129188418388367
1751281732336389400,9.898389404296875,-0.41231822967529297,-0.5325556993484497,1.2231805324554443
1751281732355216100,9.917216064453125,0.17107391357421875,-0.6688706874847412,1.4105992317199707
1751281732374043100,9.936043212890626,-0.27256107330322266,-0.4577924609184265,1.779628038406372
1751281732392870000,9.954869873046874,-0.37435436248779297,-0.282119482755661,0.42365527153015137
1751281732411696600,9.973696533203125,0.25713634490966797,-0.58457350730896,0.5900744199752808
1751281732430523400,9.9925234375,-0.26381778717041016,-0.5063776969909668,0.6615651845932007
1751281732449350400,10.011350341796875,-0.11076736450195312,-0.34972983598709106,0.541948676109314
1751281732468177200,10.03017724609375,-0.03972434997558594,-0.21333397924900055,0.43063831329345703
1751281732487004000,10.04900390625,-0.03550529479980469,-0.11022616922855377,0.2252897024154663
1751281732505830700,10.06783056640625,-0.4138069152832031,-0.5273829102516174,0.2353515625
1751281732524657700,10.08665771484375,0.3695707321166992,-0.008248597383499146,-0.27868586778640747
1751281732543484400,10.105484375,-0.3294048309326172,-0.15212728083133698,-0.11938709020614624
1751281732562311200,10.124311279296874,-2.2545199394226074,0.5265153646469116,-0.20819741487503052
1751281732581138200,10.14313818359375,2.1176700592041016,0.43738484382629395,-0.639489471912384
1751281732599965000,10.16196484375,-0.6977424621582031,0.5197369456291199,-0.6406679153442383
1751281732618791700,10.180791748046875,0.5448369979858398,0.4041949510574341,-1.367527961730957
1751281732637618400,10.199618408203126,0.03096294403076172,0.24414768815040588,-0.421853244304657
1751281732656445400,10.218445556640624,-0.7534694671630859,0.1799667775630951,0.24010682106018066
1751281732675272200,10.237272216796875,-0.2727499008178711,-0.05531477928161621,0.6589663028717041
1751281732694099000,10.256098876953125,0.08376502990722656,-0.36347612738609314,0.9894304275512695
1751281732712926000,10.274926025390625,-0.01665019989013672,-0.710119366645813,1.2901592254638672
1751281732731752700,10.293752685546876,0.3492879867553711,-0.6402292251586914,1.1581556797027588
1751281732750579500,10.312579345703124,-0.3798398971557617,-0.05373510718345642,0.7734533548355103
1751281732769406500,10.331406494140625,-0.27358531951904297,-0.20687225461006165,0.3572866916656494
1751281732788233200,10.350233154296875,0.03192710876464844,-0.48058751225471497,0.3337433338165283
1751281732807060000,10.36906005859375,-0.09915637969970703,-0.517148494720459,0.5850614309310913
1751281732825886700,10.38788671875,-0.09795951843261719,-0.310548335313797,0.03845179080963135
1751281732844713700,10.406713623046874,-0.20673751831054688,0.003161698579788208,-0.38787078857421875
1751281732863540500,10.42554052734375,0.40286922454833984,0.002917647361755371,-0.9371755719184875
1751281732882367200,10.4443671875,0.07868099212646484,0.24112313985824585,-1.5018181800842285
1751281732901194000,10.463194091796876,0.07607746124267578,0.3953793942928314,-1.4144585132598877
1751281732920021000,10.48202099609375,0.30629634857177734,0.42672455310821533,-1.117479681968689
1751281732938847700,10.50084765625,0.06189250946044922,0.44586673378944397,-0.8509842753410339
1751281732957674500,10.519674560546875,-0.021454811096191406,0.40950050950050354,-1.0367580652236938
1751281732976501500,10.53850146484375,-0.27225589752197266,1.1438477039337158,-1.9314558506011963
1751281732995328300,10.557328369140626,0.29494476318359375,0.9159489870071411,-1.7523494958877563
1751281733014155000,10.576155029296874,0.5009689331054688,0.5535612106323242,-1.7343573570251465
1751281733032982000,10.59498193359375,0.40189647674560547,0.21969178318977356,-1.9458767175674438
1751281733051808800,10.613808837890625,0.5216302871704102,-0.10050737857818604,-2.140432834625244
1751281733070635500,10.632635498046875,0.26113128662109375,-0.6889967322349548,-2.034905433654785
1751281733089462300,10.651462158203126,0.3359842300415039,-1.2924970388412476,-1.2431955337524414
1751281733108289300,10.670289306640624,0.3864593505859375,-1.6176257133483887,-0.4371567368507385
1751281733127116000,10.689115966796875,0.05989265441894531,-1.623661756515503,0.22578918933868408
1751281733145942800,10.70794287109375,-0.4688844680786133,-1.4772297143936157,1.171919584274292
1751281733164769800,10.726769775390625,-0.7313957214355469,-1.4366158246994019,2.3496363162994385
1751281733183596500,10.745596435546876,-0.4177064895629883,-1.1889705657958984,3.3473217487335205
1751281733202423300,10.76442333984375,-0.48877811431884766,-1.1475512981414795,3.2358145713806152
1751281733221250000,10.78325,-0.3842592239379883,-1.7743840217590332,3.0998528003692627
1751281733240077000,10.8020771484375,0.02056884765625,-0.8607343435287476,1.434242606163025
1751281733258903800,10.82090380859375,-0.4714536666870117,-1.065244197845459,2.0695676803588867
1751281733277730600,10.83973046875,-0.4728851318359375,-1.1903645992279053,2.333134412765503
1751281733296557300,10.858557373046875,-0.2184457778930664,-1.6719533205032349,2.3241562843322754
1751281733315384300,10.87738427734375,-0.26581573486328125,-1.8791704177856445,2.039163589477539
1751281733334211000,10.896211181640625,-0.5103950500488281,-1.5055890083312988,0.926609992980957
1751281733353037800,10.915037841796876,0.36408138275146484,-1.081581473350525,-0.42711931467056274
1751281733371864800,10.93386474609375,-0.3107624053955078,-0.9840426445007324,-1.0788503885269165
1751281733390691600,10.952691650390625,0.14292049407958984,-0.8014761209487915,-1.7073938846588135
1751281733409518300,10.971518310546875,0.036667823791503906,-0.34589409828186035,-2.044182300567627
1751281733428345300,10.990345458984375,0.23178672790527344,0.3623497486114502,-2.189548969268799
1751281733447172000,11.009172119140626,0.5622873306274414,0.8084666728973389,-2.059037208557129
1751281733465998800,11.027998779296874,0.1668224334716797,0.5091492533683777,-1.6098579168319702
1751281733484825600,11.04682568359375,0.3575105667114258,0.3112129271030426,-1.312599539756775
1751281733503652600,11.065652587890625,0.04508399963378906,0.596566915512085,-1.0636252164840698
1751281733522479400,11.084479248046875,0.0977325439453125,0.4110824465751648,-0.8852278590202332
1751281733541306000,11.10330615234375,0.0477294921875,0.2780156135559082,-0.4681047201156616
1751281733560133000,11.122133056640624,0.09254837036132812,0.3775448501110077,-0.8638226389884949
1751281733578960000,11.1409599609375,-0.1785268783569336,0.4850583076477051,-0.8989552855491638
1751281733597786600,11.15978662109375,-0.04882526397705078,1.2093535661697388,-2.10961651802063
1751281733616613400,11.17861328125,0.40276241302490234,1.3535306453704834,-2.4307117462158203
1751281733635440400,11.1974404296875,0.8366098403930664,0.9321643114089966,-2.9454617500305176
1751281733654267100,11.21626708984375,0.6815948486328125,-0.11351725459098816,-2.1786513328552246
1751281733673094000,11.235093994140625,0.22092533111572266,-1.0245951414108276,-0.6380358338356018
1751281733691921000,11.2539208984375,-0.21070480346679688,-1.6356929540634155,0.41146403551101685
1751281733710747600,11.27274755859375,-0.1925220489501953,-1.523559331893921,0.4632837772369385
1751281733729574400,11.291574462890624,-0.3700103759765625,-0.8603025674819946,0.28517162799835205
1751281733748401200,11.310401123046875,-0.12250900268554688,-0.6465167999267578,-0.12507635354995728
1751281733767228200,11.329228271484375,0.16822147369384766,-0.6436231136322021,-0.2102615237236023
1751281733786055000,11.348054931640625,0.09044647216796875,-0.7823325991630554,0.25676149129867554
1751281733804881700,11.366881591796876,-0.07755088806152344,-0.935625433921814,0.49537378549575806
1751281733823708400,11.38570849609375,-0.32512760162353516,-0.9403412342071533,1.1025114059448242
1751281733842535400,11.404535400390625,-0.20061397552490234,-0.8957867622375488,2.219992160797119
1751281733861362200,11.423362060546875,-0.6343441009521484,-1.1012074947357178,2.8748812675476074
1751281733880189000,11.44218896484375,-0.5105905532836914,-1.3662660121917725,3.498542308807373
1751281733899016000,11.461015869140626,-0.12213134765625,-0.7503515481948853,2.0500376224517822
1751281733917842700,11.4798427734375,-0.1648569107055664,-0.7038074135780334,1.794756531715393
1751281733936669400,11.49866943359375,-0.21547698974609375,-0.786188006401062,1.5666826963424683
1751281733955496400,11.517496337890625,-0.38453197479248047,-1.0756899118423462,1.6507916450500488
1751281733974323200,11.5363232421875,-0.21190547943115234,-1.0517873764038086,1.1926125288009644
1751281733993150000,11.55514990234375,0.05027008056640625,-1.0380014181137085,0.7546478509902954
1751281734011976700,11.573976806640625,-0.38849353790283203,-1.2605845928192139,0.5960317850112915
1751281734030803700,11.5928037109375,-0.15230369567871094,-1.1507949829101562,0.3661158084869385
1751281734049630500,11.61163037109375,-0.20134639739990234,-1.1499634981155396,-0.02645587921142578
1751281734068457200,11.630457275390626,0.35422229766845703,-1.0608958005905151,-0.6942223906517029
1751281734087284200,11.6492841796875,0.047011375427246094,-0.6480752229690552,-1.4933958053588867
1751281734106111000,11.668111083984375,0.16095352172851562,-0.1791979968547821,-1.871119499206543
1751281734124937700,11.686937744140625,-0.19955062866210938,0.3149638772010803,-1.9257838726043701
1751281734143764500,11.705764404296875,0.39377689361572266,0.4658953547477722,-2.14684796333313
1751281734162591500,11.724591552734376,0.48275279998779297,0.45128220319747925,-2.031306743621826
1751281734181418200,11.743418212890624,0.20629596710205078,0.7045990228652954,-2.0095839500427246
1751281734200245000,11.762244873046875,0.057883262634277344,0.830237090587616,-2.1008849143981934
1751281734219071700,11.78107177734375,0.5362768173217773,0.505082368850708,-1.0006479024887085
1751281734237898800,11.799898681640625,0.06348896026611328,0.5983284711837769,-1.1969114542007446
1751281734256725500,11.8187255859375,0.39117908477783203,0.25753089785575867,-1.252120852470398
1751281734275552300,11.83755224609375,-0.030941009521484375,0.10276779532432556,-1.2133874893188477
1751281734294379300,11.856379150390625,0.32634639739990234,0.09022697806358337,-1.3728229999542236
1751281734313206000,11.8752060546875,0.4286212921142578,0.2752305567264557,-1.9053767919540405
1751281734332032800,11.89403271484375,0.08641719818115234,0.3482436239719391,-1.909334421157837
1751281734350859800,11.91285986328125,0.07042598724365234,0.10184803605079651,-1.6692719459533691
1751281734369686500,11.9316865234375,0.14585113525390625,-0.24912422895431519,-1.2217490673065186
1751281734388513300,11.95051318359375,0.16864395141601562,-0.6064958572387695,-1.0480095148086548
1751281734407340000,11.969340087890625,0.05784893035888672,-1.0802081823349,-0.9115614891052246
1751281734426167000,11.9881669921875,-0.038265228271484375,-1.4374663829803467,-0.5670643448829651
1751281734444993800,12.006993896484374,-0.18140220642089844,-1.597791314125061,-0.026136577129364014
1751281734463820500,12.025820556640625,-0.11825847625732422,-1.7519121170043945,0.5235504508018494
1751281734482647600,12.0446474609375,-0.17959213256835938,-1.795501947402954,0.9545562267303467
1751281734501474300,12.063474365234375,0.017210960388183594,-1.689517855644226,1.190155029296875
1751281734520301000,12.082301025390626,-0.21468067169189453,-1.4580590724945068,1.497930884361267
1751281734539127800,12.1011279296875,-0.32706356048583984,-1.509826898574829,2.22336483001709
1751281734557954800,12.119954833984375,-0.15259456634521484,-1.2032710313796997,2.6924004554748535
1751281734576781600,12.138781494140625,-0.5454931259155273,-1.0397007465362549,3.34670090675354
1751281734595608300,12.1576083984375,-0.5331258773803711,-1.0901962518692017,2.60819935798645
1751281734614435000,12.17643505859375,-0.6114368438720703,-1.5289194583892822,3.0373497009277344
1751281734633262000,12.195261962890624,-0.2718505859375,-1.9564400911331177,2.76326060295105
1751281734652088800,12.2140888671875,-0.5870542526245117,-2.125474214553833,2.0090456008911133
1751281734670915600,12.23291552734375,-0.035696983337402344,-2.2081778049468994,1.3027317523956299
1751281734689742600,12.25174267578125,-0.33182716369628906,-2.1122360229492188,0.6860690116882324
1751281734708569300,12.2705693359375,-0.1499319076538086,-1.6027247905731201,-0.25402218103408813
1751281734727396000,12.28939599609375,0.09554481506347656,-1.2289135456085205,-1.2327823638916016
1751281734746222800,12.308222900390625,0.1979227066040039,-0.9575529098510742,-1.7101483345031738
1751281734765049900,12.3270498046875,0.21717071533203125,-0.5961014032363892,-1.9067258834838867
1751281734783876600,12.345876708984376,0.14100933074951172,-0.09099200367927551,-1.8605154752731323
1751281734802703400,12.364703369140624,0.07350635528564453,0.41288042068481445,-1.891542673110962
1751281734821530400,12.3835302734375,0.3372211456298828,0.5068372488021851,-1.8229084014892578
1751281734840357000,12.402357177734375,0.2562265396118164,0.6540848016738892,-1.9663686752319336
1751281734859183900,12.421183837890625,0.2568187713623047,0.8214309811592102,-2.2487127780914307
1751281734878010600,12.4400107421875,0.28183937072753906,0.8668971061706543,-2.522184371948242
1751281734896837600,12.458837646484374,0.4589271545410156,0.6305991411209106,-2.3268330097198486
1751281734915664400,12.477664306640625,-0.04323291778564453,0.16329820454120636,-0.4707467555999756
1751281734934491100,12.4964912109375,0.0765533447265625,0.23348790407180786,-0.5373982191085815
1751281734953318000,12.51531787109375,0.1300945281982422,0.2971441447734833,-0.6829113960266113
1751281734972145000,12.534144775390626,0.0876913070678711,0.5033222436904907,-1.0290054082870483
1751281734990971600,12.5529716796875,0.43614959716796875,0.5074061155319214,-1.7989531755447388
1751281735009798700,12.571798583984375,0.34877586364746094,0.4711964428424835,-2.6299657821655273
1751281735028625400,12.59062548828125,0.2955350875854492,0.4993377923965454,-2.83500599861145
1751281735047452200,12.6094521484375,0.1466827392578125,0.0995074212551117,-2.4903757572174072
1751281735066279000,12.62827880859375,0.18382549285888672,-0.5990005731582642,-2.082122325897217
1751281735085106000,12.64710595703125,0.21103858947753906,-1.18866765499115,-1.5737128257751465
1751281735103932700,12.6659326171875,0.12380123138427734,-1.7761045694351196,-0.5965338349342346
1751281735122759400,12.684759521484375,-0.11087226867675781,-2.2653255462646484,0.29418790340423584
1751281735141586200,12.703586181640626,-0.21058177947998047,-2.1468117237091064,1.1119272708892822
1751281735160413200,12.7224130859375,-0.2614145278930664,-2.005793333053589,2.0836338996887207
1751281735179240000,12.741239990234375,-0.32637882232666016,-2.0078353881835938,2.510032892227173
1751281735198066700,12.760066650390625,-0.48632240295410156,-1.5488519668579102,2.6827666759490967
1751281735216893700,12.778893798828125,-0.5222511291503906,-1.0558687448501587,2.7640023231506348
1751281735235720400,12.797720458984376,-0.40479469299316406,-0.8306673765182495,2.5645995140075684
1751281735254547200,12.816547119140624,-0.1154184341430664,-0.3992172181606293,0.9066264629364014
1751281735273374000,12.8353740234375,0.08259391784667969,-0.44047605991363525,0.6140878200531006
1751281735292201000,12.854200927734375,0.057105064392089844,-0.9040316939353943,1.298762559890747
1751281735311027700,12.87302783203125,-0.35532379150390625,-1.2675225734710693,1.902381181716919
1751281735329854500,12.8918544921875,-0.6108846664428711,-1.3840874433517456,1.9007755517959595
1751281735348681200,12.91068115234375,-0.41379356384277344,-1.293354868888855,1.621527075767517
1751281735367508200,12.92950830078125,-0.3033618927001953,-1.242273211479187,1.5012468099594116
1751281735386335000,12.9483349609375,-0.18951797485351562,-1.2869226932525635,1.1006710529327393
1751281735405161700,12.96716162109375,-0.0017108917236328125,-1.2341619729995728,0.31173229217529297
1751281735423988700,12.98598876953125,-0.1072702407836914,-0.9474625587463379,-0.44482535123825073
1751281735442815500,13.0048154296875,0.14057159423828125,-0.7574794292449951,-0.9331667423248291
1751281735461642200,13.023642333984375,0.04592132568359375,-0.5566754937171936,-1.2265796661376953
1751281735480469000,13.042468994140625,0.3137779235839844,-0.38735830783843994,-1.3423423767089844
1751281735499296000,13.0612958984375,0.12676429748535156,-0.37858548760414124,-1.3291664123535156
1751281735518122800,13.080122802734374,0.013071060180664062,0.02491128444671631,-1.5102381706237793
1751281735536949500,13.098949462890625,0.2874765396118164,0.36420753598213196,-1.7000293731689453
1751281735555776500,13.117776611328125,0.07709598541259766,0.5929975509643555,-1.8624249696731567
1751281735574603300,13.136603271484375,0.1038961410522461,0.4992075562477112,-1.6916139125823975
1751281735593430000,13.155429931640626,0.26074886322021484,0.3561263978481293,-1.7205750942230225
1751281735612256800,13.1742568359375,0.2726593017578125,0.6566154360771179,-1.9229352474212646
1751281735631083800,13.193083740234375,0.09672355651855469,0.48654904961586,-1.2009248733520508
1751281735649910500,13.21191064453125,0.32462024688720703,0.36473003029823303,-1.5618733167648315
1751281735668737300,13.2307373046875,0.15372276306152344,0.798075795173645,-2.1370840072631836
1751281735687564000,13.24956396484375,0.29881954193115234,0.7521625757217407,-2.3224892616271973
1751281735706391000,13.26839111328125,0.471038818359375,0.503933846950531,-2.128383159637451
1751281735725217800,13.2872177734375,0.2552175521850586,-0.09087052941322327,-1.833519458770752
1751281735744044500,13.30604443359375,0.11660385131835938,-0.39398378133773804,-1.4378713369369507
1751281735762871600,13.32487158203125,-0.07413101196289062,-0.6867249608039856,-0.9444480538368225
1751281735781698300,13.3436982421875,0.11298942565917969,-0.952922523021698,-0.6076377034187317
1751281735800525000,13.362525146484375,0.003055572509765625,-1.2805613279342651,-0.10919696092605591
1751281735819351800,13.381351806640625,-0.0970449447631836,-1.2937861680984497,0.170418381690979
1751281735838178800,13.4001787109375,-0.13489437103271484,-1.2040003538131714,0.36964935064315796
1751281735857005600,13.419005615234376,0.1953582763671875,-1.261154055595398,0.531851589679718
1751281735875832300,13.437832275390624,-0.33333492279052734,-1.206955909729004,1.0675748586654663
1751281735894659300,13.456659423828125,-0.15776348114013672,-1.2515149116516113,1.9102646112442017
1751281735913486000,13.475486083984375,-0.3010749816894531,-1.5371673107147217,2.8727550506591797
1751281735932312800,13.494312744140625,-0.36283206939697266,-1.9338440895080566,3.615689277648926
1751281735951139600,13.5131396484375,-0.5738201141357422,-1.4393891096115112,2.6395211219787598
1751281735969966600,13.531966552734374,-0.38113880157470703,-1.2991728782653809,2.3792572021484375
1751281735988793300,13.55079345703125,-0.5231800079345703,-1.3597558736801147,2.1801958084106445
1751281736007620000,13.5696201171875,-0.34278011322021484,-1.4663257598876953,1.835443139076233
1751281736026446800,13.58844677734375,-0.10763835906982422,-1.631954550743103,1.6138708591461182
1751281736045273900,13.60727392578125,-0.34590625762939453,-1.7394542694091797,1.2640563249588013
1751281736064100600,13.6261005859375,-0.11462688446044922,-2.0899417400360107,0.5243878364562988
1751281736082927400,13.64492724609375,-0.0583648681640625,-1.978667974472046,-0.34542393684387207
1751281736101754400,13.66375439453125,0.15372276306152344,-1.486594796180725,-1.2010951042175293
1751281736120581000,13.6825810546875,0.16873836517333984,-0.7936288118362427,-1.696699619293213
1751281736139408000,13.701407958984374,-0.07011890411376953,0.15298742055892944,-1.6669833660125732
1751281736158234600,13.720234619140625,0.3619365692138672,0.4485161006450653,-1.680726408958435
1751281736177061600,13.7390615234375,0.16715526580810547,0.3778204321861267,-1.7289395332336426
1751281736195888400,13.757888427734375,0.07110786437988281,0.4356222450733185,-1.9956929683685303
1751281736214715100,13.776715087890626,0.15477371215820312,0.46547162532806396,-2.2509586811065674
1751281736233542100,13.795542236328124,0.12154293060302734,0.6032840013504028,-2.385941505432129
1751281736252369000,13.814368896484375,0.21374034881591797,0.7009825110435486,-2.5842108726501465
1751281736271195600,13.833195556640625,0.5591917037963867,0.9627039432525635,-2.3409996032714844
1751281736290022700,13.852022705078125,0.07363319396972656,0.22853277623653412,-0.8348778486251831
1751281736308849400,13.870849365234376,0.45714759826660156,0.378113329410553,-1.442846417427063
1751281736327676200,13.88967626953125,-0.009732246398925781,0.6406213641166687,-1.7797268629074097
1751281736346503000,13.9085029296875,0.358978271484375,0.4193989038467407,-2.133314609527588
1751281736365329700,13.92732958984375,0.2777261734008789,0.24779538810253143,-1.9803879261016846
1751281736384156700,13.94615673828125,0.02288341522216797,-0.357791543006897,-1.6797261238098145
1751281736402983400,13.9649833984375,0.24621105194091797,-0.5752872228622437,-1.5564110279083252
1751281736421810200,13.98381005859375,-0.0057964324951171875,-0.4176604747772217,-0.9599320888519287
1751281736440637200,14.00263720703125,0.09074115753173828,-0.9965006113052368,-0.6655047535896301
1751281736459464000,14.0214638671875,0.10277271270751953,-1.7629210948944092,-0.504797101020813
1751281736478290700,14.040290771484376,0.014580726623535156,-1.5105037689208984,-0.32788795232772827
1751281736497117700,14.05911767578125,-0.3428764343261719,-1.1442102193832397,-0.16622799634933472
1751281736515944400,14.0779443359375,-0.07190322875976562,-1.1277693510055542,0.4549884796142578
1751281736534771200,14.096771240234375,-0.09197616577148438,-1.0971482992172241,1.480786919593811
1751281736553598000,14.115597900390625,-0.24199867248535156,-1.1313433647155762,2.071728229522705
1751281736572425000,14.134425048828126,-0.18718719482421875,-1.463318109512329,2.4482333660125732
1751281736591251700,14.153251708984374,-0.31898021697998047,-1.5827487707138062,2.815288543701172
1751281736610078500,14.172078369140625,-0.716827392578125,-1.340085744857788,3.521406650543213
1751281736628905500,14.190905517578125,-0.3974952697753906,-1.0527290105819702,1.7654956579208374
1751281736647732200,14.209732177734375,-0.25626277923583984,-1.2769907712936401,2.2281107902526855
1751281736666559000,14.22855908203125,-0.30033111572265625,-1.3816310167312622,2.0158586502075195
1751281736685385700,14.2473857421875,-0.5016403198242188,-1.2734355926513672,2.005739212036133
1751281736704212700,14.266212646484375,-0.2984933853149414,-1.6616202592849731,1.699152946472168
1751281736723039500,14.28503955078125,-0.1365489959716797,-1.6575820446014404,1.07872474193573
1751281736741866200,14.3038662109375,-0.06978034973144531,-1.740688681602478,0.36299943923950195
1751281736760693000,14.32269287109375,-0.2450551986694336,-1.2181421518325806,-0.2533420920372009
1751281736779520000,14.34152001953125,0.07364273071289062,-0.7008109092712402,-0.8997489809989929
1751281736798346800,14.3603466796875,0.134490966796875,-0.7182389497756958,-1.4525032043457031
1751281736817173500,14.379173583984375,0.3306388854980469,-0.8254443407058716,-1.862342119216919
1751281736836000500,14.39800048828125,0.10459327697753906,-0.29799675941467285,-1.9646177291870117
1751281736854827300,14.4168271484375,0.3194465637207031,0.14816634356975555,-1.7442553043365479
1751281736873654000,14.435654052734375,0.05421638488769531,0.41381436586380005,-1.9226069450378418
1751281736892480800,14.454480712890625,0.017927169799804688,0.6955184936523438,-2.1869935989379883
1751281736911307500,14.4733076171875,0.25241756439208984,0.8201665878295898,-2.264153480529785
1751281736930134500,14.492134521484376,-0.0477294921875,1.1170934438705444,-2.1320765018463135
1751281736948961300,14.510961181640624,0.6065521240234375,0.939794659614563,-1.8147964477539062
1751281736967788000,14.5297880859375,-0.005908012390136719,0.36909055709838867,-1.3508760929107666
1751281736986615000,14.548614990234375,0.15248775482177734,0.522635817527771,-1.6290242671966553
1751281737005441800,14.56744189453125,0.36331653594970703,0.28149449825286865,-1.7589619159698486
1751281737024268500,14.5862685546875,0.3392190933227539,0.2045040875673294,-1.9203577041625977
1751281737043095300,14.60509521484375,0.08332252502441406,0.21922507882118225,-1.5596729516983032
1751281737061922300,14.62392236328125,0.15248870849609375,-0.06183207035064697,-1.2024915218353271
1751281737080749000,14.6427490234375,0.3350362777709961,-0.4592832028865814,-1.1496975421905518
1751281737099575800,14.661575927734376,0.34467411041259766,-0.7861849069595337,-0.9890475273132324
1751281737118402800,14.68040283203125,-0.07627010345458984,-1.1463704109191895,-0.5522809624671936
1751281737137229600,14.6992294921875,-0.5060834884643555,-1.306104302406311,-0.07189124822616577
1751281737156056300,14.718056396484375,-0.2937593460083008,-0.8860495090484619,0.3178471326828003
1751281737174883000,14.736883056640625,-0.029374122619628906,-0.5032594203948975,0.773156464099884
1751281737193710000,14.7557099609375,-0.08971023559570312,-0.6019545793533325,0.8980995416641235
1751281737212536800,14.774536865234374,-0.10628604888916016,-0.8883415460586548,1.350703239440918
1751281737231363600,14.793363525390625,-0.10531425476074219,-1.0680054426193237,1.6802067756652832
1751281737250190300,14.8121904296875,-0.2483654022216797,-1.0275630950927734,1.6696785688400269
1751281737269017300,14.831017333984375,-0.18926048278808594,-0.8875744342803955,1.997538447380066
1751281737287844000,14.849843994140626,-0.39086437225341797,-0.8367964029312134,2.7148919105529785
1751281737306670800,14.8686708984375,-0.3616600036621094,-0.8736742734909058,1.3526958227157593
1751281737325497900,14.887497802734375,-0.12352466583251953,-0.9290627241134644,1.786730408668518
1751281737344324600,14.90632470703125,-0.2591390609741211,-1.14345383644104,2.041588306427002
1751281737363151400,14.9251513671875,-0.5487985610961914,-1.4126352071762085,2.2035460472106934
1751281737381978000,14.94397802734375,-0.4065847396850586,-1.5573128461837769,1.9764875173568726
1751281737400805000,14.96280517578125,-0.1755380630493164,-1.4264013767242432,1.4059619903564453
1751281737419631900,14.9816318359375,-0.30596923828125,-1.4708423614501953,0.8112339973449707
1751281737438458600,15.000458740234375,-0.05351066589355469,-1.643937587738037,0.24190855026245117
1751281737457285600,15.01928564453125,-0.032108306884765625,-1.7091645002365112,-0.6501278281211853
1751281737476112400,15.0381123046875,0.05881977081298828,-1.184808611869812,-1.542330265045166
1751281737494939100,15.056939208984375,0.45012378692626953,-0.43133825063705444,-2.0034432411193848
1751281737513766000,15.075765869140625,0.09851360321044922,0.06986603140830994,-2.1761252880096436
1751281737532593000,15.094593017578125,0.38294410705566406,0.3488958775997162,-2.1885037422180176
1751281737551419600,15.113419677734376,0.20792770385742188,0.40747418999671936,-2.029923915863037
1751281737570246400,15.132246337890624,0.29197120666503906,0.6088403463363647,-1.986084222793579
1751281737589073200,15.1510732421875,0.31475162506103516,0.8964301347732544,-2.018173933029175
1751281737607900200,15.169900146484375,0.2624063491821289,1.0223326683044434,-2.1130528450012207
1751281737626727000,15.188726806640625,0.29666900634765625,1.0516412258148193,-1.9241055250167847
1751281737645553700,15.2075537109375,-0.07993698120117188,0.14901098608970642,-0.7698845267295837
1751281737664380700,15.226380615234374,0.17909622192382812,0.4924549162387848,-1.4562106132507324
1751281737683207400,15.24520751953125,0.16648292541503906,0.5550650358200073,-1.6437742710113525
1751281737702034200,15.2640341796875,0.2967538833618164,0.6834534406661987,-1.9217615127563477
1751281737720861000,15.28286083984375,0.08672332763671875,0.7881455421447754,-1.9623734951019287
1751281737739688000,15.30168798828125,0.3683795928955078,0.4836406111717224,-2.045835018157959
1751281737758514700,15.3205146484375,0.2574596405029297,-0.13479936122894287,-1.8696064949035645
1751281737777341400,15.339341552734375,0.3424234390258789,-0.7603480815887451,-1.530435562133789
1751281737796168400,15.35816845703125,0.18834686279296875,-1.0413601398468018,-1.3900153636932373
1751281737814995200,15.3769951171875,0.09319210052490234,-1.2863574028015137,-1.2350232601165771
1751281737833822000,15.395822021484374,0.008400917053222656,-1.3277864456176758,-0.8665077686309814
1751281737852648700,15.414648681640625,-0.009720802307128906,-1.4161522388458252,-0.2761530876159668
1751281737871475500,15.433475341796875,-0.08506202697753906,-1.5537357330322266,0.42553603649139404
1751281737890302500,15.452302490234375,-0.2547874450683594,-1.553762435913086,1.0999946594238281
1751281737909129200,15.471129150390626,-0.34694480895996094,-1.5580741167068481,1.585009217262268
1751281737927956000,15.4899560546875,-0.4436759948730469,-1.6286821365356445,1.9412158727645874
1751281737946783000,15.508782958984375,-0.23912906646728516,-1.861063838005066,2.879753589630127
1751281737965609700,15.527609619140625,-0.5374555587768555,-2.051353693008423,3.8339719772338867
1751281737984436500,15.5464365234375,-0.5775213241577148,-1.5418944358825684,2.8043551445007324
1751281738003263200,15.56526318359375,-0.17582988739013672,-1.0916500091552734,2.071126937866211
1751281738022090200,15.58409033203125,-0.31383323669433594,-1.2705166339874268,2.0585827827453613
1751281738040917000,15.6029169921875,-0.4751739501953125,-1.5509010553359985,2.223348617553711
1751281738059743700,15.62174365234375,-0.5850687026977539,-1.5989841222763062,2.048916816711426
1751281738078570500,15.640570556640625,-0.25173473358154297,-1.5730160474777222,1.5833170413970947
1751281738097397500,15.6593974609375,-0.18777179718017578,-1.6863459348678589,0.7364822626113892
1751281738116224300,15.678224365234374,-0.08136558532714844,-1.5600156784057617,0.025102615356445312
1751281738135051000,15.697051025390625,0.11505317687988281,-1.416327714920044,-0.7390933036804199
1751281738153878000,15.7158779296875,0.052001953125,-1.3717982769012451,-1.2228772640228271
1751281738172704800,15.734704833984376,-0.033374786376953125,-0.8881571292877197,-1.7907371520996094
1751281738191531500,15.753531494140624,0.4095335006713867,-0.6746952533721924,-1.4984347820281982
1751281738210358300,15.772358154296874,-0.3277425765991211,-0.32487952709198,-1.616844892501831
1751281738229185300,15.791185302734375,0.25109291076660156,0.10564278066158295,-1.8622498512268066
1751281738248012000,15.810011962890625,0.7507114410400391,0.3164461553096771,-2.2326900959014893
1751281738266838800,15.8288388671875,-1.0276861190795898,0.6632517576217651,-2.0269575119018555
1751281738285665800,15.847665771484374,0.9407463073730469,0.7273799180984497,-2.0400593280792236
1751281738304492500,15.866492431640625,1.1464109420776367,0.5755082964897156,-2.6708834171295166
1751281738323319300,15.8853193359375,0.36795806884765625,0.668136477470398,-2.800666332244873
1751281738342146000,15.90414599609375,-0.05158424377441406,0.6859939098358154,-1.5102640390396118
1751281738360972800,15.922972900390626,0.023667335510253906,0.8147149085998535,-1.6537396907806396
1751281738379799800,15.9417998046875,0.302734375,0.4831957519054413,-1.690497875213623
1751281738398626600,15.96062646484375,0.4964933395385742,0.26831430196762085,-2.1746678352355957
1751281738417453300,15.979453369140625,0.16452503204345703,0.2850721478462219,-2.5246994495391846
1751281738436280300,15.9982802734375,0.08757591247558594,0.17969970405101776,-2.749720811843872
1751281738455107000,16.017107177734374,0.2827606201171875,-0.16449850797653198,-2.4610531330108643
1751281738473933800,16.035933837890624,0.05188560485839844,-0.6552892923355103,-1.9944409132003784
1751281738492760600,16.054760498046875,0.32285499572753906,-1.450904130935669,-1.3900856971740723
1751281738511587600,16.073587646484373,0.1837301254272461,-2.2939109802246094,-0.33856791257858276
1751281738530414300,16.092414306640624,-0.35575389862060547,-2.540131092071533,0.5234787464141846
1751281738549241000,16.111240966796874,-0.2929563522338867,-2.43318772315979,0.5852055549621582
1751281738568067800,16.13006787109375,-0.0957345962524414,-1.8739662170410156,0.6698352098464966
1751281738586894800,16.148894775390627,-0.24118328094482422,-1.3479489088058472,1.13344407081604
1751281738605721600,16.1677216796875,-0.26779842376708984,-1.2590031623840332,1.4512932300567627
1751281738624548400,16.18654833984375,0.058899879455566406,-1.2410849332809448,1.561936378479004
1751281738643375400,16.205375244140626,-0.4593830108642578,-1.1837635040283203,1.817267656326294
1751281738662202000,16.2242021484375,-0.3601350784301758,-1.0825328826904297,2.1330456733703613
1751281738681028900,16.24302880859375,-0.17976951599121094,-1.444694995880127,2.647050380706787
1751281738699855600,16.261855712890625,-0.4163227081298828,-1.5143468379974365,2.7379589080810547
1751281738718682600,16.2806826171875,-0.5055322647094727,-1.1483747959136963,1.5865899324417114
1751281738737509400,16.29950927734375,-0.48427677154541016,-1.3402554988861084,1.8912478685379028
1751281738756336000,16.318336181640625,-0.12185382843017578,-1.591585397720337,1.9872864484786987
1751281738775163100,16.3371630859375,-0.5647258758544922,-1.4864354133605957,2.0898923873901367
1751281738793990000,16.355989990234374,-0.15538883209228516,-1.9849776029586792,1.9076309204101562
1751281738812816600,16.374816650390624,-0.4469747543334961,-1.9754855632781982,1.37806236743927
1751281738831643400,16.393643310546874,-0.05810737609863281,-1.8325364589691162,0.28923285007476807
1751281738850470100,16.41247021484375,0.05695343017578125,-1.5048551559448242,-0.5079650282859802
1751281738869297200,16.431297119140623,-0.0551300048828125,-1.2492763996124268,-0.8324224948883057
1751281738888124000,16.4501240234375,0.08018779754638672,-0.9807165861129761,-1.3393080234527588
1751281738906950700,16.46895068359375,0.3602571487426758,-0.652738094329834,-1.8530526161193848
1751281738925777700,16.487777587890626,0.2898530960083008,0.024076193571090698,-2.094119071960449
1751281738944604400,16.5066044921875,0.4635028839111328,0.45997893810272217,-2.5839366912841797
1751281738963431200,16.52543115234375,0.13039398193359375,0.5958549380302429,-2.83186936378479
1751281738982258000,16.5442578125,0.11855792999267578,0.7317418456077576,-2.9394960403442383
1751281739001085000,16.5630849609375,0.4006614685058594,0.6634161472320557,-2.795232057571411
1751281739019911700,16.58191162109375,0.3137521743774414,0.5158194899559021,-2.0160458087921143
1751281739038738400,16.600738525390625,0.24097442626953125,0.28314459323883057,-0.5268486142158508
1751281739057565200,16.619565185546875,0.009116172790527344,0.09875562787055969,-0.038764774799346924
1751281739076392200,16.63839208984375,0.0861196517944336,0.3882514238357544,-1.2435346841812134
1751281739095219000,16.657218994140624,0.5904960632324219,0.6966092586517334,-2.60056209564209
1751281739114045700,16.676045654296875,0.29232120513916016,0.8907818794250488,-3.3955039978027344
1751281739132872400,16.69487255859375,0.29268741607666016,0.7643246054649353,-3.043321371078491
1751281739151699500,16.713699462890624,0.33085060119628906,0.10798618197441101,-2.515688896179199
1751281739170526200,16.732526123046874,0.24375057220458984,-0.6818912029266357,-1.9283640384674072
1751281739189353000,16.75135302734375,0.09063529968261719,-1.2118232250213623,-1.2545065879821777
1751281739208179700,16.7701796875,-0.052384376525878906,-1.6722917556762695,-0.4776516556739807
1751281739227006700,16.7890068359375,0.10042953491210938,-1.8581554889678955,-0.047777652740478516
1751281739245833500,16.80783349609375,-0.06678009033203125,-1.8671085834503174,0.3365345597267151
1751281739264660200,16.82666015625,-0.03242683410644531,-1.7678302526474,0.8103798627853394
1751281739283487200,16.8454873046875,-0.26024532318115234,-1.6709048748016357,1.2445528507232666
1751281739302314000,16.86431396484375,-0.34012794494628906,-1.6293730735778809,1.5215494632720947
1751281739321140700,16.883140625,-0.2059345245361328,-1.3772668838500977,1.5096298456192017
1751281739339967500,16.901967529296876,-0.24869346618652344,-0.9912449717521667,1.4760490655899048
1751281739358794500,16.92079443359375,-0.2809410095214844,-0.6546516418457031,1.562599778175354
1751281739387034600,16.94903466796875,-0.2927093505859375,-0.6260703206062317,2.151069402694702
1751281739405861400,16.967861328125,-0.32329273223876953,-0.985016942024231,2.646557331085205
1751281739424688400,16.9866884765625,0.09546756744384766,-0.940222442150116,1.1720964908599854
1751281739443515100,17.00551513671875,-0.30673789978027344,-1.2879021167755127,1.9056320190429688
1751281739481168600,17.043168701171876,-0.42486095428466797,-1.7574148178100586,2.4102654457092285
1751281739499995600,17.06199560546875,-0.5043354034423828,-1.947885274887085,2.1414051055908203
1751281739518822400,17.080822509765625,-0.42815589904785156,-1.903239130973816,1.5306872129440308
1751281739537649200,17.099649169921875,-0.12523937225341797,-1.6927556991577148,0.5693812370300293
1751281739556476000,17.118475830078125,-0.18141555786132812,-1.5866475105285645,0.18954825401306152
1751281739575303000,17.137302978515624,0.061458587646484375,-1.4840301275253296,-0.4514014720916748
1751281739594129700,17.156129638671874,0.21132755279541016,-1.2338165044784546,-1.0137503147125244
1751281739612956400,17.174956298828125,0.09533500671386719,-0.9117737412452698,-1.5199447870254517
1751281739631783200,17.193783203125,0.24914264678955078,-0.5148433446884155,-2.047808885574341
1751281739650610200,17.212610107421874,-0.03871345520019531,-0.2765845060348511,-2.3114516735076904
1751281739669437000,17.23143701171875,0.37149810791015625,-0.039980143308639526,-2.362922191619873
1751281739688263700,17.250263671875,0.5074930191040039,0.11249378323554993,-2.429922580718994
1751281739707090700,17.269090576171877,0.07671260833740234,0.5004048347473145,-2.6201696395874023
1751281739725917400,17.28791748046875,0.473297119140625,0.6344180107116699,-2.720059394836426
1751281739744744200,17.306744140625,0.31714725494384766,0.6931871175765991,-2.410912036895752
1751281739763571000,17.325571044921876,0.34377098083496094,0.617351770401001,-1.5720620155334473
1751281739782398000,17.34439794921875,-0.06423759460449219,0.21723830699920654,-0.2837333679199219
1751281739801224700,17.363224609375,0.08983993530273438,0.26004788279533386,-0.8562257885932922
1751281739820051500,17.382051513671875,0.027738571166992188,0.4904056191444397,-1.5059596300125122
1751281739838878200,17.400878173828126,0.23225784301757812,0.4578644633293152,-2.209660530090332
1751281739857705200,17.419705322265624,0.28264808654785156,0.46831607818603516,-2.4494805335998535
1751281739876532000,17.438531982421875,0.33881282806396484,0.4015038311481476,-2.3198440074920654
1751281739895358700,17.457358642578125,0.29628562927246094,0.2622677981853485,-1.9314541816711426
1751281739914185500,17.476185546875,0.12089920043945312,-0.2276816964149475,-1.4856772422790527
1751281739933012500,17.495012451171874,0.13619232177734375,-0.9285485148429871,-1.2187961339950562
1751281739951839200,17.513839111328124,-0.035956382751464844,-1.379077434539795,-0.9145569205284119
1751281739970666000,17.532666015625,-0.03651142120361328,-1.4723299741744995,-0.7158895134925842
1751281739989492700,17.55149267578125,-0.06613349914550781,-1.4435672760009766,-0.7287530303001404
1751281740008319700,17.57031982421875,-0.009528160095214844,-1.4279000759124756,-0.6120943427085876
1751281740027146500,17.589146484375,0.02896881103515625,-1.6416698694229126,-0.38897275924682617
1751281740045973200,17.60797314453125,0.07266902923583984,-1.7689876556396484,0.11069369316101074
1751281740064800000,17.626800048828127,0.8141908645629883,-1.930161476135254,0.5817654132843018
1751281740083627000,17.645626953125,-0.3936796188354492,-1.643733263015747,1.4752246141433716
1751281740102453800,17.664453857421876,-0.5942087173461914,-1.5830377340316772,2.5129554271698
1751281740121280500,17.683280517578126,-0.7214469909667969,-1.7565370798110962,3.3807425498962402
1751281740140107300,17.702107177734376,-0.07381916046142578,-2.022190809249878,4.411562442779541
1751281740158934300,17.720934326171875,-0.1629037857055664,-1.62456476688385,3.186936378479004
1751281740177761000,17.739760986328125,-0.51611328125,-1.5537396669387817,3.0280470848083496
1751281740196587800,17.758587890625,-1.1469049453735352,-1.31356942653656,2.681334972381592
1751281740215414800,17.777414794921874,0.1796092987060547,-1.74775230884552,2.311260938644409
1751281740234241500,17.796241455078125,-0.585597038269043,-2.0490856170654297,1.9772740602493286
1751281740253068300,17.815068359375,-0.5049257278442383,-2.141388416290283,1.40043044090271
1751281740271895000,17.83389501953125,0.14073753356933594,-2.187067747116089,0.5950647592544556
1751281740290722000,17.85272216796875,-0.010394096374511719,-2.1928889751434326,-0.24803519248962402
1751281740309548800,17.871548828125,0.008696556091308594,-1.9241271018981934,-1.169083833694458
1751281740328375600,17.89037548828125,0.20340442657470703,-1.4109985828399658,-1.8648886680603027
1751281740347202300,17.909202392578123,0.03685569763183594,-0.7949496507644653,-2.3680238723754883
1751281740366029300,17.928029296875,-0.12172794342041016,-0.2578776478767395,-2.5772581100463867
1751281740384856000,17.94685595703125,0.3893899917602539,0.07746000587940216,-2.442664384841919
1751281740403682800,17.965682861328126,0.32308101654052734,0.3673056364059448,-2.5118443965911865
1751281740422509600,17.984509521484377,0.0909881591796875,0.40252846479415894,-2.7356584072113037
1751281740441336600,18.003336669921875,0.08189105987548828,0.44513216614723206,-2.6312429904937744
1751281740460163300,18.022163330078126,0.22729778289794922,0.47317543625831604,-2.45621919631958
1751281740478990000,18.040989990234376,0.22645282745361328,0.798554003238678,-2.2459468841552734
1751281740507230500,18.06923046875,0.050194740295410156,0.44213634729385376,-1.3029245138168335
1751281740526057200,18.08805712890625,0.006783485412597656,0.5679922103881836,-1.69147527217865
1751281740544884000,18.106884033203126,0.38988399505615234,0.4883391559123993,-1.5850659608840942
1751281740563710700,18.125710693359373,0.6339521408081055,0.2590893507003784,-1.7327322959899902
1751281740582537700,18.144537841796875,0.18338489532470703,0.36507534980773926,-2.1172661781311035
1751281740601364500,18.163364501953126,-0.07720375061035156,0.36579275131225586,-2.0972321033477783
1751281740620191200,18.182191162109376,0.09661579132080078,-0.11833733320236206,-1.4570387601852417
1751281740639018000,18.20101806640625,0.23908424377441406,-0.6211563348770142,-1.0463669300079346
1751281740657845000,18.219844970703125,0.11386775970458984,-0.9376128911972046,-1.1268819570541382
1751281740676671700,18.238671630859375,0.0039577484130859375,-1.321789264678955,-1.0950669050216675
1751281740695498500,18.25749853515625,0.08582496643066406,-1.7125486135482788,-0.7744928598403931
1751281740714325200,18.2763251953125,0.010165214538574219,-1.7363412380218506,-0.3473074436187744
1751281740733152300,18.29515234375,-0.10826587677001953,-1.6743525266647339,0.048761606216430664
1751281740751979000,18.31397900390625,-0.3323078155517578,-1.641603946685791,0.48064273595809937
1751281740770805800,18.3328056640625,-0.2793598175048828,-1.5304043292999268,0.6802017092704773
1751281740789632800,18.3516328125,-0.2737112045288086,-1.2827097177505493,0.8610002994537354
1751281740808459500,18.37045947265625,-0.07235145568847656,-1.237221360206604,1.3005492687225342
1751281740827286300,18.389286376953127,0.17636680603027344,-1.1671116352081299,1.8273224830627441
1751281740846113000,18.408113037109374,0.21504688262939453,-1.6674003601074219,2.9591808319091797
1751281740864939800,18.426939697265624,-0.4574460983276367,-2.0344347953796387,4.357205390930176
1751281740883766800,18.445766845703126,-0.9655189514160156,-0.810006320476532,2.465588092803955
1751281740902593500,18.464593505859376,-0.7440357208251953,-1.219089150428772,2.6695351600646973
1751281740921420300,18.483420166015627,0.1309051513671875,-1.5549752712249756,2.5877833366394043
1751281740940247300,18.502247314453125,-0.874150276184082,-1.4922908544540405,2.070281505584717
1751281740959074000,18.521073974609376,-0.06303977966308594,-1.3661524057388306,1.45383620262146
1751281740977900800,18.53990087890625,-0.20583438873291016,-1.283921480178833,1.0072333812713623
1751281740996727600,18.5587275390625,-0.06363105773925781,-1.3366626501083374,0.44956690073013306
1751281741015554600,18.577554443359375,0.15237998962402344,-1.4869757890701294,-0.2723289728164673
1751281741034381300,18.59638134765625,-0.0813302993774414,-1.4689524173736572,-0.8153871893882751
1751281741053208000,18.6152080078125,0.07447242736816406,-1.1195690631866455,-1.36708402633667
1751281741072034800,18.634034912109374,-0.011005401611328125,-0.6887503266334534,-1.7220633029937744
1751281741090861800,18.65286181640625,0.1400909423828125,-0.3898591697216034,-1.9752342700958252
1751281741109688600,18.6716884765625,0.12940597534179688,-0.15481936931610107,-1.972069263458252
1751281741128515300,18.690515380859374,0.11522483825683594,-0.14083680510520935,-1.6029620170593262
1751281741147342000,18.709342041015624,0.15324974060058594,-0.1768186092376709,-1.3181958198547363
1751281741166169000,18.728169189453126,0.2579011917114258,0.007029473781585693,-1.152857780456543
1751281741184995800,18.746995849609377,0.16165637969970703,0.1441776007413864,-1.1847574710845947
1751281741203822600,18.765822509765623,0.23823928833007812,0.29967236518859863,-1.528130054473877
1751281741222649300,18.7846494140625,-0.002902984619140625,0.3344806432723999,-1.63571035861969
1751281741241476400,18.803476318359376,0.04093647003173828,0.4214619994163513,-1.4455819129943848
1751281741260303000,18.82230322265625,0.1715545654296875,0.39959436655044556,-1.0579988956451416
1751281741279129900,18.8411298828125,-0.1739511489868164,0.28895315527915955,-0.38218867778778076
1751281741297956900,18.859956787109375,0.17736244201660156,0.28041088581085205,-0.41077882051467896
1751281741316783600,18.87878369140625,0.2973003387451172,0.30516648292541504,-1.2709765434265137
1751281741335610400,18.8976103515625,-0.04168891906738281,0.9527804851531982,-2.085216522216797
1751281741354437000,18.91643701171875,0.6484289169311523,0.9277395009994507,-2.128544330596924
1751281741373264000,18.935263916015625,0.4079761505126953,0.3482663929462433,-2.0714492797851562
1751281741392091000,18.9540908203125,0.42601776123046875,-0.23920494318008423,-1.7748973369598389
1751281741410917600,18.972917724609374,-0.11120891571044922,-0.3982836604118347,-1.0723779201507568
1751281741429744400,18.991744384765624,-0.32231903076171875,-0.40363070368766785,-0.5400078892707825
1751281741448571400,19.0105712890625,-0.053673744201660156,-0.4794466495513916,-0.4400731325149536
1751281741467398100,19.029398193359373,0.25034141540527344,-0.654877781867981,-0.6121966242790222
1751281741486225000,19.048224853515624,0.42490673065185547,-0.8321101069450378,-0.9465542435646057
1751281741505051600,19.0670517578125,-0.3124513626098633,-0.7583447098731995,-0.8391165733337402
1751281741523878700,19.085878662109376,-0.06491756439208984,-0.9582585692405701,-0.7915847301483154
1751281741542705400,19.104705322265627,0.2892751693725586,-1.2381072044372559,-0.6426924467086792
1751281741561532200,19.1235322265625,0.12742137908935547,-1.509056568145752,-0.3209485411643982
1751281741580359200,19.142359130859376,-0.029962539672851562,-1.738043189048767,0.03843182325363159
1751281741599186000,19.16118603515625,0.29868602752685547,-1.8501938581466675,0.45192795991897583
1751281741618012700,19.1800126953125,-0.3087644577026367,-1.4468129873275757,0.5413740277290344
1751281741636839400,19.19883935546875,-0.3304910659790039,-1.1332902908325195,0.9843887686729431
1751281741655666200,19.217666259765625,0.06899833679199219,-1.1803044080734253,1.9139502048492432
1751281741674493200,19.2364931640625,-0.21380233764648438,-1.2901710271835327,3.2050163745880127
1751281741693320000,19.25531982421875,-0.8281154632568359,-1.231147289276123,4.357195854187012
1751281741712146700,19.274146728515625,-1.0516576766967773,-0.9763579964637756,2.137639284133911
1751281741730973700,19.2929736328125,0.3219480514526367,-1.0437477827072144,2.138794183731079
1751281741749800400,19.311800537109374,-0.6436481475830078,-0.8508614301681519,2.0155234336853027
1751281741768627200,19.330627197265624,-0.20316028594970703,-1.4422346353530884,1.8835843801498413
1751281741787454000,19.349453857421874,-0.12638473510742188,-1.674834966659546,1.5058902502059937
1751281741806281000,19.368281005859377,-0.48290061950683594,-1.5395326614379883,1.0630137920379639
1751281741825107700,19.387107666015623,-0.049599647521972656,-1.3799759149551392,0.7831534147262573
1751281741853347800,19.415347900390625,0.03729820251464844,-1.308212161064148,0.016075611114501953
1751281741872174800,19.4341748046875,0.004946708679199219,-1.2478851079940796,-0.48792898654937744
1751281741891001600,19.453001708984374,0.1155252456665039,-1.1801908016204834,-0.8438551425933838
1751281741909828400,19.471828369140624,0.007145881652832031,-1.0394518375396729,-1.0532454252243042
1751281741928655000,19.490655029296875,-0.012784957885742188,-0.8368812799453735,-1.308077096939087
1751281741947482000,19.509482177734377,0.14068984985351562,-0.3844566345214844,-1.7737648487091064
1751281741966308900,19.528308837890624,0.5252437591552734,0.05762109160423279,-2.295100212097168
1751281741985135600,19.547135498046874,-0.15184879302978516,0.3226158320903778,-2.4667720794677734
1751281742003962400,19.56596240234375,0.06867694854736328,0.5540179014205933,-2.6222071647644043
1751281742022789400,19.584789306640626,0.6461639404296875,0.6086262464523315,-2.745184898376465
1751281742041616100,19.6036162109375,0.8969879150390625,1.0343098640441895,-3.251049518585205
1751281742060443000,19.62244287109375,-0.3893709182739258,0.651036262512207,-1.4888830184936523
1751281742079270000,19.641269775390626,0.26903724670410156,0.640708327293396,-1.8242038488388062
1751281742098096600,19.6600966796875,0.4757118225097656,0.5089055299758911,-1.8905372619628906
1751281742116923400,19.67892333984375,0.19063472747802734,0.3845263421535492,-1.8331605195999146
1751281742135750100,19.697750244140625,0.13066482543945312,0.24160602688789368,-1.5996265411376953
1751281742154577000,19.716576904296875,0.04071521759033203,0.024385839700698853,-1.409501075744629
1751281742173404000,19.73540380859375,0.2934598922729492,-0.4541386067867279,-1.3941998481750488
1751281742192230700,19.754230712890624,0.06273746490478516,-0.7376580238342285,-1.1171225309371948
1751281742211057400,19.773057373046875,0.14288902282714844,-0.8710997104644775,-0.8669283390045166
1751281742229884400,19.791884521484373,-0.0877523422241211,-1.0416620969772339,-0.48754680156707764
1751281742248711200,19.810711181640624,-0.2130117416381836,-1.3253726959228516,-0.28154414892196655
1751281742267538000,19.829537841796874,0.15976428985595703,-1.5122953653335571,-0.07123345136642456
1751281742286364700,19.84836474609375,0.09306049346923828,-1.4497991800308228,0.3503498435020447
1751281742305191700,19.867191650390627,-0.017175674438476562,-1.488257646560669,0.7737023830413818
1751281742324018400,19.886018310546874,-0.36493587493896484,-1.426936388015747,1.1114236116409302
1751281742342845200,19.90484521484375,0.15406513214111328,-1.2108160257339478,1.4247334003448486
1751281742361672200,19.923672119140626,-0.43463897705078125,-0.8830530047416687,1.9648501873016357
1751281742380499000,19.9424990234375,-0.6307029724121094,-0.692980170249939,2.734813928604126
1751281742399325700,19.96132568359375,-0.1389141082763672,-0.9235947132110596,3.115870952606201
1751281742418152400,19.98015234375,0.15060997009277344,-0.30259498953819275,0.7268357276916504
1751281742436979500,19.9989794921875,-0.5373678207397461,-0.1024271547794342,0.13071441650390625
1751281742455806200,20.01780615234375,0.32289981842041016,-0.22142738103866577,0.1356288194656372
1751281742474633000,20.036633056640625,-0.2579164505004883,-0.6169521808624268,0.9637030363082886
1751281742493459700,20.055459716796875,-0.3879976272583008,-0.7284501791000366,1.4696853160858154
1751281742512286700,20.07428662109375,-0.33342838287353516,-0.9008947610855103,1.606561303138733
1751281742531113500,20.093113525390624,-0.2269763946533203,-1.211801528930664,1.3804200887680054
1751281742549940200,20.111940185546874,-0.33235931396484375,-1.2569748163223267,1.42752206325531
1751281742568767000,20.13076708984375,-0.26804161071777344,-1.0792876482009888,1.3826762437820435
1751281742587594000,20.149593994140623,-0.10441398620605469,-0.8389309644699097,1.2507119178771973
1751281742606420700,20.168420654296874,-0.21744060516357422,-0.9895427227020264,0.7336170673370361
1751281742625247500,20.18724755859375,0.0035953521728515625,-1.1165928840637207,0.24673449993133545
1751281742644074200,20.20607421875,-0.020061492919921875,-1.2952003479003906,0.12927842140197754
1751281742662901200,20.2249013671875,-0.10634994506835938,-1.3327988386154175,0.06576883792877197
1751281742681728000,20.24372802734375,0.12878894805908203,-1.334010362625122,-0.40986621379852295
1751281742700554800,20.2625546875,0.3769397735595703,-1.2076373100280762,-1.038374900817871
1751281742719381800,20.2813818359375,0.07394123077392578,-0.7576636075973511,-1.709214687347412
1751281742738208500,20.30020849609375,-0.47589111328125,-0.15490399301052094,-2.2855095863342285
1751281742757035300,20.31903515625,0.2129192352294922,0.1060655415058136,-2.6185340881347656
1751281742775862000,20.337862060546875,0.3536567687988281,0.29037749767303467,-2.6446282863616943
1751281742794689000,20.35668896484375,0.21647071838378906,0.6533428430557251,-3.009368658065796
1751281742813515800,20.375515869140624,0.721095085144043,0.8298776149749756,-3.5693793296813965
1751281742832342500,20.394342529296875,0.6684160232543945,0.779291033744812,-2.078451156616211
1751281742851169500,20.41316943359375,-0.01660919189453125,0.8843737840652466,-2.2022595405578613
1751281742869996300,20.431996337890624,0.44652652740478516,0.5359720587730408,-2.0979161262512207
1751281742888823000,20.450822998046874,0.1540203094482422,0.4418070316314697,-1.4771474599838257
1751281742907649800,20.46964990234375,0.10926246643066406,0.056879907846450806,-1.2201100587844849
1751281742926476800,20.488476806640627,0.23534202575683594,-0.19781407713890076,-1.2561031579971313
1751281742945303600,20.507303466796873,-0.03969764709472656,-0.13111916184425354,-1.0201021432876587
1751281742964130300,20.52613037109375,-0.006964683532714844,-0.3442843556404114,-1.0262694358825684
1751281742982957000,20.54495703125,0.35536956787109375,-0.6540240049362183,-1.0743639469146729
1751281743001784000,20.5637841796875,-0.23186016082763672,-0.790309488773346,-0.845638632774353
1751281743020610800,20.58261083984375,0.21823596954345703,-1.0641744136810303,-0.5918850898742676
1751281743039437600,20.6014375,-0.01126861572265625,-1.128267765045166,-0.29708218574523926
1751281743058264300,20.620264404296876,-0.006501197814941406,-1.2154064178466797,0.00759577751159668
1751281743077091300,20.63909130859375,-0.08786392211914062,-1.2461885213851929,0.38796722888946533
1751281743095918000,20.65791796875,-0.1114187240600586,-1.4378470182418823,0.7877069711685181
1751281743114744800,20.676744873046875,-0.13368797302246094,-1.3587541580200195,1.188594937324524
1751281743133571600,20.695571533203125,-0.16943359375,-1.0115010738372803,1.7148953676223755
1751281743152398600,20.714398681640624,-0.45965099334716797,-0.835314154624939,1.8136924505233765
1751281743171225300,20.733225341796874,-0.36676597595214844,-0.8976823091506958,1.624937891960144
1751281743190052000,20.752052001953125,-0.14045143127441406,-1.0842560529708862,2.0217080116271973
1751281743208879000,20.770879150390623,-0.2624340057373047,-1.3167121410369873,2.5314292907714844
1751281743227705900,20.789705810546874,-0.4653759002685547,-0.8368074297904968,1.1760717630386353
1751281743246532600,20.80853271484375,0.1511087417602539,-0.696485161781311,1.3292864561080933
1751281743265359400,20.827359375,-0.4096403121948242,-0.5919840335845947,1.257480502128601
1751281743284186400,20.846186279296877,-0.17643356323242188,-0.7273787260055542,1.3385059833526611
1751281743303013000,20.86501318359375,-0.3507232666015625,-0.7663589715957642,1.4692915678024292
1751281743321839900,20.88383984375,0.13993072509765625,-0.9162355065345764,0.9461954832077026
1751281743340667000,20.9026669921875,-0.3473062515258789,-0.9538778066635132,0.5603947639465332
1751281743359493600,20.92149365234375,0.03407859802246094,-0.8568336963653564,0.3267754316329956
1751281743378320400,20.9403203125,-0.15409088134765625,-1.1425193548202515,0.7053612470626831
1751281743397147100,20.959147216796875,-0.08203983306884766,-1.3661658763885498,0.6633247137069702
1751281743415974100,20.97797412109375,0.10016059875488281,-1.2468137741088867,0.19228100776672363
1751281743434801000,20.99680078125,0.060029029846191406,-1.0209327936172485,-0.35368669033050537
1751281743453627600,21.015627685546875,0.2747201919555664,-0.839422345161438,-0.9753267765045166
1751281743491281400,21.053281494140624,-0.09978389739990234,-0.24447430670261383,-2.13700795173645
1751281743510108200,21.072108154296874,0.18703269958496094,0.05875071883201599,-2.3009865283966064
1751281743528935000,21.090934814453124,0.714299201965332,0.07068845629692078,-2.037964344024658
1751281743547762000,21.109761962890627,0.45301246643066406,0.3993661403656006,-1.678073525428772
1751281743566588700,21.128588623046873,0.16637325286865234,1.1909048557281494,-2.325326919555664
1751281743585415400,21.14741552734375,0.2292318344116211,1.3055444955825806,-2.9839556217193604
1751281743604242200,21.1662421875,0.1576671600341797,0.2091788947582245,-0.6527761220932007
1751281743623069200,21.185069091796876,0.16543292999267578,0.22813665866851807,-0.917866587638855
1751281743641896000,21.20389599609375,0.14031982421875,0.5484627485275269,-1.238030195236206
1751281743660722700,21.22272265625,0.1364431381225586,0.48935896158218384,-1.3925552368164062
1751281743679549700,21.2415498046875,0.7840900421142578,0.5017269253730774,-1.8384848833084106
1751281743698376400,21.26037646484375,-0.2874164581298828,0.5692061185836792,-2.4279403686523438
1751281743717203200,21.279203125,0.6022853851318359,0.38007891178131104,-2.2727041244506836
1751281743736030000,21.298030029296875,0.11839103698730469,-0.19131019711494446,-1.7604255676269531
1751281743754857000,21.31685693359375,0.29912567138671875,-0.9035052061080933,-1.383428931236267
1751281743773683700,21.33568359375,-0.10656929016113281,-1.2798378467559814,-0.7821358442306519
1751281743792510500,21.354510498046874,0.04208183288574219,-1.469442367553711,-0.09544825553894043
1751281743811337200,21.373337158203125,-0.0632619857788086,-1.4825738668441772,0.4474422335624695
1751281743830164200,21.392164306640623,-0.30289363861083984,-1.3590482473373413,0.846159815788269
1751281743848991000,21.410990966796874,-0.08880424499511719,-1.2872267961502075,1.0674197673797607
1751281743867817700,21.429817626953124,-0.11312389373779297,-1.25624418258667,1.1920278072357178
1751281743886644500,21.44864453125,-0.24641036987304688,-1.1187328100204468,1.394944190979004
1751281743905471500,21.467471435546877,-0.1598043441772461,-0.9520958065986633,1.5042705535888672
1751281743924298200,21.48629833984375,-0.24541759490966797,-0.8928297162055969,1.772924542427063
1751281743943125000,21.505125,-0.4316978454589844,-0.7354051470756531,2.1814496517181396
1751281743961951700,21.52395166015625,-0.18452739715576172,-0.3431462347507477,2.089993476867676
1751281743980778800,21.54277880859375,-0.029232025146484375,0.008113309741020203,0.07533937692642212
1751281743999605500,21.56160546875,0.16387271881103516,-0.024778053164482117,-0.24520593881607056
1751281744018432300,21.580432373046875,-0.11153888702392578,0.02904859185218811,-0.22236257791519165
1751281744037259300,21.59925927734375,-0.07615947723388672,-0.2387717217206955,0.017828702926635742
1751281744056086000,21.6180859375,0.06815433502197266,-0.8102394342422485,0.9183446168899536
1751281744074912800,21.636912841796875,-0.18491554260253906,-1.2244981527328491,1.1876252889633179
1751281744093739500,21.655739501953125,-0.3920736312866211,-0.8539837598800659,1.196177363395691
1751281744112566500,21.67456640625,0.008048057556152344,-0.39792725443840027,1.3571405410766602
1751281744131393300,21.693393310546874,-0.20470714569091797,-0.4944058656692505,1.5319405794143677
1751281744150220000,21.712219970703124,-0.2883148193359375,-0.8778285980224609,1.3587461709976196
1751281744169047000,21.731047119140626,0.07204151153564453,-1.2993587255477905,0.9642843008041382
1751281744187873800,21.749873779296873,0.027901649475097656,-1.4292938709259033,0.389581561088562
1751281744206700500,21.768700439453124,-0.31281280517578125,-1.1533900499343872,-0.09614187479019165
1751281744225527300,21.78752734375,0.19807910919189453,-1.004871129989624,-0.3569129705429077
1751281744244354300,21.806354248046876,-0.11135673522949219,-0.7343771457672119,-0.5594435334205627
1751281744263181000,21.82518115234375,-0.00759124755859375,-0.2817257046699524,-0.8327140808105469
1751281744282007800,21.8440078125,0.19225311279296875,-0.25870996713638306,-1.3550982475280762
1751281744300834600,21.86283447265625,0.025165557861328125,0.02683304250240326,-1.5009998083114624
1751281744319661600,21.88166162109375,0.021907806396484375,0.24687933921813965,-1.6223844289779663
1751281744338488300,21.90048828125,0.3958120346069336,0.4596637487411499,-1.7296738624572754
1751281744357315000,21.919315185546875,0.5546932220458984,0.5944539308547974,-1.8696415424346924
1751281744376142000,21.93814208984375,0.13473892211914062,1.0551940202713013,-2.3826451301574707
1751281744394968800,21.95696875,0.3431062698364258,1.3556134700775146,-2.771202802658081
1751281744413795600,21.975795654296874,-0.042519569396972656,0.3675147593021393,-0.6739832162857056
1751281744432622300,21.994622314453125,0.009057998657226562,0.30685141682624817,-0.7492913007736206
1751281744451449300,22.013449462890627,0.10172748565673828,0.4733685553073883,-1.2115498781204224
1751281744470276000,22.032276123046874,0.3621397018432617,0.4890606999397278,-1.4206613302230835
1751281744489102800,22.051102783203124,0.35358619689941406,0.30397048592567444,-1.6033828258514404
1751281744507929900,22.069929931640626,0.33069896697998047,0.17586681246757507,-1.7750515937805176
1751281744526756600,22.088756591796876,0.17608928680419922,0.11072693765163422,-1.8033488988876343
1751281744545583400,22.107583251953123,0.2467355728149414,-0.21084487438201904,-1.731095790863037
1751281744564410000,22.12641015625,0.1688385009765625,-0.6113131046295166,-1.6563880443572998
1751281744583236900,22.14523681640625,0.2025918960571289,-0.9475016593933105,-1.3269164562225342
1751281744602064000,22.16406396484375,-0.12161064147949219,-1.1192731857299805,-0.7526467442512512
1751281744620890600,22.182890625,0.10836315155029297,-1.2311092615127563,-0.17577236890792847
1751281744639717400,22.20171728515625,-0.17806529998779297,-1.1550761461257935,0.43819987773895264
1751281744658544400,22.22054443359375,-0.07799625396728516,-1.2723596096038818,0.7045409679412842
1751281744677371100,22.23937109375,-0.097259521484375,-1.4342362880706787,0.7876827120780945
1751281744696198000,22.258197998046874,-0.11443805694580078,-1.4110100269317627,1.111741542816162
1751281744715024600,22.277024658203125,-0.3499288558959961,-1.1978580951690674,1.6726672649383545
1751281744733851600,22.2958515625,-0.18889427185058594,-1.3118910789489746,2.501401901245117
1751281744752678400,22.314678466796874,-0.5487251281738281,-1.428678274154663,3.4807419776916504
1751281744771505200,22.333505126953124,-0.3689899444580078,-1.092002034187317,2.5175180435180664
1751281744790332000,22.352331787109375,-0.1130380630493164,-0.753524899482727,1.684946894645691
1751281744809159000,22.371158935546877,-0.40476131439208984,-1.2092880010604858,2.0510377883911133
1751281744827985700,22.389985595703124,-0.35138511657714844,-1.4959046840667725,2.1996355056762695
1751281744846812400,22.4088125,-0.1911029815673828,-1.280346393585205,1.6691690683364868
1751281744865639400,22.427639404296876,-0.2630586624145508,-1.313271403312683,1.2331289052963257
1751281744884466200,22.446466064453126,-0.11956405639648438,-1.4652056694030762,1.0170302391052246
1751281744903293000,22.46529296875,-0.10225391387939453,-1.6087595224380493,0.4131615161895752
1751281744922119700,22.48411962890625,-0.0052242279052734375,-1.4406306743621826,-0.37981104850769043
1751281744940946700,22.50294677734375,0.07006454467773438,-1.0544625520706177,-1.0869998931884766
1751281744959773400,22.5217734375,0.44036006927490234,-0.3237454295158386,-1.9023334980010986
1751281744978600200,22.54060009765625,-0.2100687026977539,0.30744585394859314,-2.452451705932617
1751281744997427200,22.55942724609375,0.40942955017089844,0.47623783349990845,-2.4620373249053955
1751281745016254000,22.57825390625,0.4474601745605469,0.354728639125824,-2.1889140605926514
1751281745035080700,22.597080810546874,0.33060455322265625,0.44290193915367126,-2.208815097808838
1751281745053907500,22.615907470703124,0.3193082809448242,0.8185502290725708,-2.4702186584472656
1751281745072734500,22.634734375,0.14370250701904297,1.079634666442871,-2.3603997230529785
1751281745091561200,22.653561279296873,0.07491874694824219,0.16812783479690552,-0.5271361470222473
1751281745110388000,22.672387939453124,0.1624279022216797,0.30083537101745605,-0.9258559346199036
1751281745129214700,22.691214599609374,0.20107746124267578,0.5910015106201172,-1.4280273914337158
1751281745148041700,22.710041748046876,0.1590566635131836,0.933788537979126,-1.756044864654541
1751281745166868500,22.728868408203127,0.7622356414794922,0.038758933544158936,-1.5345585346221924
1751281745185695200,22.7476953125,-0.4175996780395508,0.5252277851104736,-1.9663290977478027
1751281745204522200,22.766522216796876,0.4853668212890625,0.38890212774276733,-1.8099117279052734
1751281745223349000,22.785348876953126,0.0020904541015625,0.1055857390165329,-1.5348796844482422
1751281745242175700,22.80417578125,0.24957275390625,-0.6690012216567993,-1.0776212215423584
1751281745261002500,22.82300244140625,-0.1165761947631836,-1.3138644695281982,-0.8345535397529602
1751281745279829200,22.841829345703125,0.21446704864501953,-1.6981096267700195,-0.6578453183174133
1751281745298656300,22.86065625,-0.08464908599853516,-1.6572822332382202,-0.2013421654701233
1751281745317483000,22.87948291015625,0.08549976348876953,-1.5408604145050049,0.34030789136886597
1751281745336309800,22.898309814453125,-0.15022850036621094,-1.543075680732727,0.7757037281990051
1751281745355136800,22.91713671875,-0.22652816772460938,-1.45106840133667,1.1519157886505127
1751281745373963500,22.935963623046874,-0.2000885009765625,-1.2857643365859985,1.3273906707763672
1751281745392790300,22.954790283203124,-0.38498497009277344,-1.052097201347351,1.9149107933044434
1751281745411617000,22.973616943359374,-0.27826690673828125,-0.9601396322250366,2.931973934173584
1751281745430444000,22.992444091796877,-0.28279590606689453,-1.0795221328735352,3.7401890754699707
1751281745449270800,23.011270751953123,-0.6445674896240234,-1.0053731203079224,2.095853567123413
1751281745468097500,23.03009765625,-0.09724998474121094,-1.3898851871490479,2.3792357444763184
1751281745486924500,23.048924560546876,-0.3933992385864258,-1.5155837535858154,1.9596128463745117
1751281745505751300,23.067751220703126,-0.19731521606445312,-1.5312178134918213,1.4326534271240234
1751281745524578000,23.086578125,-0.069366455078125,-1.6911730766296387,0.9435082674026489
1751281745543404800,23.10540478515625,-0.1807689666748047,-1.7127718925476074,0.46399712562561035
1751281745562231800,23.124231689453126,-0.13461017608642578,-1.6922177076339722,0.05346095561981201
1751281745590472000,23.152471923828124,-0.0778951644897461,-1.448625087738037,0.005016684532165527
1751281745609298700,23.171298583984374,0.15685272216796875,-1.1615675687789917,-0.3166189193725586
1751281745628125400,23.19012548828125,0.21181774139404297,-0.7036396861076355,-1.2177586555480957
1751281745646952400,23.208952392578126,-0.25074195861816406,0.050622135400772095,-1.6955018043518066
1751281745665779200,23.227779296875,0.41178035736083984,0.40907949209213257,-1.7861409187316895
1751281745684606000,23.24660595703125,0.3227548599243164,0.5154200792312622,-1.9051165580749512
1751281745703433000,23.265432861328126,0.02610015869140625,0.45046722888946533,-2.108520269393921
1751281745722259700,23.284259765625,0.2996683120727539,0.27649328112602234,-2.0120973587036133
1751281745741086500,23.30308642578125,0.2109689712524414,0.28524890542030334,-1.9538835287094116
1751281745759913200,23.321913330078125,0.2763671875,0.49561601877212524,-2.2192962169647217
1751281745778740200,23.340740234375,0.37482261657714844,0.9309680461883545,-2.5980796813964844
1751281745797567000,23.35956689453125,-0.13711261749267578,0.4908226430416107,-1.0100387334823608
1751281745816393700,23.378393798828125,0.1588153839111328,0.7344516515731812,-1.118428349494934
1751281745835220700,23.397220703125,0.3778648376464844,0.9509220719337463,-1.9146718978881836
1751281745854047500,23.416047607421874,0.27607059478759766,1.0977249145507812,-2.470735549926758
