time,seconds_elapsed,z,y,x
1751281722565269500,0.12726953125,9.746511459350586,-0.2604181468486786,1.052659034729004
1751281722584096300,0.14609619140625,9.746315956115723,-0.26711031794548035,1.0527878999710083
1751281722602923000,0.164923095703125,9.746134757995605,-0.2766616940498352,1.0519927740097046
1751281722631163400,0.193163330078125,9.745854377746582,-0.27552664279937744,1.0548930168151855
1751281722649990100,0.211990234375,9.745838165283203,-0.27427560091018677,1.0553666353225708
1751281722668817000,0.23081689453125,9.745692253112793,-0.27421438694000244,1.0567301511764526
1751281722687643600,0.2496435546875,9.745817184448242,-0.2738717198371887,1.0556684732437134
1751281722706470400,0.268470458984375,9.745933532714844,-0.27393239736557007,1.0545693635940552
1751281722725297200,0.287297119140625,9.746061325073242,-0.2733027935028076,1.0535557270050049
1751281722744124000,0.3061240234375,9.745980262756348,-0.2739286422729492,1.0541471242904663
1751281722762951000,0.324950927734375,9.745916366577148,-0.2742551267147064,1.0546448230743408
1751281722781777700,0.343777587890625,9.745912551879883,-0.2748246490955353,1.0545451641082764
1751281722800604400,0.3626044921875,9.745965003967285,-0.27461299300193787,1.0541069507598877
1751281722819431200,0.38143115234375,9.745936393737793,-0.2753511369228363,1.0541799068450928
1751281722838258000,0.4002578125,9.745870590209961,-0.2751956284046173,1.0548282861709595
1751281722857084700,0.419084716796875,9.74585247039795,-0.2746366858482361,1.0551388263702393
1751281722875911700,0.43791162109375,9.745841026306152,-0.2737143933773041,1.0554813146591187
1751281722894738400,0.456738525390625,9.745867729187012,-0.27327150106430054,1.0553523302078247
1751281722913565200,0.475565185546875,9.745925903320312,-0.27307602763175964,1.0548717975616455
1751281722932392000,0.494391845703125,9.74591064453125,-0.27255457639694214,1.0551434755325317
1751281722951218700,0.51321875,9.74588394165039,-0.2725430727005005,1.055387258529663
1751281722970045400,0.53204541015625,9.745888710021973,-0.27284035086631775,1.055275321006775
1751281722988872400,0.55087255859375,9.745837211608887,-0.27299264073371887,1.0557068586349487
1751281723007699200,0.56969921875,9.745845794677734,-0.2729673981666565,1.0556374788284302
1751281723026526000,0.58852587890625,9.745849609375,-0.2728121876716614,1.0556397438049316
1751281723045352700,0.607352783203125,9.745904922485352,-0.27237939834594727,1.0552393198013306
1751281723064179500,0.626179443359375,9.746068000793457,-0.2744028568267822,1.0532094240188599
1751281723083006500,0.64500634765625,9.74610710144043,-0.2802431583404541,1.0513049364089966
1751281723101833200,0.663833251953125,9.745521545410156,-0.2846396863460541,1.0555506944656372
1751281723120660000,0.682659912109375,9.74538803100586,-0.28174498677253723,1.0575528144836426
1751281723139486700,0.70148681640625,9.745793342590332,-0.2746533155441284,1.0556797981262207
1751281723158313500,0.7203134765625,9.746014595031738,-0.27043813467025757,1.0547281503677368
1751281723177140200,0.73914013671875,9.745903015136719,-0.2724458873271942,1.0552436113357544
1751281723195967200,0.75796728515625,9.745670318603516,-0.2756652235984802,1.0565465688705444
1751281723214794000,0.7767939453125,9.745697975158691,-0.2751406729221344,1.0564382076263428
1751281723233620700,0.795620849609375,9.745882034301758,-0.27251574397087097,1.055422067642212
1751281723252447500,0.814447509765625,9.7459077835083,-0.27154213190078735,1.0554320812225342
1751281723271274200,0.833274169921875,9.74582290649414,-0.2730669379234314,1.055821180343628
1751281723290101200,0.852101318359375,9.745813369750977,-0.2744324505329132,1.055552363395691
1751281723308928000,0.870927978515625,9.745880126953125,-0.2732991576194763,1.0552328824996948
1751281723327754800,0.889754638671875,9.74592113494873,-0.27216747403144836,1.0551422834396362
1751281723346581500,0.90858154296875,9.745901107788086,-0.2723974585533142,1.0552703142166138
1751281723365408300,0.927408203125,9.745843887329102,-0.2728225290775299,1.0556845664978027
1751281723384235300,0.9462353515625,9.745857238769531,-0.2729487717151642,1.0555293560028076
1751281723403062000,0.96506201171875,9.74591064453125,-0.27215611934661865,1.0552513599395752
1751281723421888800,0.983888671875,9.74591064453125,-0.27196353673934937,1.0552960634231567
1751281723440715500,1.002715576171875,9.745918273925781,-0.2721266746520996,1.0551804304122925
1751281723459542300,1.021542236328125,9.746176719665527,-0.2746075391769409,1.0521504878997803
1751281723478369300,1.040369384765625,9.746420860290527,-0.28133895993232727,1.048094630241394
1751281723497196000,1.059196044921875,9.746018409729004,-0.28832051157951355,1.0499460697174072
1751281723516022800,1.078022705078125,9.745758056640625,-0.2911568284034729,1.051581859588623
1751281723534849500,1.096849609375,9.746010780334473,-0.28632572293281555,1.0505553483963013
1751281723553676300,1.11567626953125,9.746201515197754,-0.27902206778526306,1.0507574081420898
1751281723572503300,1.13450341796875,9.746315956115723,-0.27776703238487244,1.050032615661621
1751281723591330000,1.153330078125,9.745841979980469,-0.28357890248298645,1.0528650283813477
1751281723610156800,1.17215673828125,9.74531078338623,-0.29177215695381165,1.0555490255355835
1751281723628983600,1.190983642578125,9.744885444641113,-0.2970885932445526,1.0579850673675537
1751281723647810600,1.209810546875,9.744871139526367,-0.29624590277671814,1.0583558082580566
1751281723666637300,1.22863720703125,9.744855880737305,-0.29272937774658203,1.0594686269760132
1751281723685464000,1.247464111328125,9.745060920715332,-0.291439026594162,1.057942509651184
1751281723704290800,1.266290771484375,9.744823455810547,-0.2927403748035431,1.0597721338272095
1751281723723117800,1.285117919921875,9.74428939819336,-0.2956283986568451,1.063872218132019
1751281723741944600,1.303944580078125,9.743992805480957,-0.2980601191520691,1.0659067630767822
1751281723760771300,1.322771240234375,9.744035720825195,-0.2990787625312805,1.0652260780334473
1751281723779598000,1.34159814453125,9.744154930114746,-0.30178186297416687,1.0633677244186401
1751281723798424800,1.3604248046875,9.744022369384766,-0.30622032284736633,1.0633193254470825
1751281723817251600,1.37925146484375,9.743865013122559,-0.3124072253704071,1.0629603862762451
1751281723836078600,1.39807861328125,9.743833541870117,-0.3170759975910187,1.0618661642074585
1751281723854905300,1.4169052734375,9.74389362335205,-0.31952986121177673,1.0605781078338623
1751281723873732000,1.435732177734375,9.743680000305176,-0.3224204480648041,1.0616720914840698
1751281723892558800,1.454558837890625,9.743081092834473,-0.329193651676178,1.0650793313980103
1751281723911385900,1.4733857421875,9.74276065826416,-0.33637019991874695,1.0657700300216675
1751281723930212600,1.492212646484375,9.743207931518555,-0.3400680422782898,1.0604839324951172
1751281723949039400,1.511039306640625,9.74399471282959,-0.33892297744750977,1.053611159324646
1751281723967866000,1.5298662109375,9.74583911895752,-0.33138754963874817,1.0388426780700684
1751281723986693000,1.548693115234375,9.749485969543457,-0.308499813079834,1.0113133192062378
1751281724005520000,1.567519775390625,9.75194263458252,-0.2848721742630005,0.9944113492965698
1751281724024346600,1.5863466796875,9.751681327819824,-0.27402263879776,1.0000088214874268
1751281724043173400,1.60517333984375,9.750224113464355,-0.2607319951057434,1.0176079273223877
1751281724062000000,1.624000244140625,9.747769355773926,-0.271089643239975,1.0382144451141357
1751281724080827100,1.6428271484375,9.742498397827148,-0.2954590916633606,1.0801969766616821
1751281724099654000,1.66165380859375,9.74096393585205,-0.3044455945491791,1.091482400894165
1751281724118480600,1.680480712890625,9.743570327758789,-0.28944748640060425,1.0721162557601929
1751281724137307400,1.699307373046875,9.744501113891602,-0.2722560465335846,1.06815767288208
1751281724156134400,1.718134521484375,9.744747161865234,-0.2668694257736206,1.0672636032104492
1751281724174961200,1.736961181640625,9.743759155273438,-0.27261197566986084,1.0748116970062256
1751281724193788000,1.755787841796875,9.743599891662598,-0.27884721755981445,1.0746634006500244
1751281724212614700,1.77461474609375,9.743963241577148,-0.2767772376537323,1.0718920230865479
1751281724231441700,1.793441650390625,9.744545936584473,-0.27236419916152954,1.067723274230957
1751281724250268400,1.812268310546875,9.746633529663086,-0.26539167761802673,1.0502849817276
1751281724269095200,1.83109521484375,9.750064849853516,-0.2508978545665741,1.0216097831726074
1751281724287922000,1.849921875,9.75475025177002,-0.2345818728208542,0.9799007773399353
1751281724306749000,1.8687490234375,9.75778865814209,-0.21923992037773132,0.9528337121009827
1751281724325575700,1.88757568359375,9.758047103881836,-0.21325963735580444,0.951543390750885
1751281724344402400,1.90640234375,9.751832962036133,-0.2371799200773239,1.0079102516174316
1751281724363229200,1.925229248046875,9.740473747253418,-0.2849259674549103,1.1010844707489014
1751281724382056200,1.94405615234375,9.736608505249023,-0.30380526185035706,1.129845380783081
1751281724400883000,1.962883056640625,9.73619270324707,-0.3025054931640625,1.133766770362854
1751281724419709700,1.981709716796875,9.735922813415527,-0.3017302453517914,1.1362922191619873
1751281724438536400,2.000536376953125,9.735891342163086,-0.3061359226703644,1.1353752613067627
1751281724457363200,2.01936328125,9.735641479492188,-0.31077706813812256,1.1362578868865967
1751281724476190200,2.038190185546875,9.73587703704834,-0.3173285722732544,1.1324292421340942
1751281724495017000,2.057016845703125,9.735508918762207,-0.33211690187454224,1.1313488483428955
1751281724513843700,2.07584375,9.735657691955566,-0.3444828391075134,1.1263624429702759
1751281724532670700,2.094670654296875,9.737761497497559,-0.3383745849132538,1.1099016666412354
1751281724551497500,2.11349755859375,9.74229621887207,-0.31741777062416077,1.0757830142974854
1751281724570324200,2.13232421875,9.747594833374023,-0.2925000488758087,1.0340337753295898
1751281724589151000,2.15115087890625,9.749983787536621,-0.27674978971481323,1.015684962272644
1751281724607977700,2.169977783203125,9.748052597045898,-0.27457740902900696,1.034633994102478
1751281724626804700,2.1888046875,9.747183799743652,-0.2637462615966797,1.045587182044983
1751281724645631500,2.207631591796875,9.747751235961914,-0.2447161227464676,1.0449179410934448
1751281724664458200,2.226458251953125,9.748201370239258,-0.22833912074565887,1.0444190502166748
1751281724683285000,2.245284912109375,9.747478485107422,-0.2213108390569687,1.0526539087295532
1751281724702112000,2.264112060546875,9.746166229248047,-0.21750064194202423,1.0655200481414795
1751281724720938800,2.282938720703125,9.74485969543457,-0.21635060012340546,1.0776294469833374
1751281724739765500,2.301765625,9.742926597595215,-0.2282112091779709,1.0925610065460205
1751281724758592500,2.320592529296875,9.74116039276123,-0.25256502628326416,1.1028987169265747
1751281724777419300,2.339419189453125,9.739660263061523,-0.26970216631889343,1.1120572090148926
1751281724796246000,2.35824609375,9.736692428588867,-0.2808750569820404,1.1350420713424683
1751281724815072800,2.37707275390625,9.7345552444458,-0.2911474406719208,1.150680422782898
1751281724833899500,2.3958994140625,9.733306884765625,-0.3015468716621399,1.1585265398025513
1751281724852726500,2.4147265625,9.732870101928711,-0.3128621280193329,1.1591976881027222
1751281724871553300,2.43355322265625,9.732656478881836,-0.3241789638996124,1.157872200012207
1751281724890380000,2.452380126953125,9.732861518859863,-0.3368338346481323,1.1525355577468872
1751281724909207000,2.47120703125,9.733786582946777,-0.34385931491851807,1.1426033973693848
1751281724928033800,2.49003369140625,9.736856460571289,-0.33781591057777405,1.117984652519226
1751281724946860500,2.508860595703125,9.740690231323242,-0.3216041922569275,1.0890055894851685
1751281724965687300,2.527687255859375,9.743730545043945,-0.3172916769981384,1.062751054763794
1751281724984514000,2.54651416015625,9.747278213500977,-0.3223666548728943,1.02811861038208
1751281725003341000,2.565341064453125,9.753362655639648,-0.31684058904647827,0.9705272316932678
1751281725022167800,2.584167724609375,9.759602546691895,-0.29300808906555176,0.9136161208152771
1751281725040994600,2.60299462890625,9.763527870178223,-0.27892473340034485,0.8752840161323547
1751281725059821600,2.621821533203125,9.76328182220459,-0.28580862283706665,0.8757951855659485
1751281725078648300,2.6406484375,9.759249687194824,-0.3051654100418091,0.913407564163208
1751281725097475000,2.65947509765625,9.755106925964355,-0.3249778151512146,0.9500914812088013
1751281725116301800,2.6783017578125,9.753778457641602,-0.338001012802124,0.9591469764709473
1751281725135128800,2.69712890625,9.752257347106934,-0.34020110964775085,0.9737155437469482
1751281725153955600,2.71595556640625,9.74976921081543,-0.32458898425102234,1.0035136938095093
1751281725172782300,2.7347822265625,9.750480651855469,-0.32045018672943115,0.9979034066200256
1751281725191609000,2.753609130859375,9.749823570251465,-0.32984641194343567,1.001264214515686
1751281725210436000,2.77243603515625,9.748041152954102,-0.33575332164764404,1.0165406465530396
1751281725229262800,2.791262939453125,9.747750282287598,-0.3300689160823822,1.0211808681488037
1751281725248089600,2.810089599609375,9.748872756958008,-0.31188687682151794,1.0161632299423218
1751281725266916400,2.828916259765625,9.749671936035156,-0.2984161376953125,1.0125389099121094
1751281725285743400,2.847743408203125,9.748980522155762,-0.29786938428878784,1.0193347930908203
1751281725304570000,2.866570068359375,9.747892379760742,-0.2910011410713196,1.0316404104232788
1751281725323396900,2.88539697265625,9.74808406829834,-0.2684544622898102,1.0359418392181396
1751281725342223600,2.9042236328125,9.749307632446289,-0.2428932785987854,1.0307185649871826
1751281725361050600,2.923050537109375,9.75049114227295,-0.22559337317943573,1.0234273672103882
1751281725379877400,2.94187744140625,9.750880241394043,-0.22357521951198578,1.0201592445373535
1751281725398704000,2.9607041015625,9.75074291229248,-0.22364124655723572,1.0214720964431763
1751281725417531000,2.97953076171875,9.748282432556152,-0.22816146910190582,1.043701410293579
1751281725436358000,2.99835791015625,9.744783401489258,-0.231260284781456,1.0752145051956177
1751281725455184600,3.0171845703125,9.745206832885742,-0.21872583031654358,1.0740026235580444
1751281725474011400,3.036011474609375,9.746553421020508,-0.20371758937835693,1.0646954774856567
1751281725492838100,3.054838134765625,9.74701976776123,-0.2113066464662552,1.0589423179626465
1751281725511665200,3.0736650390625,9.746651649475098,-0.24080906808376312,1.0560206174850464
1751281725530492000,3.092491943359375,9.74659538269043,-0.2662656605243683,1.0504192113876343
1751281725549318700,3.111318603515625,9.745903968811035,-0.2683616876602173,1.0562849044799805
1751281725568145700,3.130145751953125,9.744754791259766,-0.2639012634754181,1.067947268486023
1751281725586972400,3.148972412109375,9.743431091308594,-0.2647539973258972,1.0797388553619385
1751281725605799200,3.167799072265625,9.742348670959473,-0.26947447657585144,1.0883036851882935
1751281725624626000,3.1866259765625,9.744373321533203,-0.2744487226009369,1.0687730312347412
1751281725643453000,3.205452880859375,9.741449356079102,-0.2852368950843811,1.0923374891281128
1751281725662279700,3.22427978515625,9.73991870880127,-0.32344725728034973,1.0953221321105957
1751281725681106400,3.2431064453125,9.736916542053223,-0.3584240674972534,1.1110278367996216
1751281725699933200,3.26193310546875,9.734923362731934,-0.37273845076560974,1.1237093210220337
1751281725718760200,3.28076025390625,9.736495018005371,-0.36236125230789185,1.1134376525878906
1751281725737587000,3.2995869140625,9.739154815673828,-0.3494454324245453,1.0941425561904907
1751281725756413700,3.31841357421875,9.739596366882324,-0.3483142554759979,1.090566635131836
1751281725775240400,3.337240478515625,9.73920726776123,-0.36016619205474854,1.090186595916748
1751281725794067500,3.3560673828125,9.739773750305176,-0.3700530230998993,1.081786870956421
1751281725812894200,3.374894287109375,9.7413969039917,-0.3696615397930145,1.0672053098678589
1751281725831721000,3.393720947265625,9.743813514709473,-0.3598240613937378,1.0483410358428955
1751281725850548000,3.4125478515625,9.74467945098877,-0.35443609952926636,1.0421005487442017
1751281725869374700,3.431374755859375,9.743049621582031,-0.34119054675102234,1.0615845918655396
1751281725888201500,3.450201416015625,9.744985580444336,-0.3241056203842163,1.0490930080413818
1751281725907028200,3.4690283203125,9.746376991271973,-0.32126325368881226,1.0369675159454346
1751281725925855200,3.487855224609375,9.746667861938477,-0.32183605432510376,1.034057855606079
1751281725944682000,3.506681884765625,9.748465538024902,-0.3072466552257538,1.0214715003967285
1751281725963508700,3.5255087890625,9.752129554748535,-0.2754306197166443,0.9952347874641418
1751281725982335500,3.54433544921875,9.755258560180664,-0.2509549856185913,0.9707413911819458
1751281726001162500,3.56316259765625,9.755363464355469,-0.25795552134513855,0.9678587913513184
1751281726019989200,3.5819892578125,9.750784873962402,-0.2742783725261688,1.0086380243301392
1751281726038816000,3.60081591796875,9.749022483825684,-0.2643003463745117,1.0281503200531006
1751281726057643000,3.61964306640625,9.751018524169922,-0.22660990059375763,1.0181723833084106
1751281726076469800,3.6384697265625,9.752140998840332,-0.2173100709915161,1.009413480758667
1751281726095296500,3.657296630859375,9.74910831451416,-0.2364397943019867,1.0341007709503174
1751281726114123300,3.676123291015625,9.748204231262207,-0.2428693175315857,1.041118860244751
1751281726132950300,3.6949501953125,9.748884201049805,-0.24112948775291443,1.035131812095642
1751281726151777000,3.713777099609375,9.747611045837402,-0.2568104565143585,1.0433236360549927
1751281726170603800,3.732603759765625,9.746139526367188,-0.28029510378837585,1.0509920120239258
1751281726189430800,3.7514306640625,9.747364044189453,-0.2814106047153473,1.0392662286758423
1751281726208257500,3.770257568359375,9.749263763427734,-0.2507193982601166,1.0292593240737915
1751281726227084300,3.789084228515625,9.749205589294434,-0.23106344044208527,1.0344021320343018
1751281726245911000,3.8079111328125,9.747065544128418,-0.2511037290096283,1.0497792959213257
1751281726264738000,3.826738037109375,9.741000175476074,-0.29271072149276733,1.0943533182144165
1751281726283564800,3.845564697265625,9.733735084533691,-0.3346792161464691,1.1457659006118774
1751281726302391600,3.8643916015625,9.727502822875977,-0.3677888512611389,1.1877708435058594
1751281726321218300,3.88321826171875,9.724148750305176,-0.3883998394012451,1.208500623703003
1751281726340045300,3.90204541015625,9.725106239318848,-0.3966961205005646,1.1980528831481934
1751281726358872000,3.9208720703125,9.728271484375,-0.3941690921783447,1.172924518585205
1751281726377698800,3.93969873046875,9.728974342346191,-0.39757028222084045,1.1659259796142578
1751281726396525800,3.95852587890625,9.728236198425293,-0.4087319076061249,1.168225646018982
1751281726415352600,3.9773525390625,9.728631973266602,-0.41643744707107544,1.1621862649917603
1751281726434179300,3.996179443359375,9.731368064880371,-0.41417786478996277,1.1398800611495972
1751281726453006000,4.015006103515625,9.735276222229004,-0.40290069580078125,1.110155701637268
1751281726471833000,4.0338330078125,9.739655494689941,-0.39172837138175964,1.0751994848251343
1751281726490659800,4.052659912109375,9.743900299072266,-0.3877790570259094,1.037506341934204
1751281726509486600,4.071486572265625,9.746342658996582,-0.39174410700798035,1.0127755403518677
1751281726528313600,4.090313720703125,9.746129989624023,-0.3976171910762787,1.01254141330719
1751281726547140400,4.109140380859375,9.74575424194336,-0.3793332874774933,1.0231081247329712
1751281726565967000,4.127967041015625,9.746347427368164,-0.3516094386577606,1.0273607969284058
1751281726584793900,4.1467939453125,9.74673080444336,-0.3421682119369507,1.0269138813018799
1751281726603620900,4.165620849609375,9.745594024658203,-0.3533026874065399,1.0339009761810303
1751281726622447600,4.184447509765625,9.743374824523926,-0.3673069179058075,1.0498204231262207
1751281726641274400,4.2032744140625,9.742249488830566,-0.3653278648853302,1.0608958005905151
1751281726660101000,4.22210107421875,9.743329048156738,-0.33779507875442505,1.0601019859313965
1751281726678928100,4.24092822265625,9.745331764221191,-0.3083430528640747,1.0506298542022705
1751281726697755000,4.2597548828125,9.745885848999023,-0.2994297742843628,1.0480687618255615
1751281726716581600,4.27858154296875,9.742318153381348,-0.3002549707889557,1.0804944038391113
1751281726735408600,4.29740869140625,9.74162769317627,-0.2856029272079468,1.09064519405365
1751281726754235400,4.3162353515625,9.742912292480469,-0.2628129720687866,1.084887981414795
1751281726773062100,4.335062255859375,9.741987228393555,-0.2573431134223938,1.094457983970642
1751281726791889000,4.353888916015625,9.741020202636719,-0.2642054855823517,1.1014153957366943
1751281726810716000,4.3727158203125,9.74191951751709,-0.2656027674674988,1.0930931568145752
1751281726829542700,4.391542724609375,9.74273681640625,-0.2591664791107178,1.0873345136642456
1751281726848369400,4.410369384765625,9.743342399597168,-0.25805285573005676,1.0821590423583984
1751281726867196400,4.429196533203125,9.744620323181152,-0.25559577345848083,1.0711818933486938
1751281726886023200,4.448023193359375,9.745965003967285,-0.24649281799793243,1.061037302017212
1751281726904850000,4.466849853515625,9.748064041137695,-0.2358158975839615,1.0440421104431152
1751281726923676700,4.4856767578125,9.74925708770752,-0.2361314445734024,1.0327731370925903
1751281726942503700,4.504503662109375,9.748756408691406,-0.24605116248130798,1.035179615020752
1751281726961330400,4.523330322265625,9.747387886047363,-0.24634334444999695,1.0479134321212769
1751281726980157200,4.5421572265625,9.748531341552734,-0.2395530492067337,1.038811445236206
1751281726998984000,4.56098388671875,9.75028133392334,-0.234465092420578,1.0234440565109253
1751281727017811000,4.57981103515625,9.749651908874512,-0.22596566379070282,1.031309723854065
1751281727036637700,4.5986376953125,9.74647331237793,-0.23332861065864563,1.05933678150177
1751281727055464400,4.61746435546875,9.7431640625,-0.2672634422779083,1.0815283060073853
1751281727074291500,4.63629150390625,9.74190616607666,-0.3020000159740448,1.0837186574935913
1751281727093118200,4.6551181640625,9.742012023925781,-0.31629303097724915,1.0786817073822021
1751281727111945000,4.673945068359375,9.740056037902832,-0.32865020632743835,1.0925532579421997
1751281727130771700,4.692771728515625,9.738299369812012,-0.34183692932128906,1.1041138172149658
1751281727149598700,4.7115986328125,9.7383394241333,-0.36104556918144226,1.0976344347000122
1751281727168425500,4.730425537109375,9.740204811096191,-0.37806418538093567,1.0751121044158936
1751281727187252200,4.749252197265625,9.741421699523926,-0.3805817663669586,1.0631340742111206
1751281727206079200,4.768079345703125,9.741975784301758,-0.3919409513473511,1.0538904666900635
1751281727224906000,4.786906005859375,9.743589401245117,-0.40018293261528015,1.035721778869629
1751281727243732700,4.805732666015625,9.746933937072754,-0.40772438049316406,1.000719666481018
1751281727262559700,4.824559814453125,9.749363899230957,-0.40512213110923767,0.9778436422348022
1751281727281386500,4.843386474609375,9.751106262207031,-0.39581653475761414,0.9641817808151245
1751281727300213200,4.862213134765625,9.751726150512695,-0.39041948318481445,0.9600942730903625
1751281727319040000,4.8810400390625,9.75245189666748,-0.3846743106842041,0.9550333023071289
1751281727337867000,4.899866943359375,9.752121925354004,-0.38433966040611267,0.9585343599319458
1751281727356693800,4.91869384765625,9.750446319580078,-0.3948800265789032,0.9712146520614624
1751281727375520500,4.9375205078125,9.749709129333496,-0.39384782314300537,0.9790048003196716
1751281727394347300,4.95634716796875,9.750804901123047,-0.3760787844657898,0.9750663638114929
1751281727413174300,4.97517431640625,9.752157211303711,-0.35515329241752625,0.9693781137466431
1751281727432001000,4.9940009765625,9.752857208251953,-0.3434261083602905,0.966554582118988
1751281727450827800,5.012827880859375,9.753252029418945,-0.3400074541568756,0.9637718796730042
1751281727469654800,5.03165478515625,9.753517150878906,-0.33108532428741455,0.9641973376274109
1751281727488481500,5.0504814453125,9.754223823547363,-0.3135063946247101,0.9629161953926086
1751281727507308300,5.069308349609375,9.755244255065918,-0.29590240120887756,0.958146870136261
1751281727526135000,5.088135009765625,9.757366180419922,-0.27706485986709595,0.9420346617698669
1751281727544962000,5.106962158203125,9.76007080078125,-0.25992685556411743,0.918616771697998
1751281727563788800,5.125788818359375,9.760433197021484,-0.25908467173576355,0.9149825572967529
1751281727582615600,5.144615478515625,9.759295463562012,-0.2723313570022583,0.9232419729232788
1751281727601442600,5.163442626953125,9.755768775939941,-0.29085132479667664,0.9543466567993164
1751281727620269300,5.182269287109375,9.756400108337402,-0.27791985869407654,0.9517411589622498
1751281727639096000,5.201095947265625,9.757270812988281,-0.2689797878265381,0.9453538060188293
1751281727657923000,5.219923095703125,9.75670337677002,-0.2727612853050232,0.9501143097877502
1751281727676749800,5.238749755859375,9.754979133605957,-0.2805890738964081,0.9654314517974854
1751281727695576600,5.25757666015625,9.753724098205566,-0.2855052351951599,0.9765954613685608
1751281727714403300,5.2764033203125,9.752626419067383,-0.2806498408317566,0.9888829588890076
1751281727733230300,5.295230224609375,9.751944541931152,-0.2764899730682373,0.9967516660690308
1751281727752057000,5.31405712890625,9.751381874084473,-0.2859719395637512,0.999578595161438
1751281727770883800,5.3328837890625,9.751214027404785,-0.30885109305381775,0.994391143321991
1751281727799124200,5.361124267578125,9.750597953796387,-0.3336285650730133,0.9924291372299194
1751281727817951000,5.379950927734375,9.75002384185791,-0.3419686257839203,0.9952370524406433
1751281727836777700,5.39877783203125,9.748770713806152,-0.3539462387561798,1.0032877922058105
1751281727855604700,5.417604736328125,9.748091697692871,-0.3713443875312805,1.0035954713821411
1751281727874431500,5.436431396484375,9.748419761657715,-0.3869090974330902,0.9944859743118286
1751281727893258200,5.45525830078125,9.747604370117188,-0.39378803968429565,0.9997602105140686
1751281727912085000,5.4740849609375,9.747091293334961,-0.39713233709335327,1.0034434795379639
1751281727930912000,5.492912109375,9.747554779052734,-0.39537155628204346,0.9996255040168762
1751281727949738800,5.51173876953125,9.748577117919922,-0.39034581184387207,0.9916014671325684
1751281727968565500,5.5305654296875,9.749922752380371,-0.3902844786643982,0.9782970547676086
1751281727987392500,5.549392578125,9.750500679016113,-0.40155625343322754,0.9679146409034729
1751281728006219300,5.56821923828125,9.750218391418457,-0.4113725423812866,0.9666352272033691
1751281728025046000,5.5870458984375,9.750517845153809,-0.3964741826057434,0.9698451161384583
1751281728043873000,5.605873046875,9.750645637512207,-0.3762945234775543,0.9765695929527283
1751281728062699800,5.62469970703125,9.749608039855957,-0.3670300543308258,0.9903637170791626
1751281728081526500,5.643526611328125,9.748048782348633,-0.36438435316085815,1.0065630674362183
1751281728100353300,5.662353271484375,9.748039245605469,-0.3642391562461853,1.0067037343978882
1751281728119180300,5.68118017578125,9.749123573303223,-0.36655768752098083,0.9952971339225769
1751281728138007000,5.700007080078125,9.749549865722656,-0.36694929003715515,0.9909694194793701
1751281728156833800,5.718833740234375,9.750553131103516,-0.3551851212978363,0.9853619337081909
1751281728175660500,5.73766064453125,9.753371238708496,-0.33129099011421204,0.9656023383140564
1751281728194487600,5.756487548828125,9.75490951538086,-0.3130740523338318,0.9560859799385071
1751281728213314300,5.775314208984375,9.753579139709473,-0.3084389269351959,0.9710455536842346
1751281728232141000,5.79414111328125,9.752228736877441,-0.30477049946784973,0.9856687784194946
1751281728250968000,5.812968017578125,9.752654075622559,-0.2913950979709625,0.9854983687400818
1751281728269794800,5.831794921875,9.752893447875977,-0.2815870940685272,0.9859897494316101
1751281728288621600,5.85062158203125,9.752126693725586,-0.2881849706172943,0.9916455149650574
1751281728307448600,5.869448486328125,9.75136661529541,-0.2982526421546936,0.9961349368095398
1751281728326275300,5.888275390625,9.75128173828125,-0.2995401918888092,0.9965800642967224
1751281728345102000,5.90710205078125,9.751842498779297,-0.2930518090724945,0.9930126070976257
1751281728363928800,5.9259287109375,9.752278327941895,-0.28750666975975037,0.9903546571731567
1751281728382755800,5.944755859375,9.751327514648438,-0.2910037934780121,0.9986537098884583
1751281728401582600,5.96358251953125,9.750283241271973,-0.29981517791748047,1.0062282085418701
1751281728420409300,5.982409423828125,9.751891136169434,-0.2900688648223877,0.9934223294258118
1751281728439236400,6.001236328125,9.754047393798828,-0.2660781443119049,0.9788542985916138
1751281728458063000,6.02006298828125,9.758955001831055,-0.24611909687519073,0.9341395497322083
1751281728476889900,6.038889892578125,9.763710021972656,-0.22447070479393005,0.8888020515441895
1751281728495716600,6.057716552734375,9.76434326171875,-0.21842101216316223,0.8833321928977966
1751281728514543600,6.076543701171875,9.759370803833008,-0.255894273519516,0.9271400570869446
1751281728533370400,6.095370361328125,9.753571510314941,-0.30739837884902954,0.9714637398719788
1751281728552197000,6.114197021484375,9.750038146972656,-0.3455565869808197,0.9938458204269409
1751281728571024100,6.133024169921875,9.747745513916016,-0.362282931804657,1.0102415084838867
1751281728589851000,6.151850830078125,9.74521255493164,-0.38895782828330994,1.0246599912643433
1751281728608677600,6.170677734375,9.744525909423828,-0.4167274832725525,1.020266056060791
1751281728627504600,6.189504638671875,9.744269371032715,-0.42876341938972473,1.017728567123413
1751281728646331400,6.208331298828125,9.7433500289917,-0.43526676297187805,1.0237432718276978
1751281728665158100,6.227158203125,9.744245529174805,-0.4373408257961273,1.0142978429794312
1751281728683985000,6.24598486328125,9.746009826660156,-0.4381188154220581,0.9968618154525757
1751281728702812000,6.26481201171875,9.747602462768555,-0.43222224712371826,0.9837702512741089
1751281728721638700,6.283638671875,9.748388290405273,-0.4177672564983368,0.9822335243225098
1751281728740465400,6.30246533203125,9.747511863708496,-0.3997507393360138,0.9982928037643433
1751281728759292400,6.32129248046875,9.747325897216797,-0.3894536793231964,1.0041590929031372
1751281728778119200,6.340119140625,9.746685981750488,-0.39255547523498535,1.0091564655303955
1751281728796946000,6.35894580078125,9.747041702270508,-0.39286118745803833,1.0055904388427734
1751281728815773000,6.37777294921875,9.750099182128906,-0.3800014853477478,0.9805877208709717
1751281728834599700,6.396599609375,9.753955841064453,-0.36553674936294556,0.9471651911735535
1751281728853426400,6.415426513671875,9.75493335723877,-0.3629424273967743,0.9380515813827515
1751281728872253200,6.434253173828125,9.75451946258545,-0.36282092332839966,0.9423946142196655
1751281728891080200,6.453080078125,9.755784034729004,-0.3479284644126892,0.9348800182342529
1751281728909907000,6.471906982421875,9.75775146484375,-0.3199995458126068,0.9242677688598633
1751281728928733700,6.490733642578125,9.760443687438965,-0.2929829955101013,0.9045954346656799
1751281728947560400,6.509560546875,9.76327133178711,-0.2765969932079315,0.8788624405860901
1751281728966387500,6.528387451171875,9.763272285461426,-0.2727019786834717,0.8800828456878662
1751281728985214200,6.547214111328125,9.760438919067383,-0.2778538167476654,0.9094026684761047
1751281729004041000,6.566041015625,9.756600379943848,-0.2733592391014099,0.9510007500648499
1751281729022868000,6.584867919921875,9.755547523498535,-0.2485780566930771,0.9684386849403381
1751281729041694700,6.60369482421875,9.756818771362305,-0.22315552830696106,0.9618039727210999
1751281729060521500,6.622521484375,9.757004737854004,-0.2268253117799759,0.9590619802474976
1751281729079348500,6.641348388671875,9.756464004516602,-0.23297834396362305,0.9630736112594604
1751281729098175200,6.66017529296875,9.756845474243164,-0.23610560595989227,0.9584441781044006
1751281729117002000,6.679001953125,9.757360458374023,-0.24192744493484497,0.9517261981964111
1751281729135828700,6.697828857421875,9.756966590881348,-0.24159376323223114,0.955832302570343
1751281729154655700,6.71665576171875,9.757132530212402,-0.2328282594680786,0.9563106894493103
1751281729173482500,6.735482421875,9.757218360900879,-0.23296426236629486,0.955405592918396
1751281729192309200,6.754309326171875,9.756184577941895,-0.24784235656261444,0.9622031450271606
1751281729211136300,6.77313623046875,9.75500774383545,-0.2640599310398102,0.9697836637496948
1751281729229963000,6.791962890625,9.753299713134766,-0.2905222177505493,0.9793491959571838
1751281729248789800,6.810789794921875,9.751011848449707,-0.32018065452575684,0.9927923679351807
1751281729267616800,6.82961669921875,9.749824523925781,-0.3388039171695709,0.9982569813728333
1751281729286443500,6.848443603515625,9.750030517578125,-0.3497498631477356,0.9924610257148743
1751281729305270300,6.867270263671875,9.749517440795898,-0.36642950773239136,0.9914790391921997
1751281729324097000,6.886096923828125,9.747465133666992,-0.3946034610271454,1.0007985830307007
1751281729342924000,6.904924072265625,9.745901107788086,-0.4187665283679962,1.0061873197555542
1751281729361750800,6.923750732421875,9.74587631225586,-0.42535722255706787,1.0036671161651611
1751281729380577500,6.94257763671875,9.746334075927734,-0.4269222915172577,0.9985430836677551
1751281729399404500,6.961404541015625,9.746821403503418,-0.4308395981788635,0.992088794708252
1751281729418231300,6.980231201171875,9.74792766571045,-0.4294726550579071,0.9817593097686768
1751281729437058000,6.99905810546875,9.749632835388184,-0.42172351479530334,0.9680885672569275
1751281729455885000,7.017885009765625,9.751773834228516,-0.41618844866752625,0.9487285614013672
1751281729474711800,7.0367119140625,9.752453804016113,-0.4238436818122864,0.9382935762405396
1751281729493538600,7.05553857421875,9.750018119812012,-0.4483364224433899,0.9521118998527527
1751281729512365300,7.074365234375,9.748204231262207,-0.45527610182762146,0.9672750234603882
1751281729531192300,7.0931923828125,9.749401092529297,-0.43120792508125305,0.966248095035553
1751281729550019000,7.11201904296875,9.750702857971191,-0.4043295085430145,0.964729905128479
1751281729568845800,7.130845703125,9.750568389892578,-0.3898281455039978,0.9720235466957092
1751281729587672600,7.149672607421875,9.751259803771973,-0.3773399293422699,0.9700210094451904
1751281729606499600,7.16849951171875,9.753271102905273,-0.360458642244339,0.9561185836791992
1751281729625326300,7.187326416015625,9.754918098449707,-0.3491809368133545,0.9434080719947815
1751281729644153000,7.206153076171875,9.754570960998535,-0.34370800852775574,0.9489928483963013
1751281729662980000,7.22497998046875,9.753898620605469,-0.3307686448097229,0.9604460597038269
1751281729681806800,7.243806884765625,9.754364967346191,-0.3060039281845093,0.9639074206352234
1751281729700633600,7.262633544921875,9.755220413208008,-0.28281471133232117,0.9623225927352905
1751281729719460600,7.281460693359375,9.755650520324707,-0.269934743642807,0.9616739153862
1751281729738287400,7.300287353515625,9.755244255065918,-0.2613265812397003,0.968147337436676
1751281729757114000,7.319114013671875,9.7550048828125,-0.24821864068508148,0.9739891290664673
1751281729785354200,7.347354248046875,9.753398895263672,-0.24012857675552368,0.9919403791427612
1751281729804181200,7.36618115234375,9.75289249420166,-0.23914021253585815,0.9971364736557007
1751281729823008000,7.385008056640625,9.75347900390625,-0.23621559143066406,0.9920887351036072
1751281729841835000,7.4038349609375,9.754068374633789,-0.23703214526176453,0.9860871434211731
1751281729860661800,7.422661865234375,9.754298210144043,-0.24703289568424225,0.9813349843025208
1751281729879488500,7.441488525390625,9.75476360321045,-0.2516038119792938,0.9755352139472961
1751281729898315300,7.460315185546875,9.755143165588379,-0.2412962019443512,0.9743396639823914
1751281729917142300,7.479142333984375,9.756017684936523,-0.23612923920154572,0.9668291807174683
1751281729935969000,7.497968994140625,9.754880905151367,-0.24975605309009552,0.9748322367668152
1751281729954795800,7.516795654296875,9.753467559814453,-0.2709803581237793,0.9832838177680969
1751281729973622500,7.53562255859375,9.752593040466309,-0.2928490936756134,0.9856745004653931
1751281729992449500,7.554449462890625,9.751948356628418,-0.31216859817504883,0.9861281514167786
1751281730011276300,7.5732763671875,9.752397537231445,-0.32961469888687134,0.9759513139724731
1751281730030103000,7.59210302734375,9.752182960510254,-0.34778153896331787,0.9717825055122375
1751281730048930000,7.610929931640625,9.752073287963867,-0.36496222019195557,0.9665738344192505
1751281730067756800,7.6297568359375,9.753141403198242,-0.37253713607788086,0.9527977108955383
1751281730086583600,7.64858349609375,9.753786087036133,-0.3802294433116913,0.9431114196777344
1751281730105410600,7.66741064453125,9.753205299377441,-0.3985430598258972,0.9415620565414429
1751281730124237300,7.6862373046875,9.752832412719727,-0.4191385507583618,0.9364656805992126
1751281730143064000,7.70506396484375,9.753384590148926,-0.4264335334300995,0.9273776412010193
1751281730161890800,7.723890869140625,9.754179954528809,-0.4259032905101776,0.9192200899124146
1751281730180717800,7.7427177734375,9.75447940826416,-0.42379119992256165,0.9170175194740295
1751281730199544600,7.761544677734375,9.75355339050293,-0.41122061014175415,0.9324597716331482
1751281730218371300,7.780371337890625,9.75380802154541,-0.39335933327674866,0.9374914169311523
1751281730237198300,7.7991982421875,9.753878593444824,-0.3803713619709015,0.9421018362045288
1751281730256025000,7.818025146484375,9.75335693359375,-0.37754616141319275,0.9486153721809387
1751281730274851800,7.836851806640625,9.751529693603516,-0.36640849709510803,0.9714930653572083
1751281730293678600,7.8556787109375,9.752992630004883,-0.34739965200424194,0.963769793510437
1751281730312505600,7.874505615234375,9.754329681396484,-0.33928990364074707,0.9530587196350098
1751281730331332400,7.893332275390625,9.754940032958984,-0.3478364646434784,0.9436825513839722
1751281730350159000,7.9121591796875,9.75480842590332,-0.3522377014160156,0.9434069395065308
1751281730368986000,7.930986083984375,9.754638671875,-0.3281073570251465,0.9538044333457947
1751281730387812900,7.949812744140625,9.756325721740723,-0.2750152349472046,0.9533398151397705
1751281730406639600,7.9686396484375,9.756525039672852,-0.23493294417858124,0.9619861245155334
1751281730425466600,7.987466552734375,9.75456714630127,-0.23750779032707214,0.98102205991745
1751281730444293400,8.00629345703125,9.754345893859863,-0.24382002651691437,0.9816733598709106
1751281730463120100,8.0251201171875,9.754362106323242,-0.2366475611925125,0.9832659959793091
1751281730481947000,8.04394677734375,9.754322052001953,-0.22767849266529083,0.9857677221298218
1751281730500774000,8.06277392578125,9.753253936767578,-0.221791610121727,0.9976109862327576
1751281730519600600,8.0816005859375,9.75322151184082,-0.2218097299337387,0.9979243874549866
1751281730538427400,8.100427490234376,9.75418758392334,-0.22622357308864594,0.9874329566955566
1751281730557254100,8.119254150390624,9.755066871643066,-0.22492912411689758,0.9790109992027283
1751281730576081200,8.1380810546875,9.756147384643555,-0.2355387657880783,0.965663492679596
1751281730594908000,8.156907958984375,9.754846572875977,-0.2621188759803772,0.9719293713569641
1751281730613734700,8.175734619140625,9.752371788024902,-0.2860865294933319,0.9898458123207092
1751281730632561700,8.194561767578126,9.749429702758789,-0.30297839641571045,1.013515591621399
1751281730651388400,8.213388427734374,9.748226165771484,-0.3247829079627991,1.018331527709961
1751281730670215200,8.232215087890625,9.748129844665527,-0.34860196709632874,1.0113532543182373
1751281730689042200,8.251042236328125,9.749814987182617,-0.36893656849861145,0.987610936164856
1751281730707869000,8.269868896484375,9.750266075134277,-0.3822888731956482,0.978041410446167
1751281730726695700,8.28869580078125,9.74887752532959,-0.3960057199001312,0.9863831400871277
1751281730745522400,8.3075224609375,9.748431205749512,-0.40595176815986633,0.9867569804191589
1751281730764349400,8.326349365234375,9.752494812011719,-0.417827844619751,0.9405626058578491
1751281730783176200,8.34517626953125,9.751031875610352,-0.4246801733970642,0.95259028673172
1751281730802003000,8.3640029296875,9.748675346374512,-0.42995744943618774,0.9740862846374512
1751281730820830000,8.382829833984376,9.749496459960938,-0.4401053786277771,0.961260199546814
1751281730839656700,8.40165673828125,9.748425483703613,-0.43847355246543884,0.9727951884269714
1751281730858483500,8.4204833984375,9.747247695922852,-0.4029105305671692,0.9996126294136047
1751281730877310200,8.439310302734375,9.747711181640625,-0.3507055640220642,1.0146620273590088
1751281730896137200,8.45813720703125,9.748353004455566,-0.31787803769111633,1.0192841291427612
1751281730914964000,8.4769638671875,9.74881649017334,-0.3211442530155182,1.0138120651245117
1751281730933790700,8.495790771484375,9.749213218688965,-0.3125896751880646,1.0126781463623047
1751281730952617700,8.51461767578125,9.752334594726562,-0.2985873222351074,0.9865132570266724
1751281730971444500,8.533444580078125,9.752080917358398,-0.29462265968322754,0.9902015328407288
1751281730990271200,8.552271240234376,9.750487327575684,-0.2841045558452606,1.0088030099868774
1751281731009098200,8.57109814453125,9.751938819885254,-0.25854024291038513,1.0016148090362549
1751281731027925000,8.589925048828125,9.753801345825195,-0.24624083936214447,0.9864600896835327
1751281731046751700,8.608751708984375,9.751962661743164,-0.2461308240890503,1.0045005083084106
1751281731065578500,8.62757861328125,9.750496864318848,-0.24178098142147064,1.019676685333252
1751281731084405500,8.646405517578126,9.75011920928955,-0.23359936475753784,1.0251686573028564
1751281731103232300,8.665232177734374,9.750642776489258,-0.2282772958278656,1.0213913917541504
1751281731122059000,8.68405908203125,9.749878883361816,-0.2260667383670807,1.0291467905044556
1751281731140885800,8.7028857421875,9.74928092956543,-0.2243930995464325,1.035164475440979
1751281731159712800,8.721712646484375,9.748812675476074,-0.22336624562740326,1.039783000946045
1751281731178539500,8.74053955078125,9.748247146606445,-0.22266769409179688,1.0452252626419067
1751281731197366300,8.7593662109375,9.747803688049316,-0.22232788801193237,1.0494152307510376
1751281731216193300,8.778193359375,9.747346878051758,-0.2224479764699936,1.0536308288574219
1751281731235020000,8.79702001953125,9.74697494506836,-0.22348518669605255,1.0568491220474243
1751281731253846800,8.8158466796875,9.746984481811523,-0.2240770012140274,1.056627869606018
1751281731272673800,8.834673828125,9.747029304504395,-0.22353394329547882,1.0563268661499023
1751281731291500500,8.85350048828125,9.74692440032959,-0.22388869524002075,1.0572254657745361
1751281731310327300,8.872327392578125,9.746971130371094,-0.22440968453884125,1.0566799640655518
1751281731329154000,8.891154052734375,9.746882438659668,-0.22478671371936798,1.0574301481246948
1751281731347981000,8.90998095703125,9.7468843460083,-0.22547714412212372,1.0572577714920044
1751281731366807800,8.928807861328124,9.746827125549316,-0.22585928440093994,1.0577045679092407
1751281731395048000,8.9570478515625,9.746798515319824,-0.2263542115688324,1.0578601360321045
1751281731413875000,8.975875,9.746759414672852,-0.2276337444782257,1.0579473972320557
1751281731432701700,8.99470166015625,9.746851921081543,-0.2199651151895523,1.0587165355682373
1751281731451528400,9.013528564453125,9.749117851257324,-0.21231964230537415,1.0392372608184814
1751281731470355500,9.03235546875,9.749488830566406,-0.21147319674491882,1.0359227657318115
1751281731489182200,9.05118212890625,9.747501373291016,-0.21805515885353088,1.053119421005249
1751281731508009000,9.070009033203124,9.747773170471191,-0.22058704495429993,1.0500715970993042
1751281731526835700,9.088835693359375,9.750048637390137,-0.20539045333862305,1.0318591594696045
1751281731545662700,9.107662841796875,9.750702857971191,-0.20065580308437347,1.0266036987304688
1751281731564489500,9.126489501953126,9.747364044189453,-0.22182868421077728,1.053601861000061
1751281731583316200,9.145316162109374,9.743189811706543,-0.24666738510131836,1.0861825942993164
1751281731602143200,9.164143310546875,9.739858627319336,-0.2624620199203491,1.112051010131836
1751281731620970000,9.182969970703125,9.738059043884277,-0.2743622362613678,1.1248561143875122
1751281731639796700,9.201796630859375,9.73769474029541,-0.27758076786994934,1.1272372007369995
1751281731658623700,9.220623779296876,9.737542152404785,-0.2834532856941223,1.127087116241455
1751281731677450500,9.239450439453124,9.736513137817383,-0.2966976761817932,1.1325569152832031
1751281731696277200,9.25827734375,9.734626770019531,-0.3111630976200104,1.1448115110397339
1751281731715104000,9.27710400390625,9.732949256896973,-0.3209129273891449,1.1563338041305542
1751281731733931000,9.295930908203125,9.731881141662598,-0.3286421597003937,1.1631224155426025
1751281731752757800,9.3147578125,9.731935501098633,-0.3321944773197174,1.1616567373275757
1751281731771584500,9.33358447265625,9.733196258544922,-0.32857653498649597,1.1520930528640747
1751281731790411500,9.35241162109375,9.735541343688965,-0.32129064202308655,1.1341975927352905
1751281731809238300,9.37123828125,9.738454818725586,-0.3120992183685303,1.1115148067474365
1751281731828065000,9.39006494140625,9.740869522094727,-0.30503395199775696,1.0921554565429688
1751281731846891800,9.408891845703126,9.742435455322266,-0.3018700182437897,1.0789881944656372
1751281731865718800,9.42771875,9.743600845336914,-0.30105236172676086,1.068642497062683
1751281731884545500,9.446545654296875,9.745226860046387,-0.29878121614456177,1.0543588399887085
1751281731903372300,9.465372314453125,9.747218132019043,-0.29180508852005005,1.037774682044983
1751281731922199000,9.484198974609376,9.748499870300293,-0.29295945167541504,1.0253337621688843
1751281731941026000,9.503026123046874,9.75051212310791,-0.2917425036430359,1.0063670873641968
1751281731959852800,9.521852783203125,9.75307559967041,-0.28199636936187744,0.9840619564056396
1751281731978679600,9.540679443359375,9.754497528076172,-0.27147066593170166,0.9728712439537048
1751281731997506600,9.559506591796875,9.753644943237305,-0.2741086184978485,0.980634868144989
1751281732016333300,9.578333251953126,9.753345489501953,-0.2763689160346985,0.9829756021499634
1751281732035160000,9.59716015625,9.752137184143066,-0.27012088894844055,0.996622622013092
1751281732053987000,9.615987060546875,9.749968528747559,-0.25141003727912903,1.0223981142044067
1751281732072813800,9.634813720703125,9.746527671813965,-0.24329350888729095,1.056586742401123
1751281732091640600,9.653640625,9.739150047302246,-0.23865406215190887,1.1235617399215698
1751281732110467300,9.67246728515625,9.747254371643066,-0.2246461659669876,1.0540187358856201
1751281732129294300,9.69129443359375,9.759903907775879,-0.18656675517559052,0.9380013942718506
1751281732148121000,9.71012109375,9.758712768554688,-0.18490953743457794,0.9506374597549438
1751281732166947800,9.72894775390625,9.757682800292969,-0.19927462935447693,0.9582697749137878
1751281732185774800,9.74777490234375,9.759783744812012,-0.19340218603610992,0.937875509262085
1751281732204601600,9.7666015625,9.761286735534668,-0.19425760209560394,0.9219195246696472
1751281732223428400,9.785428466796875,9.762337684631348,-0.19012553989887238,0.9115978479385376
1751281732242255000,9.804255126953125,9.7628755569458,-0.17331014573574066,0.9091787934303284
1751281732261082000,9.82308203125,9.761834144592285,-0.16931253671646118,0.9210404753684998
1751281732279908900,9.841908935546876,9.760265350341797,-0.17116625607013702,0.9371780157089233
1751281732298735600,9.860735595703124,9.758927345275879,-0.16637317836284637,0.9518710374832153
1751281732317562600,9.879562744140625,9.756648063659668,-0.1656188815832138,0.9750791192054749
1751281732336389400,9.898389404296875,9.755459785461426,-0.17096348106861115,0.9859814047813416
1751281732355216100,9.917216064453125,9.755106925964355,-0.1686563491821289,0.9898658990859985
1751281732374043100,9.936043212890626,9.753297805786133,-0.16441787779331207,1.008241891860962
1751281732392870000,9.954869873046874,9.751896858215332,-0.17728222906589508,1.019547462463379
1751281732411696600,9.973696533203125,9.750646591186523,-0.18577997386455536,1.0299346446990967
1751281732430523400,9.9925234375,9.750577926635742,-0.1874004304409027,1.0302897691726685
1751281732449350400,10.011350341796875,9.751008987426758,-0.19087852537631989,1.025564432144165
1751281732468177200,10.03017724609375,9.751824378967285,-0.19325344264507294,1.017327070236206
1751281732487004000,10.04900390625,9.752311706542969,-0.1958346962928772,1.0121527910232544
1751281732505830700,10.06783056640625,9.753732681274414,-0.1997985988855362,0.9975778460502625
1751281732524657700,10.08665771484375,9.753885269165039,-0.20677006244659424,0.994661271572113
1751281732543484400,10.105484375,9.748680114746094,-0.22539423406124115,1.0405926704406738
1751281732562311200,10.124311279296874,9.753190994262695,-0.24837030470371246,0.9919436573982239
1751281732581138200,10.14313818359375,9.754395484924316,-0.2404191493988037,0.9820197224617004
1751281732599965000,10.16196484375,9.755626678466797,-0.24151691794395447,0.9694294333457947
1751281732618791700,10.180791748046875,9.755131721496582,-0.2455204427242279,0.9733985662460327
1751281732637618400,10.199618408203126,9.75151538848877,-0.24814070761203766,1.0083489418029785
1751281732656445400,10.218445556640624,9.744752883911133,-0.27943676710128784,1.0639996528625488
1751281732675272200,10.237272216796875,9.739034652709961,-0.33555278182029724,1.0995488166809082
1751281732694099000,10.256098876953125,9.736318588256836,-0.38106057047843933,1.1087318658828735
1751281732712926000,10.274926025390625,9.739679336547852,-0.38842904567718506,1.0761810541152954
1751281732731752700,10.293752685546876,9.745184898376465,-0.35806357860565186,1.036118984222412
1751281732750579500,10.312579345703124,9.746747016906738,-0.3369939923286438,1.0284637212753296
1751281732769406500,10.331406494140625,9.74740982055664,-0.34652841091156006,1.0189775228500366
1751281732788233200,10.350233154296875,9.747811317443848,-0.35032883286476135,1.0138216018676758
1751281732807060000,10.36906005859375,9.749637603759766,-0.3472974896430969,0.997167706489563
1751281732825886700,10.38788671875,9.753637313842773,-0.33864760398864746,0.9603495001792908
1751281732844713700,10.406713623046874,9.757930755615234,-0.331817626953125,0.9181872606277466
1751281732863540500,10.42554052734375,9.759809494018555,-0.33154043555259705,0.8981055021286011
1751281732882367200,10.4443671875,9.758648872375488,-0.33995136618614197,0.9075230956077576
1751281732901194000,10.463194091796876,9.756880760192871,-0.3552820384502411,0.9205664396286011
1751281732920021000,10.48202099609375,9.755744934082031,-0.3626008927822113,0.9297149777412415
1751281732938847700,10.50084765625,9.755780220031738,-0.35785239934921265,0.9311723709106445
1751281732957674500,10.519674560546875,9.75809097290039,-0.34555259346961975,0.9113979935646057
1751281732976501500,10.53850146484375,9.757933616638184,-0.36198458075523376,0.9066914916038513
1751281732995328300,10.557328369140626,9.755487442016602,-0.4064270257949829,0.9141533970832825
1751281733014155000,10.576155029296874,9.753666877746582,-0.43609583377838135,0.9198819398880005
1751281733032982000,10.59498193359375,9.75595760345459,-0.43242669105529785,0.8970392346382141
1751281733051808800,10.613808837890625,9.758848190307617,-0.40910136699676514,0.8762940764427185
1751281733070635500,10.632635498046875,9.760259628295898,-0.38553720712661743,0.8712595701217651
1751281733089462300,10.651462158203126,9.76179027557373,-0.3613465130329132,0.8644514083862305
1751281733108289300,10.670289306640624,9.76287841796875,-0.3237152397632599,0.8670644164085388
1751281733127116000,10.689115966796875,9.76303482055664,-0.2703600823879242,0.8834181427955627
1751281733145942800,10.70794287109375,9.761853218078613,-0.22587022185325623,0.9086194634437561
1751281733164769800,10.726769775390625,9.758543014526367,-0.21401424705982208,0.9462668895721436
1751281733183596500,10.745596435546876,9.75267219543457,-0.23179970681667328,1.001009225845337
1751281733202423300,10.76442333984375,9.74749755859375,-0.253858745098114,1.0450968742370605
1751281733221250000,10.78325,9.743289947509766,-0.26815104484558105,1.0801786184310913
1751281733240077000,10.8020771484375,9.739960670471191,-0.27246934175491333,1.1087466478347778
1751281733258903800,10.82090380859375,9.73511791229248,-0.2832263112068176,1.1478904485702515
1751281733277730600,10.83973046875,9.727862358093262,-0.31572869420051575,1.1997495889663696
1751281733296557300,10.858557373046875,9.721569061279297,-0.345873087644577,1.241706371307373
1751281733315384300,10.87738427734375,9.72052001953125,-0.34917038679122925,1.2489842176437378
1751281733334211000,10.896211181640625,9.728404998779297,-0.33534738421440125,1.1899834871292114
1751281733353037800,10.915037841796876,9.737772941589355,-0.3097141683101654,1.1181424856185913
1751281733371864800,10.93386474609375,9.748392105102539,-0.2831259071826935,1.0291107892990112
1751281733390691600,10.952691650390625,9.759190559387207,-0.2648873031139374,0.926509439945221
1751281733409518300,10.971518310546875,9.765491485595703,-0.2658402621746063,0.8572590351104736
1751281733428345300,10.990345458984375,9.766854286193848,-0.2847726345062256,0.8353684544563293
1751281733447172000,11.009172119140626,9.765148162841797,-0.30472615361213684,0.8481757044792175
1751281733465998800,11.027998779296874,9.762904167175293,-0.3210808336734772,0.8677477240562439
1751281733484825600,11.04682568359375,9.762860298156738,-0.3240854740142822,0.8671360015869141
1751281733503652600,11.065652587890625,9.764334678649902,-0.3175851106643677,0.8528146147727966
1751281733522479400,11.084479248046875,9.76400089263916,-0.3187185823917389,0.8562085032463074
1751281733541306000,11.10330615234375,9.761616706848145,-0.3291233479976654,0.8791527152061462
1751281733560133000,11.122133056640624,9.759737014770508,-0.3376340866088867,0.8966144323348999
1751281733578960000,11.1409599609375,9.759333610534668,-0.34462401270866394,0.8983493447303772
1751281733597786600,11.15978662109375,9.756265640258789,-0.3795222043991089,0.9173993468284607
1751281733616613400,11.17861328125,9.754681587219238,-0.42752325534820557,0.9131250977516174
1751281733635440400,11.1974404296875,9.754064559936523,-0.4556272327899933,0.9060976505279541
1751281733654267100,11.21626708984375,9.753859519958496,-0.45314452052116394,0.9095474481582642
1751281733673094000,11.235093994140625,9.753655433654785,-0.42760783433914185,0.9239819049835205
1751281733691921000,11.2539208984375,9.75442123413086,-0.3911590576171875,0.932012140750885
1751281733710747600,11.27274755859375,9.756158828735352,-0.35533782839775085,0.928164541721344
1751281733729574400,11.291574462890624,9.758125305175781,-0.3345153331756592,0.9151318669319153
1751281733748401200,11.310401123046875,9.760210037231445,-0.32825031876564026,0.8949453830718994
1751281733767228200,11.329228271484375,9.760954856872559,-0.3216246962547302,0.8892204165458679
1751281733786055000,11.348054931640625,9.76124095916748,-0.30745628476142883,0.8910883665084839
1751281733804881700,11.366881591796876,9.761763572692871,-0.28835687041282654,0.8917539715766907
1751281733823708400,11.38570849609375,9.759297370910645,-0.2647065818309784,0.9254346489906311
1751281733842535400,11.404535400390625,9.755599975585938,-0.25673115253448486,0.9657767415046692
1751281733861362200,11.423362060546875,9.750439643859863,-0.26660025119781494,1.0140246152877808
1751281733880189000,11.44218896484375,9.747245788574219,-0.2790096700191498,1.0410343408584595
1751281733899016000,11.461015869140626,9.746299743652344,-0.2823247015476227,1.0489662885665894
1751281733917842700,11.4798427734375,9.745654106140137,-0.28101661801338196,1.0552973747253418
1751281733936669400,11.49866943359375,9.743653297424316,-0.2847404181957245,1.0726295709609985
1751281733955496400,11.517496337890625,9.741340637207031,-0.30138081312179565,1.088955283164978
1751281733974323200,11.5363232421875,9.741551399230957,-0.3155890107154846,1.0830472707748413
1751281733993150000,11.55514990234375,9.741680145263672,-0.31973326206207275,1.0806559324264526
1751281734011976700,11.573976806640625,9.741196632385254,-0.33156388998031616,1.0814517736434937
1751281734030803700,11.5928037109375,9.739986419677734,-0.350259006023407,1.086445927619934
1751281734049630500,11.61163037109375,9.740995407104492,-0.3652937114238739,1.0723572969436646
1751281734068457200,11.630457275390626,9.743898391723633,-0.36339983344078064,1.0463085174560547
1751281734087284200,11.6492841796875,9.749518394470215,-0.3456874489784241,0.9988911747932434
1751281734106111000,11.668111083984375,9.75540542602539,-0.3266271948814392,0.9464535117149353
1751281734124937700,11.686937744140625,9.75832462310791,-0.32790079712867737,0.9154132008552551
1751281734143764500,11.705764404296875,9.758544921875,-0.34467437863349915,0.906862199306488
1751281734162591500,11.724591552734376,9.758902549743652,-0.34910351037979126,0.9012985229492188
1751281734181418200,11.743418212890624,9.758098602294922,-0.353533536195755,0.908248245716095
1751281734200245000,11.762244873046875,9.754429817199707,-0.37846529483795166,0.9371473789215088
1751281734219071700,11.78107177734375,9.748847961425781,-0.41186296939849854,0.9801545739173889
1751281734237898800,11.799898681640625,9.747590065002441,-0.4188856780529022,0.9896551370620728
1751281734256725500,11.8187255859375,9.749417304992676,-0.4036359190940857,0.9779148101806641
1751281734275552300,11.83755224609375,9.7508544921875,-0.39257189631462097,0.9680408239364624
1751281734294379300,11.856379150390625,9.75195598602295,-0.38487279415130615,0.9600071907043457
1751281734313206000,11.8752060546875,9.754015922546387,-0.3642655611038208,0.9470372796058655
1751281734332032800,11.89403271484375,9.756441116333008,-0.33705639839172363,0.9320070147514343
1751281734350859800,11.91285986328125,9.758567810058594,-0.3158176839351654,0.9170691967010498
1751281734369686500,11.9316865234375,9.759737014770508,-0.30000096559524536,0.9099013209342957
1751281734388513300,11.95051318359375,9.760395050048828,-0.2825718820095062,0.9084160327911377
1751281734407340000,11.969340087890625,9.761148452758789,-0.2636876106262207,0.9059939384460449
1751281734426167000,11.9881669921875,9.76159381866455,-0.24638637900352478,0.9060670137405396
1751281734444993800,12.006993896484374,9.761892318725586,-0.23455366492271423,0.9059860706329346
1751281734463820500,12.025820556640625,9.76108169555664,-0.22884762287139893,0.916128396987915
1751281734482647600,12.0446474609375,9.760336875915527,-0.22359853982925415,0.9253218173980713
1751281734501474300,12.063474365234375,9.759284973144531,-0.21480466425418854,0.9384005069732666
1751281734520301000,12.082301025390626,9.756823539733887,-0.20706146955490112,0.9653604030609131
1751281734539127800,12.1011279296875,9.755279541015625,-0.20320788025856018,0.981630265712738
1751281734557954800,12.119954833984375,9.752480506896973,-0.19872824847698212,1.0099538564682007
1751281734576781600,12.138781494140625,9.748414993286133,-0.19484376907348633,1.0492010116577148
1751281734595608300,12.1576083984375,9.742137908935547,-0.2112109214067459,1.1029586791992188
1751281734614435000,12.17643505859375,9.735087394714355,-0.24594196677207947,1.1567131280899048
1751281734633262000,12.195261962890624,9.730218887329102,-0.2727859914302826,1.1911427974700928
1751281734652088800,12.2140888671875,9.73021411895752,-0.2807607054710388,1.1893224716186523
1751281734670915600,12.23291552734375,9.732934951782227,-0.27465787529945374,1.1682997941970825
1751281734689742600,12.25174267578125,9.737737655639648,-0.2654242515563965,1.1297838687896729
1751281734708569300,12.2705693359375,9.743468284606934,-0.2629239857196808,1.0798510313034058
1751281734727396000,12.28939599609375,9.747054100036621,-0.27293601632118225,1.0444238185882568
1751281734746222800,12.308222900390625,9.749818801879883,-0.28574466705322266,1.0147857666015625
1751281734765049900,12.3270498046875,9.754057884216309,-0.2882368862628937,0.972450852394104
1751281734783876600,12.345876708984376,9.758127212524414,-0.286080926656723,0.931399405002594
1751281734802703400,12.364703369140624,9.759371757507324,-0.29694893956184387,0.9148024916648865
1751281734821530400,12.3835302734375,9.758543014526367,-0.3141583204269409,0.9178915023803711
1751281734840357000,12.402357177734375,9.75767993927002,-0.3272635340690613,0.9224755167961121
1751281734859183900,12.421183837890625,9.756916046142578,-0.3365863561630249,0.927189290523529
1751281734878010600,12.4400107421875,9.755982398986816,-0.3484424948692322,0.9326260685920715
1751281734896837600,12.458837646484374,9.755176544189453,-0.35610857605934143,0.9381412863731384
1751281734915664400,12.477664306640625,9.7547607421875,-0.35304224491119385,0.9436088800430298
1751281734934491100,12.4964912109375,9.75484848022461,-0.3514711558818817,0.9432870149612427
1751281734953318000,12.51531787109375,9.753689765930176,-0.352890282869339,0.9546639323234558
1751281734972145000,12.534144775390626,9.753061294555664,-0.35328298807144165,0.9609187245368958
1751281734990971600,12.5529716796875,9.753317832946777,-0.34782660007476807,0.9603208303451538
1751281735009798700,12.571798583984375,9.753913879394531,-0.3356442451477051,0.9585867524147034
1751281735028625400,12.59062548828125,9.754484176635742,-0.3208615481853485,0.9578492045402527
1751281735047452200,12.6094521484375,9.755340576171875,-0.30880042910575867,0.9530832767486572
1751281735066279000,12.62827880859375,9.75669002532959,-0.29952436685562134,0.9421682357788086
1751281735085106000,12.64710595703125,9.758025169372559,-0.28901997208595276,0.9315564632415771
1751281735103932700,12.6659326171875,9.75849437713623,-0.2759726047515869,0.9305992722511292
1751281735122759400,12.684759521484375,9.758519172668457,-0.26067936420440674,0.9347373843193054
1751281735141586200,12.703586181640626,9.757944107055664,-0.24535390734672546,0.9448336362838745
1751281735160413200,12.7224130859375,9.756403923034668,-0.23335759341716766,0.9635930061340332
1751281735179240000,12.741239990234375,9.754351615905762,-0.22185812890529633,0.9868095517158508
1751281735198066700,12.760066650390625,9.752185821533203,-0.2119593620300293,1.010115146636963
1751281735216893700,12.778893798828125,9.75078010559082,-0.2073015570640564,1.0245474576950073
1751281735235720400,12.797720458984376,9.748823165893555,-0.21232758462429047,1.0419914722442627
1751281735254547200,12.816547119140624,9.746832847595215,-0.22254647314548492,1.0583536624908447
1751281735273374000,12.8353740234375,9.744133949279785,-0.2243199497461319,1.0825579166412354
1751281735292201000,12.854200927734375,9.739991188049316,-0.2202049195766449,1.1200368404388428
1751281735311027700,12.87302783203125,9.736291885375977,-0.21568648517131805,1.1526083946228027
1751281735329854500,12.8918544921875,9.734885215759277,-0.2187645435333252,1.1638466119766235
1751281735348681200,12.91068115234375,9.735023498535156,-0.2280743271112442,1.160892367362976
1751281735367508200,12.92950830078125,9.735199928283691,-0.24076171219348907,1.1568487882614136
1751281735386335000,12.9483349609375,9.736166954040527,-0.2534177303314209,1.145959496498108
1751281735405161700,12.96716162109375,9.73942756652832,-0.2582666873931885,1.1167954206466675
1751281735423988700,12.98598876953125,9.745221138000488,-0.25785234570503235,1.0651624202728271
1751281735442815500,13.0048154296875,9.750308990478516,-0.2564060389995575,1.0178940296173096
1751281735461642200,13.023642333984375,9.754396438598633,-0.2609655261039734,0.9767478108406067
1751281735480469000,13.042468994140625,9.758895874023438,-0.26275768876075745,0.9302079677581787
1751281735499296000,13.0612958984375,9.763345718383789,-0.2572093605995178,0.8839170336723328
1751281735518122800,13.080122802734374,9.767666816711426,-0.2539767920970917,0.8358070254325867
1751281735536949500,13.098949462890625,9.770209312438965,-0.25348153710365295,0.8056986927986145
1751281735555776500,13.117776611328125,9.770395278930664,-0.2620590329170227,0.8006762266159058
1751281735574603300,13.136603271484375,9.767717361450195,-0.2829284369945526,0.8258482813835144
1751281735593430000,13.155429931640626,9.763689041137695,-0.3071012794971466,0.8639827370643616
1751281735612256800,13.1742568359375,9.760588645935059,-0.32029831409454346,0.8937006592750549
1751281735631083800,13.193083740234375,9.75986385345459,-0.32724663615226746,0.8990927338600159
1751281735649910500,13.21191064453125,9.76105785369873,-0.3250696063041687,0.8868243098258972
1751281735668737300,13.2307373046875,9.760017395019531,-0.3276929557323456,0.8972581624984741
1751281735687564000,13.24956396484375,9.758424758911133,-0.3390938639640808,0.9102462530136108
1751281735706391000,13.26839111328125,9.757328987121582,-0.33967235684394836,0.9217010736465454
1751281735725217800,13.2872177734375,9.757085800170898,-0.32879969477653503,0.9282010197639465
1751281735744044500,13.30604443359375,9.75700569152832,-0.3129849135875702,0.9344932436943054
1751281735762871600,13.32487158203125,9.756916046142578,-0.3027172386646271,0.9387924075126648
1751281735781698300,13.3436982421875,9.756410598754883,-0.29501935839653015,0.9464699625968933
1751281735800525000,13.362525146484375,9.755908012390137,-0.2833373248577118,0.9551852345466614
1751281735819351800,13.381351806640625,9.755545616149902,-0.2702428996562958,0.9626383185386658
1751281735838178800,13.4001787109375,9.755655288696289,-0.2596494257450104,0.9644407033920288
1751281735857005600,13.419005615234376,9.754911422729492,-0.25042471289634705,0.9743534922599792
1751281735875832300,13.437832275390624,9.753165245056152,-0.24250656366348267,0.9936501383781433
1751281735894659300,13.456659423828125,9.749809265136719,-0.2410302609205246,1.0264010429382324
1751281735913486000,13.475486083984375,9.744731903076172,-0.2425002008676529,1.0732123851776123
1751281735932312800,13.494312744140625,9.73897647857666,-0.24301272630691528,1.1241282224655151
1751281735951139600,13.5131396484375,9.735729217529297,-0.23981894552707672,1.1525851488113403
1751281735969966600,13.531966552734374,9.734578132629395,-0.23176126182079315,1.1638962030410767
1751281735988793300,13.55079345703125,9.734185218811035,-0.2334027886390686,1.1668528318405151
1751281736007620000,13.5696201171875,9.736759185791016,-0.24163718521595,1.1434707641601562
1751281736026446800,13.58844677734375,9.740511894226074,-0.23873934149742126,1.111667513847351
1751281736045273900,13.60727392578125,9.744762420654297,-0.23655739426612854,1.0742608308792114
1751281736064100600,13.6261005859375,9.748374938964844,-0.24492418766021729,1.0390362739562988
1751281736082927400,13.64492724609375,9.753883361816406,-0.24610717594623566,0.9856850504875183
1751281736101754400,13.66375439453125,9.761482238769531,-0.2405170351266861,0.9088518023490906
1751281736120581000,13.6825810546875,9.769987106323242,-0.22534510493278503,0.8166764974594116
1751281736139408000,13.701407958984374,9.775142669677734,-0.21969124674797058,0.7541263103485107
1751281736158234600,13.720234619140625,9.778306007385254,-0.22325605154037476,0.7108355760574341
1751281736177061600,13.7390615234375,9.78072452545166,-0.21957401931285858,0.6779431700706482
1751281736195888400,13.757888427734375,9.78166389465332,-0.22469846904277802,0.6625334024429321
1751281736214715100,13.776715087890626,9.779434204101562,-0.2447858452796936,0.6878501772880554
1751281736233542100,13.795542236328124,9.775047302246094,-0.27702346444129944,0.7362753748893738
1751281736252369000,13.814368896484375,9.768597602844238,-0.31216031312942505,0.8046454787254333
1751281736271195600,13.833195556640625,9.762191772460938,-0.3438403606414795,0.8670489192008972
1751281736290022700,13.852022705078125,9.759065628051758,-0.356090784072876,0.8967800736427307
1751281736308849400,13.870849365234376,9.757425308227539,-0.35252928733825684,0.9158365726470947
1751281736327676200,13.88967626953125,9.755921363830566,-0.3518548905849457,0.9319775104522705
1751281736346503000,13.9085029296875,9.755559921264648,-0.3507772386074066,0.9361583590507507
1751281736365329700,13.92732958984375,9.754942893981934,-0.34195345640182495,0.9457992911338806
1751281736384156700,13.94615673828125,9.75664234161377,-0.3299217224121094,0.9324555993080139
1751281736402983400,13.9649833984375,9.757981300354004,-0.3135744631290436,0.9240546822547913
1751281736421810200,13.98381005859375,9.756616592407227,-0.3085464835166931,0.9400070905685425
1751281736440637200,14.00263720703125,9.755475044250488,-0.30875688791275024,0.9517149329185486
1751281736459464000,14.0214638671875,9.757268905639648,-0.2890743613243103,0.9394327998161316
1751281736478290700,14.040290771484376,9.758549690246582,-0.25940993428230286,0.9347801804542542
1751281736497117700,14.05911767578125,9.758735656738281,-0.24779464304447174,0.935978889465332
1751281736515944400,14.0779443359375,9.756165504455566,-0.25460782647132874,0.9606223106384277
1751281736534771200,14.096771240234375,9.751871109008789,-0.2612236738204956,1.0015761852264404
1751281736553598000,14.115597900390625,9.748669624328613,-0.2605316936969757,1.0324554443359375
1751281736572425000,14.134425048828126,9.746138572692871,-0.2540341913700104,1.0576567649841309
1751281736591251700,14.153251708984374,9.743621826171875,-0.2447558343410492,1.0827414989471436
1751281736610078500,14.172078369140625,9.740316390991211,-0.23864522576332092,1.1134041547775269
1751281736628905500,14.190905517578125,9.73815631866455,-0.23889249563217163,1.132093906402588
1751281736647732200,14.209732177734375,9.735613822937012,-0.24428702890872955,1.1526178121566772
1751281736666559000,14.22855908203125,9.736637115478516,-0.24018573760986328,1.144809603691101
1751281736685385700,14.2473857421875,9.73771858215332,-0.23834802210330963,1.1359626054763794
1751281736704212700,14.266212646484375,9.74138069152832,-0.24257241189479828,1.103200912475586
1751281736723039500,14.28503955078125,9.746441841125488,-0.23708026111125946,1.0587952136993408
1751281736741866200,14.3038662109375,9.751245498657227,-0.23534215986728668,1.0140101909637451
1751281736760693000,14.32269287109375,9.755066871643066,-0.2410064935684204,0.975173830986023
1751281736779520000,14.34152001953125,9.757122039794922,-0.25096917152404785,0.9518231749534607
1751281736798346800,14.3603466796875,9.758304595947266,-0.266886442899704,0.9352251291275024
1751281736817173500,14.379173583984375,9.762384414672852,-0.26970410346984863,0.8907793164253235
1751281736836000500,14.39800048828125,9.768294334411621,-0.2612413465976715,0.826175332069397
1751281736854827300,14.4168271484375,9.772808074951172,-0.25282901525497437,0.7737499475479126
1751281736873654000,14.435654052734375,9.774980545043945,-0.25050750374794006,0.7465914487838745
1751281736892480800,14.454480712890625,9.773797988891602,-0.26410749554634094,0.75729900598526
1751281736911307500,14.4733076171875,9.769144058227539,-0.2927740514278412,0.8052980303764343
1751281736930134500,14.492134521484376,9.76347541809082,-0.32618847489356995,0.8593863844871521
1751281736948961300,14.510961181640624,9.762629508972168,-0.3306277394294739,0.8672600984573364
1751281736967788000,14.5297880859375,9.763060569763184,-0.32944491505622864,0.8628516793251038
1751281736986615000,14.548614990234375,9.762832641601562,-0.33459407091140747,0.863447904586792
1751281737005441800,14.56744189453125,9.761831283569336,-0.3374672830104828,0.8735803961753845
1751281737024268500,14.5862685546875,9.76128101348877,-0.3322867453098297,0.8816920518875122
1751281737043095300,14.60509521484375,9.758978843688965,-0.32791444659233093,0.9084042906761169
1751281737061922300,14.62392236328125,9.756985664367676,-0.32920312881469727,0.9291032552719116
1751281737080749000,14.6427490234375,9.755352973937988,-0.3241916000843048,0.9478201270103455
1751281737099575800,14.661575927734376,9.753962516784668,-0.3037293255329132,0.9686880111694336
1751281737118402800,14.68040283203125,9.753548622131348,-0.27404096722602844,0.9816213250160217
1751281737137229600,14.6992294921875,9.754743576049805,-0.2533508241176605,0.9752833843231201
1751281737156056300,14.718056396484375,9.75448989868164,-0.25231754779815674,0.9780911207199097
1751281737174883000,14.736883056640625,9.753478050231934,-0.25700104236602783,0.9869205951690674
1751281737193710000,14.7557099609375,9.751420021057129,-0.2635224759578705,1.0053504705429077
1751281737212536800,14.774536865234374,9.748589515686035,-0.26899927854537964,1.0310349464416504
1751281737231363600,14.793363525390625,9.747076988220215,-0.26641398668289185,1.0458955764770508
1751281737250190300,14.8121904296875,9.746661186218262,-0.2590731978416443,1.0515937805175781
1751281737269017300,14.831017333984375,9.744956970214844,-0.2555255591869354,1.068136215209961
1751281737287844000,14.849843994140626,9.740596771240234,-0.25841349363327026,1.106519103050232
1751281737306670800,14.8686708984375,9.736656188964844,-0.2693224251270294,1.138152003288269
1751281737325497900,14.887497802734375,9.732793807983398,-0.28081604838371277,1.1680089235305786
1751281737344324600,14.90632470703125,9.729326248168945,-0.28650057315826416,1.1952035427093506
1751281737363151400,14.9251513671875,9.727945327758789,-0.2900923788547516,1.2055377960205078
1751281737381978000,14.94397802734375,9.7300386428833,-0.28901681303977966,1.1887803077697754
1751281737400805000,14.96280517578125,9.733439445495605,-0.28595852851867676,1.1613564491271973
1751281737419631900,14.9816318359375,9.735280990600586,-0.29410210251808167,1.1437630653381348
1751281737438458600,15.000458740234375,9.736544609069824,-0.30752459168434143,1.1293854713439941
1751281737457285600,15.01928564453125,9.739224433898926,-0.31876882910728455,1.1028465032577515
1751281737476112400,15.0381123046875,9.744515419006348,-0.32622379064559937,1.0528035163879395
1751281737494939100,15.056939208984375,9.749290466308594,-0.32829228043556213,1.0069515705108643
1751281737513766000,15.075765869140625,9.751862525939941,-0.3365096151828766,0.9789336323738098
1751281737532593000,15.094593017578125,9.754194259643555,-0.3426873981952667,0.9532324075698853
1751281737551419600,15.113419677734376,9.756507873535156,-0.34381332993507385,0.9288417100906372
1751281737570246400,15.132246337890624,9.758354187011719,-0.34417080879211426,0.9090948104858398
1751281737589073200,15.1510732421875,9.75891399383545,-0.34459736943244934,0.9029039144515991
1751281737607900200,15.169900146484375,9.758501052856445,-0.34605497121810913,0.9068073630332947
1751281737626727000,15.188726806640625,9.757368087768555,-0.34663063287734985,0.9187077879905701
1751281737645553700,15.2075537109375,9.756757736206055,-0.3532402813434601,0.9226550459861755
1751281737664380700,15.226380615234374,9.755990982055664,-0.35686299204826355,0.9293402433395386
1751281737683207400,15.24520751953125,9.754172325134277,-0.3667338490486145,0.9444682002067566
1751281737702034200,15.2640341796875,9.752601623535156,-0.37063831090927124,0.9590544700622559
1751281737720861000,15.28286083984375,9.752392768859863,-0.3700641095638275,0.9613911509513855
1751281737739688000,15.30168798828125,9.75277042388916,-0.3670714497566223,0.9587056636810303
1751281737758514700,15.3205146484375,9.752913475036621,-0.36122387647628784,0.9594693183898926
1751281737777341400,15.339341552734375,9.753789901733398,-0.3483511209487915,0.9553049206733704
1751281737796168400,15.35816845703125,9.754105567932129,-0.3306991457939148,0.9583638906478882
1751281737814995200,15.3769951171875,9.75338363647461,-0.31555455923080444,0.9707320928573608
1751281737833822000,15.395822021484374,9.75235652923584,-0.30297186970710754,0.9849612712860107
1751281737852648700,15.414648681640625,9.75143814086914,-0.29129260778427124,0.9974859356880188
1751281737871475500,15.433475341796875,9.75016975402832,-0.2782607078552246,1.0134828090667725
1751281737890302500,15.452302490234375,9.747906684875488,-0.2687622606754303,1.0375242233276367
1751281737909129200,15.471129150390626,9.744997024536133,-0.2692487835884094,1.0643813610076904
1751281737927956000,15.4899560546875,9.74190616607666,-0.2751723527908325,1.0908443927764893
1751281737946783000,15.508782958984375,9.738140106201172,-0.277260422706604,1.1234525442123413
1751281737965609700,15.527609619140625,9.734582901000977,-0.27363359928131104,1.1547274589538574
1751281737984436500,15.5464365234375,9.732725143432617,-0.2758251130580902,1.1697782278060913
1751281738003263200,15.56526318359375,9.732295036315918,-0.2667139768600464,1.175445556640625
1751281738022090200,15.58409033203125,9.731663703918457,-0.25545641779899597,1.18314790725708
1751281738040917000,15.6029169921875,9.73082160949707,-0.2526795566082001,1.190657138824463
1751281738059743700,15.62174365234375,9.73215103149414,-0.25723549723625183,1.178745985031128
1751281738078570500,15.640570556640625,9.734081268310547,-0.2640053629875183,1.16119384765625
1751281738097397500,15.6593974609375,9.737283706665039,-0.2702636420726776,1.1325454711914062
1751281738116224300,15.678224365234374,9.741085052490234,-0.2768961489200592,1.097707986831665
1751281738135051000,15.697051025390625,9.745312690734863,-0.2817462980747223,1.0582480430603027
1751281738153878000,15.7158779296875,9.750750541687012,-0.2831874191761017,1.0065076351165771
1751281738172704800,15.734704833984376,9.760038375854492,-0.2740088105201721,0.9148568511009216
1751281738191531500,15.753531494140624,9.76998233795166,-0.24838297069072723,0.810026228427887
1751281738210358300,15.772358154296874,9.776043891906738,-0.2346445471048355,0.7377719283103943
1751281738229185300,15.791185302734375,9.77665901184082,-0.2486945241689682,0.7249014377593994
1751281738248012000,15.810011962890625,9.768227577209473,-0.2915478050708771,0.8167685270309448
1751281738266838800,15.8288388671875,9.75341510772705,-0.3840751051902771,0.9453981518745422
1751281738285665800,15.847665771484374,9.749464988708496,-0.44752827286720276,0.958145797252655
1751281738304492500,15.866492431640625,9.750221252441406,-0.44385668635368347,0.9521296620368958
1751281738323319300,15.8853193359375,9.752026557922363,-0.41230180859565735,0.947823703289032
1751281738342146000,15.90414599609375,9.751291275024414,-0.39210376143455505,0.963831901550293
1751281738360972800,15.922972900390626,9.74874496459961,-0.3963932693004608,0.987529993057251
1751281738379799800,15.9417998046875,9.747308731079102,-0.3998385965824127,1.0002442598342896
1751281738398626600,15.96062646484375,9.747987747192383,-0.3812756836414337,1.000876784324646
1751281738417453300,15.979453369140625,9.749870300292969,-0.3552199900150299,0.9920843839645386
1751281738436280300,15.9982802734375,9.751319885253906,-0.3409505784511566,0.9828080534934998
1751281738455107000,16.017107177734374,9.752263069152832,-0.3318321406841278,0.9765458703041077
1751281738473933800,16.035933837890624,9.753843307495117,-0.3197356164455414,0.9647254943847656
1751281738492760600,16.054760498046875,9.754944801330566,-0.304305762052536,0.9585655927658081
1751281738511587600,16.073587646484373,9.754343032836914,-0.28933119773864746,0.9692642688751221
1751281738530414300,16.092414306640624,9.753449440002441,-0.2729910612106323,0.9828983545303345
1751281738549241000,16.111240966796874,9.753735542297363,-0.26043790578842163,0.9834674000740051
1751281738568067800,16.13006787109375,9.752765655517578,-0.25500568747520447,0.9944488406181335
1751281738586894800,16.148894775390627,9.750264167785645,-0.25461557507514954,1.0187832117080688
1751281738605721600,16.1677216796875,9.748520851135254,-0.25266143679618835,1.0358034372329712
1751281738624548400,16.18654833984375,9.746707916259766,-0.24669404327869415,1.0541387796401978
1751281738643375400,16.205375244140626,9.743486404418945,-0.23711007833480835,1.0856568813323975
1751281738662202000,16.2242021484375,9.740357398986816,-0.23310372233390808,1.1142165660858154
1751281738681028900,16.24302880859375,9.736810684204102,-0.22988873720169067,1.1454459428787231
1751281738699855600,16.261855712890625,9.733599662780762,-0.22250883281230927,1.1738464832305908
1751281738718682600,16.2806826171875,9.732837677001953,-0.21529051661491394,1.1814885139465332
1751281738737509400,16.29950927734375,9.731950759887695,-0.21960793435573578,1.1879844665527344
1751281738756336000,16.318336181640625,9.733091354370117,-0.22189275920391083,1.178162932395935
1751281738775163100,16.3371630859375,9.731499671936035,-0.22651460766792297,1.1903702020645142
1751281738793990000,16.355989990234374,9.729255676269531,-0.24466097354888916,1.2050340175628662
1751281738812816600,16.374816650390624,9.729087829589844,-0.25881198048591614,1.203431487083435
1751281738831643400,16.393643310546874,9.733160972595215,-0.26769623160362244,1.1680285930633545
1751281738850470100,16.41247021484375,9.737675666809082,-0.27467429637908936,1.1281025409698486
1751281738869297200,16.431297119140623,9.740028381347656,-0.2908329963684082,1.1034752130508423
1751281738888124000,16.4501240234375,9.74383544921875,-0.3056298494338989,1.0651888847351074
1751281738906950700,16.46895068359375,9.750136375427246,-0.3081391453742981,1.0051301717758179
1751281738925777700,16.487777587890626,9.758174896240234,-0.30067241191864014,0.9262759685516357
1751281738944604400,16.5066044921875,9.765358924865723,-0.2868238687515259,0.8519876599311829
1751281738963431200,16.52543115234375,9.76835823059082,-0.28394657373428345,0.8178947567939758
1751281738982258000,16.5442578125,9.76672649383545,-0.3048115670681,0.8297722339630127
1751281739001085000,16.5630849609375,9.76202392578125,-0.33668407797813416,0.8717438578605652
1751281739019911700,16.58191162109375,9.757170677185059,-0.361113041639328,0.9152056574821472
1751281739038738400,16.600738525390625,9.75256061553955,-0.3771096169948578,0.9569421410560608
1751281739057565200,16.619565185546875,9.74974250793457,-0.38881388306617737,0.9806786775588989
1751281739076392200,16.63839208984375,9.749765396118164,-0.39116713404655457,0.9795225858688354
1751281739095219000,16.657218994140624,9.751413345336914,-0.3789530098438263,0.9678419232368469
1751281739114045700,16.676045654296875,9.752915382385254,-0.3627133071422577,0.9588853120803833
1751281739132872400,16.69487255859375,9.752969741821289,-0.35597649216651917,0.9608635902404785
1751281739151699500,16.713699462890624,9.752820014953613,-0.3505275249481201,0.9643773436546326
1751281739170526200,16.732526123046874,9.753507614135742,-0.34079328179359436,0.960908055305481
1751281739189353000,16.75135302734375,9.753235816955566,-0.3325662314891815,0.9665341377258301
1751281739208179700,16.7701796875,9.753110885620117,-0.32680317759513855,0.9697508215904236
1751281739227006700,16.7890068359375,9.752849578857422,-0.3180719316005707,0.9752592444419861
1751281739245833500,16.80783349609375,9.75247859954834,-0.3044605553150177,0.9832847714424133
1751281739264660200,16.82666015625,9.75151252746582,-0.28902721405029297,0.9974275827407837
1751281739283487200,16.8454873046875,9.749794006347656,-0.27601149678230286,1.017713189125061
1751281739302314000,16.86431396484375,9.74903678894043,-0.2650252878665924,1.0278334617614746
1751281739321140700,16.883140625,9.749080657958984,-0.25403156876564026,1.0301848649978638
1751281739339967500,16.901967529296876,9.74885082244873,-0.24295148253440857,1.0350146293640137
1751281739358794500,16.92079443359375,9.748071670532227,-0.23506422340869904,1.044140338897705
1751281739387034600,16.94903466796875,9.745600700378418,-0.23019401729106903,1.0680193901062012
1751281739405861400,16.967861328125,9.742727279663086,-0.23017127811908722,1.0939255952835083
1751281739424688400,16.9866884765625,9.739519119262695,-0.22711868584156036,1.1227551698684692
1751281739443515100,17.00551513671875,9.73473834991455,-0.22402891516685486,1.1640727519989014
1751281739462342000,17.024341796875,9.729422569274902,-0.23315487802028656,1.2059707641601562
1751281739481168600,17.043168701171876,9.72564697265625,-0.24726590514183044,1.2333017587661743
1751281739499995600,17.06199560546875,9.724055290222168,-0.2577027678489685,1.2436760663986206
1751281739518822400,17.080822509765625,9.725773811340332,-0.268783837556839,1.2277913093566895
1751281739537649200,17.099649169921875,9.729132652282715,-0.2781846821308136,1.1987370252609253
1751281739556476000,17.118475830078125,9.733214378356934,-0.2885030210018158,1.1626187562942505
1751281739575303000,17.137302978515624,9.7391357421875,-0.2953454256057739,1.1101254224777222
1751281739594129700,17.156129638671874,9.746330261230469,-0.2919268310070038,1.0460504293441772
1751281739612956400,17.174956298828125,9.752335548400879,-0.29332292079925537,0.9880831837654114
1751281739631783200,17.193783203125,9.756147384643555,-0.30252352356910706,0.9468063116073608
1751281739650610200,17.212610107421874,9.75735092163086,-0.32049432396888733,0.9283130168914795
1751281739669437000,17.23143701171875,9.758696556091309,-0.33681032061576843,0.9081826210021973
1751281739688263700,17.250263671875,9.759882926940918,-0.3408370018005371,0.8938122987747192
1751281739707090700,17.269090576171877,9.760669708251953,-0.34587523341178894,0.883225679397583
1751281739725917400,17.28791748046875,9.760135650634766,-0.3505907952785492,0.8872597217559814
1751281739744744200,17.306744140625,9.757999420166016,-0.3566474914550781,0.9080923795700073
1751281739763571000,17.325571044921876,9.754788398742676,-0.36209678649902344,0.9398794770240784
1751281739782398000,17.34439794921875,9.751382827758789,-0.36870548129081726,0.9720975756645203
1751281739801224700,17.363224609375,9.750618934631348,-0.36845287680625916,0.9798277020454407
1751281739820051500,17.382051513671875,9.750879287719727,-0.3643663823604584,0.9787614941596985
1751281739838878200,17.400878173828126,9.752413749694824,-0.3605850040912628,0.9647746682167053
1751281739857705200,17.419705322265624,9.754535675048828,-0.351970374584198,0.9463310837745667
1751281739876532000,17.438531982421875,9.755370140075684,-0.34265801310539246,0.941129207611084
1751281739895358700,17.457358642578125,9.754247665405273,-0.33744847774505615,0.9545501470565796
1751281739914185500,17.476185546875,9.752506256103516,-0.3356492221355438,0.9728010296821594
1751281739933012500,17.495012451171874,9.751518249511719,-0.33350470662117004,0.9833812117576599
1751281739951839200,17.513839111328124,9.751497268676758,-0.32809582352638245,0.9854153990745544
1751281739970666000,17.532666015625,9.752449035644531,-0.32106444239616394,0.9782819151878357
1751281739989492700,17.55149267578125,9.753692626953125,-0.31638291478157043,0.9673542976379395
1751281740008319700,17.57031982421875,9.754758834838867,-0.31768932938575745,0.956109881401062
1751281740027146500,17.589146484375,9.754376411437988,-0.32399454712867737,0.9578800797462463
1751281740045973200,17.60797314453125,9.753108024597168,-0.32585006952285767,0.9700987339019775
1751281740064800000,17.626800048828127,9.750561714172363,-0.30832159519195557,1.0009393692016602
1751281740083627000,17.645626953125,9.748946189880371,-0.274475634098053,1.0262116193771362
1751281740102453800,17.664453857421876,9.749155044555664,-0.24454772472381592,1.0317702293395996
1751281740121280500,17.683280517578126,9.749443054199219,-0.23865720629692078,1.0304373502731323
1751281740140107300,17.702107177734376,9.747064590454102,-0.24095802009105682,1.052167534828186
1751281740158934300,17.720934326171875,9.743830680847168,-0.22711479663848877,1.0847053527832031
1751281740177761000,17.739760986328125,9.742241859436035,-0.19770732522010803,1.1045451164245605
1751281740196587800,17.758587890625,9.74064826965332,-0.20815396308898926,1.116615653038025
1751281740215414800,17.777414794921874,9.73849868774414,-0.223650261759758,1.1322598457336426
1751281740234241500,17.796241455078125,9.738494873046875,-0.22856438159942627,1.131317377090454
1751281740253068300,17.815068359375,9.7406005859375,-0.24146230518817902,1.1103135347366333
1751281740271895000,17.83389501953125,9.74505615234375,-0.24834522604942322,1.0689209699630737
1751281740290722000,17.85272216796875,9.752174377441406,-0.2425675243139267,1.0033105611801147
1751281740309548800,17.871548828125,9.7620267868042,-0.22910739481449127,0.905942440032959
1751281740328375600,17.89037548828125,9.772660255432129,-0.20644406974315643,0.7892298102378845
1751281740347202300,17.909202392578123,9.781218528747559,-0.1861889660358429,0.6808011531829834
1751281740366029300,17.928029296875,9.78730583190918,-0.1777874231338501,0.5894230604171753
1751281740384856000,17.94685595703125,9.791777610778809,-0.16862128674983978,0.5128918886184692
1751281740403682800,17.965682861328126,9.79533863067627,-0.15707017481327057,0.44390374422073364
1751281740422509600,17.984509521484377,9.797152519226074,-0.1492861956357956,0.4048481583595276
1751281740441336600,18.003336669921875,9.797050476074219,-0.15357044339179993,0.4057239294052124
1751281740460163300,18.022163330078126,9.794876098632812,-0.16712430119514465,0.4504067599773407
1751281740478990000,18.040989990234376,9.79073715209961,-0.186039999127388,0.5265477299690247
1751281740507230500,18.06923046875,9.78194522857666,-0.23596994578838348,0.654410719871521
1751281740526057200,18.08805712890625,9.77316951751709,-0.28007352352142334,0.7596659660339355
1751281740544884000,18.106884033203126,9.763070106506348,-0.3291689455509186,0.8628435730934143
1751281740563710700,18.125710693359373,9.76042366027832,-0.3342771530151367,0.8903711438179016
1751281740582537700,18.144537841796875,9.760603904724121,-0.3112524747848511,0.8967294692993164
1751281740601364500,18.163364501953126,9.759482383728027,-0.30726927518844604,0.9102050065994263
1751281740620191200,18.182191162109376,9.758362770080566,-0.3112504780292511,0.9207980632781982
1751281740639018000,18.20101806640625,9.758891105651855,-0.30616840720176697,0.9168894290924072
1751281740657845000,18.219844970703125,9.759284973144531,-0.296076238155365,0.9160197377204895
1751281740676671700,18.238671630859375,9.759307861328125,-0.29002848267555237,0.9177055954933167
1751281740695498500,18.25749853515625,9.758500099182129,-0.28692692518234253,0.9272221922874451
1751281740714325200,18.2763251953125,9.757394790649414,-0.2823147773742676,0.9401737451553345
1751281740733152300,18.29515234375,9.756505966186523,-0.2773602604866028,0.950813889503479
1751281740751979000,18.31397900390625,9.755844116210938,-0.27188146114349365,0.9591543078422546
1751281740770805800,18.3328056640625,9.7558012008667,-0.2682669460773468,0.9606046080589294
1751281740789632800,18.3516328125,9.755592346191406,-0.27187782526016235,0.9617143869400024
1751281740808459500,18.37045947265625,9.755318641662598,-0.2790167033672333,0.962446391582489
1751281740827286300,18.389286376953127,9.754936218261719,-0.27734261751174927,0.9667876958847046
1751281740846113000,18.408113037109374,9.752092361450195,-0.2510163187980652,1.002040982246399
1751281740864939800,18.426939697265624,9.748766899108887,-0.20504136383533478,1.043976068496704
1751281740883766800,18.445766845703126,9.747119903564453,-0.1759563684463501,1.0644605159759521
1751281740902593500,18.464593505859376,9.744468688964844,-0.19270475208759308,1.0856220722198486
1751281740921420300,18.483420166015627,9.743311882019043,-0.19652414321899414,1.095276117324829
1751281740940247300,18.502247314453125,9.74480152130127,-0.1970195472240448,1.08185613155365
1751281740959074000,18.521073974609376,9.747368812561035,-0.20346035063266754,1.0572669506072998
1751281740977900800,18.53990087890625,9.751232147216797,-0.20432500541210175,1.020843505859375
1751281740996727600,18.5587275390625,9.757340431213379,-0.19948524236679077,0.9617081880569458
1751281741015554600,18.577554443359375,9.765763282775879,-0.18331140279769897,0.875586748123169
1751281741034381300,18.59638134765625,9.774356842041016,-0.1632337123155594,0.7782608866691589
1751281741053208000,18.6152080078125,9.781576156616211,-0.14904536306858063,0.6847885251045227
1751281741072034800,18.634034912109374,9.786012649536133,-0.1444183588027954,0.6192588806152344
1751281741090861800,18.65286181640625,9.788262367248535,-0.15132513642311096,0.5808718800544739
1751281741109688600,18.6716884765625,9.78884506225586,-0.16133902966976166,0.5682211518287659
1751281741128515300,18.690515380859374,9.788914680480957,-0.17519813776016235,0.5628862977027893
1751281741147342000,18.709342041015624,9.788834571838379,-0.18695807456970215,0.560475766658783
1751281741166169000,18.728169189453126,9.788854598999023,-0.19366319477558136,0.5578391551971436
1751281741184995800,18.746995849609377,9.788885116577148,-0.19677425920963287,0.5562257766723633
1751281741203822600,18.765822509765623,9.78836441040039,-0.1990962028503418,0.5644962787628174
1751281741222649300,18.7846494140625,9.785737991333008,-0.2098807394504547,0.6047163009643555
1751281741241476400,18.803476318359376,9.780760765075684,-0.23443126678466797,0.6724145412445068
1751281741260303000,18.82230322265625,9.774232864379883,-0.2601695954799652,0.753042459487915
1751281741279129900,18.8411298828125,9.766440391540527,-0.29281511902809143,0.8374257683753967
1751281741297956900,18.859956787109375,9.759883880615234,-0.3270303010940552,0.8989559412002563
1751281741316783600,18.87878369140625,9.758498191833496,-0.3325546085834503,0.9118719100952148
1751281741335610400,18.8976103515625,9.75765323638916,-0.3293488025665283,0.9220225811004639
1751281741354437000,18.91643701171875,9.756891250610352,-0.3377360999584198,0.9270386099815369
1751281741373264000,18.935263916015625,9.757046699523926,-0.3325543999671936,0.927272617816925
1751281741392091000,18.9540908203125,9.756731033325195,-0.3146982192993164,0.9367757439613342
1751281741410917600,18.972917724609374,9.753725051879883,-0.3040925860404968,0.9709682464599609
1751281741429744400,18.991744384765624,9.751300811767578,-0.3083331286907196,0.9936988353729248
1751281741448571400,19.0105712890625,9.751542091369629,-0.313850075006485,0.9896058440208435
1751281741467398100,19.029398193359373,9.753097534179688,-0.310709148645401,0.9751538038253784
1751281741486225000,19.048224853515624,9.753300666809082,-0.2915140688419342,0.9790349006652832
1751281741505051600,19.0670517578125,9.755535125732422,-0.2698269188404083,0.9628658890724182
1751281741523878700,19.085878662109376,9.75757884979248,-0.2614375352859497,0.9442943334579468
1751281741542705400,19.104705322265627,9.75743579864502,-0.2686578929424286,0.9437534809112549
1751281741561532200,19.1235322265625,9.755518913269043,-0.2751844823360443,0.9615184664726257
1751281741580359200,19.142359130859376,9.754738807678223,-0.2711547613143921,0.9705235958099365
1751281741599186000,19.16118603515625,9.755033493041992,-0.2500983774662018,0.97322678565979
1751281741618012700,19.1800126953125,9.755426406860352,-0.2277875542640686,0.9747654795646667
1751281741636839400,19.19883935546875,9.75441837310791,-0.22076593339443207,0.9863957762718201
1751281741655666200,19.217666259765625,9.751709938049316,-0.2168491780757904,1.013660192489624
1751281741674493200,19.2364931640625,9.745835304260254,-0.20279523730278015,1.071425437927246
1751281741693320000,19.25531982421875,9.738972663879395,-0.19017302989959717,1.1342989206314087
1751281741712146700,19.274146728515625,9.737048149108887,-0.20562224090099335,1.1480400562286377
1751281741730973700,19.2929736328125,9.738993644714355,-0.200437530875206,1.1323573589324951
1751281741749800400,19.311800537109374,9.738630294799805,-0.19715794920921326,1.1360387802124023
1751281741768627200,19.330627197265624,9.73917007446289,-0.20868518948554993,1.1293432712554932
1751281741787454000,19.349453857421874,9.74264144897461,-0.20105807483196259,1.1004027128219604
1751281741806281000,19.368281005859377,9.746621131896973,-0.19764193892478943,1.0652215480804443
1751281741825107700,19.387107666015623,9.748808860778809,-0.20399998128414154,1.0437843799591064
1751281741853347800,19.415347900390625,9.752457618713379,-0.21345625817775726,1.00717294216156
1751281741872174800,19.4341748046875,9.756088256835938,-0.21632975339889526,0.9707369804382324
1751281741891001600,19.453001708984374,9.760059356689453,-0.2170126736164093,0.9298049807548523
1751281741909828400,19.471828369140624,9.763227462768555,-0.2189524620771408,0.895453155040741
1751281741928655000,19.490655029296875,9.76416015625,-0.2299990952014923,0.8824225664138794
1751281741947482000,19.509482177734377,9.764466285705566,-0.24679207801818848,0.8744620680809021
1751281741966308900,19.528308837890624,9.767646789550781,-0.25331979990005493,0.8362365365028381
1751281741985135600,19.547135498046874,9.768193244934082,-0.25030070543289185,0.830739438533783
1751281742003962400,19.56596240234375,9.765247344970703,-0.275745689868927,0.8569116592407227
1751281742022789400,19.584789306640626,9.760793685913086,-0.30136823654174805,0.8980425000190735
1751281742041616100,19.6036162109375,9.760807037353516,-0.2915647029876709,0.901127278804779
1751281742060443000,19.62244287109375,9.761181831359863,-0.2817040681838989,0.9002122282981873
1751281742079270000,19.641269775390626,9.759419441223145,-0.2952083349227905,0.9148514270782471
1751281742098096600,19.6600966796875,9.757036209106445,-0.30207884311676025,0.9377568364143372
1751281742116923400,19.67892333984375,9.754724502563477,-0.3021176755428314,0.9614863395690918
1751281742135750100,19.697750244140625,9.752718925476074,-0.3027673363685608,0.9814255833625793
1751281742154577000,19.716576904296875,9.75216293334961,-0.30093133449554443,0.9874967932701111
1751281742173404000,19.73540380859375,9.75255012512207,-0.2914736270904541,0.9865108132362366
1751281742192230700,19.754230712890624,9.75342845916748,-0.27609142661094666,0.9822428226470947
1751281742211057400,19.773057373046875,9.754542350769043,-0.25767672061920166,0.9761658310890198
1751281742229884400,19.791884521484373,9.755583763122559,-0.24042074382305145,0.9701334834098816
1751281742248711200,19.810711181640624,9.757608413696289,-0.2343638390302658,0.951068639755249
1751281742267538000,19.829537841796874,9.757596015930176,-0.2340715527534485,0.951274037361145
1751281742286364700,19.84836474609375,9.756467819213867,-0.2248496562242508,0.9649730324745178
1751281742305191700,19.867191650390627,9.756171226501465,-0.2057046890258789,0.9722139239311218
1751281742324018400,19.886018310546874,9.755314826965332,-0.19061294198036194,0.9838081002235413
1751281742342845200,19.90484521484375,9.7523193359375,-0.18187399208545685,1.014683485031128
1751281742361672200,19.923672119140626,9.747842788696289,-0.17471332848072052,1.0580250024795532
1751281742380499000,19.9424990234375,9.744658470153809,-0.17340347170829773,1.0871795415878296
1751281742399325700,19.96132568359375,9.740713119506836,-0.17250239849090576,1.1221113204956055
1751281742418152400,19.98015234375,9.737863540649414,-0.17137017846107483,1.14674973487854
1751281742436979500,19.9989794921875,9.73865032196045,-0.17058239877223969,1.140169620513916
1751281742455806200,20.01780615234375,9.738669395446777,-0.1711978316307068,1.13991117477417
1751281742474633000,20.036633056640625,9.735766410827637,-0.17760947346687317,1.163474678993225
1751281742493459700,20.055459716796875,9.732497215270996,-0.19043125212192535,1.188541293144226
1751281742512286700,20.07428662109375,9.730812072753906,-0.20450161397457123,1.1999431848526
1751281742531113500,20.093113525390624,9.729762077331543,-0.21888883411884308,1.2059035301208496
1751281742549940200,20.111940185546874,9.730549812316895,-0.23104806244373322,1.1972516775131226
1751281742568767000,20.13076708984375,9.733660697937012,-0.2364141047000885,1.1706111431121826
1751281742587594000,20.149593994140623,9.737255096435547,-0.2374730408191681,1.1401116847991943
1751281742606420700,20.168420654296874,9.740452766418457,-0.23998568952083588,1.1119301319122314
1751281742625247500,20.18724755859375,9.744269371032715,-0.2421276718378067,1.0774856805801392
1751281742644074200,20.20607421875,9.74866008758545,-0.2406008541584015,1.0373706817626953
1751281742662901200,20.2249013671875,9.753443717956543,-0.241278737783432,0.9912189245223999
1751281742681728000,20.24372802734375,9.762157440185547,-0.2353323996067047,0.9029381275177002
1751281742700554800,20.2625546875,9.775693893432617,-0.19929318130016327,0.7526476979255676
1751281742719381800,20.2813818359375,9.78550910949707,-0.15197943150997162,0.6253874897956848
1751281742738208500,20.30020849609375,9.788015365600586,-0.15179666876792908,0.58489590883255
1751281742757035300,20.31903515625,9.783954620361328,-0.18752421438694,0.639878511428833
1751281742775862000,20.337862060546875,9.776870727539062,-0.23263569176197052,0.7273663282394409
1751281742794689000,20.35668896484375,9.770279884338379,-0.26983267068862915,0.7995065450668335
1751281742813515800,20.375515869140624,9.76738166809082,-0.28825026750564575,0.8279845714569092
1751281742832342500,20.394342529296875,9.765660285949707,-0.28549352288246155,0.8489735722541809
1751281742851169500,20.41316943359375,9.762630462646484,-0.290066123008728,0.8816437125205994
1751281742869996300,20.431996337890624,9.758285522460938,-0.30047088861465454,0.9251891374588013
1751281742888823000,20.450822998046874,9.753497123718262,-0.3019852042198181,0.9738941788673401
1751281742907649800,20.46964990234375,9.751016616821289,-0.29994720220565796,0.9990350604057312
1751281742926476800,20.488476806640627,9.74848747253418,-0.2941337525844574,1.0251190662384033
1751281742945303600,20.507303466796873,9.74677562713623,-0.28911492228507996,1.0426775217056274
1751281742964130300,20.52613037109375,9.748346328735352,-0.2818242311477661,1.0299078226089478
1751281742982957000,20.54495703125,9.748568534851074,-0.27362367510795593,1.030023217201233
1751281743001784000,20.5637841796875,9.748014450073242,-0.27138087153434753,1.0358301401138306
1751281743020610800,20.58261083984375,9.747553825378418,-0.27030155062675476,1.0404351949691772
1751281743039437600,20.6014375,9.747029304504395,-0.26368871331214905,1.0470319986343384
1751281743058264300,20.620264404296876,9.7471342086792,-0.2532203495502472,1.048629879951477
1751281743077091300,20.63909130859375,9.747162818908691,-0.24168898165225983,1.0510895252227783
1751281743095918000,20.65791796875,9.746646881103516,-0.23197197914123535,1.0580487251281738
1751281743114744800,20.676744873046875,9.745133399963379,-0.2249913215637207,1.0733829736709595
1751281743133571600,20.695571533203125,9.742208480834961,-0.21342003345489502,1.1019049882888794
1751281743152398600,20.714398681640624,9.741249084472656,-0.19833742082118988,1.113156795501709
1751281743171225300,20.733225341796874,9.740452766418457,-0.19820734858512878,1.1201246976852417
1751281743190052000,20.752052001953125,9.738662719726562,-0.2030065357685089,1.1347373723983765
1751281743208879000,20.770879150390623,9.736018180847168,-0.20976561307907104,1.1560003757476807
1751281743227705900,20.789705810546874,9.734051704406738,-0.2158542275428772,1.1713385581970215
1751281743246532600,20.80853271484375,9.735158920288086,-0.21738450229167938,1.1618106365203857
1751281743265359400,20.827359375,9.736296653747559,-0.21661564707756042,1.1523844003677368
1751281743284186400,20.846186279296877,9.737852096557617,-0.21998034417629242,1.1385166645050049
1751281743303013000,20.86501318359375,9.740241050720215,-0.2193005383014679,1.1180330514907837
1751281743321839900,20.88383984375,9.741106033325195,-0.2225038707256317,1.109837293624878
1751281743340667000,20.9026669921875,9.741595268249512,-0.232658252120018,1.1034318208694458
1751281743359493600,20.92149365234375,9.742623329162598,-0.23870998620986938,1.0930287837982178
1751281743378320400,20.9403203125,9.744111061096191,-0.24489201605319977,1.0782827138900757
1751281743397147100,20.959147216796875,9.748814582824707,-0.2461649775505066,1.034597635269165
1751281743415974100,20.97797412109375,9.75719928741455,-0.23163221776485443,0.9559286236763
1751281743434801000,20.99680078125,9.768261909484863,-0.2041196972131729,0.8424901962280273
1751281743453627600,21.015627685546875,9.777384757995605,-0.17056521773338318,0.7375942468643188
1751281743472454400,21.034454345703125,9.779213905334473,-0.1681816130876541,0.7135035991668701
1751281743491281400,21.053281494140624,9.772512435913086,-0.21482975780963898,0.7888087630271912
1751281743510108200,21.072108154296874,9.758886337280273,-0.28770360350608826,0.9229068756103516
1751281743528935000,21.090934814453124,9.747021675109863,-0.346917062997818,1.0225465297698975
1751281743547762000,21.109761962890627,9.74786376953125,-0.34058648347854614,1.0166370868682861
1751281743566588700,21.128588623046873,9.752362251281738,-0.3187752068042755,0.9799080491065979
1751281743585415400,21.14741552734375,9.752852439880371,-0.32334083318710327,0.9735046625137329
1751281743604242200,21.1662421875,9.751665115356445,-0.33234408497810364,0.9823271036148071
1751281743623069200,21.185069091796876,9.754000663757324,-0.32743725180625916,0.9605336785316467
1751281743641896000,21.20389599609375,9.753917694091797,-0.31760236620903015,0.9646812081336975
1751281743660722700,21.22272265625,9.753827095031738,-0.31596797704696655,0.9661331176757812
1751281743679549700,21.2415498046875,9.755667686462402,-0.2997299134731293,0.9526335597038269
1751281743698376400,21.26037646484375,9.75631046295166,-0.29075607657432556,0.9488142728805542
1751281743717203200,21.279203125,9.75613021850586,-0.2882738709449768,0.9514210820198059
1751281743736030000,21.298030029296875,9.75648307800293,-0.2769052982330322,0.951190173625946
1751281743754857000,21.31685693359375,9.756758689880371,-0.26351606845855713,0.9521682858467102
1751281743773683700,21.33568359375,9.756328582763672,-0.25576794147491455,0.9586552381515503
1751281743792510500,21.354510498046874,9.75582218170166,-0.2480839639902115,0.9657984375953674
1751281743811337200,21.373337158203125,9.755882263183594,-0.23507386445999146,0.9684468507766724
1751281743830164200,21.392164306640623,9.756845474243164,-0.2199707180261612,0.9622713327407837
1751281743848991000,21.410990966796874,9.758193016052246,-0.20578396320343018,0.9516868591308594
1751281743867817700,21.429817626953124,9.75845718383789,-0.19380435347557068,0.9514955282211304
1751281743886644500,21.44864453125,9.757920265197754,-0.18306343257427216,0.9590935707092285
1751281743905471500,21.467471435546877,9.757567405700684,-0.17272910475730896,0.9645827412605286
1751281743924298200,21.48629833984375,9.757292747497559,-0.16507112979888916,0.9686974883079529
1751281743943125000,21.505125,9.757545471191406,-0.15984214842319489,0.9670286774635315
1751281743961951700,21.52395166015625,9.759049415588379,-0.15019255876541138,0.9533097743988037
1751281743980778800,21.54277880859375,9.762351989746094,-0.14260849356651306,0.9200786352157593
1751281743999605500,21.56160546875,9.764265060424805,-0.13371023535728455,0.9009090662002563
1751281744018432300,21.580432373046875,9.762752532958984,-0.13963481783866882,0.9162684082984924
1751281744037259300,21.59925927734375,9.756484985351562,-0.16352586448192596,0.9770505428314209
1751281744056086000,21.6180859375,9.750323295593262,-0.1852668672800064,1.0330798625946045
1751281744074912800,21.636912841796875,9.749914169311523,-0.18734313547611237,1.0365654230117798
1751281744093739500,21.655739501953125,9.752341270446777,-0.18462249636650085,1.0139752626419067
1751281744112566500,21.67456640625,9.7540922164917,-0.18602800369262695,0.9967269897460938
1751281744131393300,21.693393310546874,9.751143455505371,-0.19948935508728027,1.0226494073867798
1751281744150220000,21.712219970703124,9.744697570800781,-0.23213955760002136,1.0758081674575806
1751281744169047000,21.731047119140626,9.742842674255371,-0.2554524838924408,1.087266206741333
1751281744187873800,21.749873779296873,9.747739791870117,-0.24522821605205536,1.0449070930480957
1751281744206700500,21.768700439453124,9.75465202331543,-0.23412539064884186,0.9809935688972473
1751281744225527300,21.78752734375,9.75976276397705,-0.2247839719057083,0.9310725927352905
1751281744244354300,21.806354248046876,9.763647079467773,-0.22253409028053284,0.8899797201156616
1751281744263181000,21.82518115234375,9.765249252319336,-0.22531215846538544,0.8715019226074219
1751281744282007800,21.8440078125,9.766654968261719,-0.23389969766139984,0.8532957434654236
1751281744300834600,21.86283447265625,9.765432357788086,-0.24178385734558105,0.8650206923484802
1751281744319661600,21.88166162109375,9.760507583618164,-0.2749266028404236,0.9095555543899536
1751281744338488300,21.90048828125,9.754257202148438,-0.3102969229221344,0.963629961013794
1751281744357315000,21.919315185546875,9.75192928314209,-0.3205220699310303,0.9836350679397583
1751281744376142000,21.93814208984375,9.750828742980957,-0.3218305706977844,0.994057297706604
1751281744394968800,21.95696875,9.748497009277344,-0.3302561342716217,1.013961911201477
1751281744413795600,21.975795654296874,9.746376037597656,-0.33750081062316895,1.0318201780319214
1751281744432622300,21.994622314453125,9.747613906860352,-0.3343008756637573,1.021104335784912
1751281744451449300,22.013449462890627,9.750617980957031,-0.32384446263313293,0.9954606890678406
1751281744470276000,22.032276123046874,9.753421783447266,-0.315684050321579,0.9703086614608765
1751281744489102800,22.051102783203124,9.756536483764648,-0.3029739260673523,0.9426543116569519
1751281744507929900,22.069929931640626,9.759841918945312,-0.28509289026260376,0.913555920124054
1751281744526756600,22.088756591796876,9.761119842529297,-0.27270472049713135,0.9036430716514587
1751281744545583400,22.107583251953123,9.76188850402832,-0.2622867524623871,0.8984043598175049
1751281744564410000,22.12641015625,9.762925148010254,-0.24956706166267395,0.8907413482666016
1751281744583236900,22.14523681640625,9.76225757598877,-0.23889175057411194,0.9009168148040771
1751281744602064000,22.16406396484375,9.761587142944336,-0.22992900013923645,0.9104571342468262
1751281744620890600,22.182890625,9.761199951171875,-0.2186935693025589,0.9173550605773926
1751281744639717400,22.20171728515625,9.760753631591797,-0.20394256711006165,0.9254657030105591
1751281744658544400,22.22054443359375,9.761378288269043,-0.18731632828712463,0.9223828315734863
1751281744677371100,22.23937109375,9.761345863342285,-0.17391632497310638,0.9253405332565308
1751281744696198000,22.258197998046874,9.759493827819824,-0.1684810370206833,0.9456679821014404
1751281744715024600,22.277024658203125,9.756269454956055,-0.17105010151863098,0.9779163002967834
1751281744733851600,22.2958515625,9.752958297729492,-0.1718609631061554,1.0102746486663818
1751281744752678400,22.314678466796874,9.749730110168457,-0.17469967901706696,1.040492296218872
1751281744771505200,22.333505126953124,9.747425079345703,-0.18111371994018555,1.0607939958572388
1751281744790332000,22.352331787109375,9.744680404663086,-0.1892974078655243,1.0843243598937988
1751281744809159000,22.371158935546877,9.74028491973877,-0.2071603238582611,1.1199623346328735
1751281744827985700,22.389985595703124,9.740087509155273,-0.21717387437820435,1.1197830438613892
1751281744846812400,22.4088125,9.742330551147461,-0.21737247705459595,1.1000611782073975
1751281744865639400,22.427639404296876,9.743099212646484,-0.2274407148361206,1.0911848545074463
1751281744884466200,22.446466064453126,9.74317455291748,-0.24286432564258575,1.087180256843567
1751281744903293000,22.46529296875,9.7449369430542,-0.2523635923862457,1.06907320022583
1751281744922119700,22.48411962890625,9.748530387878418,-0.257735937833786,1.0344595909118652
1751281744940946700,22.50294677734375,9.75501823425293,-0.2562924921512604,0.9717743992805481
1751281744959773400,22.5217734375,9.761212348937988,-0.24055318534374237,0.9117333889007568
1751281744978600200,22.54060009765625,9.762312889099121,-0.24956713616847992,0.8974170684814453
1751281744997427200,22.55942724609375,9.760320663452148,-0.27456870675086975,0.9116730690002441
1751281745016254000,22.57825390625,9.759119033813477,-0.2869036793708801,0.9206834435462952
1751281745035080700,22.597080810546874,9.760466575622559,-0.2841561734676361,0.9071491956710815
1751281745053907500,22.615907470703124,9.76171875,-0.27700549364089966,0.8958325982093811
1751281745072734500,22.634734375,9.760740280151367,-0.27965426445007324,0.9056088328361511
1751281745091561200,22.653561279296873,9.757741928100586,-0.2916657030582428,0.9337002635002136
1751281745110388000,22.672387939453124,9.756122589111328,-0.2951209843158722,0.9493981003761292
1751281745129214700,22.691214599609374,9.755743980407715,-0.2933783233165741,0.9538198709487915
1751281745148041700,22.710041748046876,9.75461196899414,-0.291612446308136,0.9658644795417786
1751281745166868500,22.728868408203127,9.753342628479004,-0.2914671301841736,0.9786468744277954
1751281745185695200,22.7476953125,9.752927780151367,-0.2851264774799347,0.9846209287643433
1751281745204522200,22.766522216796876,9.753470420837402,-0.27805036306381226,0.9812769889831543
1751281745223349000,22.785348876953126,9.753032684326172,-0.26760244369506836,0.9884939193725586
1751281745242175700,22.80417578125,9.754137992858887,-0.2540525496006012,0.9811288714408875
1751281745261002500,22.82300244140625,9.756841659545898,-0.23628146946430206,0.958440899848938
1751281745279829200,22.841829345703125,9.76048469543457,-0.21592874825000763,0.9255815744400024
1751281745298656300,22.86065625,9.7628812789917,-0.19474056363105774,0.9047675728797913
1751281745317483000,22.87948291015625,9.765030860900879,-0.17732740938663483,0.884941041469574
1751281745336309800,22.898309814453125,9.766161918640137,-0.1609068214893341,0.8755470514297485
1751281745355136800,22.91713671875,9.766202926635742,-0.14775744080543518,0.8774116039276123
1751281745373963500,22.935963623046874,9.763928413391113,-0.14558729529380798,0.9027183651924133
1751281745392790300,22.954790283203124,9.75817584991455,-0.15900203585624695,0.9607924818992615
1751281745411617000,22.973616943359374,9.751909255981445,-0.17424707114696503,1.019944190979004
1751281745430444000,22.992444091796877,9.74608325958252,-0.18397146463394165,1.0725681781768799
1751281745449270800,23.011270751953123,9.741063117980957,-0.20531496405601501,1.113520860671997
1751281745468097500,23.03009765625,9.738729476928711,-0.21788306534290314,1.1314010620117188
1751281745486924500,23.048924560546876,9.738271713256836,-0.22136719524860382,1.1346545219421387
1751281745505751300,23.067751220703126,9.739109992980957,-0.22960264980793,1.125786304473877
1751281745524578000,23.086578125,9.739914894104004,-0.23706603050231934,1.1172502040863037
1751281745543404800,23.10540478515625,9.741255760192871,-0.24411700665950775,1.1039639711380005
1751281745562231800,23.124231689453126,9.743338584899902,-0.2502683103084564,1.0840197801589966
1751281745590472000,23.152471923828124,9.745244979858398,-0.27354326844215393,1.0610207319259644
1751281745609298700,23.171298583984374,9.74907398223877,-0.2781866490840912,1.023995280265808
1751281745628125400,23.19012548828125,9.755526542663574,-0.2672007083892822,0.9636933207511902
1751281745646952400,23.208952392578126,9.759763717651367,-0.2653782069683075,0.9203046560287476
1751281745665779200,23.227779296875,9.762184143066406,-0.2743954062461853,0.8915402889251709
1751281745684606000,23.24660595703125,9.763937950134277,-0.2754111588001251,0.8718109726905823
1751281745703433000,23.265432861328126,9.764371871948242,-0.28219515085220337,0.8647547364234924
1751281745722259700,23.284259765625,9.763223648071289,-0.29473596811294556,0.8735030889511108
1751281745741086500,23.30308642578125,9.76073169708252,-0.30814558267593384,0.8964093923568726
1751281745759913200,23.321913330078125,9.757417678833008,-0.32216736674308777,0.9270294904708862
1751281745778740200,23.340740234375,9.754294395446777,-0.3314974308013916,0.956153392791748
1751281745797567000,23.35956689453125,9.74912166595459,-0.3411031663417816,1.0043267011642456
1751281745816393700,23.378393798828125,9.745824813842773,-0.3549179136753082,1.031183123588562
1751281745835220700,23.397220703125,9.746273040771484,-0.35125935077667236,1.0281842947006226
1751281745854047500,23.416047607421874,9.74707317352295,-0.340221107006073,1.0243120193481445
1751281745872874200,23.434874267578124,9.74746322631836,-0.33560827374458313,1.0221067667007446
1751281745891701000,23.453700927734374,9.74705696105957,-0.32933753728866577,1.0280104875564575
1751281745910528000,23.472528076171876,9.746419906616211,-0.3103361427783966,1.0398948192596436
1751281745929354800,23.491354736328127,9.74421215057373,-0.2888573110103607,1.0664348602294922
1751281745948181500,23.510181396484374,9.744962692260742,-0.27242234349250793,1.063896656036377
1751281745967008300,23.52900830078125,9.748324394226074,-0.25646573305130005,1.0367172956466675
1751281745985835300,23.547835205078126,9.751073837280273,-0.23654933273792267,1.0153754949569702
1751281746004662000,23.566662109375,9.75277328491211,-0.21742087602615356,1.0032576322555542
1751281746023488800,23.58548876953125,9.75379753112793,-0.2028159499168396,0.9963298439979553
1751281746042315800,23.604315673828125,9.756468772888184,-0.18735288083553314,0.9729323983192444
1751281746061142500,23.623142578125,9.759200096130371,-0.16690030694007874,0.9489782452583313
1751281746079969300,23.64196923828125,9.756409645080566,-0.1617749184370041,0.9781006574630737
1751281746098796000,23.660796142578125,9.751200675964355,-0.1787247657775879,1.0259332656860352
1751281746117623000,23.679623046875,9.74708080291748,-0.1872151792049408,1.0629042387008667
1751281746136449800,23.69844970703125,9.746546745300293,-0.1844678521156311,1.0682648420333862
1751281746155276500,23.717276611328124,9.746367454528809,-0.190226212143898,1.068880319595337
1751281746174103300,23.736103271484374,9.745665550231934,-0.19911926984786987,1.0736613273620605
1751281746192930300,23.754930419921877,9.744426727294922,-0.20662182569503784,1.0834407806396484
1751281746211757000,23.773757080078123,9.742667198181152,-0.22125597298145294,1.0963051319122314
1751281746230583800,23.792583740234374,9.741083145141602,-0.23307722806930542,1.1078695058822632
1751281746249410600,23.81141064453125,9.738533973693848,-0.24803413450717926,1.1268641948699951
1751281746268237600,23.830237548828126,9.735372543334961,-0.2743602693080902,1.1478781700134277
1751281746287064300,23.849064208984377,9.73597240447998,-0.29827800393104553,1.1367766857147217
1751281746305891000,23.86789111328125,9.740696907043457,-0.29880884289741516,1.095415472984314
1751281746324718000,23.886718017578126,9.75031566619873,-0.27585336565971375,1.0127369165420532
1751281746343544800,23.905544921875,9.753439903259277,-0.2781125009059906,0.9815459847450256
1751281746362371600,23.92437158203125,9.74813461303711,-0.32770559191703796,1.0182693004608154
1751281746381198300,23.9431982421875,9.746919631958008,-0.3503667414188385,1.0223485231399536
1751281746400025300,23.962025390625,9.752640724182129,-0.33053696155548096,0.9732078313827515
1751281746418852000,23.98085205078125,9.754703521728516,-0.3277457058429718,0.953270435333252
1751281746437678800,23.999678955078124,9.753771781921387,-0.3455078601837158,0.9565184116363525
1751281746456505600,24.018505615234375,9.754979133605957,-0.3462372124195099,0.9438740611076355
1751281746475332600,24.03733251953125,9.756945610046387,-0.33589932322502136,0.9271408319473267
