time,seconds_elapsed,z,y,x
1751281722631163400,0.193163330078125,-0.0054977829568088055,0.005955931730568409,0.008093958720564842
1751281722649990100,0.211990234375,-0.0054977829568088055,0.0010690133785828948,0.0019853105768561363
1751281722668817000,0.23081689453125,-0.004276053514331579,0.004734201822429895,0.0007635809597559273
1751281722687643600,0.2496435546875,-0.0054977829568088055,0.0010690133785828948,0.005650499369949102
1751281722706470400,0.268470458984375,-0.0054977829568088055,0.005955931730568409,0.005650499369949102
1751281722725297200,0.287297119140625,-0.004276053514331579,0.003512472379952669,0.0032070400193333626
1751281722744124000,0.3061240234375,-0.004276053514331579,0.0010690133785828948,0.0019853105768561363
1751281722762951000,0.324950927734375,-0.0054977829568088055,0.004734201822429895,0.0032070400193333626
1751281722781777700,0.343777587890625,-0.0054977829568088055,0.003512472379952669,0.005650499369949102
1751281722800604400,0.3626044921875,-0.0054977829568088055,0.004734201822429895,0.004428769461810589
1751281722819431200,0.38143115234375,-0.0054977829568088055,0.002290742937475443,0.0032070400193333626
1751281722838258000,0.4002578125,-0.0054977829568088055,0.003512472379952669,0.004428769461810589
1751281722857084700,0.419084716796875,-0.0054977829568088055,0.003512472379952669,0.004428769461810589
1751281722875911700,0.43791162109375,-0.0054977829568088055,0.004734201822429895,0.004428769461810589
1751281722894738400,0.456738525390625,-0.0054977829568088055,0.003512472379952669,0.0032070400193333626
1751281722913565200,0.475565185546875,-0.0054977829568088055,0.003512472379952669,0.0032070400193333626
1751281722932392000,0.494391845703125,-0.0054977829568088055,0.003512472379952669,0.0032070400193333626
1751281722951218700,0.51321875,-0.0054977829568088055,0.002290742937475443,0.004428769461810589
1751281722970045400,0.53204541015625,-0.0054977829568088055,0.002290742937475443,0.004428769461810589
1751281722988872400,0.55087255859375,-0.0054977829568088055,0.003512472379952669,0.004428769461810589
1751281723007699200,0.56969921875,-0.0054977829568088055,0.002290742937475443,0.0032070400193333626
1751281723026526000,0.58852587890625,-0.0054977829568088055,0.004734201822429895,0.004428769461810589
1751281723045352700,0.607352783203125,-0.0054977829568088055,0.002290742937475443,0.004428769461810589
1751281723064179500,0.626179443359375,-0.000610864779446274,0.02306014485657215,-0.021227551624178886
1751281723083006500,0.64500634765625,-0.000610864779446274,0.0010690133785828948,-0.03329212963581085
1751281723101833200,0.663833251953125,-0.0054977829568088055,-0.02458730712532997,-0.001679878099821508
1751281723120660000,0.682659912109375,-0.010384701192378998,0.010842849500477314,0.03741546720266342
1751281723139486700,0.70148681640625,-0.010384701192378998,0.015729768201708794,0.04474584385752678
1751281723158313500,0.7203134765625,-0.006719512399286032,0.002290742937475443,0.010537417605519295
1751281723177140200,0.73914013671875,-0.004276053514331579,-0.0038179049734026194,-0.018631376326084137
1751281723195967200,0.75796728515625,-0.004276053514331579,-0.005039634648710489,-0.005345067009329796
1751281723214794000,0.7767939453125,-0.006719512399286032,0.009621120058000088,0.0154243353754282
1751281723233620700,0.795620849609375,-0.006719512399286032,0.009621120058000088,0.016646064817905426
1751281723252447500,0.814447509765625,-0.0054977829568088055,-0.0001527161948615685,0.0007635809597559273
1751281723271274200,0.833274169921875,-0.004276053514331579,-0.0013744457392022014,-0.005345067009329796
1751281723290101200,0.852101318359375,-0.0054977829568088055,0.003512472379952669,0.0032070400193333626
1751281723308928000,0.870927978515625,-0.006719512399286032,0.004734201822429895,0.010537417605519295
1751281723327754800,0.889754638671875,-0.0054977829568088055,0.004734201822429895,0.004428769461810589
1751281723346581500,0.90858154296875,-0.0054977829568088055,0.0010690133785828948,-0.00045814859913662076
1751281723365408300,0.927408203125,-0.0054977829568088055,0.0010690133785828948,0.0019853105768561363
1751281723384235300,0.9462353515625,-0.0054977829568088055,0.004734201822429895,0.005650499369949102
1751281723403062000,0.96506201171875,-0.0054977829568088055,0.004734201822429895,0.005650499369949102
1751281723421888800,0.983888671875,-0.0054977829568088055,0.0010690133785828948,0.0032070400193333626
1751281723440715500,1.002715576171875,-0.004276053514331579,0.005955931730568409,0.0007635809597559273
1751281723459542300,1.021542236328125,0.000610864779446274,0.03527744114398956,-0.019853105768561363
1751281723478369300,1.040369384765625,0.001832594396546483,0.010842849500477314,-0.041844237595796585
1751281723497196000,1.059196044921875,-0.000610864779446274,-0.014813470654189587,-0.02611446939408779
1751281723516022800,1.078022705078125,-0.006719512399286032,0.007177661173045635,0.008093958720564842
1751281723534849500,1.096849609375,-0.010384701192378998,-0.0013744457392022014,0.04718930274248123
1751281723553676300,1.11567626953125,-0.007941242307424545,0.007177661173045635,0.03130681812763214
1751281723572503300,1.13450341796875,-0.001832594396546483,-0.0038179049734026194,-0.0102319847792387
1751281723591330000,1.153330078125,0.000610864779446274,-0.01359174121171236,-0.04306596517562866
1751281723610156800,1.17215673828125,0.001832594396546483,-0.01359174121171236,-0.035735588520765305
1751281723628983600,1.190983642578125,-0.004276053514331579,-0.0038179049734026194,-0.009010255336761475
1751281723647810600,1.209810546875,-0.0054977829568088055,-0.007483093533664942,0.01908952370285988
1751281723666637300,1.22863720703125,-0.0054977829568088055,0.004734201822429895,0.02153298258781433
1751281723685464000,1.247464111328125,-0.004276053514331579,0.014508038759231567,0.0019853105768561363
1751281723704290800,1.266290771484375,-0.0030543238390237093,-0.02458730712532997,-0.007788525894284248
1751281723723117800,1.285117919921875,-0.001832594396546483,-0.012370011769235134,-0.012675444595515728
1751281723741944600,1.303944580078125,-0.001832594396546483,-0.0062613640911877155,-0.001679878099821508
1751281723760771300,1.322771240234375,-0.000610864779446274,0.015729768201708794,-0.001679878099821508
1751281723779598000,1.34159814453125,0.000610864779446274,0.005955931730568409,-0.01511890348047018
1751281723798424800,1.3604248046875,0.0030543238390237093,0.003512472379952669,-0.028405211865901947
1751281723817251600,1.37925146484375,-0.001832594396546483,0.005955931730568409,-0.02718348242342472
1751281723836078600,1.39807861328125,-0.000610864779446274,0.008399390615522861,-0.012675444595515728
1751281723854905300,1.4169052734375,-0.001832594396546483,0.007177661173045635,-0.007788525894284248
1751281723873732000,1.435732177734375,0.000610864779446274,-0.016035201027989388,-0.019853105768561363
1751281723892558800,1.454558837890625,0.006719512399286032,-0.020922118797898293,-0.03817904740571976
1751281723911385900,1.4733857421875,0.02260199747979641,0.005955931730568409,-0.031001387163996696
1751281723930212600,1.492212646484375,0.037262752652168274,0.026572618633508682,-0.002901607658714056
1751281723949039400,1.511039306640625,0.07269290834665298,0.01695149764418602,0.01908952370285988
1751281723967866000,1.5298662109375,0.23884813487529755,-0.012370011769235134,0.04230238497257233
1751281723986693000,1.548693115234375,0.555276095867157,-0.01359174121171236,0.13271036744117737
1751281724005520000,1.567519775390625,0.7703005075454712,-0.036804601550102234,0.23533566296100616
1751281724024346600,1.5863466796875,0.7153226733207703,-0.017256930470466614,0.24266603589057922
1751281724043173400,1.60517333984375,0.5076286196708679,0.0461202897131443,0.10216713696718216
1751281724062000000,1.624000244140625,0.2938259541988373,-0.049021899700164795,-0.0870482325553894
1751281724080827100,1.6428271484375,0.033597562462091446,-0.13332124054431915,-0.06017018109560013
1751281724099654000,1.66165380859375,-0.04459312930703163,0.08888082206249237,0.022754713892936707
1751281724118480600,1.680480712890625,-0.009162971749901772,0.04245510324835777,0.11316270381212234
1751281724137307400,1.699307373046875,-0.009162971749901772,0.02779434807598591,0.07773254066705704
1751281724156134400,1.718134521484375,-0.004276053514331579,-0.02214384824037552,-0.009010255336761475
1751281724174961200,1.736961181640625,-0.0030543238390237093,-0.02458730712532997,-0.04306596517562866
1751281724193788000,1.755787841796875,-0.004276053514331579,0.018173227086663246,-0.007788525894284248
1751281724212614700,1.77461474609375,-0.007941242307424545,0.010842849500477314,0.03497200831770897
1751281724231441700,1.793441650390625,-0.029932374134659767,0.07055488228797913,0.03375028073787689
1751281724250268400,1.812268310546875,-0.06536252796649933,0.15485422313213348,0.06062832847237587
1751281724269095200,1.83109521484375,-0.15699224174022675,0.2733619809150696,0.11438442766666412
1751281724287922000,1.849921875,-0.379347026348114,0.42974337935447693,0.17424917221069336
1751281724306749000,1.8687490234375,-0.4819723069667816,0.15485422313213348,0.07651081681251526
1751281724325575700,1.88757568359375,-0.34147340059280396,-0.15897755324840546,-0.10903936624526978
1751281724344402400,1.90640234375,-0.17531819641590118,-0.6659952998161316,-0.35216355323791504
1751281724363229200,1.925229248046875,0.05070177838206291,-0.49861836433410645,-0.2409861534833908
1751281724382056200,1.94405615234375,0.011606430634856224,-0.029474224895238876,-0.035735588520765305
1751281724400883000,1.962883056640625,-0.06291907280683517,-0.009926552884280682,0.028863361105322838
1751281724419709700,1.981709716796875,-0.01282816007733345,-0.007483093533664942,-0.016340631991624832
1751281724438536400,2.000536376953125,-0.001832594396546483,0.002290742937475443,-0.022296564653515816
1751281724457363200,2.01936328125,0.01282816007733345,0.002290742937475443,-0.019853105768561363
1751281724476190200,2.038190185546875,0.05558869615197182,0.01206457894295454,-0.03695731982588768
1751281724495017000,2.057016845703125,0.14721840620040894,-0.012370011769235134,-0.08460476994514465
1751281724513843700,2.07584375,0.2987128794193268,0.005955931730568409,-0.018631376326084137
1751281724532670700,2.094670654296875,0.5222893953323364,0.06200277432799339,0.11804962158203125
1751281724551497500,2.11349755859375,0.7483093738555908,0.10598503798246384,0.19990549981594086
1751281724570324200,2.13232421875,0.9669989347457886,0.07910698652267456,0.20112723112106323
1751281724589151000,2.15115087890625,1.249218463897705,-0.08078686892986298,0.1510363221168518
1751281724607977700,2.169977783203125,1.4556907415390015,-0.17608177661895752,0.18035782873630524
1751281724626804700,2.1888046875,1.4996730089187622,-0.07345648854970932,0.2683223485946655
1751281724645631500,2.207631591796875,1.434921383857727,-0.009926552884280682,0.2890917658805847
1751281724664458200,2.226458251953125,1.3310743570327759,-0.019700389355421066,0.2328922003507614
1751281724683285000,2.245284912109375,1.1588104963302612,-0.06001746281981468,0.17302745580673218
1751281724702112000,2.264112060546875,0.896138608455658,-0.04535670951008797,0.13881902396678925
1751281724720938800,2.282938720703125,0.5797106623649597,-0.03436114266514778,0.07040216773748398
1751281724739765500,2.301765625,0.22663083672523499,-0.03436114266514778,-0.04306596517562866
1751281724758592500,2.320592529296875,-0.13011419773101807,0.015729768201708794,-0.13225223124027252
1751281724777419300,2.339419189453125,-0.2657261788845062,-0.05757400393486023,-0.09193515032529831
1751281724796246000,2.35824609375,-0.583375871181488,-0.06123919412493706,-0.10048725455999374
1751281724815072800,2.37707275390625,-0.9902117848396301,0.002290742937475443,-0.13713914155960083
1751281724833899500,2.3958994140625,-1.4373648166656494,0.08399390429258347,-0.20677772164344788
1751281724852726500,2.4147265625,-1.8503093719482422,0.10476330667734146,-0.25931209325790405
1751281724871553300,2.43355322265625,-2.1019856929779053,0.09865466505289078,-0.2984074354171753
1751281724890380000,2.452380126953125,-2.1728460788726807,0.1182023361325264,-0.3094030022621155
1751281724909207000,2.47120703125,-2.199723958969116,0.14019346237182617,-0.24831652641296387
1751281724928033800,2.49003369140625,-2.3365578651428223,0.2672533392906189,-0.1750127524137497
1751281724946860500,2.508860595703125,-2.514930248260498,0.2562577724456787,-0.18356487154960632
1751281724965687300,2.527687255859375,-2.573573350906372,0.23548837006092072,-0.282524973154068
1751281724984514000,2.54651416015625,-2.5124869346618652,0.27580544352531433,-0.2837466895580292
1751281725003341000,2.565341064453125,-2.397644281387329,0.40775224566459656,-0.17134757339954376
1751281725022167800,2.584167724609375,-2.1581852436065674,0.3222311735153198,-0.0772743970155716
1751281725040994600,2.60299462890625,-1.823431372642517,0.18295399844646454,-0.12614357471466064
1751281725059821600,2.621821533203125,-1.4569125175476074,-0.07101303339004517,-0.189673513174057
1751281725078648300,2.6406484375,-1.1343759298324585,-0.2444986253976822,-0.21655155718326569
1751281725097475000,2.65947509765625,-0.8460476994514465,-0.16997312009334564,-0.19089524447917938
1751281725116301800,2.6783017578125,-0.45998117327690125,-0.04169152304530144,-0.11636973917484283
1751281725135128800,2.69712890625,0.08613193035125732,-0.2029598206281662,0.014202605932950974
1751281725153955600,2.71595556640625,0.4062250852584839,-0.17119485139846802,0.1253799945116043
1751281725172782300,2.7347822265625,0.7959567904472351,0.003512472379952669,0.05329795181751251
1751281725191609000,2.753609130859375,1.204014539718628,-0.13942988216876984,0.05818486958742142
1751281725210436000,2.77243603515625,1.4434734582901,-0.1418733447790146,0.1204930767416954
1751281725229262800,2.791262939453125,1.5680898427963257,-0.07101303339004517,0.2292270064353943
1751281725248089600,2.810089599609375,1.6988149881362915,-0.03191768378019333,0.29275694489479065
1751281725266916400,2.828916259765625,1.9761475324630737,-0.08567378669977188,0.2487746775150299
1751281725285743400,2.847743408203125,2.3353359699249268,-0.15897755324840546,0.22434009611606598
1751281725304570000,2.866570068359375,2.649320602416992,-0.18096868693828583,0.35017824172973633
1751281725323396900,2.88539697265625,2.8765623569488525,-0.10766492038965225,0.4699077308177948
1751281725342223600,2.9042236328125,2.964526891708374,-0.033139415085315704,0.4943423271179199
1751281725361050600,2.923050537109375,2.8570146560668945,-0.012370011769235134,0.41615164279937744
1751281725379877400,2.94187744140625,2.5772385597229004,-0.009926552884280682,0.2964221239089966
1751281725398704000,2.9607041015625,2.433074474334717,-0.07345648854970932,0.2487746775150299
1751281725417531000,2.97953076171875,2.5161521434783936,-0.23472478985786438,0.2280052751302719
1751281725455184600,3.0171845703125,2.1300854682922363,0.0461202897131443,0.37094762921333313
1751281725474011400,3.036011474609375,1.5070034265518188,0.09498947113752365,0.263435423374176
1751281725492838100,3.054838134765625,0.7263182401657104,0.08155044913291931,0.028863361105322838
1751281725511665200,3.0736650390625,-0.10201441496610641,0.11209368705749512,-0.16035200655460358
1751281725530492000,3.092491943359375,-0.5161807537078857,0.06322450190782547,-0.14217877388000488
1751281725549318700,3.111318603515625,-0.8924734592437744,0.018173227086663246,-0.07116574794054031
1751281725568145700,3.130145751953125,-1.212566614151001,-0.011148282326757908,-0.0821613147854805
1751281725586972400,3.148972412109375,-1.599854826927185,0.019394956529140472,-0.1640172004699707
1751281725605799200,3.167799072265625,-2.191171884536743,0.09987638890743256,-0.2202167510986328
1751281725624626000,3.1866259765625,-2.8289148807525635,0.22449280321598053,-0.2971857190132141
1751281725643453000,3.205452880859375,-3.263850450515747,-0.029474224895238876,-0.42913252115249634
1751281725662279700,3.22427978515625,-3.135568857192993,0.05833758786320686,-0.5842921733856201
1751281725681106400,3.2431064453125,-2.673755168914795,-0.04780016839504242,-0.4877755343914032
1751281725699933200,3.26193310546875,-2.2510366439819336,-0.017256930470466614,-0.2837466895580292
1751281725718760200,3.28076025390625,-1.9834779500961304,0.17073670029640198,-0.13591741025447845
1751281725737587000,3.2995869140625,-1.7928881645202637,0.14508038759231567,-0.1285870373249054
1751281725756413700,3.31841357421875,-1.7037018537521362,0.05833758786320686,-0.1957821547985077
1751281725775240400,3.337240478515625,-1.629176378250122,0.06566796451807022,-0.25320345163345337
1751281725794067500,3.3560673828125,-1.3530654907226562,0.05955931544303894,-0.19944734871387482
1751281725812894200,3.374894287109375,-0.8472694754600525,0.08032871782779694,-0.09437860548496246
1751281725831721000,3.393720947265625,-0.21685700118541718,0.060781046748161316,0.01908952370285988
1751281725850548000,3.4125478515625,0.3231474757194519,-0.06246092543005943,0.02764163166284561
1751281725869374700,3.431374755859375,0.5577195286750793,-0.12965604662895203,0.16569706797599792
1751281725888201500,3.450201416015625,0.8619301915168762,0.06322450190782547,0.16447533667087555
1751281725907028200,3.4690283203125,1.2822052240371704,-0.05024362727999687,0.12782345712184906
1751281725925855200,3.487855224609375,1.619402527809143,-0.04780016839504242,0.17424917221069336
1751281725944682000,3.506681884765625,1.805105447769165,0.018173227086663246,0.32330018281936646
1751281725963508700,3.5255087890625,1.8539745807647705,0.09987638890743256,0.40026915073394775
1751281725982335500,3.54433544921875,1.9113959074020386,0.06566796451807022,0.2890917658805847
1751281726001162500,3.56316259765625,2.2559237480163574,-0.1357647031545639,0.12782345712184906
1751281726019989200,3.5819892578125,2.5418083667755127,-0.33490660786628723,0.1815795600414276
1751281726038816000,3.60081591796875,2.4379613399505615,-0.09300415962934494,0.40515607595443726
1751281726057643000,3.61964306640625,2.1313071250915527,0.05833758786320686,0.46746426820755005
1751281726076469800,3.6384697265625,1.8173227310180664,-0.012370011769235134,0.17302745580673218
1751281726095296500,3.657296630859375,1.4202606678009033,-0.1357647031545639,0.061850059777498245
1751281726114123300,3.676123291015625,0.9474512934684753,0.014508038759231567,0.11316270381212234
1751281726132950300,3.6949501953125,0.583375871181488,0.04505127668380737,0.0691804364323616
1751281726151777000,3.713777099609375,0.34147340059280396,-0.05513054504990578,-0.06994401663541794
1751281726170603800,3.732603759765625,0.03237583488225937,0.010842849500477314,-0.09560033679008484
1751281726189430800,3.7514306640625,-0.13988803327083588,0.09987638890743256,0.04841103404760361
1751281726208257500,3.770257568359375,-0.28405213356018066,0.060781046748161316,0.16814053058624268
1751281726227084300,3.789084228515625,-0.6151408553123474,-0.005039634648710489,0.012980876490473747
1751281726245911000,3.8079111328125,-0.9926552772521973,-0.05635227635502815,-0.2629773020744324
1751281726264738000,3.826738037109375,-1.3921607732772827,-0.2078467458486557,-0.3704894781112671
1751281726283564800,3.845564697265625,-1.7611231803894043,-0.19074252247810364,-0.4059196412563324
1751281726302391600,3.8643916015625,-2.087324857711792,-0.11133010685443878,-0.383928507566452
1751281726321218300,3.88321826171875,-2.3451099395751953,0.02306014485657215,-0.35582873225212097
1751281726340045300,3.90204541015625,-2.5100433826446533,0.22449280321598053,-0.32039856910705566
1751281726358872000,3.9208720703125,-2.4318525791168213,0.2110537886619568,-0.2874118685722351
1751281726377698800,3.93969873046875,-2.202167510986328,0.07788526266813278,-0.3094030022621155
1751281726396525800,3.95852587890625,-2.0531165599823,0.0766635313630104,-0.29962918162345886
1751281726415352600,3.9773525390625,-1.9749258756637573,0.1340848207473755,-0.24709481000900269
1751281726434179300,3.996179443359375,-1.933387041091919,0.23182319104671478,-0.18600831925868988
1751281726453006000,4.015006103515625,-1.8991786241531372,0.23304490745067596,-0.13591741025447845
1751281726471833000,4.0338330078125,-1.7928881645202637,0.2660316228866577,-0.1444695144891739
1751281726490659800,4.052659912109375,-1.4483604431152344,0.22449280321598053,-0.16768237948417664
1751281726509486600,4.071486572265625,-0.7959567904472351,0.08277218043804169,-0.13958260416984558
1751281726528313600,4.090313720703125,-0.027488915249705315,-0.0844520553946495,-0.03329212963581085
1751281726547140400,4.109140380859375,0.3964512348175049,-0.08689551800489426,0.1815795600414276
1751281726565967000,4.127967041015625,0.5968148708343506,-0.039248060435056686,0.2023489624261856
1751281726584793900,4.1467939453125,0.8179479241371155,-0.04657844081521034,0.09605848789215088
1751281726603620900,4.165620849609375,1.183245062828064,-0.11499529331922531,0.03375028073787689
1751281726622447600,4.184447509765625,1.5839723348617554,-0.19440771639347076,0.08872810751199722
1751281726641274400,4.2032744140625,1.842979073524475,-0.11255183815956116,0.25121814012527466
1751281726660101000,4.22210107421875,1.9846997261047363,-0.07223475724458694,0.407599538564682
1751281726678928100,4.24092822265625,2.067777395248413,-0.0062613640911877155,0.3831649422645569
1751281726697755000,4.2597548828125,2.1166465282440186,-0.09789107739925385,0.24510949850082397
1751281726716581600,4.27858154296875,2.061668634414673,-0.24816381931304932,0.25610506534576416
1751281726735408600,4.29740869140625,1.9162827730178833,-0.04169152304530144,0.3452913165092468
1751281726754235400,4.3162353515625,1.8185445070266724,-0.01359174121171236,0.3269653618335724
1751281726773062100,4.335062255859375,1.8014402389526367,-0.13332124054431915,0.2023489624261856
1751281726791889000,4.353888916015625,1.7122539281845093,-0.02214384824037552,0.16447533667087555
1751281726810716000,4.3727158203125,1.564424753189087,-0.011148282326757908,0.20357069373130798
1751281726829542700,4.391542724609375,1.453247308731079,0.021838415414094925,0.19990549981594086
1751281726848369400,4.410369384765625,1.3103049993515015,0.002290742937475443,0.16081015765666962
1751281726867196400,4.429196533203125,1.0622938871383667,0.06444623321294785,0.15836669504642487
1751281726886023200,4.448023193359375,0.6908880472183228,0.08399390429258347,0.14981459081172943
1751281726904850000,4.466849853515625,0.25961753726005554,0.13164135813713074,0.0948367565870285
1751281726923676700,4.4856767578125,-0.09101885557174683,0.07055488228797913,-0.024740023538470268
1751281726942503700,4.504503662109375,-0.07880155742168427,-0.04046979174017906,-0.057726722210645676
1751281726961330400,4.523330322265625,-0.09590577334165573,-0.05757400393486023,0.01908952370285988
1751281726980157200,4.5421572265625,-0.17531819641590118,0.10109812021255493,0.02153298258781433
1751281726998984000,4.56098388671875,-0.43921178579330444,0.11453714966773987,-0.002901607658714056
1751281727017811000,4.57981103515625,-0.8582650423049927,-0.04780016839504242,-0.02611446939408779
1751281727036637700,4.5986376953125,-1.2638791799545288,-0.09056070446968079,-0.20433427393436432
1751281727055464400,4.61746435546875,-1.5790854692459106,-0.03436114266514778,-0.36682429909706116
1751281727074291500,4.63629150390625,-1.9101741313934326,0.09376774728298187,-0.3582721948623657
1751281727093118200,4.6551181640625,-2.210719585418701,0.11942406743764877,-0.2764163017272949
1751281727111945000,4.673945068359375,-2.41963529586792,0.06811141967773438,-0.26419901847839355
1751281727130771700,4.692771728515625,-2.508821725845337,0.05222893878817558,-0.3130682110786438
1751281727149598700,4.7115986328125,-2.4856088161468506,0.10720676928758621,-0.3448331654071808
1751281727168425500,4.730425537109375,-2.430630922317505,0.14996729791164398,-0.282524973154068
1751281727187252200,4.749252197265625,-2.3732097148895264,0.1182023361325264,-0.26419901847839355
1751281727206079200,4.768079345703125,-2.3170101642608643,0.10231985151767731,-0.2971857190132141
1751281727224906000,4.786906005859375,-2.1361942291259766,0.07788526266813278,-0.2813032269477844
1751281727243732700,4.805732666015625,-1.8539745807647705,0.1597411334514618,-0.22876885533332825
1751281727262559700,4.824559814453125,-1.4850122928619385,0.15118902921676636,-0.11881320178508759
1751281727281386500,4.843386474609375,-1.0207550525665283,0.0668896958231926,-0.06383536756038666
1751281727300213200,4.862213134765625,-0.5772672295570374,0.008399390615522861,-0.035735588520765305
1751281727319040000,4.8810400390625,-0.13133592903614044,0.01206457894295454,0.009315688163042068
1751281727337867000,4.899866943359375,0.21930044889450073,-0.08078686892986298,-0.001679878099821508
1751281727356693800,4.91869384765625,0.4819723069667816,-0.09666935354471207,-0.019853105768561363
1751281727375520500,4.9375205078125,0.8924734592437744,-0.09911280870437622,0.11682789027690887
1751281727394347300,4.95634716796875,1.3371829986572266,-0.04169152304530144,0.24510949850082397
1751281727413174300,4.97517431640625,1.6951497793197632,-0.06612611562013626,0.2756527364253998
1751281727450827800,5.012827880859375,2.0470077991485596,-0.07223475724458694,0.2231183648109436
1751281727469654800,5.03165478515625,2.210719585418701,-0.08200860023498535,0.29275694489479065
1751281727488481500,5.0504814453125,2.3903138637542725,-0.0844520553946495,0.346513032913208
1751281727507308300,5.069308349609375,2.480721950531006,-0.04046979174017906,0.35506516695022583
1751281727526135000,5.088135009765625,2.472169876098633,0.04734202101826668,0.36483898758888245
1751281727544962000,5.106962158203125,2.433074474334717,0.05589412897825241,0.3196350038051605
1751281727563788800,5.125788818359375,2.3927574157714844,-0.04657844081521034,0.2292270064353943
1751281727582615600,5.144615478515625,2.2840235233306885,-0.0795651376247406,0.18890993297100067
1751281727601442600,5.163442626953125,1.9920300245285034,-0.06979130208492279,0.23533566296100616
1751281727620269300,5.182269287109375,1.525329351425171,0.018173227086663246,0.2536616027355194
1751281727639096000,5.201095947265625,1.0244202613830566,0.04978547990322113,0.14370593428611755
1751281727657923000,5.219923095703125,0.5137372612953186,-0.02825249545276165,0.026419902220368385
1751281727676749800,5.238749755859375,-0.02260199747979641,-0.04535670951008797,-0.028405211865901947
1751281727695576600,5.25757666015625,-0.2608392536640167,-0.03191768378019333,-0.031001387163996696
1751281727714403300,5.2764033203125,-0.6114756464958191,-0.012370011769235134,-0.009010255336761475
1751281727733230300,5.295230224609375,-1.1307107210159302,0.04016435891389847,-0.08093958348035812
1751281727752057000,5.31405712890625,-1.6084070205688477,0.0766635313630104,-0.2202167510986328
1751281727770883800,5.3328837890625,-1.96148681640625,0.11331541836261749,-0.31184646487236023
1751281727789710600,5.351710693359375,-2.2534801959991455,0.10842850059270859,-0.3069595396518707
1751281727808537600,5.37053759765625,-2.5112650394439697,0.0925460159778595,-0.2861901521682739
1751281727827364400,5.3893642578125,-2.7397284507751465,0.07055488228797913,-0.32162031531333923
1751281727846191000,5.408191162109375,-2.933983564376831,0.0925460159778595,-0.3741546869277954
1751281727865018000,5.42701806640625,-2.9938483238220215,0.17806708812713623,-0.3961458206176758
1751281727883844900,5.445844970703125,-2.9437572956085205,0.09010255336761475,-0.34116798639297485
1751281727902671600,5.464671630859375,-2.8460190296173096,0.07788526266813278,-0.30451610684394836
1751281727921498600,5.48349853515625,-2.6957461833953857,0.11942406743764877,-0.26419901847839355
1751281727940325400,5.502325439453125,-2.452622175216675,0.11575887352228165,-0.20799945294857025
1751281727959152000,5.521152099609375,-2.134972333908081,0.13164135813713074,-0.19700388610363007
1751281727977979000,5.539978759765625,-1.5839723348617554,0.08155044913291931,-0.2202167510986328
1751281727996806000,5.558805908203125,-0.7861829996109009,-0.023365577682852745,-0.16646064817905426
1751281728015632600,5.577632568359375,0.05925388261675835,-0.07223475724458694,0.03497200831770897
1751281728034459400,5.59645947265625,0.5149590373039246,-0.0795651376247406,0.16936226189136505
1751281728053286400,5.615286376953125,0.9376774430274963,-0.12965604662895203,0.14859285950660706
1751281728072113200,5.634113037109375,1.3481786251068115,-0.17608177661895752,0.14859285950660706
1751281728090940000,5.65293994140625,1.5974113941192627,-0.10155627131462097,0.16447533667087555
1751281728109766700,5.6717666015625,1.8161009550094604,-0.025809036567807198,0.17547090351581573
1751281728128593700,5.69059375,2.104429244995117,-0.06123919412493706,0.19501857459545135
1751281728147420400,5.70942041015625,2.3463315963745117,-0.09789107739925385,0.2903134822845459
1751281728166247200,5.7282470703125,2.4623959064483643,0.019394956529140472,0.397825688123703
1751281728185074200,5.74707421875,2.4623959064483643,-0.0038179049734026194,0.38072147965431213
1751281728203901000,5.76590087890625,2.4465134143829346,-0.12843431532382965,0.28664830327033997
1751281728222727700,5.784727783203125,2.3206753730773926,-0.16875138878822327,0.2585485279560089
1751281728241554700,5.8035546875,2.0408992767333984,-0.04413498193025589,0.29153522849082947
1751281728260381400,5.82238134765625,1.7623448371887207,-0.020922118797898293,0.2658788859844208
1751281728279208200,5.841208251953125,1.5289945602416992,-0.049021899700164795,0.14004075527191162
1751281728298035000,5.860034912109375,1.3469568490982056,-0.05513054504990578,0.08261945843696594
1751281728316862000,5.878862060546875,1.1881320476531982,-0.030695954337716103,0.10949750989675522
1751281728335688700,5.897688720703125,1.0231984853744507,0.004734201822429895,0.14859285950660706
1751281728354515500,5.916515380859375,0.8265000581741333,0.013286309316754341,0.13271036744117737
1751281728373342200,5.93534228515625,0.638353705406189,-0.025809036567807198,0.07040216773748398
1751281728392169200,5.954169189453125,0.42088583111763,-0.05757400393486023,-0.004123337101191282
1751281728410996000,5.972995849609375,0.02871064469218254,0.09010255336761475,0.04230238497257233
1751281728429823000,5.991822998046875,-0.17653992772102356,0.0974329337477684,0.11804962158203125
1751281728448649700,6.010649658203125,-0.3439168632030487,0.21471896767616272,0.09117157012224197
1751281728467476500,6.0294765625,-0.6517927050590515,0.3381136655807495,0.06551524996757507
1751281728486303200,6.04830322265625,-1.1514800786972046,0.15729768574237823,0.0007635809597559273
1751281728505130200,6.067130126953125,-1.6694934368133545,-0.11621702462434769,-0.28985533118247986
1751281728523957000,6.08595703125,-2.0799946784973145,-0.19685117900371552,-0.4780016839504242
1751281728542783700,6.10478369140625,-2.3561055660247803,-0.03802633285522461,-0.46456265449523926
1751281728561610500,6.123610595703125,-2.514930248260498,-0.0001527161948615685,-0.3594939112663269
1751281728580437500,6.1424375,-2.6004514694213867,0.026572618633508682,-0.282524973154068
1751281728599264300,6.16126416015625,-2.606559991836548,0.07422006875276566,-0.31551164388656616
1751281728618091000,6.180091064453125,-2.461174249649048,0.01695149764418602,-0.31184646487236023
1751281728636918000,6.19891796875,-2.243706226348877,-0.05635227635502815,-0.2861901521682739
1751281728655744800,6.217744873046875,-1.9859213829040527,-0.014813470654189587,-0.2519817352294922
1751281728674571500,6.236571533203125,-1.6377284526824951,0.05589412897825241,-0.19822561740875244
1751281728693398500,6.2553984375,-1.1563670635223389,0.09376774728298187,-0.1078176349401474
1751281728712225300,6.274225341796875,-0.48930269479751587,0.002290742937475443,0.0019853105768561363
1751281728731052000,6.293052001953125,0.1692095398902893,-0.1259908676147461,0.10094540566205978
1751281728749878800,6.311878662109375,0.4526508152484894,-0.0844520553946495,0.11804962158203125
1751281728768705800,6.330705810546875,0.7446441650390625,-0.06490438431501389,0.05940660089254379
1751281728787532500,6.349532470703125,0.9877683520317078,-0.058795735239982605,0.08261945843696594
1751281728806359300,6.368359375,1.1184934377670288,0.05222893878817558,0.17791436612606049
1751281728825186300,6.387186279296875,1.3115266561508179,0.14019346237182617,0.22067490220069885
1751281728844013000,6.406012939453125,1.5986331701278687,0.01206457894295454,0.17547090351581573
1751281728862839800,6.42483984375,1.9162827730178833,-0.12965604662895203,0.16814053058624268
1751281728881666800,6.443666748046875,2.2229368686676025,-0.07345648854970932,0.27198755741119385
1751281728900493600,6.46249365234375,2.5014913082122803,-0.05146535858511925,0.3929387629032135
1751281728919320300,6.4813203125,2.610225200653076,0.008399390615522861,0.4283689260482788
1751281728938147000,6.50014697265625,2.547916889190674,0.08643736690282822,0.36483898758888245
1751281728956974000,6.51897412109375,2.514930248260498,-0.020922118797898293,0.2707658112049103
1751281728975800800,6.53780078125,2.567464590072632,-0.212733656167984,0.20357069373130798
1751281728994627600,6.556627685546875,2.6090035438537598,-0.3104720115661621,0.24755294620990753
1751281729013454600,6.57545458984375,2.3512184619903564,-0.17608177661895752,0.37949973344802856
1751281729032281300,6.59428125,1.8613049983978271,0.025503603741526604,0.38560840487480164
1751281729051108000,6.613108154296875,1.3213005065917969,0.054672397673130035,0.16447533667087555
1751281729069934800,6.631934814453125,0.7360920310020447,0.008399390615522861,0.04108065739274025
1751281729088761900,6.650761962890625,0.10201441496610641,0.060781046748161316,0.02519817277789116
1751281729107588600,6.669588623046875,-0.1533270627260208,0.08155044913291931,-0.04673115536570549
1751281729126415400,6.688415283203125,-0.15577052533626556,-0.02458730712532997,-0.018631376326084137
1751281729145242400,6.707242431640625,-0.2767217457294464,0.019394956529140472,0.02764163166284561
1751281729164069000,6.726069091796875,-0.47464191913604736,0.04505127668380737,-0.007788525894284248
1751281729182895900,6.744895751953125,-0.8631519079208374,0.02306014485657215,-0.13225223124027252
1751281729201722600,6.76372265625,-1.3909391164779663,0.05711585655808449,-0.19944734871387482
1751281729220549600,6.782549560546875,-1.8967351913452148,0.03145953640341759,-0.3020726442337036
1751281729239376400,6.80137646484375,-2.302349328994751,0.029016077518463135,-0.3900371491909027
1751281729258203100,6.820203125,-2.654207468032837,0.05955931544303894,-0.3656025826931
1751281729277030100,6.839030029296875,-2.8716752529144287,0.14019346237182617,-0.3387245237827301
1751281729295857000,6.85785693359375,-2.942535638809204,0.1328630894422531,-0.3643808364868164
1751281729314683600,6.87668359375,-2.9681918621063232,0.07299833744764328,-0.4303542375564575
1751281729333510700,6.8955107421875,-3.096473455429077,0.08888082206249237,-0.4376846253871918
1751281729352337400,6.91433740234375,-3.2394158840179443,0.15485422313213348,-0.36193737387657166
1751281729371164200,6.9331640625,-3.1954336166381836,0.1585194170475006,-0.32650721073150635
1751281729389991000,6.951990966796875,-2.838688611984253,0.12675444781780243,-0.32162031531333923
1751281729408818000,6.97081787109375,-2.2644758224487305,0.10720676928758621,-0.23976442217826843
1751281729427644700,6.989644775390625,-1.7049236297607422,0.10354158282279968,-0.1311832070350647
1751281729446471400,7.008471435546875,-1.2431098222732544,0.129197895526886,-0.0821613147854805
1751281729465298400,7.02729833984375,-0.7360920310020447,0.07910698652267456,-0.1127045527100563
1751281729484125200,7.046125244140625,-0.12522727251052856,-0.09056070446968079,-0.1542433500289917
1751281729502952000,7.064951904296875,0.31581708788871765,-0.13698641955852509,-0.06017018109560013
1751281729521778700,7.08377880859375,0.676227331161499,-0.06734783947467804,0.16569706797599792
1751281729540605700,7.102605712890625,1.1221586465835571,-0.05635227635502815,0.2646571695804596
1751281729559432400,7.121432373046875,1.5754202604293823,-0.1357647031545639,0.24022257328033447
1751281729578259200,7.14025927734375,1.941939115524292,-0.11133010685443878,0.25732678174972534
1751281729597086200,7.159086181640625,2.237597703933716,-0.033139415085315704,0.31841325759887695
1751281729615913000,7.177912841796875,2.5247042179107666,-0.027030766010284424,0.3196350038051605
1751281729634739700,7.19673974609375,2.8594579696655273,-0.1308777779340744,0.29764387011528015
1751281729653566700,7.215566650390625,3.092808485031128,-0.19562944769859314,0.3611738085746765
1751281729672393500,7.2343935546875,3.1221299171447754,-0.13209950923919678,0.4589121639728546
1751281729691220200,7.25322021484375,3.0133960247039795,-0.08323032408952713,0.46746426820755005
1751281729710047000,7.272046875,2.841132164001465,-0.05635227635502815,0.3929387629032135
1751281729728874000,7.2908740234375,2.5772385597229004,-0.08078686892986298,0.32818710803985596
1751281729747700700,7.30970068359375,2.215606451034546,-0.05635227635502815,0.31352636218070984
1751281729766527500,7.328527587890625,1.8564180135726929,-0.06734783947467804,0.2585485279560089
1751281729785354200,7.347354248046875,1.5326597690582275,-0.0795651376247406,0.16936226189136505
1751281729804181200,7.36618115234375,1.2076796293258667,-0.011148282326757908,0.1461493968963623
1751281729823008000,7.385008056640625,0.8106175661087036,0.05711585655808449,0.11682789027690887
1751281729841835000,7.4038349609375,0.3439168632030487,0.06200277432799339,0.03252854943275452
1751281729860661800,7.422661865234375,-0.09834922850131989,0.07299833744764328,-0.057726722210645676
1751281729879488500,7.441488525390625,-0.2608392536640167,0.03634645417332649,-0.01740964688360691
1751281729898315300,7.460315185546875,-0.5992583632469177,0.0668896958231926,0.030085090547800064
1751281729917142300,7.479142333984375,-1.073289394378662,0.10354158282279968,-0.08338304609060287
1751281729935969000,7.497968994140625,-1.6377284526824951,0.01695149764418602,-0.23243404924869537
1751281729954795800,7.516795654296875,-2.2058327198028564,0.07055488228797913,-0.3179551064968109
1751281729973622500,7.53562255859375,-2.7006332874298096,0.09865466505289078,-0.3692677617073059
1751281729992449500,7.554449462890625,-3.1453428268432617,0.14019346237182617,-0.39248061180114746
1751281730011276300,7.5732763671875,-3.4361143112182617,0.18906265497207642,-0.41935867071151733
1751281730030103000,7.59210302734375,-3.53140926361084,0.1279761642217636,-0.4376846253871918
1751281730048930000,7.610929931640625,-3.609600067138672,0.18906265497207642,-0.4169152081012726
1751281730067756800,7.6297568359375,-3.6450300216674805,0.21471896767616272,-0.36804601550102234
1751281730086583600,7.64858349609375,-3.509418249130249,0.17318016290664673,-0.38881543278694153
1751281730105410600,7.66741064453125,-3.1526732444763184,0.09865466505289078,-0.4169152081012726
1751281730124237300,7.6862373046875,-2.6138904094696045,0.10476330667734146,-0.35216355323791504
1751281730143064000,7.70506396484375,-1.8894047737121582,0.07544180005788803,-0.20799945294857025
1751281730161890800,7.723890869140625,-1.0830632448196411,0.02779434807598591,-0.10659590363502502
1751281730180717800,7.7427177734375,-0.1178968995809555,-0.07712167501449585,-0.011453714221715927
1751281730199544600,7.761544677734375,0.5699368119239807,-0.15531237423419952,0.12904518842697144
1751281730218371300,7.780371337890625,1.0928370952606201,-0.08811724185943604,0.19868376851081848
1751281730237198300,7.7991982421875,1.5326597690582275,-0.11621702462434769,0.19135339558124542
1751281730256025000,7.818025146484375,1.950491189956665,-0.15531237423419952,0.18524473905563354
1751281730274851800,7.836851806640625,2.219271659851074,-0.20051635801792145,0.3098611533641815
1751281730293678600,7.8556787109375,2.506378173828125,-0.04535670951008797,0.356286883354187
1751281730312505600,7.874505615234375,2.9071054458618164,-0.058795735239982605,0.29764387011528015
1751281730331332400,7.893332275390625,3.4434447288513184,-0.1259908676147461,0.2695440948009491
1751281730350159000,7.9121591796875,3.8905978202819824,-0.212733656167984,0.38560840487480164
1751281730368986000,7.930986083984375,3.9993317127227783,-0.18463388085365295,0.6165152788162231
1751281730387812900,7.949812744140625,3.8185157775878906,-0.11255183815956116,0.7435751557350159
1751281730406639600,7.9686396484375,3.398240804672241,-0.10277800261974335,0.5187768936157227
1751281730444293400,8.00629345703125,2.3438880443573,-0.008704823441803455,0.24144430458545685
1751281730463120100,8.0251201171875,1.767231822013855,-0.007483093533664942,0.26099199056625366
1751281730481947000,8.04394677734375,1.1795798540115356,-0.0001527161948615685,0.18890993297100067
1751281730500774000,8.06277392578125,0.6114756464958191,-0.033139415085315704,0.11316270381212234
1751281730519600600,8.0816005859375,0.1178968995809555,0.05589412897825241,0.014202605932950974
1751281730538427400,8.100427490234376,-0.15821397304534912,0.09865466505289078,-0.03222311660647392
1751281730557254100,8.119254150390624,-0.3072649836540222,0.04367683082818985,0.0019853105768561363
1751281730576081200,8.1380810546875,-0.5882627964019775,0.129197895526886,-0.1542433500289917
1751281730594908000,8.156907958984375,-1.202792763710022,0.008399390615522861,-0.2458730787038803
1751281730613734700,8.175734619140625,-2.056781768798828,0.026572618633508682,-0.30085089802742004
1751281730632561700,8.194561767578126,-2.933983564376831,0.03756818547844887,-0.35582873225212097
1751281730651388400,8.213388427734374,-3.648695230484009,0.1646280586719513,-0.4718930423259735
1751281730670215200,8.232215087890625,-4.196030139923096,0.22327107191085815,-0.518318772315979
1751281730689042200,8.251042236328125,-4.568657875061035,0.34177884459495544,-0.526870846748352
1751281730707869000,8.269868896484375,-4.602866172790527,0.1792888194322586,-0.518318772315979
1751281730726695700,8.28869580078125,-4.351189613342285,0.08888082206249237,-0.4938841760158539
1751281730745522400,8.3075224609375,-3.889376163482666,0.18906265497207642,-0.425467312335968
1751281730764349400,8.326349365234375,-3.0976953506469727,0.323452889919281,-0.3753764033317566
1751281730783176200,8.34517626953125,-2.176511287689209,-0.19440771639347076,-0.23732095956802368
1751281730802003000,8.3640029296875,-1.2479966878890991,-0.0539088174700737,-0.16646064817905426
1751281730820830000,8.382829833984376,-0.0824667438864708,0.004734201822429895,-0.09071341902017593
1751281730839656700,8.40165673828125,0.9608902931213379,-0.22495095431804657,0.1302669197320938
1751281730858483500,8.4204833984375,1.8124357461929321,-0.2799287736415863,0.40515607595443726
1751281730877310200,8.439310302734375,2.4269657135009766,-0.18829907476902008,0.5456549525260925
1751281730896137200,8.45813720703125,2.7983715534210205,-0.13942988216876984,0.4247037470340729
1751281730914964000,8.4769638671875,3.0659303665161133,-0.07101303339004517,0.29153522849082947
1751281730933790700,8.495790771484375,3.2369725704193115,-0.11133010685443878,0.4283689260482788
1751281730952617700,8.51461767578125,3.4373362064361572,0.03390299528837204,0.407599538564682
1751281730971444500,8.533444580078125,3.615708589553833,-0.1980729103088379,0.3917170464992523
1751281730990271200,8.552271240234376,3.590052366256714,-0.19562944769859314,0.49189886450767517
1751281731009098200,8.57109814453125,3.3286020755767822,0.05222893878817558,0.5248855352401733
1751281731027925000,8.589925048828125,2.9107706546783447,-0.02214384824037552,0.35873034596443176
1751281731046751700,8.608751708984375,2.4074180126190186,-0.11988221108913422,0.2646571695804596
1751281731065578500,8.62757861328125,2.017686367034912,-0.10766492038965225,0.263435423374176
1751281731084405500,8.646405517578126,1.7733404636383057,-0.01847865991294384,0.24510949850082397
1751281731103232300,8.665232177734374,1.563202977180481,-0.008704823441803455,0.20112723112106323
1751281731122059000,8.68405908203125,1.349400281906128,-0.06246092543005943,0.16569706797599792
1751281731140885800,8.7028857421875,1.1368193626403809,-0.033139415085315704,0.141262486577034
1751281731159712800,8.721712646484375,0.9193515181541443,-0.02825249545276165,0.11682789027690887
1751281731178539500,8.74053955078125,0.6982184648513794,-0.023365577682852745,0.0899498388171196
1751281731197366300,8.7593662109375,0.4770853817462921,-0.012370011769235134,0.06551524996757507
1751281731216193300,8.778193359375,0.24740023910999298,-0.007483093533664942,0.03741546720266342
1751281731235020000,8.79702001953125,0.009162971749901772,0.005955931730568409,0.006872228812426329
1751281731253846800,8.8158466796875,-0.0360410213470459,0.014508038759231567,0.0007635809597559273
1751281731272673800,8.834673828125,-0.0054977829568088055,-0.005039634648710489,0.006872228812426329
1751281731291500500,8.85350048828125,-0.0030543238390237093,0.005955931730568409,0.0019853105768561363
1751281731310327300,8.872327392578125,-0.004276053514331579,0.004734201822429895,0.0019853105768561363
1751281731329154000,8.891154052734375,-0.0054977829568088055,-0.0001527161948615685,0.0032070400193333626
1751281731347981000,8.90998095703125,-0.0054977829568088055,0.007177661173045635,0.0019853105768561363
1751281731366807800,8.928807861328124,-0.0054977829568088055,-0.0013744457392022014,0.0032070400193333626
1751281731385634600,8.947634521484375,-0.0054977829568088055,0.004734201822429895,0.0032070400193333626
1751281731404461600,8.966461669921875,-0.007941242307424545,0.007177661173045635,0.006872228812426329
1751281731423288300,8.985288330078125,-0.031154103577136993,-0.020922118797898293,0.04841103404760361
1751281731460941800,9.02294189453125,-0.0054977829568088055,0.03756818547844887,0.012980876490473747
1751281731479768800,9.041768798828125,-0.000610864779446274,-0.11133010685443878,-0.029626941308379173
1751281731498595600,9.060595703125,-0.02871064469218254,0.03634645417332649,-0.006566796451807022
1751281731517422300,9.07942236328125,-0.09468404203653336,0.1389717310667038,0.11316270381212234
1751281731536249300,9.098249267578124,-0.19608759880065918,0.13041962683200836,0.0850629210472107
1751281731555076000,9.117076171875,-0.3952295184135437,-0.05513054504990578,-0.0821613147854805
1751281731573902800,9.13590283203125,-0.62857985496521,-0.0795651376247406,-0.1334739476442337
1751281731592729900,9.154729736328125,-0.8533781170845032,-0.03558287397027016,-0.10048725455999374
1751281731611556600,9.173556640625,-1.0097594261169434,0.01695149764418602,-0.14569124579429626
1751281731630383400,9.19238330078125,-1.1038326025009155,0.05100720748305321,-0.1383608728647232
1751281731649210000,9.211210205078125,-1.1808016300201416,0.05711585655808449,-0.1285870373249054
1751281731668037000,9.230037109375,-1.3090832233428955,0.0461202897131443,-0.16035200655460358
1751281731686864000,9.24886376953125,-1.4679080247879028,0.015729768201708794,-0.18845178186893463
1751281731705690600,9.267690673828126,-1.5693116188049316,0.010842849500477314,-0.21166464686393738
1751281731724517400,9.286517333984374,-1.6255111694335938,0.018173227086663246,-0.22388194501399994
1751281731743344400,9.305344482421875,-1.6426154375076294,0.05222893878817558,-0.2153298407793045
1751281731762171100,9.324171142578125,-1.6242893934249878,0.08155044913291931,-0.19089524447917938
1751281731780998000,9.342997802734375,-1.5741984844207764,0.11087195575237274,-0.1640172004699707
1751281731799825000,9.361824951171876,-1.5070034265518188,0.1230892539024353,-0.15179990231990814
1751281731818651600,9.380651611328124,-1.423925757408142,0.09621120244264603,-0.14691297709941864
1751281731837478400,9.399478515625,-1.3139700889587402,0.0461202897131443,-0.1591302752494812
1751281731856305400,9.418305419921875,-1.191797137260437,0.013286309316754341,-0.15790854394435883
1751281731875132200,9.437132080078126,-1.063515543937683,0.032681263983249664,-0.1334739476442337
1751281731893959000,9.455958984375,-0.8888082504272461,0.03634645417332649,-0.1029307171702385
1751281731912785700,9.47478564453125,-0.6627882719039917,-0.0539088174700737,-0.12247838824987411
1751281731931612700,9.49361279296875,-0.42455101013183594,0.010842849500477314,-0.09804379940032959
1751281731950439400,9.512439453125,-0.18631376326084137,0.013286309316754341,-0.009010255336761475
1751281731969266200,9.53126611328125,0.033597562462091446,0.009621120058000088,0.04108065739274025
1751281731988093200,9.55009326171875,0.000610864779446274,-0.0013744457392022014,0.004428769461810589
1751281732006920000,9.568919921875,0.000610864779446274,-0.0038179049734026194,-0.01740964688360691
1751281732025746700,9.58774658203125,-0.01649334840476513,-0.042913250625133514,0.023976443335413933
1751281732044573400,9.606573486328125,-0.0922405794262886,-0.10277800261974335,0.12171480804681778
1751281732063400400,9.625400390625,-0.23029601573944092,-0.06368265300989151,0.020311253145337105
1751281732082227200,9.644227294921874,-0.6004800796508789,-0.2176205813884735,-0.05894844979047775
1751281732101054000,9.663053955078125,-0.48563748598098755,0.10965022444725037,-0.011453714221715927
1751281732119880700,9.681880615234375,0.24251331388950348,0.4932733178138733,0.17791436612606049
1751281732138707700,9.700707763671875,0.676227331161499,-0.06734783947467804,0.1204930767416954
1751281732157534500,9.719534423828126,1.2443315982818604,-0.1467602699995041,-0.005345067009329796
1751281732176361500,9.738361572265624,1.719584345817566,0.04367683082818985,0.17913609743118286
1751281732195188200,9.757188232421875,1.9187263250350952,0.06444623321294785,0.19624030590057373
1751281732214015000,9.776014892578125,1.99936044216156,0.01695149764418602,0.1974620372056961
1751281732232841700,9.794841796875,2.059225082397461,-0.007483093533664942,0.30863943696022034
1751281732261082000,9.82308203125,2.0360124111175537,-0.12110394239425659,0.20601414144039154
1751281732279908900,9.841908935546876,1.933387041091919,-0.10888664424419403,0.19868376851081848
1751281732298735600,9.860735595703124,1.7146974802017212,-0.10644318908452988,0.21578797698020935
1751281732317562600,9.879562744140625,1.3921607732772827,-0.1259908676147461,0.14981459081172943
1751281732336389400,9.898389404296875,0.998763918876648,-0.009926552884280682,0.08750637620687485
1751281732355216100,9.917216064453125,0.5100721120834351,-0.0013744457392022014,0.10461059212684631
1751281732374043100,9.936043212890626,-0.053145237267017365,-0.07101303339004517,0.016646064817905426
1751281732392870000,9.954869873046874,-0.31459537148475647,-0.01847865991294384,-0.10170898586511612
1751281732411696600,9.973696533203125,-0.5674933791160583,-0.02825249545276165,-0.06994401663541794
1751281732430523400,9.9925234375,-0.8179479241371155,0.05100720748305321,-0.0772743970155716
1751281732449350400,10.011350341796875,-1.0195332765579224,0.06566796451807022,-0.11392628401517868
1751281732468177200,10.03017724609375,-1.1514800786972046,0.08643736690282822,-0.12003492563962936
1751281732487004000,10.04900390625,-1.22234046459198,0.05100720748305321,-0.13958260416984558
1751281732505830700,10.06783056640625,-1.349400281906128,0.16218459606170654,-0.1311832070350647
1751281732524657700,10.08665771484375,-1.4275909662246704,-0.04657844081521034,-0.19211697578430176
1751281732543484400,10.105484375,-1.4422518014907837,-0.18952079117298126,-0.2666424810886383
1751281732562311200,10.124311279296874,-1.2968659400939941,0.5348120927810669,-0.24831652641296387
1751281732581138200,10.14313818359375,-1.0696241855621338,-0.09544762223958969,-0.03817904740571976
1751281732599965000,10.16196484375,-0.6835576891899109,0.11942406743764877,-0.10903936624526978
1751281732618791700,10.180791748046875,-0.22785256803035736,-0.10399972647428513,-0.04673115536570549
1751281732637618400,10.199618408203126,0.0360410213470459,-0.22739441692829132,-0.01740964688360691
1751281732656445400,10.218445556640624,-0.08491020649671555,-0.28848087787628174,-0.231212317943573
1751281732675272200,10.237272216796875,-0.2156352698802948,-0.12354740500450134,-0.33628106117248535
1751281732694099000,10.256098876953125,-0.47097674012184143,0.03756818547844887,-0.2519817352294922
1751281732712926000,10.274926025390625,-0.8374956250190735,0.2965748608112335,-0.047952886670827866
1751281732731752700,10.293752685546876,-1.2773182392120361,0.281914085149765,0.07773254066705704
1751281732750579500,10.312579345703124,-1.6499457359313965,0.07910698652267456,-0.10537417232990265
1751281732769406500,10.331406494140625,-1.8185445070266724,0.1328630894422531,-0.24465134739875793
1751281732788233200,10.350233154296875,-1.9651520252227783,0.10231985151767731,-0.19211697578430176
1751281732807060000,10.36906005859375,-2.174067735671997,0.2257145345211029,-0.18356487154960632
1751281732825886700,10.38788671875,-2.260810613632202,0.29901832342147827,-0.15668681263923645
1751281732844713700,10.406713623046874,-2.2400412559509277,0.30146175622940063,-0.18356487154960632
1751281732863540500,10.42554052734375,-2.0518949031829834,0.10231985151767731,-0.19211697578430176
1751281732882367200,10.4443671875,-1.629176378250122,-0.05635227635502815,-0.21410810947418213
1751281732901194000,10.463194091796876,-1.065959095954895,-0.06490438431501389,-0.189673513174057
1751281732920021000,10.48202099609375,-0.5760455131530762,-0.04046979174017906,-0.08460476994514465
1751281732938847700,10.50084765625,-0.1130099818110466,-0.014813470654189587,0.02153298258781433
1751281732957674500,10.519674560546875,0.3707949221134186,0.08888082206249237,0.08872810751199722
1751281732976501500,10.53850146484375,0.953559935092926,-0.07589995115995407,-0.08826996386051178
1751281732995328300,10.557328369140626,1.6670500040054321,-0.16997312009334564,-0.11392628401517868
1751281733014155000,10.576155029296874,2.393979072570801,-0.14920371770858765,0.09728021919727325
1751281733032982000,10.59498193359375,3.118464708328247,-0.04046979174017906,0.34895649552345276
1751281733051808800,10.613808837890625,3.8160722255706787,-0.12843431532382965,0.4894554018974304
1751281733070635500,10.632635498046875,4.360963821411133,-0.20662501454353333,0.5346593856811523
1751281733089462300,10.651462158203126,4.635852813720703,-0.1821904182434082,0.5969675779342651
1751281733108289300,10.670289306640624,4.650513648986816,-0.2029598206281662,0.6885973215103149
1751281733127116000,10.689115966796875,4.4525933265686035,-0.22250749170780182,0.7521272301673889
1751281733145942800,10.70794287109375,4.0164361000061035,-0.21517711877822876,0.6214022040367126
1751281733164769800,10.726769775390625,3.3041675090789795,-0.22617268562316895,0.3721693754196167
1751281733183596500,10.745596435546876,2.2534801959991455,-0.2835939824581146,0.141262486577034
1751281733202423300,10.76442333984375,1.0146464109420776,-0.12965604662895203,0.03497200831770897
1751281733221250000,10.78325,-0.1594357043504715,-0.10399972647428513,-0.041844237595796585
1751281733240077000,10.8020771484375,-0.8533781170845032,-0.09056070446968079,-0.07360920310020447
1751281733258903800,10.82090380859375,-1.6841541528701782,-0.11988221108913422,-0.24953825771808624
1751281733277730600,10.83973046875,-2.604116439819336,-0.12721258401870728,-0.4816668927669525
1751281733296557300,10.858557373046875,-3.500865936279297,-0.019700389355421066,-0.5305360555648804
1751281733315384300,10.87738427734375,-4.3853983879089355,0.2513708472251892,-0.48655378818511963
1751281733334211000,10.896211181640625,-5.052462577819824,0.5910117030143738,-0.4889972507953644
1751281733353037800,10.915037841796876,-5.307804107666016,0.5433642268180847,-0.43401941657066345
1751281733371864800,10.93386474609375,-5.152644634246826,0.6655371785163879,-0.38881543278694153
1751281733390691600,10.952691650390625,-4.712821960449219,0.6239983439445496,-0.35705047845840454
1751281733409518300,10.971518310546875,-4.034761905670166,0.3637699782848358,-0.3802633285522461
1751281733428345300,10.990345458984375,-3.162446975708008,0.09865466505289078,-0.3961458206176758
1751281733447172000,11.009172119140626,-2.276693105697632,-0.08811724185943604,-0.314289927482605
1751281733465998800,11.027998779296874,-1.6047418117523193,-0.06979130208492279,-0.23854269087314606
1751281733484825600,11.04682568359375,-1.0855066776275635,0.021838415414094925,-0.08949168771505356
1751281733503652600,11.065652587890625,-0.6921098232269287,0.08277218043804169,-0.03817904740571976
1751281733522479400,11.084479248046875,-0.4269944727420807,-0.06246092543005943,-0.06505709886550903
1751281733541306000,11.10330615234375,-0.258395791053772,-0.1357647031545639,-0.09071341902017593
1751281733560133000,11.122133056640624,0.0360410213470459,-0.09300415962934494,-0.03817904740571976
1751281733578960000,11.1409599609375,0.4221075773239136,-0.06123919412493706,-0.023518294095993042
1751281733597786600,11.15978662109375,1.0341941118240356,-0.20173808932304382,-0.1640172004699707
1751281733616613400,11.17861328125,1.990808367729187,-0.09789107739925385,-0.09804379940032959
1751281733635440400,11.1974404296875,3.0585999488830566,-0.18096868693828583,0.15592323243618011
1751281733654267100,11.21626708984375,3.8905978202819824,-0.2835939824581146,0.4222602844238281
1751281733673094000,11.235093994140625,4.196030139923096,-0.2835939824581146,0.5908589363098145
1751281733691921000,11.2539208984375,4.060418128967285,-0.17486004531383514,0.6421716213226318
1751281733710747600,11.27274755859375,3.7232208251953125,-0.09056070446968079,0.5835285782814026
1751281733729574400,11.291574462890624,3.4067928791046143,-0.027030766010284424,0.43692103028297424
1751281733748401200,11.310401123046875,3.2650723457336426,0.005955931730568409,0.3477347791194916
1751281733767228200,11.329228271484375,3.2369725704193115,-0.11133010685443878,0.35995206236839294
1751281733786055000,11.348054931640625,3.168555498123169,-0.09666935354471207,0.40026915073394775
1751281733804881700,11.366881591796876,3.0305001735687256,-0.09056070446968079,0.41615164279937744
1751281733823708400,11.38570849609375,2.6786420345306396,-0.2591593861579895,0.4039343297481537
1751281733842535400,11.404535400390625,1.981034517288208,-0.2286161482334137,0.23777911067008972
1751281733861362200,11.423362060546875,0.9669989347457886,-0.20173808932304382,0.06307178735733032
1751281733880189000,11.44218896484375,-0.24740023910999298,-0.0038179049734026194,-0.04673115536570549
1751281733899016000,11.461015869140626,-1.0231984853744507,0.054672397673130035,-0.0870482325553894
1751281733917842700,11.4798427734375,-1.6988149881362915,0.060781046748161316,-0.15302163362503052
1751281733936669400,11.49866943359375,-2.2986841201782227,-0.0013744457392022014,-0.25809037685394287
1751281733955496400,11.517496337890625,-2.8802273273468018,0.07910698652267456,-0.3949240744113922
1751281733974323200,11.5363232421875,-3.3762495517730713,0.1805105358362198,-0.39858928322792053
1751281733993150000,11.55514990234375,-3.765981435775757,0.15241076052188873,-0.4059196412563324
1751281734011976700,11.573976806640625,-4.115396022796631,0.14996729791164398,-0.4987711012363434
1751281734030803700,11.5928037109375,-4.462367057800293,0.14019346237182617,-0.5635227560997009
1751281734049630500,11.61163037109375,-4.604087829589844,0.2770271897315979,-0.5427533388137817
1751281734068457200,11.630457275390626,-4.544223308563232,0.31123560667037964,-0.4218021333217621
1751281734087284200,11.6492841796875,-4.204582214355469,0.4004218578338623,-0.3094030022621155
1751281734106111000,11.668111083984375,-3.648695230484009,0.3442223072052002,-0.25809037685394287
1751281734124937700,11.686937744140625,-2.977965831756592,0.18906265497207642,-0.33139413595199585
1751281734143764500,11.705764404296875,-2.2754712104797363,0.04734202101826668,-0.31062474846839905
1751281734162591500,11.724591552734376,-1.5387684106826782,0.030390523374080658,-0.1542433500289917
1751281734181418200,11.743418212890624,-0.8448259830474854,-0.08811724185943604,-0.13958260416984558
1751281734200245000,11.762244873046875,-0.14110976457595825,-0.23594652116298676,-0.19944734871387482
1751281734219071700,11.78107177734375,0.347582072019577,-0.2811505198478699,-0.14217877388000488
1751281734237898800,11.799898681640625,0.8277217745780945,-0.0539088174700737,0.08384118974208832
1751281734256725500,11.8187255859375,1.3274091482162476,-0.02458730712532997,0.22189663350582123
1751281734275552300,11.83755224609375,1.7537927627563477,-0.04780016839504242,0.2231183648109436
1751281734294379300,11.856379150390625,2.1813981533050537,-0.07834340631961823,0.26710063219070435
1751281734313206000,11.8752060546875,2.710407018661499,-0.0746782198548317,0.39416050910949707
1751281734332032800,11.89403271484375,3.2675156593322754,-0.07223475724458694,0.4540252387523651
1751281734350859800,11.91285986328125,3.7928593158721924,-0.09789107739925385,0.4650208055973053
1751281734369686500,11.9316865234375,4.248564720153809,-0.13332124054431915,0.490677148103714
1751281734388513300,11.95051318359375,4.630965709686279,-0.1565341055393219,0.5517635941505432
1751281734407340000,11.969340087890625,4.9021897315979,-0.1406516134738922,0.5920807123184204
1751281734426167000,11.9881669921875,5.009702205657959,-0.1406516134738922,0.5969675779342651
1751281734444993800,12.006993896484374,4.935176372528076,-0.12476912885904312,0.5615374445915222
1751281734463820500,12.025820556640625,4.670061111450195,-0.15531237423419952,0.5138899683952332
1751281734482647600,12.0446474609375,4.263225078582764,-0.1101083755493164,0.48701193928718567
1751281734501474300,12.063474365234375,3.7684247493743896,-0.15042544901371002,0.46135562658309937
1751281734520301000,12.082301025390626,3.160003423690796,-0.16508620977401733,0.39049530029296875
1751281734539127800,12.1011279296875,2.347553253173828,-0.07345648854970932,0.29764387011528015
1751281734557954800,12.119954833984375,1.3518437147140503,-0.1308777779340744,0.2023489624261856
1751281734576781600,12.138781494140625,0.12156209349632263,-0.1259908676147461,0.061850059777498245
1751281734595608300,12.1576083984375,-0.9450078010559082,-0.2176205813884735,-0.20433427393436432
1751281734614435000,12.17643505859375,-1.970038890838623,-0.1406516134738922,-0.3814850449562073
1751281734633262000,12.195261962890624,-2.9852962493896484,0.007177661173045635,-0.4266890585422516
1751281734652088800,12.2140888671875,-3.8942630290985107,0.22937972843647003,-0.4364628791809082
1751281734670915600,12.23291552734375,-4.6676177978515625,0.29535311460494995,-0.4511236250400543
1751281734689742600,12.25174267578125,-5.206400394439697,0.4016436040401459,-0.49999281764030457
1751281734708569300,12.2705693359375,-5.455633163452148,0.4101957082748413,-0.5671879649162292
1751281734727396000,12.28939599609375,-5.428755283355713,0.2868010103702545,-0.6160571575164795
1751281734746222800,12.308222900390625,-5.170970439910889,0.27580544352531433,-0.5757400393486023
1751281734765049900,12.3270498046875,-4.720152378082275,0.34055712819099426,-0.45478883385658264
1751281734783876600,12.345876708984376,-4.155713081359863,0.27458372712135315,-0.3900371491909027
1751281734802703400,12.364703369140624,-3.570504665374756,0.11453714966773987,-0.4218021333217621
1751281734821530400,12.3835302734375,-2.9767441749572754,0.014508038759231567,-0.3814850449562073
1751281734840357000,12.402357177734375,-2.321897029876709,0.009621120058000088,-0.2971857190132141
1751281734859183900,12.421183837890625,-1.5680898427963257,-0.03558287397027016,-0.21777328848838806
1751281734878010600,12.4400107421875,-0.6921098232269287,-0.06856957077980042,-0.15302163362503052
1751281734896837600,12.458837646484374,0.14721840620040894,-0.10155627131462097,-0.022296564653515816
1751281734915664400,12.477664306640625,0.4367683231830597,-0.039248060435056686,0.061850059777498245
1751281734934491100,12.4964912109375,0.6273581385612488,-0.04169152304530144,0.06307178735733032
1751281734953318000,12.51531787109375,0.8655954003334045,-0.11988221108913422,0.07040216773748398
1751281734972145000,12.534144775390626,1.2651009559631348,-0.08200860023498535,0.11804962158203125
1751281734990971600,12.5529716796875,1.8686354160308838,-0.12232567369937897,0.21700970828533173
1751281735009798700,12.571798583984375,2.73850679397583,-0.13942988216876984,0.33429574966430664
1751281735028625400,12.59062548828125,3.6926774978637695,-0.19929464161396027,0.4344775676727295
1751281735047452200,12.6094521484375,4.5222320556640625,-0.17363831400871277,0.5065596103668213
1751281735066279000,12.62827880859375,5.1343183517456055,-0.14431680738925934,0.5688678026199341
1751281735085106000,12.64710595703125,5.504502296447754,-0.15897755324840546,0.625067412853241
1751281735103932700,12.6659326171875,5.560702323913574,-0.17486004531383514,0.6568323373794556
1751281735122759400,12.684759521484375,5.348121166229248,-0.15897755324840546,0.6629409790039062
1751281735141586200,12.703586181640626,4.915628910064697,-0.15897755324840546,0.615293562412262
1751281735160413200,12.7224130859375,4.183813095092773,-0.15409064292907715,0.5309942364692688
1751281735179240000,12.741239990234375,3.2259769439697266,-0.1259908676147461,0.4442514181137085
1751281735198066700,12.760066650390625,2.218050003051758,-0.09300415962934494,0.3220784664154053
1751281735216893700,12.778893798828125,1.194240689277649,-0.014813470654189587,0.17302745580673218
1751281735235720400,12.797720458984376,0.2107483446598053,-0.029474224895238876,0.005650499369949102
1751281735254547200,12.816547119140624,-0.33536475896835327,-0.05146535858511925,-0.06750056147575378
1751281735273374000,12.8353740234375,-0.5760455131530762,-0.11499529331922531,-0.047952886670827866
1751281735292201000,12.854200927734375,-1.0329723358154297,-0.1614210158586502,-0.061391908675432205
1751281735311027700,12.87302783203125,-1.6731586456298828,-0.06001746281981468,-0.13591741025447845
1751281735329854500,12.8918544921875,-2.371987819671631,0.0766635313630104,-0.272751122713089
1751281735348681200,12.91068115234375,-3.042717456817627,0.14263692498207092,-0.37781986594200134
1751281735367508200,12.92950830078125,-3.707338333129883,0.15607595443725586,-0.476779967546463
1751281735386335000,12.9483349609375,-4.30232048034668,0.22693626582622528,-0.5293143391609192
1751281735405161700,12.96716162109375,-4.693274021148682,0.3222311735153198,-0.5195404887199402
1751281735423988700,12.98598876953125,-4.808116912841797,0.416304349899292,-0.49632763862609863
1751281735442815500,13.0048154296875,-4.707934856414795,0.34177884459495544,-0.46944957971572876
1751281735461642200,13.023642333984375,-4.451371669769287,0.3136790692806244,-0.4633409380912781
1751281735480469000,13.042468994140625,-4.067748546600342,0.33078327775001526,-0.3753764033317566
1751281735499296000,13.0612958984375,-3.6303694248199463,0.3197877109050751,-0.2861901521682739
1751281735518122800,13.080122802734374,-3.1086909770965576,0.29901832342147827,-0.25320345163345337
1751281735536949500,13.098949462890625,-2.532034397125244,0.15118902921676636,-0.21899501979351044
1751281735555776500,13.117776611328125,-1.9492695331573486,-0.0062613640911877155,-0.23487751185894012
1751281735574603300,13.136603271484375,-1.4275909662246704,-0.17363831400871277,-0.2568686306476593
1751281735593430000,13.155429931640626,-0.8912517428398132,-0.22128576040267944,-0.20799945294857025
1751281735612256800,13.1742568359375,-0.2510654330253601,-0.17608177661895752,-0.09193515032529831
1751281735631083800,13.193083740234375,0.3280344009399414,-0.039248060435056686,-0.011453714221715927
1751281735649910500,13.21191064453125,0.8668171167373657,-0.008704823441803455,0.10094540566205978
1751281735668737300,13.2307373046875,1.5399900674819946,-0.18952079117298126,0.08628465235233307
1751281735687564000,13.24956396484375,2.3512184619903564,-0.18952079117298126,0.14492766559123993
1751281735706391000,13.26839111328125,3.116021156311035,-0.2542724609375,0.3000873327255249
1751281735725217800,13.2872177734375,3.7183339595794678,-0.18829907476902008,0.4332558512687683
1751281735744044500,13.30604443359375,4.177704334259033,-0.21029019355773926,0.5004509687423706
1751281735762871600,13.32487158203125,4.461145401000977,-0.18096868693828583,0.4967857897281647
1751281735781698300,13.3436982421875,4.595535755157471,-0.2029598206281662,0.5212203860282898
1751281735800525000,13.362525146484375,4.553997039794922,-0.1773035079240799,0.5517635941505432
1751281735819351800,13.381351806640625,4.395172119140625,-0.1516471803188324,0.5432115197181702
1751281735838178800,13.4001787109375,4.166708469390869,-0.10277800261974335,0.5016726851463318
1751281735857005600,13.419005615234376,3.847837209701538,-0.16386447846889496,0.47357290983200073
1751281735875832300,13.437832275390624,3.3689193725585938,-0.16019928455352783,0.4124864339828491
1751281735894659300,13.456659423828125,2.6505422592163086,-0.21639885008335114,0.3159697949886322
1751281735913486000,13.475486083984375,1.630398154258728,-0.22495095431804657,0.21212279796600342
1751281735932312800,13.494312744140625,0.35613417625427246,-0.18463388085365295,0.09605848789215088
1751281735951139600,13.5131396484375,-0.7544180154800415,-0.008704823441803455,-0.009010255336761475
1751281735969966600,13.531966552734374,-1.6499457359313965,0.05345066636800766,-0.11759147047996521
1751281735988793300,13.55079345703125,-2.5308127403259277,0.12431098520755768,-0.2886336147785187
1751281736007620000,13.5696201171875,-3.3347108364105225,0.28069236874580383,-0.38270679116249084
1751281736026446800,13.58844677734375,-4.093404769897461,0.33567020297050476,-0.3949240744113922
1751281736045273900,13.60727392578125,-4.811781883239746,0.3503309488296509,-0.4828886091709137
1751281736064100600,13.6261005859375,-5.399433612823486,0.3601047992706299,-0.5720748901367188
1751281736082927400,13.64492724609375,-5.666992664337158,0.4615083336830139,-0.518318772315979
1751281736101754400,13.66375439453125,-5.54970645904541,0.5555815100669861,-0.44379326701164246
1751281736120581000,13.6825810546875,-5.111105442047119,0.5690205693244934,-0.3228420317173004
1751281736139408000,13.701407958984374,-4.5307841300964355,0.3588830530643463,-0.3546070158481598
1751281736158234600,13.720234619140625,-3.9492406845092773,0.26480987668037415,-0.31062474846839905
1751281736177061600,13.7390615234375,-3.389688730239868,0.20372340083122253,-0.22266021370887756
1751281736195888400,13.757888427734375,-2.771493434906006,0.048563748598098755,-0.24465134739875793
1751281736214715100,13.776715087890626,-2.1056509017944336,-0.19562944769859314,-0.2837466895580292
1751281736233542100,13.795542236328124,-1.3713914155960083,-0.3092502951622009,-0.2971857190132141
1751281736252369000,13.814368896484375,-0.5809323787689209,-0.4338667094707489,-0.2568686306476593
1751281736271195600,13.833195556640625,0.21807873249053955,-0.37400195002555847,-0.15057817101478577
1751281736290022700,13.852022705078125,0.6579013466835022,-0.15286891162395477,0.020311253145337105
1751281736308849400,13.870849365234376,1.1294889450073242,-0.191964253783226,0.12782345712184906
1751281736327676200,13.88967626953125,1.7354668378829956,-0.18096868693828583,0.1461493968963623
1751281736346503000,13.9085029296875,2.458730697631836,-0.16019928455352783,0.24755294620990753
1751281736365329700,13.92732958984375,3.124573230743408,-0.21029019355773926,0.3526217043399811
1751281736384156700,13.94615673828125,3.7317728996276855,-0.06123919412493706,0.4454731345176697
1751281736402983400,13.9649833984375,4.303542137145996,-0.17608177661895752,0.5151117444038391
1751281736421810200,13.98381005859375,4.624857425689697,-0.2738201320171356,0.46257734298706055
1751281736440637200,14.00263720703125,4.723817348480225,-0.1870773434638977,0.5041161775588989
1751281736459464000,14.0214638671875,4.731147766113281,-0.0795651376247406,0.6470585465431213
1751281736478290700,14.040290771484376,4.723817348480225,-0.11743875592947006,0.6519454121589661
1751281736497117700,14.05911767578125,4.672504901885986,-0.14798198640346527,0.5114465355873108
1751281736515944400,14.0779443359375,4.423271656036377,-0.26282456517219543,0.4185950756072998
1751281736534771200,14.096771240234375,3.9186975955963135,-0.28848087787628174,0.4039343297481537
1751281736553598000,14.115597900390625,3.188103199005127,-0.17608177661895752,0.3819431960582733
1751281736572425000,14.134425048828126,2.2559237480163574,-0.1259908676147461,0.32940882444381714
1751281736591251700,14.153251708984374,1.1563670635223389,-0.09422589093446732,0.22434009611606598
1751281736610078500,14.172078369140625,0.000610864779446274,-0.06001746281981468,0.0691804364323616
1751281736628905500,14.190905517578125,-0.841160774230957,-0.029474224895238876,-0.07360920310020447
1751281736647732200,14.209732177734375,-1.6597195863723755,0.02306014485657215,-0.189673513174057
1751281736666559000,14.22855908203125,-2.445291757583618,0.14630211889743805,-0.19822561740875244
1751281736685385700,14.2473857421875,-3.210094451904297,0.2049451321363449,-0.3533852696418762
1751281736704212700,14.266212646484375,-4.015213966369629,0.3686569035053253,-0.4156934916973114
1751281736723039500,14.28503955078125,-4.6981611251831055,0.39675667881965637,-0.4376846253871918
1751281736741866200,14.3038662109375,-5.0671234130859375,0.3601047992706299,-0.47555822134017944
1751281736760693000,14.32269287109375,-5.144092082977295,0.3344484567642212,-0.5219839811325073
1751281736779520000,14.34152001953125,-5.061014652252197,0.19883649051189423,-0.536644697189331
1751281736798346800,14.3603466796875,-4.847211837768555,0.2098320573568344,-0.526870846748352
1751281736817173500,14.379173583984375,-4.417163372039795,0.3552178740501404,-0.3753764033317566
1751281736836000500,14.39800048828125,-3.772089958190918,0.41263917088508606,-0.2617555558681488
1751281736854827300,14.4168271484375,-3.098917007446289,0.28924447298049927,-0.20922118425369263
1751281736873654000,14.435654052734375,-2.4660611152648926,0.11942406743764877,-0.19944734871387482
1751281736892480800,14.454480712890625,-1.8503093719482422,-0.11621702462434769,-0.2568686306476593
1751281736911307500,14.4733076171875,-1.2150100469589233,-0.33490660786628723,-0.2874118685722351
1751281736930134500,14.492134521484376,-0.500298261642456,-0.27259841561317444,-0.23487751185894012
1751281736948961300,14.510961181640624,0.24251331388950348,-0.04169152304530144,0.020311253145337105
1751281736967788000,14.5297880859375,0.7141009569168091,-0.03802633285522461,0.052076224237680435
1751281736986615000,14.548614990234375,1.2858703136444092,-0.09911280870437622,0.07284562289714813
1751281737005441800,14.56744189453125,1.8820743560791016,-0.1724165827035904,0.1571449637413025
1751281737024268500,14.5862685546875,2.5185954570770264,-0.18829907476902008,0.2658788859844208
1751281737043095300,14.60509521484375,3.003622055053711,-0.29703301191329956,0.28664830327033997
1751281737061922300,14.62392236328125,3.3676974773406982,-0.24327689409255981,0.3196350038051605
1751281737080749000,14.6427490234375,3.6474735736846924,-0.25182899832725525,0.4137081801891327
1751281737099575800,14.661575927734376,3.8441720008850098,-0.2689332067966461,0.5371028780937195
1751281737118402800,14.68040283203125,3.895484685897827,-0.15897755324840546,0.5908589363098145
1751281737137229600,14.6992294921875,3.8734936714172363,-0.05757400393486023,0.512668251991272
1751281737156056300,14.718056396484375,3.8209590911865234,-0.11621702462434769,0.397825688123703
1751281737174883000,14.736883056640625,3.708559989929199,-0.12843431532382965,0.366060733795166
1751281737193710000,14.7557099609375,3.453218698501587,-0.18341214954853058,0.33429574966430664
1751281737212536800,14.774536865234374,2.9681918621063232,-0.1773035079240799,0.31841325759887695
1751281737231363600,14.793363525390625,2.3292274475097656,-0.07589995115995407,0.30741769075393677
1751281737250190300,14.8121904296875,1.6707152128219604,-0.02458730712532997,0.25121814012527466
1751281737269017300,14.831017333984375,0.9388991594314575,-0.08933897316455841,0.14248420298099518
1751281737287844000,14.849843994140626,0.031154103577136993,-0.1418733447790146,0.006872228812426329
1751281737306670800,14.8686708984375,-0.6212494969367981,-0.10644318908452988,-0.11148282140493393
1751281737325497900,14.887497802734375,-1.2467750310897827,-0.07101303339004517,-0.1701258420944214
1751281737344324600,14.90632470703125,-1.990808367729187,-0.023365577682852745,-0.23487751185894012
1751281737363151400,14.9251513671875,-2.80814528465271,0.12431098520755768,-0.3191768527030945
1751281737381978000,14.94397802734375,-3.6205954551696777,0.28069236874580383,-0.38270679116249084
1751281737400805000,14.96280517578125,-4.2766642570495605,0.3173442482948303,-0.45967575907707214
1751281737419631900,14.9816318359375,-4.764134407043457,0.24770566821098328,-0.5781835317611694
1751281737438458600,15.000458740234375,-5.117214202880859,0.25381430983543396,-0.6185005903244019
1751281737457285600,15.01928564453125,-5.233278751373291,0.32100942730903625,-0.6050615906715393
1751281737476112400,15.0381123046875,-4.963276386260986,0.4321868419647217,-0.5378664135932922
1751281737494939100,15.056939208984375,-4.406167507171631,0.3026835024356842,-0.45967575907707214
1751281737513766000,15.075765869140625,-3.743990182876587,0.21716243028640747,-0.42791077494621277
1751281737532593000,15.094593017578125,-3.0561563968658447,0.18784092366695404,-0.33139413595199585
1751281737551419600,15.113419677734376,-2.4269657135009766,0.16707152128219604,-0.24220788478851318
1751281737570246400,15.132246337890624,-1.8258748054504395,0.10720676928758621,-0.1847866028547287
1751281737589073200,15.1510732421875,-1.1856884956359863,0.007177661173045635,-0.1334739476442337
1751281737607900200,15.169900146484375,-0.5015199780464172,-0.06979130208492279,-0.0772743970155716
1751281737626727000,15.188726806640625,0.1337793916463852,-0.12232567369937897,-0.013744457624852657
1751281737645553700,15.2075537109375,0.472198486328125,-0.02214384824037552,0.014202605932950974
1751281737664380700,15.226380615234374,0.9010255336761475,-0.13209950923919678,0.045967575162649155
1751281737683207400,15.24520751953125,1.4508038759231567,-0.16752967238426208,0.07773254066705704
1751281737702034200,15.2640341796875,2.139859437942505,-0.2237292230129242,0.18402300775051117
1751281737720861000,15.28286083984375,2.8802273273468018,-0.13942988216876984,0.2756527364253998
1751281737739688000,15.30168798828125,3.6230390071868896,-0.18585561215877533,0.3672824501991272
1751281737758514700,15.3205146484375,4.244899272918701,-0.20418155193328857,0.46257734298706055
1751281737777341400,15.339341552734375,4.714043617248535,-0.19074252247810364,0.5713112950325012
1751281737796168400,15.35816845703125,5.056127548217773,-0.23961171507835388,0.623845636844635
1751281737814995200,15.3769951171875,5.244274139404297,-0.2738201320171356,0.6397281289100647
1751281737833822000,15.395822021484374,5.255269527435303,-0.26160284876823425,0.6348412036895752
1751281737852648700,15.414648681640625,5.089114665985107,-0.22617268562316895,0.6262891292572021
1751281737871475500,15.433475341796875,4.7739081382751465,-0.2188423126935959,0.6116283535957336
1751281737890302500,15.452302490234375,4.313316345214844,-0.22495095431804657,0.541989803314209
1751281737909129200,15.471129150390626,3.7171120643615723,-0.19685117900371552,0.43569931387901306
1751281737927956000,15.4899560546875,2.966970205307007,-0.16997312009334564,0.3428478538990021
1751281737946783000,15.508782958984375,1.9211697578430176,-0.1663079410791397,0.27320927381515503
1751281737965609700,15.527609619140625,0.5797106623649597,-0.06246092543005943,0.14737112820148468
1751281737984436500,15.5464365234375,-0.593149721622467,0.0412333719432354,-0.028405211865901947
1751281738003263200,15.56526318359375,-1.406821608543396,0.07055488228797913,-0.07238747924566269
1751281738022090200,15.58409033203125,-2.207054376602173,0.060781046748161316,-0.17256930470466614
1751281738040917000,15.6029169921875,-3.048826217651367,0.12553271651268005,-0.32650721073150635
1751281738059743700,15.62174365234375,-3.884489059448242,0.24281874299049377,-0.44990190863609314
1751281738078570500,15.640570556640625,-4.61508321762085,0.2770271897315979,-0.5451968312263489
1751281738097397500,15.6593974609375,-5.122101306915283,0.32589635252952576,-0.5806269645690918
1751281738116224300,15.678224365234374,-5.40432071685791,0.35155269503593445,-0.6038398146629333
1751281738135051000,15.697051025390625,-5.480067729949951,0.364991694688797,-0.5806269645690918
1751281738153878000,15.7158779296875,-5.338347434997559,0.4407389461994171,-0.5219839811325073
1751281738172704800,15.734704833984376,-4.979158878326416,0.6716458201408386,-0.37781986594200134
1751281738191531500,15.753531494140624,-4.562549114227295,0.6252201199531555,-0.22266021370887756
1751281738210358300,15.772358154296874,-4.106843948364258,0.39797839522361755,-0.26542073488235474
1751281738229185300,15.791185302734375,-3.559509038925171,0.0010690133785828948,-0.3692677617073059
1751281738248012000,15.810011962890625,-2.979187488555908,-0.6574432253837585,-0.5415316224098206
1751281738266838800,15.8288388671875,-2.3927574157714844,-0.551152765750885,-0.776103675365448
1751281738285665800,15.847665771484374,-1.6426154375076294,0.06322450190782547,-0.4364628791809082
1751281738304492500,15.866492431640625,-0.7727439403533936,-0.012370011769235134,0.014202605932950974
1751281738323319300,15.8853193359375,0.16187916696071625,-0.06734783947467804,0.1766926348209381
1751281738342146000,15.90414599609375,0.7202095985412598,-0.17974695563316345,0.12660172581672668
1751281738360972800,15.922972900390626,1.278540015220642,-0.22250749170780182,0.06795870512723923
1751281738379799800,15.9417998046875,1.9004002809524536,-0.16997312009334564,0.18890993297100067
1751281738398626600,15.96062646484375,2.656651020050049,-0.14798198640346527,0.40026915073394775
1751281738417453300,15.979453369140625,3.524078845977783,-0.13942988216876984,0.490677148103714
1751281738436280300,15.9982802734375,4.400059223175049,-0.18341214954853058,0.5065596103668213
1751281738455107000,16.017107177734374,5.147757530212402,-0.20418155193328857,0.5786416530609131
1751281738473933800,16.035933837890624,5.691427230834961,-0.15775582194328308,0.6604975461959839
1751281738492760600,16.054760498046875,5.954099178314209,-0.22006404399871826,0.7130318880081177
1751281738511587600,16.073587646484373,5.8575825691223145,-0.2530507445335388,0.7289143800735474
1751281738530414300,16.092414306640624,5.516719818115234,-0.17974695563316345,0.7154753804206848
1751281738549241000,16.111240966796874,5.098888397216797,-0.11743875592947006,0.643393337726593
1751281738568067800,16.13006787109375,4.640739917755127,-0.19074252247810364,0.5444332361221313
1751281738586894800,16.148894775390627,4.097070217132568,-0.20173808932304382,0.46746426820755005
1751281738605721600,16.1677216796875,3.546070098876953,-0.12843431532382965,0.4271472096443176
1751281738624548400,16.18654833984375,2.992626667022705,-0.1663079410791397,0.40149086713790894
1751281738643375400,16.205375244140626,2.321897029876709,-0.17363831400871277,0.33918267488479614
1751281738662202000,16.2242021484375,1.552207350730896,-0.1259908676147461,0.2231183648109436
1751281738681028900,16.24302880859375,0.5626064538955688,-0.11866047978401184,0.13271036744117737
1751281738699855600,16.261855712890625,-0.44409868121147156,-0.03558287397027016,0.0386371985077858
1751281738718682600,16.2806826171875,-1.1343759298324585,0.03756818547844887,-0.07971785217523575
1751281738737509400,16.29950927734375,-1.9309436082839966,0.0717766135931015,-0.2263254076242447
1751281738756336000,16.318336181640625,-2.7458372116088867,0.16707152128219604,-0.28008151054382324
1751281738775163100,16.3371630859375,-3.5534005165100098,0.05100720748305321,-0.4425715208053589
1751281738793990000,16.355989990234374,-4.345081329345703,0.07299833744764328,-0.5696313977241516
1751281738812816600,16.374816650390624,-5.014588832855225,0.22937972843647003,-0.6380482912063599
1751281738831643400,16.393643310546874,-5.487398147583008,0.3796524703502655,-0.6441569328308105
1751281738850470100,16.41247021484375,-5.741518020629883,0.3381136655807495,-0.6722567081451416
1751281738869297200,16.431297119140623,-5.797717571258545,0.2782489061355591,-0.7211259007453918
1751281738888124000,16.4501240234375,-5.677988052368164,0.38820457458496094,-0.6637045741081238
1751281738906950700,16.46895068359375,-5.301695346832275,0.47006043791770935,-0.5317577719688416
1751281738925777700,16.487777587890626,-4.6004228591918945,0.5323686599731445,-0.3949240744113922
1751281738944604400,16.5066044921875,-3.713447093963623,0.41263917088508606,-0.2568686306476593
1751281738963431200,16.52543115234375,-2.764163017272949,0.13164135813713074,-0.2666424810886383
1751281738982258000,16.5442578125,-1.805105447769165,-0.15042544901371002,-0.30573782324790955
1751281739001085000,16.5630849609375,-0.9169080257415771,-0.2835939824581146,-0.27030766010284424
1751281739019911700,16.58191162109375,-0.18387030065059662,-0.2738201320171356,-0.14691297709941864
1751281739038738400,16.600738525390625,0.1594357043504715,-0.24572035670280457,-0.06627883017063141
1751281739057565200,16.619565185546875,0.21807873249053955,-0.09300415962934494,-0.029626941308379173
1751281739076392200,16.63839208984375,0.6004800796508789,-0.025809036567807198,0.05451968312263489
1751281739095219000,16.657218994140624,1.4666863679885864,-0.0539088174700737,0.2182314395904541
1751281739114045700,16.676045654296875,2.6090035438537598,-0.15775582194328308,0.31719154119491577
1751281739132872400,16.69487255859375,3.6413650512695312,-0.23228132724761963,0.36972591280937195
1751281739151699500,16.713699462890624,4.431824207305908,-0.23594652116298676,0.4760163724422455
1751281739170526200,16.732526123046874,4.975493431091309,-0.2078467458486557,0.5713112950325012
1751281739189353000,16.75135302734375,5.273595809936523,-0.24694208800792694,0.5994110703468323
1751281739208179700,16.7701796875,5.323686599731445,-0.19929464161396027,0.6091849207878113
1751281739227006700,16.7890068359375,5.178300857543945,-0.2078467458486557,0.6275108456611633
1751281739245833500,16.80783349609375,4.887528896331787,-0.18829907476902008,0.625067412853241
1751281739264660200,16.82666015625,4.45381498336792,-0.20051635801792145,0.5884155035018921
1751281739283487200,16.8454873046875,3.900371551513672,-0.18096868693828583,0.5199986696243286
1751281739302314000,16.86431396484375,3.2846198081970215,-0.0795651376247406,0.45158177614212036
1751281739321140700,16.883140625,2.6969680786132812,-0.03802633285522461,0.3868301212787628
1751281739339967500,16.901967529296876,2.1691808700561523,-0.04169152304530144,0.31841325759887695
1751281739358794500,16.92079443359375,1.6413936614990234,-0.05146535858511925,0.2341139316558838
1751281739387034600,16.94903466796875,0.62857985496521,-0.05024362727999687,0.09850194305181503
1751281739405861400,16.967861328125,-0.19364413619041443,-0.07345648854970932,0.004428769461810589
1751281739424688400,16.9866884765625,-0.758083164691925,-0.12721258401870728,-0.03329212963581085
1751281739443515100,17.00551513671875,-1.4715732336044312,-0.14309507608413696,-0.12736530601978302
1751281739462342000,17.024341796875,-2.3365578651428223,-0.09789107739925385,-0.3094030022621155
1751281739481168600,17.043168701171876,-3.2589635848999023,0.025503603741526604,-0.42913252115249634
1751281739499995600,17.06199560546875,-4.1593780517578125,0.14630211889743805,-0.5305360555648804
1751281739518822400,17.080822509765625,-4.929068088531494,0.28924447298049927,-0.6258309483528137
1751281739537649200,17.099649169921875,-5.440972805023193,0.33689191937446594,-0.6734784245491028
1751281739556476000,17.118475830078125,-5.773283004760742,0.3808741867542267,-0.7052434086799622
1751281739575303000,17.137302978515624,-5.930886268615723,0.4883863925933838,-0.6637045741081238
1751281739594129700,17.156129638671874,-5.855138778686523,0.4981602132320404,-0.5769617557525635
1751281739612956400,17.174956298828125,-5.526493549346924,0.42974337935447693,-0.5610793232917786
1751281739631783200,17.193783203125,-4.995041370391846,0.29046618938446045,-0.5317577719688416
1751281739650610200,17.212610107421874,-4.35241174697876,0.1744018942117691,-0.5134318470954895
1751281739669437000,17.23143701171875,-3.615708589553833,0.17684535682201385,-0.4059196412563324
1751281739688263700,17.250263671875,-2.844797372817993,0.0925460159778595,-0.27397283911705017
1751281739707090700,17.269090576171877,-2.0299036502838135,0.06566796451807022,-0.22388194501399994
1751281739725917400,17.28791748046875,-1.1905754804611206,-0.07834340631961823,-0.14569124579429626
1751281739744744200,17.306744140625,-0.4013381600379944,-0.17608177661895752,-0.08826996386051178
1751281739763571000,17.325571044921876,0.18264856934547424,-0.2383899837732315,-0.019853105768561363
1751281739782398000,17.34439794921875,0.3390299379825592,-0.1614210158586502,-0.002901607658714056
1751281739801224700,17.363224609375,0.6212494969367981,-0.06368265300989151,0.07528908550739288
1751281739820051500,17.382051513671875,1.1062761545181274,-0.05757400393486023,0.11927134543657303
1751281739838878200,17.400878173828126,1.842979073524475,-0.036804601550102234,0.2023489624261856
1751281739857705200,17.419705322265624,2.7201807498931885,-0.06368265300989151,0.3098611533641815
1751281739876532000,17.438531982421875,3.5729479789733887,-0.18829907476902008,0.38560840487480164
1751281739895358700,17.457358642578125,4.253451347351074,-0.2897026240825653,0.4344775676727295
1751281739914185500,17.476185546875,4.710378170013428,-0.28848087787628174,0.4857902228832245
1751281739933012500,17.495012451171874,4.9779372215271,-0.2493855506181717,0.5468766689300537
1751281739951839200,17.513839111328124,5.098888397216797,-0.191964253783226,0.5908589363098145
1751281739970666000,17.532666015625,5.151422500610352,-0.1357647031545639,0.6006327867507935
1751281739989492700,17.55149267578125,5.206400394439697,-0.12110394239425659,0.5823068618774414
1751281740017733000,17.579733154296875,5.261378288269043,-0.16997312009334564,0.5297724604606628
1751281740036560000,17.598559814453125,5.158752918243408,-0.23105959594249725,0.5346593856811523
1751281740055386600,17.61738671875,4.893637657165527,-0.2750418782234192,0.6006327867507935
1751281740074213600,17.636213623046874,4.365850448608398,-0.2689332067966461,0.6727148294448853
1751281740093040400,17.655040283203125,3.4825401306152344,-0.08567378669977188,0.6030762791633606
1751281740111867100,17.6738671875,2.3451099395751953,0.0412333719432354,0.35873034596443176
1751281740130694000,17.69269384765625,1.0195332765579224,0.018173227086663246,0.13881902396678925
1751281740149521000,17.71152099609375,-0.3805687427520752,-0.0795651376247406,0.05329795181751251
1751281740168347600,17.73034765625,-1.5888593196868896,-0.012370011769235134,0.05329795181751251
1751281740187174400,17.74917431640625,-2.701854944229126,0.08032871782779694,-0.2666424810886383
1751281740206001200,17.768001220703123,-3.732994556427002,0.06200277432799339,-0.49510589241981506
1751281740224828200,17.786828125,-4.651735305786133,0.14141519367694855,-0.5048797130584717
1751281740243655000,17.805655029296876,-5.411651134490967,0.25992295145988464,-0.6246092319488525
1751281740262481700,17.824481689453126,-6.01396369934082,0.374765545129776,-0.6771436333656311
1751281740281308400,17.843308349609377,-6.382925987243652,0.4920515716075897,-0.6050615906715393
1751281740300135400,17.862135498046875,-6.442790985107422,0.6252201199531555,-0.526870846748352
1751281740318962200,17.880962158203126,-6.192336082458496,0.7339540123939514,-0.39370235800743103
1751281740337789000,17.899788818359376,-5.668214321136475,0.6753110289573669,-0.28008151054382324
1751281740356616000,17.918615966796875,-4.922959327697754,0.5323686599731445,-0.2617555558681488
1751281740375442700,17.937442626953125,-4.056753158569336,0.43951719999313354,-0.18356487154960632
1751281740394269400,17.95626953125,-3.2088727951049805,0.3906480371952057,-0.10659590363502502
1751281740413096200,17.97509619140625,-2.3878703117370605,0.22693626582622528,-0.057726722210645676
1751281740431923000,17.9939228515625,-1.6071852445602417,0.010842849500477314,-0.07971785217523575
1751281740450750000,18.01275,-0.8936951756477356,-0.2383899837732315,-0.11026109009981155
1751281740469576700,18.03157666015625,-0.17043127119541168,-0.43631017208099365,-0.11636973917484283
1751281740488403500,18.050403564453124,0.3341430425643921,-0.5328267812728882,-0.1444695144891739
1751281740507230500,18.06923046875,0.7776308655738831,-0.4949531853199005,-0.14813470840454102
1751281740526057200,18.08805712890625,1.258992314338684,-0.6794343590736389,-0.18356487154960632
1751281740544884000,18.106884033203126,1.8344268798828125,-0.5951350331306458,-0.09193515032529831
1751281740563710700,18.125710693359373,2.5503604412078857,-0.19074252247810364,0.2756527364253998
1751281740582537700,18.144537841796875,3.249189853668213,-0.19074252247810364,0.4124864339828491
1751281740601364500,18.163364501953126,3.8820457458496094,-0.2701549530029297,0.35017824172973633
1751281740620191200,18.182191162109376,4.349967956542969,-0.2029598206281662,0.40149086713790894
1751281740639018000,18.20101806640625,4.681056976318359,-0.14798198640346527,0.5041161775588989
1751281740657845000,18.219844970703125,4.94617223739624,-0.17974695563316345,0.5480984449386597
1751281740676671700,18.238671630859375,5.10744047164917,-0.19074252247810364,0.5468766689300537
1751281740695498500,18.25749853515625,5.11354923248291,-0.23228132724761963,0.5517635941505432
1751281740714325200,18.2763251953125,4.979158878326416,-0.2188423126935959,0.5578722357749939
1751281740733152300,18.29515234375,4.715265274047852,-0.18829907476902008,0.5334376692771912
1751281740751979000,18.31397900390625,4.363407135009766,-0.1259908676147461,0.5077813267707825
1751281740770805800,18.3328056640625,3.998110055923462,-0.08811724185943604,0.4503600597381592
1751281740789632800,18.3516328125,3.6144869327545166,-0.07712167501449585,0.36361727118492126
1751281740808459500,18.37045947265625,3.1416776180267334,-0.06001746281981468,0.31230461597442627
1751281740827286300,18.389286376953127,2.5014913082122803,-0.07223475724458694,0.3110828995704651
1751281740846113000,18.408113037109374,1.53510320186615,-0.191964253783226,0.3929387629032135
1751281740864939800,18.426939697265624,0.19608759880065918,-0.10277800261974335,0.33429574966430664
1751281740883766800,18.445766845703126,-0.9462295174598694,0.01695149764418602,0.022754713892936707
1751281740902593500,18.464593505859376,-1.951712965965271,-0.0025961752980947495,-0.2922987937927246
1751281740921420300,18.483420166015627,-2.940092086791992,0.10109812021255493,-0.2715294063091278
1751281740940247300,18.502247314453125,-3.778198719024658,0.250149130821228,-0.3998109996318817
1751281740959074000,18.521073974609376,-4.472141265869141,0.2721402645111084,-0.47555822134017944
1751281740977900800,18.53990087890625,-5.003593444824219,0.36254823207855225,-0.4877755343914032
1751281740996727600,18.5587275390625,-5.374999046325684,0.4834994673728943,-0.4621191918849945
1751281741015554600,18.577554443359375,-5.553371906280518,0.5983420610427856,-0.36193737387657166
1751281741034381300,18.59638134765625,-5.519163131713867,0.6166679859161377,-0.3081812858581543
1751281741053208000,18.6152080078125,-5.234500408172607,0.527481734752655,-0.27519458532333374
1751281741072034800,18.634034912109374,-4.7568039894104,0.3430005609989166,-0.28008151054382324
1751281741090861800,18.65286181640625,-4.145939350128174,0.1805105358362198,-0.2837466895580292
1751281741109688600,18.6716884765625,-3.511861562728882,0.05345066636800766,-0.2556469142436981
1751281741128515300,18.690515380859374,-2.9767441749572754,0.03390299528837204,-0.24220788478851318
1751281741147342000,18.709342041015624,-2.578460216522217,0.030390523374080658,-0.1957821547985077
1751281741166169000,18.728169189453126,-2.213163137435913,0.025503603741526604,-0.1542433500289917
1751281741184995800,18.746995849609377,-1.8099923133850098,0.01206457894295454,-0.11636973917484283
1751281741203822600,18.765822509765623,-1.3408482074737549,-0.08567378669977188,-0.09437860548496246
1751281741222649300,18.7846494140625,-0.860708475112915,-0.2909243404865265,-0.13713914155960083
1751281741241476400,18.803476318359376,-0.4269944727420807,-0.41554075479507446,-0.17867794632911682
1751281741260303000,18.82230322265625,-0.09101885557174683,-0.4741837978363037,-0.15302163362503052
1751281741279129900,18.8411298828125,0.0824667438864708,-0.4692968726158142,-0.19700388610363007
1751281741297956900,18.859956787109375,0.2364046722650528,-0.28237223625183105,-0.13958260416984558
1751281741316783600,18.87878369140625,0.6835576891899109,-0.07712167501449585,0.06673697382211685
1751281741335610400,18.8976103515625,1.3347395658493042,-0.1406516134738922,0.09850194305181503
1751281741354437000,18.91643701171875,2.1142029762268066,-0.15775582194328308,0.14370593428611755
1751281741373264000,18.935263916015625,2.849684238433838,-0.15042544901371002,0.3159697949886322
1751281741392091000,18.9540908203125,3.3676974773406982,-0.25060728192329407,0.439364492893219
1751281741410917600,18.972917724609374,3.5863871574401855,-0.3324631452560425,0.4027126133441925
1751281741429744400,18.991744384765624,3.6841254234313965,-0.21517711877822876,0.356286883354187
1751281741448571400,19.0105712890625,3.8075201511383057,-0.07712167501449585,0.3819431960582733
1751281741467398100,19.029398193359373,3.99566650390625,-0.06612611562013626,0.45646870136260986
1751281741486225000,19.048224853515624,4.211912631988525,-0.18096868693828583,0.5749764442443848
1751281741505051600,19.0670517578125,4.436710834503174,-0.02214384824037552,0.5749764442443848
1751281741523878700,19.085878662109376,4.595535755157471,-0.058795735239982605,0.49800750613212585
1751281741542705400,19.104705322265627,4.629744052886963,-0.18096868693828583,0.4344775676727295
1751281741561532200,19.1235322265625,4.540557861328125,-0.2286161482334137,0.4650208055973053
1751281741580359200,19.142359130859376,4.347524642944336,-0.1467602699995041,0.5261073112487793
1751281741599186000,19.16118603515625,4.079966068267822,-0.10766492038965225,0.5933024287223816
1751281741618012700,19.1800126953125,3.7562074661254883,-0.08078686892986298,0.5248855352401733
1751281741636839400,19.19883935546875,3.2821764945983887,-0.12721258401870728,0.38560840487480164
1751281741655666200,19.217666259765625,2.562577724456787,-0.19074252247810364,0.32940882444381714
1751281741674493200,19.2364931640625,1.5094468593597412,-0.28237223625183105,0.29275694489479065
1751281741693320000,19.25531982421875,0.22907429933547974,-0.21151192486286163,0.10338886082172394
1751281741712146700,19.274146728515625,-0.7617483735084534,0.12553271651268005,-0.15179990231990814
1751281741730973700,19.2929736328125,-1.571755051612854,0.1597411334514618,-0.07849612087011337
1751281741749800400,19.311800537109374,-2.3842053413391113,0.04978547990322113,-0.2715294063091278
1751281741768627200,19.330627197265624,-3.1477861404418945,0.20616686344146729,-0.36804601550102234
1751281741787454000,19.349453857421874,-3.8270678520202637,0.30146175622940063,-0.3289506733417511
1751281741806281000,19.368281005859377,-4.363407135009766,0.3039052188396454,-0.43401941657066345
1751281741825107700,19.387107666015623,-4.803229808807373,0.2208276242017746,-0.5170970559120178
1751281741853347800,19.415347900390625,-5.241830825805664,0.2782489061355591,-0.526870846748352
1751281741872174800,19.4341748046875,-5.313912868499756,0.3124573230743408,-0.5109884142875671
1751281741891001600,19.453001708984374,-5.225948333740234,0.3185659945011139,-0.467006117105484
1751281741909828400,19.471828369140624,-4.969385147094727,0.25381430983543396,-0.4474584460258484
1751281741928655000,19.490655029296875,-4.596757411956787,0.11942406743764877,-0.46456265449523926
1751281741947482000,19.509482177734377,-4.120283126831055,0.10965022444725037,-0.4462367296218872
1751281741966308900,19.528308837890624,-3.467879295349121,0.2415970265865326,-0.30573782324790955
1751281741985135600,19.547135498046874,-2.7592761516571045,0.007177661173045635,-0.2458730787038803
1751281742003962400,19.56596240234375,-1.9443825483322144,-0.21639885008335114,-0.34605491161346436
1751281742022789400,19.584789306640626,-1.025641918182373,-0.22495095431804657,-0.21899501979351044
1751281742041616100,19.6036162109375,0.05925388261675835,-0.058795735239982605,0.09239330142736435
1751281742060443000,19.62244287109375,0.7067705392837524,-0.0746782198548317,0.061850059777498245
1751281742079270000,19.641269775390626,1.2907572984695435,-0.1870773434638977,0.02764163166284561
1751281742098096600,19.6600966796875,1.9004002809524536,-0.23594652116298676,0.1510363221168518
1751281742116923400,19.67892333984375,2.472169876098633,-0.25060728192329407,0.2390008419752121
1751281742135750100,19.697750244140625,2.9718570709228516,-0.23472478985786438,0.29153522849082947
1751281742154577000,19.716576904296875,3.4361143112182617,-0.14431680738925934,0.37094762921333313
1751281742173404000,19.73540380859375,3.8258461952209473,-0.1516471803188324,0.46624255180358887
1751281742192230700,19.754230712890624,4.106843948364258,-0.10766492038965225,0.5285507440567017
1751281742211057400,19.773057373046875,4.325533390045166,-0.11499529331922531,0.5652026534080505
1751281742229884400,19.791884521484373,4.457480430603027,-0.06612611562013626,0.5615374445915222
1751281742248711200,19.810711181640624,4.516123294830322,-0.007483093533664942,0.4992292523384094
1751281742267538000,19.829537841796874,4.425715446472168,-0.15042544901371002,0.4796815812587738
1751281742286364700,19.84836474609375,4.176482677459717,-0.15042544901371002,0.5248855352401733
1751281742305191700,19.867191650390627,3.783085584640503,-0.10277800261974335,0.5297724604606628
1751281742324018400,19.886018310546874,3.257741928100586,-0.09666935354471207,0.4381427764892578
1751281742342845200,19.90484521484375,2.6444337368011475,-0.22128576040267944,0.35506516695022583
1751281742361672200,19.923672119140626,1.9565998315811157,-0.20173808932304382,0.27198755741119385
1751281742380499000,19.9424990234375,1.174692988395691,-0.0795651376247406,0.1510363221168518
1751281742399325700,19.96132568359375,0.2632827162742615,-0.1418733447790146,0.0691804364323616
1751281742418152400,19.98015234375,-0.23518294095993042,-0.06612611562013626,0.004428769461810589
1751281742436979500,19.9989794921875,-0.24984370172023773,0.08155044913291931,-0.02611446939408779
1751281742455806200,20.01780615234375,-0.36224281787872314,-0.027030766010284424,-0.03329212963581085
1751281742493459700,20.055459716796875,-1.2247838973999023,-0.05024362727999687,-0.19211697578430176
1751281742512286700,20.07428662109375,-1.8710788488388062,0.04978547990322113,-0.2861901521682739
1751281742531113500,20.093113525390624,-2.576016664505005,0.06933315098285675,-0.35582873225212097
1751281742549940200,20.111940185546874,-3.2455246448516846,0.19150610268115997,-0.4218021333217621
1751281742568767000,20.13076708984375,-3.847837209701538,0.29901832342147827,-0.44990190863609314
1751281742587594000,20.149593994140623,-4.353633403778076,0.29901832342147827,-0.4877755343914032
1751281742606420700,20.168420654296874,-4.703047752380371,0.3039052188396454,-0.526870846748352
1751281742625247500,20.18724755859375,-4.908298492431641,0.3222311735153198,-0.5207622051239014
1751281742644074200,20.20607421875,-5.0976667404174805,0.3552178740501404,-0.49632763862609863
1751281742662901200,20.2249013671875,-5.263821601867676,0.41386088728904724,-0.5122101306915283
1751281742681728000,20.24372802734375,-5.277260780334473,0.6814196705818176,-0.4010327160358429
1751281742700554800,20.2625546875,-5.059792995452881,0.961195707321167,-0.13225223124027252
1751281742719381800,20.2813818359375,-4.641961574554443,0.630107045173645,-0.06261363625526428
1751281742738208500,20.30020849609375,-4.037205219268799,0.08277218043804169,-0.3032943606376648
1751281742757035300,20.31903515625,-3.324937105178833,-0.4021017551422119,-0.435241162776947
1751281742775862000,20.337862060546875,-2.478278398513794,-0.49739664793014526,-0.425467312335968
1751281742794689000,20.35668896484375,-1.4776818752288818,-0.3776671588420868,-0.31551164388656616
1751281742813515800,20.375515869140624,-0.2657261788845062,-0.20418155193328857,-0.11514800786972046
1751281742832342500,20.394342529296875,0.6823359727859497,-0.22983787953853607,0.07773254066705704
1751281742851169500,20.41316943359375,1.4483604431152344,-0.2909243404865265,0.06307178735733032
1751281742869996300,20.431996337890624,2.1471896171569824,-0.36422812938690186,0.14248420298099518
1751281742888823000,20.450822998046874,2.656651020050049,-0.36911505460739136,0.25243985652923584
1751281742907649800,20.46964990234375,3.07326078414917,-0.24083344638347626,0.3355174660682678
1751281742926476800,20.488476806640627,3.4165666103363037,-0.2848156988620758,0.397825688123703
1751281742945303600,20.507303466796873,3.6975646018981934,-0.20173808932304382,0.43081238865852356
1751281742964130300,20.52613037109375,3.9639015197753906,-0.039248060435056686,0.47845983505249023
1751281742982957000,20.54495703125,4.148382663726807,-0.1821904182434082,0.4992292523384094
1751281743001784000,20.5637841796875,4.275442600250244,-0.15286891162395477,0.4845684766769409
1751281743020610800,20.58261083984375,4.305985927581787,-0.17119485139846802,0.502894401550293
1751281743039437600,20.6014375,4.222908020019531,-0.1467602699995041,0.53221595287323
1751281743058264300,20.620264404296876,4.035983562469482,-0.10888664424419403,0.5309942364692688
1751281743077091300,20.63909130859375,3.7623162269592285,-0.09911280870437622,0.5053378939628601
1751281743095918000,20.65791796875,3.394575595855713,-0.09544762223958969,0.4589121639728546
1751281743114744800,20.676744873046875,2.947422504425049,-0.1467602699995041,0.40026915073394775
1751281743133571600,20.695571533203125,2.4746131896972656,-0.15775582194328308,0.38438665866851807
1751281743152398600,20.714398681640624,1.9724823236465454,-0.016035201027989388,0.32452189922332764
1751281743171225300,20.733225341796874,1.3726131916046143,-0.03436114266514778,0.1669187992811203
1751281743190052000,20.752052001953125,0.648127555847168,-0.03436114266514778,0.0850629210472107
1751281743208879000,20.770879150390623,-0.1997527778148651,-0.06490438431501389,-0.024740023538470268
1751281743227705900,20.789705810546874,-0.7006618976593018,0.007177661173045635,-0.09437860548496246
1751281743246532600,20.80853271484375,-1.1624757051467896,0.10109812021255493,-0.11514800786972046
1751281743265359400,20.827359375,-1.6511675119400024,0.13775001466274261,-0.1750127524137497
1751281743284186400,20.846186279296877,-2.18261981010437,0.16340632736682892,-0.2519817352294922
1751281743303013000,20.86501318359375,-2.7739369869232178,0.23426663875579834,-0.28008151054382324
1751281743321839900,20.88383984375,-3.181994676589966,0.11331541836261749,-0.3643808364868164
1751281743340667000,20.9026669921875,-3.4129016399383545,0.14996729791164398,-0.41935867071151733
1751281743359493600,20.92149365234375,-3.615708589553833,0.15729768574237823,-0.39858928322792053
1751281743378320400,20.9403203125,-3.993222951889038,0.21960589289665222,-0.44868019223213196
1751281743397147100,20.959147216796875,-4.408611297607422,0.4224129915237427,-0.4169152081012726
1751281743415974100,20.97797412109375,-4.655400276184082,0.5946768522262573,-0.3326158821582794
1751281743434801000,20.99680078125,-4.704269886016846,0.7535017132759094,-0.2214384824037552
1751281743453627600,21.015627685546875,-4.5674357414245605,0.5543597936630249,-0.1542433500289917
1751281743472454400,21.034454345703125,-4.231460094451904,0.02306014485657215,-0.3497200906276703
1751281743491281400,21.053281494140624,-3.739103317260742,-0.5108356475830078,-0.5879573225975037
1751281743510108200,21.072108154296874,-3.124573230743408,-0.7319687008857727,-0.6954695582389832
1751281743528935000,21.090934814453124,-2.4636175632476807,-0.37400195002555847,-0.5073232054710388
1751281743547762000,21.109761962890627,-1.7818925380706787,0.17562362551689148,-0.07483093440532684
1751281743566588700,21.128588623046873,-0.953559935092926,0.13775001466274261,-0.04062250629067421
1751281743585415400,21.14741552734375,-0.07269290834665298,-0.07223475724458694,-0.0870482325553894
1751281743604242200,21.1662421875,0.36835145950317383,-0.06246092543005943,-0.009010255336761475
1751281743623069200,21.185069091796876,0.7079922556877136,0.07422006875276566,0.12171480804681778
1751281743641896000,21.20389599609375,1.0720677375793457,-0.10644318908452988,0.12660172581672668
1751281743660722700,21.22272265625,1.6169590950012207,-0.07223475724458694,0.17058399319648743
1751281743679549700,21.2415498046875,2.302349328994751,-0.0795651376247406,0.31352636218070984
1751281743698376400,21.26037646484375,3.0769259929656982,-0.11988221108913422,0.31719154119491577
1751281743717203200,21.279203125,3.7623162269592285,-0.212733656167984,0.3831649422645569
1751281743736030000,21.298030029296875,4.263225078582764,-0.14309507608413696,0.4992292523384094
1751281743754857000,21.31685693359375,4.536892890930176,-0.1821904182434082,0.5395463109016418
1751281743773683700,21.33568359375,4.564992427825928,-0.1724165827035904,0.522442102432251
1751281743792510500,21.354510498046874,4.397615432739258,-0.15042544901371002,0.5261073112487793
1751281743811337200,21.373337158203125,4.117839336395264,-0.09178243577480316,0.5309942364692688
1751281743830164200,21.392164306640623,3.802633285522461,-0.009926552884280682,0.4992292523384094
1751281743848991000,21.410990966796874,3.4654359817504883,0.010842849500477314,0.4503600597381592
1751281743867817700,21.429817626953124,3.0610435009002686,-0.04413498193025589,0.40026915073394775
1751281743886644500,21.44864453125,2.5918991565704346,-0.049021899700164795,0.346513032913208
1751281743905471500,21.467471435546877,2.0775511264801025,-0.01847865991294384,0.2890917658805847
1751281743924298200,21.48629833984375,1.426369309425354,-0.0001527161948615685,0.20723587274551392
1751281743943125000,21.505125,0.6774490475654602,0.08888082206249237,0.1204930767416954
1751281743961951700,21.52395166015625,-0.01893680728971958,0.14996729791164398,0.06551524996757507
1751281743980778800,21.54277880859375,-0.18631376326084137,0.2049451321363449,0.03375028073787689
1751281743999605500,21.56160546875,-0.16310089826583862,0.06444623321294785,0.03130681812763214
1751281744018432300,21.580432373046875,-0.1594357043504715,-0.14431680738925934,-0.07238747924566269
1751281744037259300,21.59925927734375,-0.2816086709499359,-0.3678933084011078,-0.16523891687393188
1751281744056086000,21.6180859375,-0.6126973628997803,-0.20906847715377808,-0.13225223124027252
1751281744074912800,21.636912841796875,-1.1661409139633179,0.0974329337477684,-0.0772743970155716
1751281744093739500,21.655739501953125,-1.748905897140503,0.20738859474658966,-0.14691297709941864
1751281744112566500,21.67456640625,-2.27424955368042,0.1438586562871933,-0.22876885533332825
1751281744131393300,21.693393310546874,-2.777602195739746,-0.1052214577794075,-0.3753764033317566
1751281744150220000,21.712219970703124,-3.174664258956909,-0.1870773434638977,-0.5061014890670776
1751281744169047000,21.731047119140626,-3.585165500640869,0.1646280586719513,-0.44501498341560364
1751281744187873800,21.749873779296873,-3.9516842365264893,0.3857611119747162,-0.30451610684394836
1751281744206700500,21.768700439453124,-4.164265155792236,0.4676169753074646,-0.3387245237827301
1751281744225527300,21.78752734375,-4.244899272918701,0.3246746361255646,-0.3326158821582794
1751281744244354300,21.806354248046876,-4.1618218421936035,0.30024003982543945,-0.3497200906276703
1751281744263181000,21.82518115234375,-3.970010280609131,0.1366809904575348,-0.3790415823459625
1751281744282007800,21.8440078125,-3.6902341842651367,0.16340632736682892,-0.3436114490032196
1751281744300834600,21.86283447265625,-3.327380418777466,-0.06612611562013626,-0.36804601550102234
1751281744319661600,21.88166162109375,-2.8655667304992676,-0.25182899832725525,-0.47067132592201233
1751281744338488300,21.90048828125,-2.3035709857940674,-0.23228132724761963,-0.40347617864608765
1751281744357315000,21.919315185546875,-1.618180751800537,-0.06734783947467804,-0.1957821547985077
1751281744376142000,21.93814208984375,-0.8594867587089539,-0.1003345400094986,-0.12736530601978302
1751281744394968800,21.95696875,-0.020158538594841957,-0.18096868693828583,-0.08093958348035812
1751281744413795600,21.975795654296874,0.41844236850738525,-0.10766492038965225,0.0007635809597559273
1751281744432622300,21.994622314453125,0.721431314945221,0.05955931544303894,0.11194097250699997
1751281744451449300,22.013449462890627,1.1307107210159302,0.07910698652267456,0.16447533667087555
1751281744470276000,22.032276123046874,1.6597195863723755,0.030390523374080658,0.19868376851081848
1751281744489102800,22.051102783203124,2.252258539199829,0.04734202101826668,0.29764387011528015
1751281744507929900,22.069929931640626,2.8521275520324707,0.005955931730568409,0.36361727118492126
1751281744526756600,22.088756591796876,3.4275622367858887,-0.10888664424419403,0.3770562708377838
1751281744545583400,22.107583251953123,3.989557981491089,-0.11377356201410294,0.4405862092971802
1751281744564410000,22.12641015625,4.445262908935547,-0.12721258401870728,0.49800750613212585
1751281744583236900,22.14523681640625,4.728704452514648,-0.23105959594249725,0.5187768936157227
1751281744602064000,22.16406396484375,4.8520989418029785,-0.15775582194328308,0.5358811020851135
1751281744620890600,22.182890625,4.751916885375977,-0.16997312009334564,0.5493201613426208
1751281744639717400,22.20171728515625,4.506349563598633,-0.1003345400094986,0.5468766689300537
1751281744658544400,22.22054443359375,4.218021392822266,-0.04413498193025589,0.5285507440567017
1751281744677371100,22.23937109375,3.8857109546661377,-0.07589995115995407,0.47357290983200073
1751281744696198000,22.258197998046874,3.428783893585205,-0.16875138878822327,0.3868301212787628
1751281744715024600,22.277024658203125,2.7849326133728027,-0.1724165827035904,0.29397866129875183
1751281744733851600,22.2958515625,1.8356486558914185,-0.13942988216876984,0.2280052751302719
1751281744752678400,22.314678466796874,0.6126973628997803,-0.06368265300989151,0.08139773458242416
1751281744771505200,22.333505126953124,-0.43921178579330444,-0.012370011769235134,-0.04428769648075104
1751281744790332000,22.352331787109375,-1.0708459615707397,-0.09422589093446732,-0.1493564397096634
1751281744809159000,22.371158935546877,-1.8564180135726929,-0.0795651376247406,-0.2837466895580292
1751281744827985700,22.389985595703124,-2.682307243347168,0.17806708812713623,-0.2886336147785187
1751281744846812400,22.4088125,-3.4410014152526855,0.22693626582622528,-0.35582873225212097
1751281744865639400,22.427639404296876,-4.123948097229004,0.1585194170475006,-0.49144071340560913
1751281744884466200,22.446466064453126,-4.731147766113281,0.17562362551689148,-0.5659661889076233
1751281744903293000,22.46529296875,-5.155087947845459,0.2721402645111084,-0.5623010396957397
1751281744922119700,22.48411962890625,-5.2906999588012695,0.3381136655807495,-0.5500837564468384
1751281744940946700,22.50294677734375,-5.070788383483887,0.49082985520362854,-0.45478883385658264
1751281744959773400,22.5217734375,-4.499019145965576,0.33200499415397644,-0.324063777923584
1751281744978600200,22.54060009765625,-3.7452120780944824,0.05589412897825241,-0.4474584460258484
1751281744997427200,22.55942724609375,-2.995069980621338,-0.0795651376247406,-0.41935867071151733
1751281745016254000,22.57825390625,-2.2278237342834473,-0.008704823441803455,-0.25809037685394287
1751281745035080700,22.597080810546874,-1.4214823246002197,0.08399390429258347,-0.1127045527100563
1751281745053907500,22.615907470703124,-0.6065887212753296,-0.01847865991294384,-0.03817904740571976
1751281745072734500,22.634734375,0.10934479534626007,-0.13942988216876984,-0.041844237595796585
1751281745091561200,22.653561279296873,0.3695732057094574,-0.1724165827035904,-0.02718348242342472
1751281745110388000,22.672387939453124,0.7006618976593018,-0.10766492038965225,0.05940660089254379
1751281745129214700,22.691214599609374,1.2076796293258667,-0.09422589093446732,0.11682789027690887
1751281745148041700,22.710041748046876,1.8344268798828125,-0.1773035079240799,0.16936226189136505
1751281745166868500,22.728868408203127,2.4294092655181885,-0.21151192486286163,0.24755294620990753
1751281745185695200,22.7476953125,2.9938483238220215,-0.12476912885904312,0.3318522870540619
1751281745204522200,22.766522216796876,3.6120433807373047,-0.15897755324840546,0.40149086713790894
1751281745223349000,22.785348876953126,4.110508918762207,-0.17486004531383514,0.4796815812587738
1751281745242175700,22.80417578125,4.448928356170654,-0.08811724185943604,0.5529853701591492
1751281745261002500,22.82300244140625,4.62119197845459,0.024281874299049377,0.5981893539428711
1751281745279829200,22.841829345703125,4.689609050750732,0.04016435891389847,0.6128500699996948
1751281745298656300,22.86065625,4.607752799987793,0.014508038759231567,0.5896372199058533
1751281745317483000,22.87948291015625,4.401280879974365,0.024281874299049377,0.5383245944976807
1751281745336309800,22.898309814453125,4.037205219268799,-0.0038179049734026194,0.4967857897281647
1751281745355136800,22.91713671875,3.539961338043213,-0.04413498193025589,0.4198168218135834
1751281745373963500,22.935963623046874,2.9486443996429443,-0.1931859850883484,0.30253079533576965
1751281745392790300,22.954790283203124,2.187506675720215,-0.3202458620071411,0.1510363221168518
1751281745411617000,22.973616943359374,1.1661409139633179,-0.23716825246810913,0.08139773458242416
1751281745430444000,22.992444091796877,-0.09468404203653336,-0.19074252247810364,-0.03817904740571976
1751281745449270800,23.011270751953123,-0.9718858599662781,-0.10644318908452988,-0.2006690800189972
1751281745468097500,23.03009765625,-1.8857395648956299,0.03527744114398956,-0.22266021370887756
1751281745486924500,23.048924560546876,-2.73850679397583,0.129197895526886,-0.2935205399990082
1751281745505751300,23.067751220703126,-3.511861562728882,0.16707152128219604,-0.40836310386657715
1751281745524578000,23.086578125,-4.205803871154785,0.18295399844646454,-0.47067132592201233
1751281745543404800,23.10540478515625,-4.762912750244141,0.22449280321598053,-0.5293143391609192
1751281745562231800,23.124231689453126,-5.125766277313232,0.23426663875579834,-0.5586358308792114
1751281745590472000,23.152471923828124,-5.354229927062988,0.24404047429561615,-0.6356047987937927
1751281745609298700,23.171298583984374,-5.302917003631592,0.39186975359916687,-0.5244274139404297
1751281745628125400,23.19012548828125,-4.991375923156738,0.44440412521362305,-0.40958482027053833
1751281745646952400,23.208952392578126,-4.517344951629639,0.29413139820098877,-0.44990190863609314
1751281745665779200,23.227779296875,-3.9553494453430176,0.2049451321363449,-0.4120282828807831
1751281745684606000,23.24660595703125,-3.359145402908325,0.14019346237182617,-0.3130682110786438
1751281745703433000,23.265432861328126,-2.732398271560669,0.0461202897131443,-0.3020726442337036
1751281745722259700,23.284259765625,-2.1129813194274902,-0.06123919412493706,-0.2605338394641876
1751281745741086500,23.30308642578125,-1.4813470840454102,-0.1406516134738922,-0.2153298407793045
1751281745759913200,23.321913330078125,-0.7764091491699219,-0.20662501454353333,-0.15668681263923645
1751281745778740200,23.340740234375,0.025045456364750862,-0.2188423126935959,-0.05528326332569122
1751281745797567000,23.35956689453125,0.4770853817462921,-0.32391104102134705,-0.035735588520765305
1751281745816393700,23.378393798828125,0.9327905178070068,-0.14920371770858765,0.02764163166284561
1751281745835220700,23.397220703125,1.580307126045227,-0.07345648854970932,0.18646647036075592
1751281745854047500,23.416047607421874,2.369544506072998,-0.13820815086364746,0.28298309445381165
1751281745872874200,23.434874267578124,3.2027640342712402,-0.13942988216876984,0.3208567202091217
