time,seconds_elapsed,z,y,x
1751281722565269500,0.12726953125,0.000305432389723137,-0.002290742937475443,-0.0054977829568088055
1751281722584096300,0.14609619140625,0.000305432389723137,-0.002290742937475443,-0.006719512399286032
1751281722602923000,0.164923095703125,-0.0009162971982732415,0.0013744457392022014,0.001832594396546483
1751281722631163400,0.193163330078125,-0.0009162971982732415,0.0025961752980947495,0.004276053514331579
1751281722649990100,0.211990234375,-0.0009162971982732415,-0.002290742937475443,-0.001832594396546483
1751281722668817000,0.23081689453125,0.000305432389723137,0.0013744457392022014,-0.0030543238390237093
1751281722687643600,0.2496435546875,-0.0009162971982732415,-0.002290742937475443,0.001832594396546483
1751281722706470400,0.268470458984375,-0.0009162971982732415,0.0025961752980947495,0.001832594396546483
1751281722725297200,0.287297119140625,0.000305432389723137,0.0001527161948615685,-0.000610864779446274
1751281722744124000,0.3061240234375,0.000305432389723137,-0.002290742937475443,-0.001832594396546483
1751281722762951000,0.324950927734375,-0.0009162971982732415,0.0013744457392022014,-0.000610864779446274
1751281722781777700,0.343777587890625,-0.0009162971982732415,0.0001527161948615685,0.001832594396546483
1751281722800604400,0.3626044921875,-0.0009162971982732415,0.0013744457392022014,0.000610864779446274
1751281722819431200,0.38143115234375,-0.0009162971982732415,-0.0010690133785828948,-0.000610864779446274
1751281722838258000,0.4002578125,-0.0009162971982732415,0.0001527161948615685,0.000610864779446274
1751281722857084700,0.419084716796875,-0.0009162971982732415,0.0001527161948615685,0.000610864779446274
1751281722875911700,0.43791162109375,-0.0009162971982732415,0.0013744457392022014,0.000610864779446274
1751281722894738400,0.456738525390625,-0.0009162971982732415,0.0001527161948615685,-0.000610864779446274
1751281722913565200,0.475565185546875,-0.0009162971982732415,0.0001527161948615685,-0.000610864779446274
1751281722932392000,0.494391845703125,-0.0009162971982732415,0.0001527161948615685,-0.000610864779446274
1751281722951218700,0.51321875,-0.0009162971982732415,-0.0010690133785828948,0.000610864779446274
1751281722970045400,0.53204541015625,-0.0009162971982732415,-0.0010690133785828948,0.000610864779446274
1751281722988872400,0.55087255859375,-0.0009162971982732415,0.0001527161948615685,0.000610864779446274
1751281723007699200,0.56969921875,-0.0009162971982732415,-0.0010690133785828948,-0.000610864779446274
1751281723026526000,0.58852587890625,-0.0009162971982732415,0.0013744457392022014,0.000610864779446274
1751281723045352700,0.607352783203125,-0.0009162971982732415,-0.0010690133785828948,0.000610864779446274
1751281723064179500,0.626179443359375,0.003970621153712273,0.019700389355421066,-0.025045456364750862
1751281723083006500,0.64500634765625,0.003970621153712273,-0.002290742937475443,-0.037262752652168274
1751281723101833200,0.663833251953125,-0.0009162971982732415,-0.027947064489126205,-0.0054977829568088055
1751281723120660000,0.682659912109375,-0.005803215317428112,0.007483093533664942,0.033597562462091446
1751281723139486700,0.70148681640625,-0.005803215317428112,0.012370011769235134,0.0409279391169548
1751281723158313500,0.7203134765625,-0.0021380267571657896,-0.0010690133785828948,0.006719512399286032
1751281723177140200,0.73914013671875,0.000305432389723137,-0.007177661173045635,-0.02260199747979641
1751281723195967200,0.75796728515625,0.000305432389723137,-0.008399390615522861,-0.009162971749901772
1751281723214794000,0.7767939453125,-0.0021380267571657896,0.0062613640911877155,0.011606430634856224
1751281723233620700,0.795620849609375,-0.0021380267571657896,0.0062613640911877155,0.01282816007733345
1751281723252447500,0.814447509765625,-0.0009162971982732415,-0.003512472379952669,-0.0030543238390237093
1751281723271274200,0.833274169921875,0.000305432389723137,-0.004734201822429895,-0.009162971749901772
1751281723290101200,0.852101318359375,-0.0009162971982732415,0.0001527161948615685,-0.000610864779446274
1751281723308928000,0.870927978515625,-0.0021380267571657896,0.0013744457392022014,0.006719512399286032
1751281723327754800,0.889754638671875,-0.0009162971982732415,0.0013744457392022014,0.000610864779446274
1751281723346581500,0.90858154296875,-0.0009162971982732415,-0.002290742937475443,-0.004276053514331579
1751281723365408300,0.927408203125,-0.0009162971982732415,-0.002290742937475443,-0.001832594396546483
1751281723384235300,0.9462353515625,-0.0009162971982732415,0.0013744457392022014,0.001832594396546483
1751281723403062000,0.96506201171875,-0.0009162971982732415,0.0013744457392022014,0.001832594396546483
1751281723421888800,0.983888671875,-0.0009162971982732415,-0.002290742937475443,-0.000610864779446274
1751281723440715500,1.002715576171875,0.000305432389723137,0.0025961752980947495,-0.0030543238390237093
1751281723459542300,1.021542236328125,0.005192350596189499,0.03191768378019333,-0.023823726922273636
1751281723478369300,1.040369384765625,0.006414080038666725,0.007483093533664942,-0.04581485688686371
1751281723497196000,1.059196044921875,0.003970621153712273,-0.018173227086663246,-0.029932374134659767
1751281723516022800,1.078022705078125,-0.0021380267571657896,0.0038179049734026194,0.004276053514331579
1751281723534849500,1.096849609375,-0.005803215317428112,-0.004734201822429895,0.043371398001909256
1751281723553676300,1.11567626953125,-0.003359756199643016,0.0038179049734026194,0.027488915249705315
1751281723572503300,1.13450341796875,0.0027488914784044027,-0.007177661173045635,-0.014049889519810677
1751281723591330000,1.153330078125,0.005192350596189499,-0.01695149764418602,-0.047036588191986084
1751281723610156800,1.17215673828125,0.006414080038666725,-0.01695149764418602,-0.039706211537122726
1751281723628983600,1.190983642578125,0.000305432389723137,-0.007177661173045635,-0.01282816007733345
1751281723647810600,1.209810546875,-0.0009162971982732415,-0.010842849500477314,0.015271619893610477
1751281723666637300,1.22863720703125,-0.0009162971982732415,0.0013744457392022014,0.017715077847242355
1751281723685464000,1.247464111328125,0.000305432389723137,0.011148282326757908,-0.001832594396546483
1751281723704290800,1.266290771484375,0.0015271619195118546,-0.027947064489126205,-0.011606430634856224
1751281723723117800,1.285117919921875,0.0027488914784044027,-0.015729768201708794,-0.01649334840476513
1751281723741944600,1.303944580078125,0.0027488914784044027,-0.009621120058000088,-0.0054977829568088055
1751281723760771300,1.322771240234375,0.003970621153712273,0.012370011769235134,-0.0054977829568088055
1751281723779598000,1.34159814453125,0.005192350596189499,0.0025961752980947495,-0.01893680728971958
1751281723798424800,1.3604248046875,0.007635809946805239,0.0001527161948615685,-0.03237583488225937
1751281723817251600,1.37925146484375,0.0027488914784044027,0.0025961752980947495,-0.031154103577136993
1751281723836078600,1.39807861328125,0.003970621153712273,0.005039634648710489,-0.01649334840476513
1751281723854905300,1.4169052734375,0.0027488914784044027,0.0038179049734026194,-0.011606430634856224
1751281723873732000,1.435732177734375,0.005192350596189499,-0.019394956529140472,-0.023823726922273636
1751281723892558800,1.454558837890625,0.011300998739898205,-0.024281874299049377,-0.04214967042207718
1751281723911385900,1.4733857421875,0.02718348242342472,0.0025961752980947495,-0.03481929376721382
1751281723930212600,1.492212646484375,0.041844237595796585,0.023365577682852745,-0.006719512399286032
1751281723949039400,1.511039306640625,0.0772743970155716,0.01359174121171236,0.015271619893610477
1751281723967866000,1.5298662109375,0.24342961609363556,-0.015729768201708794,0.03848448023200035
1751281723986693000,1.548693115234375,0.5598575472831726,-0.01695149764418602,0.1288924664258957
1751281724005520000,1.567519775390625,0.7748819589614868,-0.04016435891389847,0.2315177470445633
1751281724024346600,1.5863466796875,0.7199041247367859,-0.0206166859716177,0.23884813487529755
1751281724043173400,1.60517333984375,0.5122101306915283,0.042913250625133514,0.09834922850131989
1751281724062000000,1.624000244140625,0.2984074354171753,-0.05238165333867073,-0.09101885557174683
1751281724080827100,1.6428271484375,0.03817904740571976,-0.1366809904575348,-0.06414080411195755
1751281724099654000,1.66165380859375,-0.04001164436340332,0.08567378669977188,0.01893680728971958
1751281724118480600,1.680480712890625,-0.004581485874950886,0.039248060435056686,0.10934479534626007
1751281724137307400,1.699307373046875,-0.004581485874950886,0.02458730712532997,0.07391463965177536
1751281724156134400,1.718134521484375,0.000305432389723137,-0.025503603741526604,-0.01282816007733345
1751281724174961200,1.736961181640625,0.0015271619195118546,-0.027947064489126205,-0.047036588191986084
1751281724193788000,1.755787841796875,0.000305432389723137,0.014813470654189587,-0.011606430634856224
1751281724212614700,1.77461474609375,-0.003359756199643016,0.007483093533664942,0.031154103577136993
1751281724231441700,1.793441650390625,-0.025350889191031456,0.06734783947467804,0.029932374134659767
1751281724250268400,1.812268310546875,-0.060781046748161316,0.1516471803188324,0.056810423731803894
1751281724269095200,1.83109521484375,-0.15241076052188873,0.2701549530029297,0.11056652665138245
1751281724287922000,1.849921875,-0.374765545129776,0.42653632164001465,0.17043127119541168
1751281724306749000,1.8687490234375,-0.4773908257484436,0.1516471803188324,0.07269290834665298
1751281724334989000,1.896989013671875,-0.2623664140701294,-0.4641045033931732,-0.22663083672523499
1751281724353815800,1.91581591796875,-0.05711585655808449,-0.6424770355224609,-0.35613417625427246
1751281724372642600,1.934642578125,0.08582650125026703,-0.21731515228748322,-0.12278381735086441
1751281724391469600,1.953469482421875,-0.05589412897825241,0.0025961752980947495,0.004276053514331579
1751281724410296300,1.97229638671875,-0.03023780696094036,-0.02916879393160343,0.009162971749901772
1751281724429123000,1.991123046875,-0.003359756199643016,0.011148282326757908,-0.027488915249705315
1751281724447949800,2.00994970703125,0.013744457624852657,-0.018173227086663246,-0.02626718580722809
1751281724466776800,2.02877685546875,0.03329212963581085,0.019700389355421066,-0.029932374134659767
1751281724485603600,2.047603515625,0.09926552325487137,-0.009621120058000088,-0.0665842592716217
1751281724504430300,2.066430419921875,0.21899501979351044,-0.008399390615522861,-0.07391463965177536
1751281724523257000,2.085257080078125,0.40958482027053833,0.027030766010284424,0.04581485688686371
1751281724542084000,2.104083984375,0.6429351568222046,0.08567378669977188,0.16676609218120575
1751281724560910800,2.122910888671875,0.8567378520965576,0.10644318908452988,0.20708316564559937
1751281724579737600,2.141737548828125,1.1071923971176147,0.016035201027989388,0.1740964651107788
1751281724598564400,2.160564453125,1.3747512102127075,-0.1769980639219284,0.14599667489528656
1751281724617391400,2.179391357421875,1.5042544603347778,-0.12935061752796173,0.22296564280986786
1751281724636218000,2.198218017578125,1.4773764610290527,-0.03283398225903511,0.2864955961704254
1751281724655044900,2.217044921875,1.3930771350860596,-0.010842849500477314,0.26450446248054504
1751281724673871600,2.23587158203125,1.2611303329467773,-0.037720900028944016,0.1948658674955368
1751281724692698600,2.25469873046875,1.0424407720565796,-0.06582067906856537,0.15088360011577606
1751281724711525400,2.273525390625,0.7431169748306274,-0.03405570983886719,0.10934479534626007
1751281724730352000,2.29235205078125,0.4205803871154785,-0.04505127668380737,0.010384701192378998
1751281724749179000,2.311178955078125,0.019853105768561363,-0.014508038759231567,-0.10079269111156464
1751281724768006000,2.330005859375,-0.18784092366695404,-0.003512472379952669,-0.12400554865598679
1751281724786832600,2.34883251953125,-0.39186975359916687,-0.0902552679181099,-0.08979712426662445
1751281724805659400,2.367659423828125,-0.7852666974067688,-0.018173227086663246,-0.12644900381565094
1751281724824486100,2.386486083984375,-1.203098177909851,0.027030766010284424,-0.17043127119541168
1751281724843313200,2.405313232421875,-1.6526947021484375,0.09666935354471207,-0.23884813487529755
1751281724862140000,2.424139892578125,-1.9947789907455444,0.10644318908452988,-0.28405213356018066
1751281724880966700,2.442966552734375,-2.148716926574707,0.10155627131462097,-0.31581708788871765
1751281724899793400,2.46179345703125,-2.174373149871826,0.12354740500450134,-0.29016077518463135
1751281724918620400,2.480620361328125,-2.246455192565918,0.19929464161396027,-0.2107483446598053
1751281724937447200,2.499447265625,-2.4321582317352295,0.27626359462738037,-0.16676609218120575
1751281724956274000,2.51827392578125,-2.5579962730407715,0.23228132724761963,-0.23762640357017517
1751281724975100700,2.5371005859375,-2.54577898979187,0.2444986253976822,-0.30482152104377747
1751281724993927700,2.555927734375,-2.4602580070495605,0.34834563732147217,-0.24251331388950348
1751281725012754400,2.57475439453125,-2.2892158031463623,0.37522369623184204,-0.1081230640411377
1751281725031581200,2.593581298828125,-1.9923354387283325,0.2652680277824402,-0.09346231073141098
1751281725050408000,2.612407958984375,-1.6355904340744019,0.05513054504990578,-0.16676609218120575
1751281725069235000,2.63123486328125,-1.2825106382369995,-0.18432845175266266,-0.21197007596492767
1751281725088061700,2.650061767578125,-0.9856303334236145,-0.23441936075687408,-0.2156352698802948
1751281725106888400,2.668888427734375,-0.6753110289573669,-0.09392046183347702,-0.16310089826583862
1751281725125715200,2.687715087890625,-0.1792888194322586,-0.08536835014820099,-0.07269290834665298
1751281725144542200,2.706542236328125,0.2715294063091278,-0.24541492760181427,0.09957095980644226
1751281725163369000,2.725368896484375,0.5855138897895813,-0.04993819445371628,0.09346231073141098
1751281725182195700,2.74419580078125,1.0192278623580933,-0.06826414167881012,0.03481929376721382
1751281725201022700,2.763022705078125,1.3454296588897705,-0.16966769099235535,0.07635809481143951
1751281725219849500,2.781849365234375,1.5201369524002075,-0.10858121514320374,0.17043127119541168
1751281725238676200,2.80067626953125,1.6239839792251587,-0.047494735568761826,0.2718348205089569
1751281725257503000,2.8195029296875,1.823125958442688,-0.053603384643793106,0.27427828311920166
1751281725276329700,2.838329833984375,2.1578798294067383,-0.13912445306777954,0.21807873249053955
1751281725295156700,2.85715673828125,2.508516311645508,-0.1879936307668686,0.26939135789871216
1751281725313983500,2.8759833984375,2.7821836471557617,-0.15012001991271973,0.4172206521034241
1751281725332810200,2.894810302734375,2.9434518814086914,-0.0743727833032608,0.49052441120147705
1751281725351637200,2.91363720703125,2.9458954334259033,-0.013286309316754341,0.4673115611076355
1751281725370464000,2.932464111328125,2.7259840965270996,-0.010842849500477314,0.34147340059280396
1751281725389290800,2.951290771484375,2.475529432296753,-0.030390523374080658,0.268169641494751
1751281725408117500,2.970117431640625,2.46697735786438,-0.15867212414741516,0.22785256803035736
1751281725426944500,2.988944580078125,2.5353941917419434,-0.2735147178173065,0.24373504519462585
1751281725445771300,3.007771240234375,2.3460261821746826,-0.06337722390890121,0.34636032581329346
1751281725464598000,3.026597900390625,1.850003957748413,0.07101303339004517,0.34147340059280396
1751281725483424800,3.0454248046875,1.14017915725708,0.10766492038965225,0.143553227186203
1751281725502251800,3.064251708984375,0.29596397280693054,0.08933897316455841,-0.08124501258134842
1751281725521078500,3.08307861328125,-0.3295615613460541,0.09178243577480316,-0.19120067358016968
1751281725539905300,3.1019052734375,-0.7021890878677368,0.020922118797898293,-0.09468404203653336
1751281725558732000,3.12073193359375,-1.0552688837051392,0.008704823441803455,-0.07391463965177536
1751281725577559000,3.13955908203125,-1.3814706802368164,0.007483093533664942,-0.12767073512077332
1751281725596385800,3.1583857421875,-1.8640538454055786,0.01847865991294384,-0.19853104650974274
1751281725615212500,3.177212646484375,-2.5127923488616943,0.25793763995170593,-0.2669478952884674
1751281725634039300,3.196039306640625,-3.1028876304626465,0.017256930470466614,-0.33536475896835327
1751281725652866300,3.2148662109375,-3.2543821334838867,0.06856957077980042,-0.5516108870506287
1751281725671693000,3.233693115234375,-2.925736904144287,-0.037720900028944016,-0.555276095867157
1751281725690519800,3.252519775390625,-2.424827814102173,-0.025503603741526604,-0.4050033390522003
1751281725709346800,3.271346923828125,-2.103512763977051,0.07589995115995407,-0.1899789422750473
1751281725728173600,3.290173583984375,-1.8713842630386353,0.18341214954853058,-0.12400554865598679
1751281725747000300,3.309000244140625,-1.7321070432662964,0.08811724185943604,-0.16065743565559387
1751281725765827000,3.3278271484375,-1.6746858358383179,0.04046979174017906,-0.2364046722650528
1751281725784654000,3.346654052734375,-1.515860915184021,0.07834340631961823,-0.2461785078048706
1751281725803480800,3.365480712890625,-1.1212422847747803,0.06001746281981468,-0.15210533142089844
1751281725822307600,3.3843076171875,-0.5396990180015564,0.07101303339004517,-0.037262752652168274
1751281725841134300,3.40313427734375,0.11392628401517868,0.017256930470466614,0.031154103577136993
1751281725859961300,3.42196142578125,0.4413498044013977,-0.16355904936790466,0.08857539296150208
1751281725878788000,3.4407880859375,0.694247841835022,-0.008399390615522861,0.17898337543010712
1751281725897614800,3.45961474609375,1.081536054611206,0.029474224895238876,0.1337793916463852
1751281725916441600,3.478441650390625,1.4676026105880737,-0.0792597085237503,0.13133592903614044
1751281725935268600,3.4972685546875,1.7437134981155396,-0.024281874299049377,0.2412915825843811
1751281725954095400,3.516095458984375,1.8451170921325684,0.07101303339004517,0.3756818473339081
1751281725972922000,3.534922119140625,1.8658864498138428,0.09666935354471207,0.37201663851737976
1751281725991749000,3.5537490234375,2.0552544593811035,-0.009621120058000088,0.18142683804035187
1751281726010576000,3.572575927734375,2.4413211345672607,-0.30894485116004944,0.12034036219120026
1751281726029402600,3.591402587890625,2.5439462661743164,-0.2380845546722412,0.28527384996414185
1751281726048229400,3.6102294921875,2.293491840362549,0.0013744457392022014,0.4770853817462921
1751281726067056400,3.629056396484375,1.979507327079773,0.07834340631961823,0.3402516841888428
1751281726085883100,3.647883056640625,1.6398664712905884,-0.14889828860759735,0.07269290834665298
1751281726104710000,3.6667099609375,1.1890482902526855,-0.05971203371882439,0.0824667438864708
1751281726123536600,3.68553662109375,0.7455604672431946,0.05513054504990578,0.11056652665138245
1751281726142363600,3.70436376953125,0.4633409380912781,-0.01695149764418602,-0.006719512399286032
1751281726161190400,3.7231904296875,0.210442915558815,-0.04627300798892975,-0.10567960888147354
1751281726180017200,3.74201708984375,-0.09132428467273712,0.07223475724458694,-0.05436696484684944
1751281726198844200,3.76084423828125,-0.18417572975158691,0.08078686892986298,0.13988803327083588
1751281726217671000,3.7796708984375,-0.42974337935447693,0.027030766010284424,0.1130099818110466
1751281726236497700,3.79849755859375,-0.7925970554351807,-0.005955931730568409,-0.13744457066059113
1751281726255324400,3.817324462890625,-1.1908808946609497,-0.15745039284229279,-0.3402516841888428
1751281726274151400,3.8361513671875,-1.5769474506378174,-0.21487168967723846,-0.39400777220726013
1751281726292978200,3.854978271484375,-1.925140380859375,-0.1611155867576599,-0.40378162264823914
1751281726311805000,3.873804931640625,-2.215912103652954,-0.04016435891389847,-0.37812530994415283
1751281726330632000,3.8926318359375,-2.4455971717834473,0.11621702462434769,-0.3426951467990875
1751281726349458700,3.911458740234375,-2.500575065612793,0.24816381931304932,-0.2974911332130432
1751281726368285400,3.930285400390625,-2.3099851608276367,0.14309507608413696,-0.29993459582328796
1751281726387112200,3.9491123046875,-2.1132867336273193,0.0539088174700737,-0.31459537148475647
1751281726405939200,3.967939208984375,-2.0021092891693115,0.09422589093446732,-0.2816086709499359
1751281726424766000,3.986765869140625,-1.9483531713485718,0.17608177661895752,-0.21685700118541718
1751281726443592700,4.0055927734375,-1.9117013216018677,0.24083344638347626,-0.1594357043504715
1751281726462419500,4.02441943359375,-1.857945203781128,0.2444986253976822,-0.1386663019657135
1751281726481246500,4.04324658203125,-1.6551381349563599,0.25671592354774475,-0.16187916696071625
1751281726500073200,4.0620732421875,-1.145676851272583,0.16752967238426208,-0.16798780858516693
1751281726518900000,4.08089990234375,-0.4114174246788025,-0.010842849500477314,-0.10445787757635117
1751281726537727000,4.09972705078125,0.2507599890232086,-0.1207985132932663,0.07757982611656189
1751281726556553700,4.1185537109375,0.5097666382789612,-0.07315105944871902,0.21441353857517242
1751281726575380500,4.13738037109375,0.7003564834594727,-0.030390523374080658,0.1496618688106537
1751281726603620900,4.165620849609375,1.1878265142440796,-0.11835505068302155,0.029932374134659767
1751281726622447600,4.184447509765625,1.5885539054870605,-0.1977674663066864,0.08491020649671555
1751281726641274400,4.2032744140625,1.8475605249404907,-0.11591159552335739,0.24740023910999298
1751281726660101000,4.22210107421875,1.989281177520752,-0.07559451460838318,0.40378162264823914
1751281726678928100,4.24092822265625,2.0723588466644287,-0.009621120058000088,0.379347026348114
1751281726697755000,4.2597548828125,2.121227979660034,-0.10125083476305008,0.2412915825843811
1751281726716581600,4.27858154296875,2.0662500858306885,-0.25152358412742615,0.2522871494293213
1751281726735408600,4.29740869140625,1.9208643436431885,-0.04505127668380737,0.34147340059280396
1751281726754235400,4.3162353515625,1.823125958442688,-0.01695149764418602,0.3231474757194519
1751281726773062100,4.335062255859375,1.8060216903686523,-0.1366809904575348,0.19853104650974274
1751281726791889000,4.353888916015625,1.7168354988098145,-0.025503603741526604,0.16065743565559387
1751281726810716000,4.3727158203125,1.5690062046051025,-0.014508038759231567,0.1997527778148651
1751281726829542700,4.391542724609375,1.4578287601470947,0.01847865991294384,0.19608759880065918
1751281726848369400,4.410369384765625,1.314886450767517,-0.0010690133785828948,0.15699224174022675
1751281726867196400,4.429196533203125,1.0668753385543823,0.06123919412493706,0.1545487940311432
1751281726886023200,4.448023193359375,0.6954695582389832,0.08078686892986298,0.14599667489528656
1751281726904850000,4.466849853515625,0.26419901847839355,0.12843431532382965,0.09101885557174683
1751281726923676700,4.4856767578125,-0.08643736690282822,0.06734783947467804,-0.02871064469218254
1751281726942503700,4.504503662109375,-0.07422006875276566,-0.043829549103975296,-0.0616973415017128
1751281726961330400,4.523330322265625,-0.09132428467273712,-0.060933761298656464,0.015271619893610477
1751281726980157200,4.5421572265625,-0.17073670029640198,0.09789107739925385,0.017715077847242355
1751281726998984000,4.56098388671875,-0.43463030457496643,0.11133010685443878,-0.006719512399286032
1751281727017811000,4.57981103515625,-0.8536835312843323,-0.051159925758838654,-0.029932374134659767
1751281727036637700,4.5986376953125,-1.2592977285385132,-0.09392046183347702,-0.20830489695072174
1751281727055464400,4.61746435546875,-1.574504017829895,-0.037720900028944016,-0.3707949221134186
1751281727074291500,4.63629150390625,-1.905592679977417,0.09056070446968079,-0.36224281787872314
1751281727093118200,4.6551181640625,-2.2061381340026855,0.11621702462434769,-0.28038692474365234
1751281727111945000,4.673945068359375,-2.4150538444519043,0.06490438431501389,-0.268169641494751
1751281727130771700,4.692771728515625,-2.5042402744293213,0.049021899700164795,-0.3170388340950012
1751281727149598700,4.7115986328125,-2.481027364730835,0.10399972647428513,-0.3488037884235382
1751281727168425500,4.730425537109375,-2.4260494709014893,0.1467602699995041,-0.2864955961704254
1751281727187252200,4.749252197265625,-2.3686282634735107,0.11499529331922531,-0.268169641494751
1751281727206079200,4.768079345703125,-2.3124287128448486,0.09911280870437622,-0.30115634202957153
1751281727224906000,4.786906005859375,-2.131612539291382,0.0746782198548317,-0.28527384996414185
1751281727243732700,4.805732666015625,-1.8493931293487549,0.1565341055393219,-0.23273947834968567
1751281727262559700,4.824559814453125,-1.4804308414459229,0.14798198640346527,-0.12278381735086441
1751281727281386500,4.843386474609375,-1.0161736011505127,0.06368265300989151,-0.06780599057674408
1751281727300213200,4.862213134765625,-0.572685718536377,0.005039634648710489,-0.039706211537122726
1751281727319040000,4.8810400390625,-0.12675444781780243,0.008704823441803455,0.0054977829568088055
1751281727337867000,4.899866943359375,0.22388194501399994,-0.08414662629365921,-0.0054977829568088055
1751281727356693800,4.91869384765625,0.48655378818511963,-0.1000291109085083,-0.023823726922273636
1751281727375520500,4.9375205078125,0.89705491065979,-0.10247256606817245,0.1130099818110466
1751281727394347300,4.95634716796875,1.3417644500732422,-0.04505127668380737,0.2412915825843811
1751281727413174300,4.97517431640625,1.6997312307357788,-0.0694858655333519,0.2718348205089569
1751281727432001000,4.9940009765625,1.9013166427612305,-0.06582067906856537,0.2315177470445633
1751281727450827800,5.012827880859375,2.051589250564575,-0.07559451460838318,0.21930044889450073
1751281727469654800,5.03165478515625,2.215301036834717,-0.08536835014820099,0.2889390289783478
1751281727488481500,5.0504814453125,2.394895315170288,-0.08781181275844574,0.3426951467990875
1751281727507308300,5.069308349609375,2.4853034019470215,-0.043829549103975296,0.35124725103378296
1751281727526135000,5.088135009765625,2.4767513275146484,0.04413498193025589,0.3610210716724396
1751281727544962000,5.106962158203125,2.4376559257507324,0.052687086164951324,0.31581708788871765
1751281727563788800,5.125788818359375,2.3973388671875,-0.04993819445371628,0.2254091054201126
1751281727582615600,5.144615478515625,2.288604974746704,-0.08292489498853683,0.185092031955719
1751281727601442600,5.163442626953125,1.996611475944519,-0.07315105944871902,0.2315177470445633
1751281727620269300,5.182269287109375,1.5299108028411865,0.014813470654189587,0.24984370172023773
1751281727639096000,5.201095947265625,1.0290017127990723,0.04657844081521034,0.13988803327083588
1751281727657923000,5.219923095703125,0.518318772315979,-0.031612250953912735,0.02260199747979641
1751281727676749800,5.238749755859375,-0.01802051067352295,-0.0487164668738842,-0.03237583488225937
1751281727695576600,5.25757666015625,-0.2562577724456787,-0.03527744114398956,-0.03481929376721382
1751281727714403300,5.2764033203125,-0.6068941354751587,-0.015729768201708794,-0.01282816007733345
1751281727733230300,5.295230224609375,-1.1261292695999146,0.036804601550102234,-0.08491020649671555
1751281727752057000,5.31405712890625,-1.6038254499435425,0.07345648854970932,-0.22418737411499023
1751281727770883800,5.3328837890625,-1.9569053649902344,0.1101083755493164,-0.31581708788871765
1751281727789710600,5.351710693359375,-2.24889874458313,0.1052214577794075,-0.31093016266822815
1751281727808537600,5.37053759765625,-2.506683588027954,0.08933897316455841,-0.29016077518463135
1751281727827364400,5.3893642578125,-2.735146999359131,0.06734783947467804,-0.32559093832969666
1751281727846191000,5.408191162109375,-2.9294021129608154,0.08933897316455841,-0.37812530994415283
1751281727865018000,5.42701806640625,-2.989266872406006,0.17486004531383514,-0.4001164436340332
1751281727883844900,5.445844970703125,-2.939175844192505,0.08689551800489426,-0.3451386094093323
1751281727902671600,5.464671630859375,-2.841437578201294,0.0746782198548317,-0.3084867000579834
1751281727921498600,5.48349853515625,-2.69116473197937,0.11621702462434769,-0.268169641494751
1751281727940325400,5.502325439453125,-2.44804048538208,0.11255183815956116,-0.21197007596492767
1751281727959152000,5.521152099609375,-2.1303908824920654,0.12843431532382965,-0.2009745091199875
1751281727977979000,5.539978759765625,-1.5793908834457397,0.07834340631961823,-0.22418737411499023
1751281727996806000,5.558805908203125,-0.7816014885902405,-0.02672533318400383,-0.17043127119541168
1751281728015632600,5.577632568359375,0.06383536756038666,-0.07559451460838318,0.031154103577136993
1751281728034459400,5.59645947265625,0.5195404887199402,-0.08292489498853683,0.16554436087608337
1751281728053286400,5.615286376953125,0.942258894443512,-0.13301581144332886,0.14477495849132538
1751281728072113200,5.634113037109375,1.3527600765228271,-0.17944152653217316,0.14477495849132538
1751281728090940000,5.65293994140625,1.6019928455352783,-0.1049160286784172,0.16065743565559387
1751281728109766700,5.6717666015625,1.8206825256347656,-0.02916879393160343,0.17165300250053406
1751281728128593700,5.69059375,2.109010696411133,-0.064598947763443,0.19120067358016968
1751281728147420400,5.70942041015625,2.3509130477905273,-0.10125083476305008,0.2864955961704254
1751281728166247200,5.7282470703125,2.46697735786438,0.016035201027989388,0.39400777220726013
1751281728185074200,5.74707421875,2.46697735786438,-0.007177661173045635,0.37690356373786926
1751281728203901000,5.76590087890625,2.45109486579895,-0.13179408013820648,0.2828303873538971
1751281728222727700,5.784727783203125,2.325256824493408,-0.1721111536026001,0.25473061203956604
1751281728241554700,5.8035546875,2.045480728149414,-0.047494735568761826,0.2877173125743866
1751281728260381400,5.82238134765625,1.7669264078140259,-0.024281874299049377,0.2620609998703003
1751281728279208200,5.841208251953125,1.5335760116577148,-0.05238165333867073,0.13622283935546875
1751281728298035000,5.860034912109375,1.3515383005142212,-0.05849030241370201,0.07880155742168427
1751281728316862000,5.878862060546875,1.1927134990692139,-0.03405570983886719,0.10567960888147354
1751281728335688700,5.897688720703125,1.0277799367904663,0.0013744457392022014,0.14477495849132538
1751281728354515500,5.916515380859375,0.8310815095901489,0.009926552884280682,0.1288924664258957
1751281728373342200,5.93534228515625,0.6429351568222046,-0.02916879393160343,0.0665842592716217
1751281728392169200,5.954169189453125,0.425467312335968,-0.060933761298656464,-0.007941242307424545
1751281728410996000,5.972995849609375,0.03329212963581085,0.08689551800489426,0.03848448023200035
1751281728429823000,5.991822998046875,-0.17195843160152435,0.09422589093446732,0.11423171311616898
1751281728448649700,6.010649658203125,-0.3393353819847107,0.21151192486286163,0.0873536616563797
1751281728467476500,6.0294765625,-0.6472112536430359,0.33490660786628723,0.0616973415017128
1751281728486303200,6.04830322265625,-1.146898627281189,0.15409064292907715,-0.0030543238390237093
1751281728505130200,6.067130126953125,-1.6649119853973389,-0.11957678198814392,-0.2938259541988373
1751281728523957000,6.08595703125,-2.0754129886627197,-0.20021092891693115,-0.4819723069667816
1751281728542783700,6.10478369140625,-2.3515238761901855,-0.041386090219020844,-0.4685332775115967
1751281728561610500,6.123610595703125,-2.5103487968444824,-0.003512472379952669,-0.3634645342826843
1751281728580437500,6.1424375,-2.595869779586792,0.023365577682852745,-0.2864955961704254
1751281728599264300,6.16126416015625,-2.6019785404205322,0.07101303339004517,-0.3194822669029236
1751281728618091000,6.180091064453125,-2.4565927982330322,0.01359174121171236,-0.31581708788871765
1751281728636918000,6.19891796875,-2.2391247749328613,-0.05971203371882439,-0.29016077518463135
1751281728655744800,6.217744873046875,-1.981339931488037,-0.018173227086663246,-0.2559523284435272
1751281728674571500,6.236571533203125,-1.6331470012664795,0.052687086164951324,-0.20219624042510986
1751281728693398500,6.2553984375,-1.1517854928970337,0.09056070446968079,-0.11178825795650482
1751281728712225300,6.274225341796875,-0.48472121357917786,-0.0010690133785828948,-0.001832594396546483
1751281728731052000,6.293052001953125,0.1737910360097885,-0.12935061752796173,0.09712749719619751
1751281728749878800,6.311878662109375,0.4572322964668274,-0.08781181275844574,0.11423171311616898
1751281728768705800,6.330705810546875,0.7492256760597229,-0.06826414167881012,0.05558869615197182
1751281728787532500,6.349532470703125,0.9923498630523682,-0.06215549260377884,0.07880155742168427
1751281728806359300,6.368359375,1.1230748891830444,0.049021899700164795,0.1740964651107788
1751281728825186300,6.387186279296875,1.316108226776123,0.13698641955852509,0.21685700118541718
1751281728844013000,6.406012939453125,1.6032146215438843,0.008704823441803455,0.17165300250053406
1751281728862839800,6.42483984375,1.9208643436431885,-0.13301581144332886,0.164322629570961
1751281728881666800,6.443666748046875,2.227518320083618,-0.07681624591350555,0.268169641494751
1751281728900493600,6.46249365234375,2.506072759628296,-0.05482511222362518,0.389120876789093
1751281728919320300,6.4813203125,2.614806652069092,0.005039634648710489,0.42455101013183594
1751281728938147000,6.50014697265625,2.5524985790252686,0.08323032408952713,0.3610210716724396
1751281728956974000,6.51897412109375,2.5195116996765137,-0.024281874299049377,0.2669478952884674
1751281728975800800,6.53780078125,2.5720460414886475,-0.21609342098236084,0.1997527778148651
1751281728994627600,6.556627685546875,2.6135849952697754,-0.31383177638053894,0.24373504519462585
1751281729013454600,6.57545458984375,2.355799913406372,-0.17944152653217316,0.3756818473339081
1751281729032281300,6.59428125,1.8658864498138428,0.02214384824037552,0.38179048895835876
1751281729051108000,6.613108154296875,1.3258819580078125,0.05146535858511925,0.16065743565559387
1751281729069934800,6.631934814453125,0.7406735420227051,0.005039634648710489,0.037262752652168274
1751281729088761900,6.650761962890625,0.10659590363502502,0.05757400393486023,0.021380268037319183
1751281729107588600,6.669588623046875,-0.1487455666065216,0.07834340631961823,-0.05070177838206291
1751281729126415400,6.688415283203125,-0.15118902921676636,-0.027947064489126205,-0.02260199747979641
1751281729145242400,6.707242431640625,-0.2721402645111084,0.016035201027989388,0.023823726922273636
1751281729164069000,6.726069091796875,-0.47006043791770935,0.04169152304530144,-0.011606430634856224
1751281729182895900,6.744895751953125,-0.8585704565048218,0.019700389355421066,-0.13622283935546875
1751281729201722600,6.76372265625,-1.3863576650619507,0.0539088174700737,-0.20341797173023224
1751281729220549600,6.782549560546875,-1.8921536207199097,0.02825249545276165,-0.30604326725006104
1751281729239376400,6.80137646484375,-2.2977678775787354,0.025809036567807198,-0.39400777220726013
1751281729258203100,6.820203125,-2.6496260166168213,0.05635227635502815,-0.3695732057094574
1751281729277030100,6.839030029296875,-2.867093801498413,0.13698641955852509,-0.3426951467990875
1751281729295857000,6.85785693359375,-2.9379541873931885,0.12965604662895203,-0.36835145950317383
1751281729314683600,6.87668359375,-2.9636104106903076,0.06979130208492279,-0.43432486057281494
1751281729333510700,6.8955107421875,-3.0918920040130615,0.08567378669977188,-0.4416552484035492
1751281729352337400,6.91433740234375,-3.2348344326019287,0.1516471803188324,-0.3659079968929291
1751281729371164200,6.9331640625,-3.190852165222168,0.15531237423419952,-0.33047783374786377
1751281729389991000,6.951990966796875,-2.8341071605682373,0.12354740500450134,-0.32559093832969666
1751281729408818000,6.97081787109375,-2.2598941326141357,0.10399972647428513,-0.24373504519462585
1751281729427644700,6.989644775390625,-1.700342059135437,0.1003345400094986,-0.13500112295150757
1751281729446471400,7.008471435546875,-1.2385283708572388,0.1259908676147461,-0.08613193035125732
1751281729465298400,7.02729833984375,-0.731510579586029,0.07589995115995407,-0.11667517572641373
1751281729484125200,7.046125244140625,-0.12064579129219055,-0.09392046183347702,-0.15821397304534912
1751281729502952000,7.064951904296875,0.32039856910705566,-0.14034618437290192,-0.06414080411195755
1751281729521778700,7.08377880859375,0.6808087825775146,-0.07070759683847427,0.16187916696071625
1751281729540605700,7.102605712890625,1.1267400979995728,-0.05971203371882439,0.2608392536640167
1751281729559432400,7.121432373046875,1.580001711845398,-0.13912445306777954,0.2364046722650528
1751281729578259200,7.14025927734375,1.9465205669403076,-0.11468986421823502,0.25350889563560486
1751281729597086200,7.159086181640625,2.2421791553497314,-0.03649916872382164,0.31459537148475647
1751281729615913000,7.177912841796875,2.5292856693267822,-0.030390523374080658,0.31581708788871765
1751281729634739700,7.19673974609375,2.864039421081543,-0.13423752784729004,0.2938259541988373
1751281729653566700,7.215566650390625,3.0973899364471436,-0.19898919761180878,0.35735589265823364
1751281729672393500,7.2343935546875,3.126711368560791,-0.13545925915241241,0.45509424805641174
1751281729691220200,7.25322021484375,3.017977476119995,-0.08659008145332336,0.46364638209342957
1751281729710047000,7.272046875,2.8457136154174805,-0.05971203371882439,0.389120876789093
1751281729728874000,7.2908740234375,2.581820011138916,-0.08414662629365921,0.3243691921234131
1751281729747700700,7.30970068359375,2.2201881408691406,-0.05971203371882439,0.30970844626426697
1751281729766527500,7.328527587890625,1.860999584197998,-0.07070759683847427,0.25473061203956604
1751281729785354200,7.347354248046875,1.5372412204742432,-0.08292489498853683,0.16554436087608337
1751281729804181200,7.36618115234375,1.2122611999511719,-0.014508038759231567,0.14233149588108063
1751281729823008000,7.385008056640625,0.815199077129364,0.0539088174700737,0.1130099818110466
1751281729841835000,7.4038349609375,0.3484983444213867,0.058795735239982605,0.02871064469218254
1751281729860661800,7.422661865234375,-0.09376774728298187,0.06979130208492279,-0.0616973415017128
1751281729879488500,7.441488525390625,-0.2562577724456787,0.033139415085315704,-0.021380268037319183
1751281729898315300,7.460315185546875,-0.5946768522262573,0.06368265300989151,0.02626718580722809
1751281729917142300,7.479142333984375,-1.0687079429626465,0.1003345400094986,-0.0873536616563797
1751281729935969000,7.497968994140625,-1.6331470012664795,0.01359174121171236,-0.2364046722650528
1751281729954795800,7.516795654296875,-2.201251268386841,0.06734783947467804,-0.32192572951316833
1751281729973622500,7.53562255859375,-2.696051597595215,0.09544762223958969,-0.37323838472366333
1751281729992449500,7.554449462890625,-3.140761375427246,0.13698641955852509,-0.3964512348175049
1751281730011276300,7.5732763671875,-3.431532859802246,0.18585561215877533,-0.42332929372787476
1751281730030103000,7.59210302734375,-3.526827812194824,0.12476912885904312,-0.4416552484035492
1751281730048930000,7.610929931640625,-3.605018377304077,0.18585561215877533,-0.42088583111763
1751281730067756800,7.6297568359375,-3.640448570251465,0.21151192486286163,-0.37201663851737976
1751281730086583600,7.64858349609375,-3.5048365592956543,0.16997312009334564,-0.39278605580329895
1751281730105410600,7.66741064453125,-3.1480915546417236,0.09544762223958969,-0.42088583111763
1751281730124237300,7.6862373046875,-2.609308958053589,0.10155627131462097,-0.35613417625427246
1751281730143064000,7.70506396484375,-1.8848233222961426,0.07223475724458694,-0.21197007596492767
1751281730161890800,7.723890869140625,-1.0784817934036255,0.02458730712532997,-0.11056652665138245
1751281730180717800,7.7427177734375,-0.11331541836261749,-0.08048143237829208,-0.015271619893610477
1751281730199544600,7.761544677734375,0.5745183229446411,-0.15867212414741516,0.12522727251052856
1751281730218371300,7.780371337890625,1.0974185466766357,-0.09147699922323227,0.1948658674955368
1751281730237198300,7.7991982421875,1.5372412204742432,-0.11957678198814392,0.18753549456596375
1751281730256025000,7.818025146484375,1.9550727605819702,-0.15867212414741516,0.18142683804035187
1751281730274851800,7.836851806640625,2.22385311126709,-0.20387612283229828,0.30604326725006104
1751281730293678600,7.8556787109375,2.5109596252441406,-0.0487164668738842,0.35246896743774414
1751281730312505600,7.874505615234375,2.911686897277832,-0.06215549260377884,0.2938259541988373
1751281730331332400,7.893332275390625,3.448026180267334,-0.12935061752796173,0.2657261788845062
1751281730350159000,7.9121591796875,3.895179271697998,-0.21609342098236084,0.38179048895835876
1751281730368986000,7.930986083984375,4.003913402557373,-0.1879936307668686,0.6126973628997803
1751281730387812900,7.949812744140625,3.8230972290039062,-0.11591159552335739,0.739757239818573
1751281730406639600,7.9686396484375,3.402822256088257,-0.10613775253295898,0.5149590373039246
1751281730425466600,7.987466552734375,2.889695882797241,-0.10369429737329483,0.2522871494293213
1751281730444293400,8.00629345703125,2.3484697341918945,-0.01206457894295454,0.23762640357017517
1751281730463120100,8.0251201171875,1.7718132734298706,-0.010842849500477314,0.2571740746498108
1751281730481947000,8.04394677734375,1.1841614246368408,-0.003512472379952669,0.185092031955719
1751281730500774000,8.06277392578125,0.6160571575164795,-0.03649916872382164,0.10934479534626007
1751281730519600600,8.0816005859375,0.12247838824987411,0.052687086164951324,0.010384701192378998
1751281730538427400,8.100427490234376,-0.1536324918270111,0.09544762223958969,-0.0360410213470459
1751281730557254100,8.119254150390624,-0.3026835024356842,0.04046979174017906,-0.001832594396546483
1751281730576081200,8.1380810546875,-0.5836812853813171,0.1259908676147461,-0.15821397304534912
1751281730594908000,8.156907958984375,-1.1982113122940063,0.005039634648710489,-0.24984370172023773
1751281730613734700,8.175734619140625,-2.0522003173828125,0.023365577682852745,-0.30482152104377747
1751281730632561700,8.194561767578126,-2.9294021129608154,0.03436114266514778,-0.3597993552684784
1751281730651388400,8.213388427734374,-3.644113779067993,0.1614210158586502,-0.47586366534233093
1751281730670215200,8.232215087890625,-4.19144868850708,0.22006404399871826,-0.5222893953323364
1751281730689042200,8.251042236328125,-4.5640764236450195,0.33857181668281555,-0.5308414697647095
1751281730707869000,8.269868896484375,-4.598284721374512,0.17608177661895752,-0.5222893953323364
1751281730726695700,8.28869580078125,-4.3466081619262695,0.08567378669977188,-0.4978547990322113
1751281730745522400,8.3075224609375,-3.8847944736480713,0.18585561215877533,-0.42943793535232544
1751281730764349400,8.326349365234375,-3.093113899230957,0.3202458620071411,-0.379347026348114
1751281730783176200,8.34517626953125,-2.1719298362731934,-0.1977674663066864,-0.2412915825843811
1751281730802003000,8.3640029296875,-1.2434152364730835,-0.057268574833869934,-0.17043127119541168
1751281730820830000,8.382829833984376,-0.07788526266813278,0.0013744457392022014,-0.09468404203653336
1751281730839656700,8.40165673828125,0.9654718041419983,-0.2283107042312622,0.12644900381565094
1751281730858483500,8.4204833984375,1.8170173168182373,-0.28328853845596313,0.4013381600379944
1751281730877310200,8.439310302734375,2.431547164916992,-0.19165882468223572,0.5418370366096497
1751281730896137200,8.45813720703125,2.802953004837036,-0.14278964698314667,0.42088583111763
1751281730914964000,8.4769638671875,3.070511817932129,-0.0743727833032608,0.2877173125743866
1751281730933790700,8.495790771484375,3.241554021835327,-0.11468986421823502,0.42455101013183594
1751281730952617700,8.51461767578125,3.441917657852173,0.030695954337716103,0.40378162264823914
1751281730971444500,8.533444580078125,3.6202900409698486,-0.20143266022205353,0.38789913058280945
1751281730990271200,8.552271240234376,3.5946338176727295,-0.19898919761180878,0.4880809485912323
1751281731009098200,8.57109814453125,3.333183765411377,0.049021899700164795,0.5210676789283752
1751281731027925000,8.589925048828125,2.9153521060943604,-0.025503603741526604,0.3549124300479889
1751281731046751700,8.608751708984375,2.411999464035034,-0.12324196845293045,0.2608392536640167
1751281731065578500,8.62757861328125,2.0222678184509277,-0.11102467030286789,0.25961753726005554
1751281731084405500,8.646405517578126,1.7779219150543213,-0.021838415414094925,0.2412915825843811
1751281731103232300,8.665232177734374,1.5677844285964966,-0.01206457894295454,0.19730933010578156
1751281731122059000,8.68405908203125,1.3539817333221436,-0.06582067906856537,0.16187916696071625
1751281731140885800,8.7028857421875,1.1414008140563965,-0.03649916872382164,0.13744457066059113
1751281731159712800,8.721712646484375,0.9239329695701599,-0.031612250953912735,0.1130099818110466
1751281731178539500,8.74053955078125,0.702799916267395,-0.02672533318400383,0.08613193035125732
1751281731197366300,8.7593662109375,0.4816668927669525,-0.015729768201708794,0.0616973415017128
1751281731216193300,8.778193359375,0.2519817352294922,-0.010842849500477314,0.033597562462091446
1751281731235020000,8.79702001953125,0.013744457624852657,0.0025961752980947495,0.0030543238390237093
1751281731253846800,8.8158466796875,-0.03145953640341759,0.011148282326757908,-0.0030543238390237093
1751281731272673800,8.834673828125,-0.0009162971982732415,-0.008399390615522861,0.0030543238390237093
1751281731291500500,8.85350048828125,0.0015271619195118546,0.0025961752980947495,-0.001832594396546483
1751281731310327300,8.872327392578125,0.000305432389723137,0.0013744457392022014,-0.001832594396546483
1751281731329154000,8.891154052734375,-0.0009162971982732415,-0.003512472379952669,-0.000610864779446274
1751281731347981000,8.90998095703125,-0.0009162971982732415,0.0038179049734026194,-0.001832594396546483
1751281731366807800,8.928807861328124,-0.0009162971982732415,-0.004734201822429895,-0.000610864779446274
1751281731385634600,8.947634521484375,-0.0009162971982732415,0.0013744457392022014,-0.000610864779446274
1751281731404461600,8.966461669921875,-0.003359756199643016,0.0038179049734026194,0.0030543238390237093
1751281731423288300,8.985288330078125,-0.026572618633508682,-0.024281874299049377,0.04459312930703163
1751281731442115000,9.004114990234376,-0.010690134018659592,0.13942988216876984,0.047036588191986084
1751281731460941800,9.02294189453125,-0.0009162971982732415,0.03436114266514778,0.009162971749901772
1751281731479768800,9.041768798828125,0.003970621153712273,-0.11468986421823502,-0.033597562462091446
1751281731498595600,9.060595703125,-0.02412915788590908,0.033139415085315704,-0.010384701192378998
1751281731517422300,9.07942236328125,-0.09010255336761475,0.1357647031545639,0.10934479534626007
1751281731536249300,9.098249267578124,-0.19150610268115997,0.12721258401870728,0.08124501258134842
1751281731555076000,9.117076171875,-0.3906480371952057,-0.05849030241370201,-0.08613193035125732
1751281731573902800,9.13590283203125,-0.6239983439445496,-0.08292489498853683,-0.13744457066059113
1751281731592729900,9.154729736328125,-0.8487966060638428,-0.03894263133406639,-0.10445787757635117
1751281731611556600,9.173556640625,-1.0051779747009277,0.01359174121171236,-0.1496618688106537
1751281731630383400,9.19238330078125,-1.0992511510849,0.04780016839504242,-0.14233149588108063
1751281731649210000,9.211210205078125,-1.176220178604126,0.0539088174700737,-0.13255766034126282
1751281731668037000,9.230037109375,-1.3045017719268799,0.042913250625133514,-0.164322629570961
1751281731686864000,9.24886376953125,-1.4633265733718872,0.012370011769235134,-0.19242240488529205
1751281731705690600,9.267690673828126,-1.564730167388916,0.007483093533664942,-0.2156352698802948
1751281731724517400,9.286517333984374,-1.6209297180175781,0.014813470654189587,-0.22785256803035736
1751281731743344400,9.305344482421875,-1.6380338668823242,0.049021899700164795,-0.21930044889450073
1751281731762171100,9.324171142578125,-1.6197079420089722,0.07834340631961823,-0.1948658674955368
1751281731780998000,9.342997802734375,-1.5696170330047607,0.10766492038965225,-0.16798780858516693
1751281731799825000,9.361824951171876,-1.5024219751358032,0.11988221108913422,-0.15577052533626556
1751281731818651600,9.380651611328124,-1.4193443059921265,0.09300415962934494,-0.15088360011577606
1751281731837478400,9.399478515625,-1.3093886375427246,0.042913250625133514,-0.16310089826583862
1751281731856305400,9.418305419921875,-1.1872156858444214,0.009926552884280682,-0.16187916696071625
1751281731875132200,9.437132080078126,-1.0589340925216675,0.029474224895238876,-0.13744457066059113
1751281731893959000,9.455958984375,-0.8842267394065857,0.033139415085315704,-0.10690133273601532
1751281731912785700,9.47478564453125,-0.6582068204879761,-0.057268574833869934,-0.12644900381565094
1751281731931612700,9.49361279296875,-0.4199695289134979,0.007483093533664942,-0.10201441496610641
1751281731950439400,9.512439453125,-0.18173226714134216,0.009926552884280682,-0.01282816007733345
1751281731969266200,9.53126611328125,0.03817904740571976,0.0062613640911877155,0.037262752652168274
1751281731988093200,9.55009326171875,0.005192350596189499,-0.004734201822429895,0.000610864779446274
1751281732006920000,9.568919921875,0.005192350596189499,-0.007177661173045635,-0.021380268037319183
1751281732025746700,9.58774658203125,-0.011911863461136818,-0.04627300798892975,0.020158538594841957
1751281732044573400,9.606573486328125,-0.08765909820795059,-0.10613775253295898,0.1178968995809555
1751281732063400400,9.625400390625,-0.2257145345211029,-0.06704241037368774,0.01649334840476513
1751281732082227200,9.644227294921874,-0.5958985686302185,-0.22098033130168915,-0.06291907280683517
1751281732101054000,9.663053955078125,-0.48105600476264954,0.10644318908452988,-0.015271619893610477
1751281732119880700,9.681880615234375,0.24709481000900269,0.490066260099411,0.1740964651107788
1751281732138707700,9.700707763671875,0.6808087825775146,-0.07070759683847427,0.11667517572641373
1751281732157534500,9.719534423828126,1.248913049697876,-0.15012001991271973,-0.009162971749901772
1751281732176361500,9.738361572265624,1.7241657972335815,0.04046979174017906,0.17531819641590118
1751281732195188200,9.757188232421875,1.9233077764511108,0.06123919412493706,0.19242240488529205
1751281732214015000,9.776014892578125,2.0039420127868652,0.01359174121171236,0.19364413619041443
1751281732232841700,9.794841796875,2.0638067722320557,-0.010842849500477314,0.30482152104377747
1751281732251668700,9.813668701171874,2.0601415634155273,-0.08781181275844574,0.2522871494293213
1751281732270495500,9.83249560546875,2.0027201175689697,-0.13545925915241241,0.18387030065059662
1751281732289322200,9.851322265625,1.8438953161239624,-0.09269873052835464,0.21441353857517242
1751281732308149000,9.87014892578125,1.5677844285964966,-0.13423752784729004,0.18387030065059662
1751281732326976000,9.88897607421875,1.2085959911346436,-0.08170316368341446,0.1081230640411377
1751281732345802800,9.907802734375,0.7736602425575256,0.01359174121171236,0.08857539296150208
1751281732364629500,9.92662939453125,0.22999058663845062,-0.04016435891389847,0.08124501258134842
1751281732383456500,9.94545654296875,-0.2110537886619568,-0.0487164668738842,-0.07024945318698883
1751281732402283300,9.964283203125,-0.4309650957584381,-0.03527744114398956,-0.09468404203653336
1751281732421110000,9.983110107421876,-0.6924152374267578,0.012370011769235134,-0.0665842592716217
1751281732439936800,10.001936767578124,-0.9221003651618958,0.05757400393486023,-0.10323614627122879
1751281732458763800,10.020763671875,-1.089477300643921,0.07589995115995407,-0.12278381735086441
1751281732477590500,10.039590576171875,-1.1884374618530273,0.07101303339004517,-0.12767073512077332
1751281732496417300,10.058417236328125,-1.2544108629226685,0.06490438431501389,-0.15821397304534912
1751281732515244300,10.077244384765624,-1.4022401571273804,0.1308777779340744,-0.15821397304534912
1751281732534071000,10.096071044921874,-1.4462224245071411,-0.25274530053138733,-0.2254091054201126
1751281732552897800,10.114897705078125,-1.3912445306777954,0.06734783947467804,-0.2938259541988373
1751281732571724800,10.133724853515625,-1.1969895362854004,0.23228132724761963,-0.12278381735086441
1751281732590551600,10.152551513671876,-0.8817833065986633,0.027030766010284424,-0.08124501258134842
1751281732609378300,10.17137841796875,-0.45539969205856323,0.014813470654189587,-0.0873536616563797
1751281732628205000,10.190205078125,-0.019242240116000175,-0.19654574990272522,-0.017715077847242355
1751281732647032000,10.209031982421875,-0.029016077518463135,-0.29184064269065857,-0.11911863088607788
1751281732665858800,10.22785888671875,-0.12675444781780243,-0.22098033130168915,-0.3121519088745117
1751281732684685600,10.246685546875,-0.32589635252952576,-0.057268574833869934,-0.31459537148475647
1751281732703512300,10.26551220703125,-0.6337721943855286,0.18585561215877533,-0.16065743565559387
1751281732722339300,10.28433935546875,-1.0564906597137451,0.3116937577724457,0.0409279391169548
1751281732741166000,10.303166015625,-1.4718786478042603,0.16508620977401733,0.021380268037319183
1751281732759992800,10.321992919921875,-1.747989535331726,0.1259908676147461,-0.21807873249053955
1751281732778819800,10.34081982421875,-1.87627112865448,0.10766492038965225,-0.22296564280986786
1751281732797646600,10.359646484375,-2.070526123046875,0.1418733447790146,-0.1899789422750473
1751281732816473300,10.378473388671875,-2.2305727005004883,0.2738201320171356,-0.17531819641590118
1751281732835300000,10.397300048828125,-2.2623376846313477,0.3019199073314667,-0.16676609218120575
1751281732854127000,10.416127197265626,-2.1670427322387695,0.2176205813884735,-0.19364413619041443
1751281732872953900,10.434953857421876,-1.8652756214141846,0.0025961752980947495,-0.205861434340477
1751281732891780600,10.453780517578124,-1.3448188304901123,-0.06826414167881012,-0.21807873249053955
1751281732910607600,10.472607666015625,-0.8035926222801208,-0.07070759683847427,-0.14721840620040894
1751281732929434400,10.491434326171875,-0.35155269503593445,-0.02916879393160343,-0.031154103577136993
1751281732948261000,10.51026123046875,0.1493564397096634,0.05757400393486023,0.06902772188186646
1751281732967088000,10.529088134765624,0.6417134404182434,-0.018173227086663246,0.010384701192378998
1751281732985915000,10.547914794921875,1.3112212419509888,-0.12202023714780807,-0.143553227186203
1751281733004741600,10.56674169921875,2.034485101699829,-0.19898919761180878,-0.031154103577136993
1751281733023568400,10.585568359375,2.757749080657959,-0.07192932814359665,0.22785256803035736
1751281733042395400,10.6043955078125,3.4822347164154053,-0.07315105944871902,0.43310311436653137
1751281733061222100,10.62322216796875,4.122420787811279,-0.19410228729248047,0.5137372612953186
1751281733080049000,10.642048828125,4.541474342346191,-0.16966769099235535,0.5479456782341003
1751281733098875600,10.660875732421875,4.677086353302002,-0.18677189946174622,0.6346884965896606
1751281733117702700,10.67970263671875,4.585456371307373,-0.22464552521705627,0.729983389377594
1751281733136529400,10.698529296875,4.27025032043457,-0.2124282270669937,0.7055488228797913
1751281733155356200,10.717356201171874,3.704589366912842,-0.22098033130168915,0.5027416944503784
1751281733174183200,10.73618310546875,2.824944257736206,-0.25274530053138733,0.24006985127925873
1751281733193010000,10.755010009765625,1.6447534561157227,-0.2331976294517517,0.06780599057674408
1751281733211836700,10.773836669921875,0.3949240744113922,-0.11468986421823502,0.0030543238390237093
1751281733230663700,10.79266357421875,-0.5140427350997925,-0.08903354406356812,-0.06780599057674408
1751281733249490400,10.811490478515625,-1.242193579673767,-0.11835505068302155,-0.14721840620040894
1751281733268317200,10.830317138671875,-2.146273374557495,-0.1623373180627823,-0.3805687427520752
1751281733287144000,10.84914404296875,-3.045466423034668,-0.08781181275844574,-0.5320632457733154
1751281733305971000,10.867970947265626,-3.9495463371276855,0.08811724185943604,-0.5125155448913574
1751281733324797700,10.886797607421874,-4.755887508392334,0.47174033522605896,-0.4990765154361725
1751281733343624400,10.90562451171875,-5.233583927154541,0.5853611826896667,-0.4673115611076355
1751281733362451500,10.924451416015625,-5.2653489112854,0.5719221234321594,-0.4159989058971405
1751281733381278200,10.9432783203125,-4.9611382484436035,0.6830995678901672,-0.3646862804889679
1751281733400105000,10.96210498046875,-4.39669942855835,0.513279139995575,-0.3695732057094574
1751281733418931700,10.980931640625,-3.6111271381378174,0.21517711877822876,-0.40255987644195557
1751281733437758700,10.9997587890625,-2.7009387016296387,-0.010842849500477314,-0.36712974309921265
1751281733456585500,11.01858544921875,-1.906814455986023,-0.12202023714780807,-0.27916520833969116
1751281733475412200,11.037412109375,-1.3240493535995483,-0.008399390615522861,-0.17165300250053406
1751281733494239200,11.0562392578125,-0.8683443069458008,0.06734783947467804,-0.05192350596189499
1751281733513066000,11.07506591796875,-0.5421425104141235,0.009926552884280682,-0.05192350596189499
1751281733531892700,11.093892822265625,-0.33322674036026,-0.1207985132932663,-0.0873536616563797
1751281733550719500,11.112719482421875,-0.13775001466274261,-0.12935061752796173,-0.07635809481143951
1751281733569546500,11.13154638671875,0.22388194501399994,-0.025503603741526604,-0.014049889519810677
1751281733588373200,11.150373291015624,0.6869174242019653,-0.16478078067302704,-0.10323614627122879
1751281733607200000,11.169199951171874,1.49081552028656,-0.1256854236125946,-0.16676609218120575
1751281733626027000,11.188027099609375,2.525620460510254,-0.1513417512178421,0.006719512399286032
1751281733644853800,11.206853759765625,3.537212610244751,-0.2331976294517517,0.29138249158859253
1751281733663680500,11.225680419921876,4.115090370178223,-0.3040579557418823,0.5174024701118469
1751281733682507300,11.24450732421875,4.173733711242676,-0.24297146499156952,0.6261364221572876
1751281733701334300,11.263334228515625,3.906174898147583,-0.12812888622283936,0.6236929297447205
1751281733720161000,11.2821611328125,3.559203624725342,-0.05482511222362518,0.5088503360748291
1751281733738987800,11.30098779296875,3.311192512512207,-0.003512472379952669,0.37201663851737976
1751281733757814800,11.319814697265626,3.2586581707000732,-0.053603384643793106,0.3426951467990875
1751281733776641500,11.3386416015625,3.2146759033203125,-0.1207985132932663,0.379347026348114
1751281733795468300,11.35746826171875,3.118159294128418,-0.07681624591350555,0.4050033390522003
1751281733814295000,11.376294921875,2.8982479572296143,-0.21487168967723846,0.42821621894836426
1751281733833122000,11.3951220703125,2.3790128231048584,-0.21609342098236084,0.32070401310920715
1751281733851948800,11.41394873046875,1.5164718627929688,-0.2393062710762024,0.14110976457595825
1751281733870775600,11.432775634765624,0.3497200906276703,-0.1049160286784172,-0.0030543238390237093
1751281733889602600,11.4516025390625,-0.6520981788635254,0.027030766010284424,-0.07757982611656189
1751281733908429300,11.47042919921875,-1.368031620979309,0.06368265300989151,-0.12034036219120026
1751281733927256000,11.489256103515626,-1.9996658563613892,0.027030766010284424,-0.20463970303535461
1751281733946082800,11.508082763671876,-2.589761257171631,-0.0010690133785828948,-0.33536475896835327
1751281733964909800,11.526909912109375,-3.134652614593506,0.16752967238426208,-0.41844236850738525
1751281733983736600,11.545736572265625,-3.5781404972076416,0.15897755324840546,-0.39400777220726013
1751281734002563300,11.564563232421875,-3.933663845062256,0.1467602699995041,-0.45387253165245056
1751281734021390000,11.58339013671875,-4.302626132965088,0.13820815086364746,-0.5393936038017273
1751281734040217000,11.602217041015624,-4.550637245178223,0.21639885008335114,-0.5699368119239807
1751281734059043800,11.6210439453125,-4.6007280349731445,0.28725916147232056,-0.4917461574077606
1751281734077870600,11.63987060546875,-4.397921085357666,0.3568977415561676,-0.3610210716724396
1751281734096697600,11.658697509765625,-3.9471027851104736,0.3935496211051941,-0.27427828311920166
1751281734115524400,11.6775244140625,-3.3154685497283936,0.2603811025619507,-0.2889390289783478
1751281734134351000,11.69635107421875,-2.6251914501190186,0.10399972647428513,-0.3500255048274994
1751281734153178000,11.71517822265625,-1.9019274711608887,0.04169152304530144,-0.23518294095993042
1751281734172004900,11.7340048828125,-1.184772253036499,-0.018173227086663246,-0.1288924664258957
1751281734190831600,11.75283154296875,-0.4883863925933838,-0.16478078067302704,-0.1740964651107788
1751281734209658400,11.771658447265626,0.1701258420944214,-0.28695371747016907,-0.2009745091199875
1751281734228485400,11.7904853515625,0.5586358308792114,-0.1623373180627823,-0.04214967042207718
1751281734247312100,11.80931201171875,1.0974185466766357,-0.018173227086663246,0.17165300250053406
1751281734266139000,11.828138916015625,1.5457932949066162,-0.04260781779885292,0.2254091054201126
1751281734284966000,11.8469658203125,1.968511700630188,-0.06826414167881012,0.22785256803035736
1751281734303792600,11.865792724609374,2.436434268951416,-0.07681624591350555,0.3243691921234131
1751281734322619400,11.884619384765625,2.9972081184387207,-0.0902552679181099,0.43310311436653137
1751281734341446100,11.903446044921875,3.5420994758605957,-0.07559451460838318,0.4575377106666565
1751281734360273200,11.922273193359375,4.034456253051758,-0.11835505068302155,0.46975502371788025
1751281734379100000,11.941099853515626,4.454731464385986,-0.15378521382808685,0.5174024701118469
1751281734397926700,11.9599267578125,4.78826379776001,-0.1513417512178421,0.5711585879325867
1751281734416753400,11.97875341796875,4.983740329742432,-0.15256348252296448,0.5968148708343506
1751281734435580400,11.997580322265625,5.000844478607178,-0.12202023714780807,0.5784889459609985
1751281734454407200,12.0164072265625,4.829802513122559,-0.15378521382808685,0.5320632457733154
1751281734473234000,12.03523388671875,4.485274791717529,-0.14034618437290192,0.49541133642196655
1751281734492061000,12.05406103515625,4.029569625854492,-0.10125083476305008,0.4734202027320862
1751281734510887700,12.0728876953125,3.48712158203125,-0.19165882468223572,0.4269944727420807
1751281734529714400,12.09171435546875,2.78584885597229,-0.0951421856880188,0.3402516841888428
1751281734548541200,12.110541259765625,1.8781037330627441,-0.10369429737329483,0.24862197041511536
1751281734567368200,12.1293681640625,0.7712168097496033,-0.14278964698314667,0.13744457066059113
1751281734586195000,12.14819482421875,-0.45906487107276917,-0.17821979522705078,-0.06780599057674408
1751281734605021700,12.167021728515625,-1.4450006484985352,-0.19898919761180878,-0.3121519088745117
1751281734623848700,12.1858486328125,-2.4834706783294678,-0.0792597085237503,-0.42088583111763
1751281734642675500,12.204675537109376,-3.4461936950683594,0.12110394239425659,-0.430659681558609
1751281734661502200,12.223502197265624,-4.3014044761657715,0.2701549530029297,-0.4428769648075104
1751281734680329200,12.2423291015625,-4.963581562042236,0.347123920917511,-0.4783071279525757
1751281734699156000,12.261156005859375,-5.364308834075928,0.4289797842502594,-0.5332849621772766
1751281734717982700,12.279982666015625,-5.468155860900879,0.34468045830726624,-0.6053670048713684
1751281734736809500,12.2988095703125,-5.320326805114746,0.26160284876823425,-0.6151408553123474
1751281734755636500,12.317636474609374,-4.96235990524292,0.3068068325519562,-0.5210676789283752
1751281734774463200,12.336463134765625,-4.440681457519531,0.32757624983787537,-0.40866854786872864
1751281734793290000,12.3552900390625,-3.8603599071502686,0.18952079117298126,-0.41233372688293457
1751281734812117000,12.374116943359375,-3.271486282348633,0.05146535858511925,-0.4159989058971405
1751281734830943700,12.39294384765625,-2.6557345390319824,0.0025961752980947495,-0.3451386094093323
1751281734849770500,12.4117705078125,-1.9556835889816284,-0.009621120058000088,-0.2559523284435272
1751281734868597200,12.43059716796875,-1.135903000831604,-0.057268574833869934,-0.19364413619041443
1751281734887424300,12.44942431640625,-0.22937972843647003,-0.08536835014820099,-0.10201441496610641
1751281734906251000,12.4682509765625,0.3326158821582794,-0.08659008145332336,0.037262752652168274
1751281734925077800,12.487077880859376,0.536644697189331,-0.019394956529140472,0.05925388261675835
1751281734943904500,12.505904541015624,0.7382301092147827,-0.09392046183347702,0.05925388261675835
1751281734962731500,12.5247314453125,1.046105980873108,-0.11713331937789917,0.08491020649671555
1751281734981558300,12.543558349609375,1.542128086090088,-0.07681624591350555,0.1545487940311432
1751281735000385000,12.562385009765626,2.2763876914978027,-0.15012001991271973,0.2718348205089569
1751281735019212000,12.5812119140625,3.2281148433685303,-0.17577634751796722,0.3854556679725647
1751281735038038800,12.600038818359375,4.135859966278076,-0.19043709337711334,0.46975502371788025
1751281735056865500,12.618865478515625,4.8579020500183105,-0.1623373180627823,0.5320632457733154
1751281735075692300,12.6376923828125,5.362476348876953,-0.14401137828826904,0.5943714380264282
1751281735094519300,12.656519287109376,5.573835849761963,-0.1769980639219284,0.6407971382141113
1751281735113346000,12.675345947265624,5.488314628601074,-0.17455461621284485,0.6603448390960693
1751281735132172800,12.6941728515625,5.160891056060791,-0.1562286615371704,0.6444623470306396
1751281735150999600,12.71299951171875,4.602560520172119,-0.1611155867576599,0.5687150955200195
1751281735169826600,12.73182666015625,3.7143633365631104,-0.1513417512178421,0.48441576957702637
1751281735188653300,12.7506533203125,2.7320926189422607,-0.12202023714780807,0.3854556679725647
1751281735207480000,12.76947998046875,1.7095050811767578,-0.05238165333867073,0.24740023910999298
1751281735226307000,12.78830712890625,0.6954695582389832,-0.03283398225903511,0.08491020649671555
1751281735245133800,12.8071337890625,-0.1597411334514618,-0.025503603741526604,-0.05803215503692627
1751281735263960600,12.825960693359375,-0.4407389461994171,-0.0951421856880188,-0.05803215503692627
1751281735282787300,12.844787353515626,-0.7681624889373779,-0.14278964698314667,-0.05070177838206291
1751281735301614300,12.8636142578125,-1.332601547241211,-0.12812888622283936,-0.09590577334165573
1751281735320441000,12.882441162109375,-2.017991781234741,0.007483093533664942,-0.20341797173023224
1751281735339267800,12.901267822265625,-2.7058255672454834,0.11621702462434769,-0.3329212963581085
1751281735358094800,12.9200947265625,-3.372889995574951,0.14431680738925934,-0.42943793535232544
1751281735376921600,12.938921630859374,-4.0167412757873535,0.1724165827035904,-0.5186241865158081
1751281735395748400,12.957748291015625,-4.527424335479736,0.2689332067966461,-0.5320632457733154
1751281735414575400,12.976575439453125,-4.7766571044921875,0.388662725687027,-0.5137372612953186
1751281735433402000,12.995402099609375,-4.774213790893555,0.378888875246048,-0.48075059056282043
1751281735452228900,13.014228759765626,-4.593397617340088,0.31413722038269043,-0.47586366534233093
1751281735471055600,13.0330556640625,-4.263530731201172,0.3312414288520813,-0.43432486057281494
1751281735489882600,13.051882568359375,-3.8542513847351074,0.31413722038269043,-0.3243691921234131
1751281735508709400,13.07070947265625,-3.3765549659729004,0.3202458620071411,-0.27427828311920166
1751281735527536000,13.0895361328125,-2.8206682205200195,0.2286161482334137,-0.2364046722650528
1751281735546363100,13.108363037109376,-2.2330162525177,0.07589995115995407,-0.22663083672523499
1751281735565190000,13.12718994140625,-1.6759074926376343,-0.10369429737329483,-0.25350889563560486
1751281735584016600,13.1460166015625,-1.166446328163147,-0.21975859999656677,-0.24862197041511536
1751281735602843400,13.164843505859375,-0.5812378525733948,-0.2185368686914444,-0.15210533142089844
1751281735621670400,13.18367041015625,0.09560033679008484,-0.11591159552335739,-0.05436696484684944
1751281735640497200,13.2024970703125,0.5720748901367188,0.02825249545276165,0.0409279391169548
1751281735659324000,13.221323974609374,1.1890482902526855,-0.12324196845293045,0.10079269111156464
1751281735678150700,13.240150634765625,1.9379684925079346,-0.2185368686914444,0.09101885557174683
1751281735696977700,13.258977783203125,2.7675228118896484,-0.19410228729248047,0.22174391150474548
1751281735715804400,13.277804443359376,3.434587240219116,-0.22953243553638458,0.3659079968929291
1751281735734631200,13.296631103515624,3.975813388824463,-0.2075413018465042,0.47464191913604736
1751281735753458200,13.315458251953125,4.3435540199279785,-0.19654574990272522,0.4978547990322113
1751281735772285000,13.334284912109375,4.551248073577881,-0.19410228729248047,0.4990765154361725
1751281735791111700,13.353111572265625,4.601338863372803,-0.1977674663066864,0.5369501113891602
1751281735809938400,13.3719384765625,4.487718105316162,-0.16966769099235535,0.5479456782341003
1751281735828765400,13.390765380859374,4.2959065437316895,-0.12324196845293045,0.5198459029197693
1751281735847592200,13.40959228515625,4.028347969055176,-0.1207985132932663,0.4783071279525757
1751281735866419000,13.4284189453125,3.6361725330352783,-0.17333288490772247,0.45020735263824463
1751281735885245700,13.44724560546875,3.048520565032959,-0.18432845175266266,0.3585776388645172
1751281735904072700,13.46607275390625,2.1835360527038574,-0.23441936075687408,0.2620609998703003
1751281735922899500,13.4848994140625,1.025336503982544,-0.21609342098236084,0.15577052533626556
1751281735941726200,13.503726318359375,-0.2770271897315979,-0.09636391699314117,0.023823726922273636
1751281735960553200,13.52255322265625,-1.1957677602767944,0.023365577682852745,-0.05558869615197182
1751281735979380000,13.5413798828125,-2.090073823928833,0.07834340631961823,-0.20463970303535461
1751281735998206700,13.560206787109376,-2.9379541873931885,0.23594652116298676,-0.3659079968929291
1751281736017033500,13.579033447265624,-3.713752508163452,0.2945895493030548,-0.38667741417884827
1751281736035860500,13.597860595703125,-4.451676845550537,0.35934120416641235,-0.43310311436653137
1751281736054687200,13.616687255859375,-5.134624004364014,0.3263545036315918,-0.5491674542427063
1751281736073514000,13.635513916015626,-5.576889991760254,0.39599308371543884,-0.5491674542427063
1751281736092341000,13.654341064453124,-5.650193691253662,0.5071704983711243,-0.49418962001800537
1751281736111167700,13.673167724609375,-5.355756759643555,0.5988001823425293,-0.38179048895835876
1751281736129994500,13.691994384765625,-4.826747894287109,0.44730573892593384,-0.3292561173439026
1751281736148821200,13.7108212890625,-4.22932243347168,0.30314165353775024,-0.3597993552684784
1751281736167648300,13.729648193359376,-3.6697702407836914,0.22495095431804657,-0.2571740746498108
1751281736186475000,13.74847509765625,-3.0833399295806885,0.15042544901371002,-0.23029601573944092
1751281736205301800,13.7673017578125,-2.4407103061676025,-0.08536835014820099,-0.268169641494751
1751281736224128500,13.78612841796875,-1.7431026697158813,-0.25763222575187683,-0.30604326725006104
1751281736242955500,13.80495556640625,-0.9844086170196533,-0.39568766951560974,-0.2779434621334076
1751281736261782300,13.8237822265625,-0.14508038759231567,-0.4384481906890869,-0.2315177470445633
1751281736280609000,13.842609130859374,0.4474584460258484,-0.25763222575187683,-0.0665842592716217
1751281736299436000,13.86143603515625,0.8872811198234558,-0.15867212414741516,0.08368847519159317
1751281736318262800,13.8802626953125,1.4199551343917847,-0.1977674663066864,0.13255766034126282
1751281736337089500,13.899089599609376,2.093128204345703,-0.15867212414741516,0.17898337543010712
1751281736355916300,13.917916259765626,2.811505079269409,-0.2136499583721161,0.30482152104377747
1751281736374743300,13.936743408203125,3.4321436882019043,-0.1305723488330841,0.3915643095970154
1751281736393570000,13.955570068359375,4.040565013885498,-0.09269873052835464,0.4917461574077606
1751281736412396800,13.974396728515625,4.506043910980225,-0.24541492760181427,0.4917461574077606
1751281736431223800,13.993223876953126,4.700299263000488,-0.2759581506252289,0.4563159942626953
1751281736450050600,14.012050537109374,4.7345075607299805,-0.10125083476305008,0.5784889459609985
1751281736468877300,14.030877197265625,4.733285903930664,-0.11468986421823502,0.6713404059410095
1751281736487704000,14.0497041015625,4.717403411865234,-0.11224640160799026,0.583375871181488
1751281736506531000,14.068531005859375,4.584234714508057,-0.21731515228748322,0.4465421438217163
1751281736525357800,14.08735791015625,4.207942008972168,-0.30283620953559875,0.40378162264823914
1751281736544184600,14.1061845703125,3.579972982406616,-0.23075416684150696,0.39400777220726013
1751281736563011300,14.12501123046875,2.7528622150421143,-0.14889828860759735,0.3549124300479889
1751281736581838300,14.14383837890625,1.7241657972335815,-0.10125083476305008,0.2816086709499359
1751281736600665000,14.1626650390625,0.5794052481651306,-0.10613775253295898,0.14477495849132538
1751281736619491800,14.181491943359376,-0.45417797565460205,-0.01206457894295454,-0.011606430634856224
1751281736638318800,14.20031884765625,-1.2434152364730835,-0.05849030241370201,-0.13988803327083588
1751281736657145600,14.2191455078125,-2.0473132133483887,0.16752967238426208,-0.20219624042510986
1751281736675972400,14.237972412109375,-2.8206682205200195,0.14920371770858765,-0.258395791053772
1751281736694799000,14.256799072265625,-3.6086835861206055,0.2787070572376251,-0.4172206521034241
1751281736713626000,14.275626220703124,-4.388147354125977,0.3813323378562927,-0.4147771894931793
1751281736732452900,14.294452880859374,-4.915934085845947,0.3984365463256836,-0.46486809849739075
1751281736751279600,14.313279541015625,-5.134624004364014,0.3361283540725708,-0.5088503360748291
1751281736770106600,14.332106689453125,-5.111411094665527,0.2738201320171356,-0.5259546041488647
1751281736788933400,14.350933349609376,-4.970911979675293,0.16264274716377258,-0.5564978122711182
1751281736807760100,14.369760009765624,-4.660593032836914,0.2848156988620758,-0.45998117327690125
1751281736826587000,14.3885869140625,-4.108371257781982,0.4021017551422119,-0.3133736252784729
1751281736845414000,14.407413818359375,-3.422980785369873,0.3568977415561676,-0.23396120965480804
1751281736873654000,14.435654052734375,-2.461479663848877,0.11621702462434769,-0.20341797173023224
1751281736892480800,14.454480712890625,-1.8457279205322266,-0.11957678198814392,-0.2608392536640167
1751281736911307500,14.4733076171875,-1.2104285955429077,-0.33826637268066406,-0.29138249158859253
1751281736930134500,14.492134521484376,-0.49571678042411804,-0.2759581506252289,-0.23884813487529755
1751281736948961300,14.510961181640624,0.24709481000900269,-0.04505127668380737,0.01649334840476513
1751281736967788000,14.5297880859375,0.7186824083328247,-0.041386090219020844,0.04825831577181816
1751281736986615000,14.548614990234375,1.2904518842697144,-0.10247256606817245,0.06902772188186646
1751281737005441800,14.56744189453125,1.8866559267044067,-0.17577634751796722,0.1533270627260208
1751281737024268500,14.5862685546875,2.523176908493042,-0.19165882468223572,0.2620609998703003
1751281737043095300,14.60509521484375,3.0082035064697266,-0.300392746925354,0.2828303873538971
1751281737061922300,14.62392236328125,3.372278928756714,-0.24663665890693665,0.31581708788871765
1751281737080749000,14.6427490234375,3.652055025100708,-0.2551887631416321,0.4098902642726898
1751281737099575800,14.661575927734376,3.8487534523010254,-0.27229297161102295,0.5332849621772766
1751281737118402800,14.68040283203125,3.9000661373138428,-0.1623373180627823,0.5870410799980164
1751281737137229600,14.6992294921875,3.878075122833252,-0.060933761298656464,0.5088503360748291
1751281737156056300,14.718056396484375,3.825540781021118,-0.11957678198814392,0.39400777220726013
1751281737174883000,14.736883056640625,3.713141679763794,-0.13179408013820648,0.36224281787872314
1751281737193710000,14.7557099609375,3.4578001499176025,-0.18677189946174622,0.33047783374786377
1751281737212536800,14.774536865234374,2.972773551940918,-0.18066325783729553,0.31459537148475647
1751281737231363600,14.793363525390625,2.3338088989257812,-0.0792597085237503,0.3035998046398163
1751281737250190300,14.8121904296875,1.675296664237976,-0.027947064489126205,0.24740023910999298
1751281737269017300,14.831017333984375,0.9434806704521179,-0.09269873052835464,0.1386663019657135
1751281737287844000,14.849843994140626,0.035735588520765305,-0.14523309469223022,0.0030543238390237093
1751281737306670800,14.8686708984375,-0.6166679859161377,-0.10980294644832611,-0.11545344442129135
1751281737325497900,14.887497802734375,-1.242193579673767,-0.0743727833032608,-0.1740964651107788
1751281737344324600,14.90632470703125,-1.9862267971038818,-0.02672533318400383,-0.23884813487529755
1751281737363151400,14.9251513671875,-2.8035638332366943,0.12110394239425659,-0.3231474757194519
1751281737381978000,14.94397802734375,-3.616014003753662,0.27748534083366394,-0.38667741417884827
1751281737400805000,14.96280517578125,-4.272082805633545,0.31413722038269043,-0.46364638209342957
1751281737419631900,14.9816318359375,-4.759552955627441,0.2444986253976822,-0.5821541547775269
1751281737438458600,15.000458740234375,-5.112632751464844,0.25060728192329407,-0.6224712133407593
1751281737457285600,15.01928564453125,-5.228697299957275,0.31780239939689636,-0.6090322136878967
1751281737476112400,15.0381123046875,-4.958694934844971,0.4289797842502594,-0.5418370366096497
1751281737494939100,15.056939208984375,-4.401586055755615,0.2994764447212219,-0.46364638209342957
1751281737513766000,15.075765869140625,-3.7394087314605713,0.21395538747310638,-0.4318813979625702
1751281737532593000,15.094593017578125,-3.051574945449829,0.18463388085365295,-0.33536475896835327
1751281737551419600,15.113419677734376,-2.422384262084961,0.16386447846889496,-0.2461785078048706
1751281737570246400,15.132246337890624,-1.8212933540344238,0.10399972647428513,-0.18875721096992493
1751281737589073200,15.1510732421875,-1.1811070442199707,0.0038179049734026194,-0.13744457066059113
1751281737607900200,15.169900146484375,-0.4969384968280792,-0.07315105944871902,-0.08124501258134842
1751281737626727000,15.188726806640625,0.1383608728647232,-0.1256854236125946,-0.017715077847242355
1751281737645553700,15.2075537109375,0.476779967546463,-0.025503603741526604,0.010384701192378998
1751281737664380700,15.226380615234374,0.9056070446968079,-0.13545925915241241,0.04214967042207718
1751281737683207400,15.24520751953125,1.4553853273391724,-0.17088942229747772,0.07391463965177536
1751281737702034200,15.2640341796875,2.1444408893585205,-0.22708898782730103,0.1802051067352295
1751281737720861000,15.28286083984375,2.8848090171813965,-0.14278964698314667,0.2718348205089569
1751281737739688000,15.30168798828125,3.6276204586029053,-0.18921536207199097,0.3634645342826843
1751281737758514700,15.3205146484375,4.249480724334717,-0.2075413018465042,0.45875945687294006
1751281737777341400,15.339341552734375,4.718625068664551,-0.19410228729248047,0.5674933791160583
1751281737796168400,15.35816845703125,5.060709476470947,-0.24297146499156952,0.6200277805328369
1751281737814995200,15.3769951171875,5.2488555908203125,-0.27717989683151245,0.6359102129936218
1751281737833822000,15.395822021484374,5.259850978851318,-0.2649625837802887,0.6310232877731323
1751281737852648700,15.414648681640625,5.093696117401123,-0.22953243553638458,0.6224712133407593
1751281737871475500,15.433475341796875,4.778489589691162,-0.22220206260681152,0.6078104376792908
1751281737890302500,15.452302490234375,4.317897796630859,-0.2283107042312622,0.5381718873977661
1751281737909129200,15.471129150390626,3.721693754196167,-0.20021092891693115,0.4318813979625702
1751281737927956000,15.4899560546875,2.9715516567230225,-0.17333288490772247,0.3390299379825592
1751281737946783000,15.508782958984375,1.9257512092590332,-0.16966769099235535,0.26939135789871216
1751281737965609700,15.527609619140625,0.5842921733856201,-0.06582067906856537,0.143553227186203
1751281737984436500,15.5464365234375,-0.5885682106018066,0.03802633285522461,-0.03237583488225937
1751281738003263200,15.56526318359375,-1.4022401571273804,0.06734783947467804,-0.07635809481143951
1751281738022090200,15.58409033203125,-2.2024729251861572,0.05757400393486023,-0.17653992772102356
1751281738040917000,15.6029169921875,-3.0442445278167725,0.12232567369937897,-0.33047783374786377
1751281738059743700,15.62174365234375,-3.8799076080322266,0.23961171507835388,-0.45387253165245056
1751281738078570500,15.640570556640625,-4.610501766204834,0.2738201320171356,-0.5491674542427063
1751281738097397500,15.6593974609375,-5.117519855499268,0.32268932461738586,-0.5845975875854492
1751281738116224300,15.678224365234374,-5.3997392654418945,0.34834563732147217,-0.6078104376792908
1751281738135051000,15.697051025390625,-5.4754862785339355,0.3617846667766571,-0.5845975875854492
1751281738153878000,15.7158779296875,-5.333765983581543,0.43753188848495483,-0.5259546041488647
1751281738172704800,15.734704833984376,-4.9745774269104,0.6684387922286987,-0.38179048895835876
1751281738191531500,15.753531494140624,-4.557967662811279,0.6220130324363708,-0.22663083672523499
1751281738210358300,15.772358154296874,-4.102262496948242,0.39477136731147766,-0.26939135789871216
1751281738229185300,15.791185302734375,-3.5549275875091553,-0.002290742937475443,-0.37323838472366333
1751281738248012000,15.810011962890625,-2.9746060371398926,-0.660802960395813,-0.545502245426178
1751281738266838800,15.8288388671875,-2.3881759643554688,-0.5545125007629395,-0.7800742983818054
1751281738285665800,15.847665771484374,-1.6380338668823242,0.06001746281981468,-0.4404335021972656
1751281738304492500,15.866492431640625,-0.7681624889373779,-0.015729768201708794,0.010384701192378998
1751281738323319300,15.8853193359375,0.16646064817905426,-0.07070759683847427,0.17287473380565643
1751281738342146000,15.90414599609375,0.7247910499572754,-0.18310672044754028,0.12278381735086441
1751281738360972800,15.922972900390626,1.2831214666366577,-0.22586725652217865,0.06414080411195755
1751281738379799800,15.9417998046875,1.9049818515777588,-0.17333288490772247,0.185092031955719
1751281738398626600,15.96062646484375,2.6612324714660645,-0.1513417512178421,0.3964512348175049
1751281738417453300,15.979453369140625,3.528660297393799,-0.14278964698314667,0.4868592321872711
1751281738436280300,15.9982802734375,4.4046406745910645,-0.18677189946174622,0.5027416944503784
1751281738455107000,16.017107177734374,5.152338981628418,-0.2075413018465042,0.5748237371444702
1751281738473933800,16.035933837890624,5.696008682250977,-0.1611155867576599,0.656679630279541
1751281738492760600,16.054760498046875,5.958680629730225,-0.2234237939119339,0.7092140316963196
1751281738511587600,16.073587646484373,5.86216402053833,-0.25641047954559326,0.7250964641571045
1751281738530414300,16.092414306640624,5.52130126953125,-0.18310672044754028,0.7116574645042419
1751281738549241000,16.111240966796874,5.1034698486328125,-0.1207985132932663,0.6395754218101501
1751281738568067800,16.13006787109375,4.645321369171143,-0.19410228729248047,0.5406153202056885
1751281738586894800,16.148894775390627,4.101651668548584,-0.20509785413742065,0.46364638209342957
1751281738605721600,16.1677216796875,3.5506515502929688,-0.13179408013820648,0.42332929372787476
1751281738624548400,16.18654833984375,2.9972081184387207,-0.16966769099235535,0.39767298102378845
1751281738643375400,16.205375244140626,2.3264784812927246,-0.1769980639219284,0.33536475896835327
1751281738662202000,16.2242021484375,1.5567889213562012,-0.12935061752796173,0.21930044889450073
1751281738681028900,16.24302880859375,0.5671879649162292,-0.12202023714780807,0.1288924664258957
1751281738699855600,16.261855712890625,-0.43951719999313354,-0.03894263133406639,0.03481929376721382
1751281738718682600,16.2806826171875,-1.1297943592071533,0.03436114266514778,-0.08368847519159317
1751281738737509400,16.29950927734375,-1.9263620376586914,0.06856957077980042,-0.23029601573944092
1751281738756336000,16.318336181640625,-2.741255760192871,0.16386447846889496,-0.28405213356018066
1751281738775163100,16.3371630859375,-3.548818826675415,0.04780016839504242,-0.4465421438217163
1751281738793990000,16.355989990234374,-4.3404998779296875,0.06979130208492279,-0.573602020740509
1751281738812816600,16.374816650390624,-5.010007381439209,0.22617268562316895,-0.6420188546180725
1751281738831643400,16.393643310546874,-5.482816696166992,0.3764454126358032,-0.648127555847168
1751281738850470100,16.41247021484375,-5.736936569213867,0.33490660786628723,-0.676227331161499
1751281738869297200,16.431297119140623,-5.793136119842529,0.2750418782234192,-0.7250964641571045
1751281738888124000,16.4501240234375,-5.673406600952148,0.38499751687049866,-0.6676751971244812
1751281738906950700,16.46895068359375,-5.29711389541626,0.46685341000556946,-0.535728394985199
1751281738925777700,16.487777587890626,-4.595840930938721,0.5291616320610046,-0.39889469742774963
1751281738944604400,16.5066044921875,-3.7088654041290283,0.4094321131706238,-0.2608392536640167
1751281738963431200,16.52543115234375,-2.7595815658569336,0.12843431532382965,-0.2706131041049957
1751281738982258000,16.5442578125,-1.8005239963531494,-0.15378521382808685,-0.30970844626426697
1751281739001085000,16.5630849609375,-0.9123265743255615,-0.28695371747016907,-0.27427828311920166
1751281739019911700,16.58191162109375,-0.1792888194322586,-0.27717989683151245,-0.15088360011577606
1751281739038738400,16.600738525390625,0.1640172004699707,-0.2490801066160202,-0.07024945318698883
1751281739057565200,16.619565185546875,0.22266021370887756,-0.09636391699314117,-0.033597562462091446
1751281739076392200,16.63839208984375,0.6050615906715393,-0.02916879393160343,0.05070177838206291
1751281739095219000,16.657218994140624,1.471267819404602,-0.057268574833869934,0.21441353857517242
1751281739114045700,16.676045654296875,2.6135849952697754,-0.1611155867576599,0.3133736252784729
1751281739132872400,16.69487255859375,3.645946502685547,-0.23564109206199646,0.3659079968929291
1751281739151699500,16.713699462890624,4.436405658721924,-0.2393062710762024,0.472198486328125
1751281739170526200,16.732526123046874,4.980074882507324,-0.21120649576187134,0.5674933791160583
1751281739189353000,16.75135302734375,5.278177261352539,-0.2503018379211426,0.5955931544303894
1751281739208179700,16.7701796875,5.328268051147461,-0.2026543915271759,0.6053670048713684
1751281739227006700,16.7890068359375,5.182882308959961,-0.21120649576187134,0.6236929297447205
1751281739245833500,16.80783349609375,4.892110824584961,-0.19165882468223572,0.6212494969367981
1751281739264660200,16.82666015625,4.4583964347839355,-0.20387612283229828,0.5845975875854492
1751281739283487200,16.8454873046875,3.9049530029296875,-0.18432845175266266,0.5161807537078857
1751281739302314000,16.86431396484375,3.289201498031616,-0.08292489498853683,0.4477638900279999
1751281739321140700,16.883140625,2.701549530029297,-0.041386090219020844,0.38301220536231995
1751281739339967500,16.901967529296876,2.173762321472168,-0.04505127668380737,0.31459537148475647
1751281739358794500,16.92079443359375,1.645975112915039,-0.05482511222362518,0.23029601573944092
1751281739387034600,16.94903466796875,0.6331613659858704,-0.053603384643793106,0.09468404203653336
1751281739405861400,16.967861328125,-0.18906265497207642,-0.07681624591350555,0.000610864779446274
1751281739424688400,16.9866884765625,-0.7535017132759094,-0.1305723488330841,-0.037262752652168274
1751281739443515100,17.00551513671875,-1.4669917821884155,-0.1464548259973526,-0.13133592903614044
1751281739462342000,17.024341796875,-2.3319764137268066,-0.10125083476305008,-0.3133736252784729
1751281739481168600,17.043168701171876,-3.2543821334838867,0.02214384824037552,-0.43310311436653137
1751281739499995600,17.06199560546875,-4.154796600341797,0.14309507608413696,-0.5345066785812378
1751281739518822400,17.080822509765625,-4.9244866371154785,0.2860374450683594,-0.6298015713691711
1751281739537649200,17.099649169921875,-5.4363908767700195,0.33368489146232605,-0.6774490475654602
1751281739556476000,17.118475830078125,-5.768701553344727,0.3776671588420868,-0.7092140316963196
1751281739575303000,17.137302978515624,-5.926304817199707,0.4851793646812439,-0.6676751971244812
1751281739594129700,17.156129638671874,-5.850557327270508,0.4949531853199005,-0.5809323787689209
1751281739612956400,17.174956298828125,-5.521912097930908,0.42653632164001465,-0.565049946308136
1751281739631783200,17.193783203125,-4.99045991897583,0.28725916147232056,-0.535728394985199
1751281739650610200,17.212610107421874,-4.347830295562744,0.17119485139846802,-0.5174024701118469
1751281739669437000,17.23143701171875,-3.6111271381378174,0.17363831400871277,-0.4098902642726898
1751281739688263700,17.250263671875,-2.8402156829833984,0.08933897316455841,-0.2779434621334076
1751281739707090700,17.269090576171877,-2.025322198867798,0.06246092543005943,-0.22785256803035736
1751281739725917400,17.28791748046875,-1.1859939098358154,-0.08170316368341446,-0.1496618688106537
1751281739744744200,17.306744140625,-0.39675667881965637,-0.17944152653217316,-0.0922405794262886
1751281739763571000,17.325571044921876,0.18723005056381226,-0.24174973368644714,-0.023823726922273636
1751281739782398000,17.34439794921875,0.3436114490032196,-0.16478078067302704,-0.006719512399286032
1751281739801224700,17.363224609375,0.6258309483528137,-0.06704241037368774,0.07147117704153061
1751281739820051500,17.382051513671875,1.110857605934143,-0.060933761298656464,0.11545344442129135
1751281739838878200,17.400878173828126,1.8475605249404907,-0.04016435891389847,0.19853104650974274
1751281739857705200,17.419705322265624,2.724762439727783,-0.06704241037368774,0.30604326725006104
1751281739876532000,17.438531982421875,3.5775296688079834,-0.19165882468223572,0.38179048895835876
1751281739895358700,17.457358642578125,4.25803279876709,-0.29306238889694214,0.430659681558609
1751281739914185500,17.476185546875,4.714959621429443,-0.29184064269065857,0.4819723069667816
1751281739933012500,17.495012451171874,4.982518672943115,-0.25274530053138733,0.5430588126182556
1751281739951839200,17.513839111328124,5.1034698486328125,-0.19532401859760284,0.5870410799980164
1751281739970666000,17.532666015625,5.156003952026367,-0.13912445306777954,0.5968148708343506
1751281739989492700,17.55149267578125,5.210981845855713,-0.12446369975805283,0.5784889459609985
1751281740017733000,17.579733154296875,5.265959739685059,-0.17333288490772247,0.5259546041488647
1751281740036560000,17.598559814453125,5.163334369659424,-0.23441936075687408,0.5308414697647095
1751281740055386600,17.61738671875,4.898219108581543,-0.27840161323547363,0.5968148708343506
1751281740074213600,17.636213623046874,4.370431900024414,-0.27229297161102295,0.6688969135284424
1751281740093040400,17.655040283203125,3.48712158203125,-0.08903354406356812,0.5992583632469177
1751281740111867100,17.6738671875,2.349691390991211,0.03802633285522461,0.3549124300479889
1751281740130694000,17.69269384765625,1.0241148471832275,0.014813470654189587,0.13500112295150757
1751281740149521000,17.71152099609375,-0.3759872615337372,-0.08292489498853683,0.049480047076940536
1751281740168347600,17.73034765625,-1.5842777490615845,-0.015729768201708794,0.049480047076940536
1751281740187174400,17.74917431640625,-2.6972734928131104,0.07712167501449585,-0.2706131041049957
1751281740206001200,17.768001220703123,-3.7284131050109863,0.058795735239982605,-0.4990765154361725
1751281740224828200,17.786828125,-4.647153854370117,0.13820815086364746,-0.5088503360748291
1751281740243655000,17.805655029296876,-5.407069683074951,0.25671592354774475,-0.62857985496521
1751281740262481700,17.824481689453126,-6.009382247924805,0.3715584874153137,-0.6811142563819885
1751281740281308400,17.843308349609377,-6.378344535827637,0.48884454369544983,-0.6090322136878967
1751281740300135400,17.862135498046875,-6.438209533691406,0.6220130324363708,-0.5308414697647095
1751281740318962200,17.880962158203126,-6.1877546310424805,0.7307469844818115,-0.39767298102378845
1751281740337789000,17.899788818359376,-5.663632869720459,0.672104001045227,-0.28405213356018066
1751281740356616000,17.918615966796875,-4.918377876281738,0.5291616320610046,-0.2657261788845062
1751281740375442700,17.937442626953125,-4.05217170715332,0.43631017208099365,-0.18753549456596375
1751281740394269400,17.95626953125,-3.2042911052703857,0.3874409794807434,-0.11056652665138245
1751281740413096200,17.97509619140625,-2.383288860321045,0.2237292230129242,-0.0616973415017128
1751281740431923000,17.9939228515625,-1.602603793144226,0.007483093533664942,-0.08368847519159317
1751281740450750000,18.01275,-0.8891136646270752,-0.24174973368644714,-0.11423171311616898
1751281740488403500,18.050403564453124,0.3387245237827301,-0.5361865758895874,-0.1484401375055313
1751281740507230500,18.06923046875,0.7822123765945435,-0.49831295013427734,-0.15210533142089844
1751281740526057200,18.08805712890625,1.2635737657546997,-0.6827940940856934,-0.18753549456596375
1751281740544884000,18.106884033203126,1.8390084505081177,-0.5984947681427002,-0.09590577334165573
1751281740563710700,18.125710693359373,2.5549418926239014,-0.19410228729248047,0.2718348205089569
1751281740582537700,18.144537841796875,3.2537713050842285,-0.19410228729248047,0.40866854786872864
1751281740601364500,18.163364501953126,3.886627197265625,-0.2735147178173065,0.34636032581329346
1751281740620191200,18.182191162109376,4.354549407958984,-0.20631958544254303,0.39767298102378845
1751281740639018000,18.20101806640625,4.685638427734375,-0.1513417512178421,0.500298261642456
1751281740657845000,18.219844970703125,4.950753688812256,-0.18310672044754028,0.5442805290222168
1751281740676671700,18.238671630859375,5.1120219230651855,-0.19410228729248047,0.5430588126182556
1751281740695498500,18.25749853515625,5.118130683898926,-0.23564109206199646,0.5479456782341003
1751281740714325200,18.2763251953125,4.983740329742432,-0.22220206260681152,0.5540543794631958
1751281740733152300,18.29515234375,4.719846725463867,-0.19165882468223572,0.5296197533607483
1751281740751979000,18.31397900390625,4.367988586425781,-0.12935061752796173,0.5039634704589844
1751281740770805800,18.3328056640625,4.002691268920898,-0.09147699922323227,0.4465421438217163
1751281740789632800,18.3516328125,3.6190683841705322,-0.08048143237829208,0.3597993552684784
1751281740808459500,18.37045947265625,3.146259069442749,-0.06337722390890121,0.3084867000579834
1751281740827286300,18.389286376953127,2.506072759628296,-0.07559451460838318,0.3072649836540222
1751281740846113000,18.408113037109374,1.5396846532821655,-0.19532401859760284,0.389120876789093
1751281740864939800,18.426939697265624,0.2006690800189972,-0.10613775253295898,0.33047783374786377
1751281740883766800,18.445766845703126,-0.9416480660438538,0.01359174121171236,0.01893680728971958
1751281740902593500,18.464593505859376,-1.9471315145492554,-0.005955931730568409,-0.29626941680908203
1751281740921420300,18.483420166015627,-2.9355106353759766,0.09789107739925385,-0.27550002932548523
1751281740940247300,18.502247314453125,-3.7736172676086426,0.24694208800792694,-0.40378162264823914
1751281740959074000,18.521073974609376,-4.467559337615967,0.2689332067966461,-0.47952884435653687
1751281740977900800,18.53990087890625,-4.999011993408203,0.35934120416641235,-0.4917461574077606
1751281740996727600,18.5587275390625,-5.370417594909668,0.4802924394607544,-0.46608981490135193
1751281741015554600,18.577554443359375,-5.548790454864502,0.5951350331306458,-0.3659079968929291
1751281741034381300,18.59638134765625,-5.514581680297852,0.6134609580039978,-0.3121519088745117
1751281741053208000,18.6152080078125,-5.229918956756592,0.5242747068405151,-0.27916520833969116
1751281741072034800,18.634034912109374,-4.752222537994385,0.33979353308677673,-0.28405213356018066
1751281741090861800,18.65286181640625,-4.141357898712158,0.1773035079240799,-0.2877173125743866
1751281741109688600,18.6716884765625,-3.507280111312866,0.05024362727999687,-0.25961753726005554
1751281741128515300,18.690515380859374,-2.9721624851226807,0.030695954337716103,-0.2461785078048706
1751281741147342000,18.709342041015624,-2.573878765106201,0.027030766010284424,-0.1997527778148651
1751281741166169000,18.728169189453126,-2.2085816860198975,0.02214384824037552,-0.15821397304534912
1751281741184995800,18.746995849609377,-1.8054108619689941,0.008704823441803455,-0.12034036219120026
1751281741203822600,18.765822509765623,-1.3362667560577393,-0.08903354406356812,-0.09834922850131989
1751281741222649300,18.7846494140625,-0.8561269640922546,-0.2942841053009033,-0.14110976457595825
1751281741241476400,18.803476318359376,-0.4224129915237427,-0.4189005196094513,-0.18264856934547424
1751281741260303000,18.82230322265625,-0.08643736690282822,-0.47754353284835815,-0.15699224174022675
1751281741279129900,18.8411298828125,0.0870482325553894,-0.47265663743019104,-0.2009745091199875
1751281741297956900,18.859956787109375,0.2409861534833908,-0.2857320010662079,-0.143553227186203
1751281741316783600,18.87878369140625,0.6881392002105713,-0.08048143237829208,0.06291907280683517
1751281741335610400,18.8976103515625,1.3393210172653198,-0.14401137828826904,0.09468404203653336
1751281741354437000,18.91643701171875,2.1187844276428223,-0.1611155867576599,0.13988803327083588
1751281741373264000,18.935263916015625,2.8542656898498535,-0.15378521382808685,0.3121519088745117
1751281741392091000,18.9540908203125,3.372278928756714,-0.2539670467376709,0.4355465769767761
1751281741410917600,18.972917724609374,3.590968608856201,-0.3358229100704193,0.39889469742774963
1751281741429744400,18.991744384765624,3.688706874847412,-0.2185368686914444,0.35246896743774414
1751281741448571400,19.0105712890625,3.8121016025543213,-0.08048143237829208,0.37812530994415283
1751281741467398100,19.029398193359373,4.000247955322266,-0.0694858655333519,0.4526508152484894
1751281741486225000,19.048224853515624,4.216494083404541,-0.18432845175266266,0.5711585879325867
1751281741505051600,19.0670517578125,4.4412922859191895,-0.025503603741526604,0.5711585879325867
1751281741523878700,19.085878662109376,4.600117206573486,-0.06215549260377884,0.49418962001800537
1751281741542705400,19.104705322265627,4.6343255043029785,-0.18432845175266266,0.430659681558609
1751281741561532200,19.1235322265625,4.545139312744141,-0.23197589814662933,0.4612029194831848
1751281741580359200,19.142359130859376,4.352106094360352,-0.15012001991271973,0.5222893953323364
1751281741599186000,19.16118603515625,4.084547519683838,-0.11102467030286789,0.5894845128059387
1751281741618012700,19.1800126953125,3.760788917541504,-0.08414662629365921,0.5210676789283752
1751281741636839400,19.19883935546875,3.2867579460144043,-0.1305723488330841,0.38179048895835876
1751281741655666200,19.217666259765625,2.5671591758728027,-0.19410228729248047,0.32559093832969666
1751281741674493200,19.2364931640625,1.5140283107757568,-0.2857320010662079,0.2889390289783478
1751281741693320000,19.25531982421875,0.23365578055381775,-0.21487168967723846,0.09957095980644226
1751281741712146700,19.274146728515625,-0.7571669220924377,0.12232567369937897,-0.15577052533626556
1751281741730973700,19.2929736328125,-1.5671736001968384,0.1565341055393219,-0.0824667438864708
1751281741749800400,19.311800537109374,-2.3796236515045166,0.04657844081521034,-0.27550002932548523
1751281741768627200,19.330627197265624,-3.143204689025879,0.2029598206281662,-0.37201663851737976
1751281741787454000,19.349453857421874,-3.822486400604248,0.29825472831726074,-0.3329212963581085
1751281741806281000,19.368281005859377,-4.35882568359375,0.3006981909275055,-0.4379900395870209
1751281741825107700,19.387107666015623,-4.798648357391357,0.2176205813884735,-0.5210676789283752
1751281741843934500,19.4059345703125,-5.133402347564697,0.25060728192329407,-0.5406153202056885
1751281741862761500,19.424761474609376,-5.294670581817627,0.29825472831726074,-0.5235111117362976
1751281741881588200,19.443588134765626,-5.286118507385254,0.3202458620071411,-0.49663305282592773
1751281741900415000,19.4624150390625,-5.112632751464844,0.29214608669281006,-0.45387253165245056
1751281741919241700,19.48124169921875,-4.788874626159668,0.1724165827035904,-0.4575377106666565
1751281741938068500,19.500068359375,-4.3685994148254395,0.09789107739925385,-0.47097674012184143
1751281741956895500,19.5188955078125,-3.805382251739502,0.24327689409255981,-0.4013381600379944
1751281741975722200,19.53772216796875,-3.1224353313446045,0.0746782198548317,-0.22907429933547974
1751281741994549000,19.556549072265625,-2.3539674282073975,-0.08659008145332336,-0.3231474757194519
1751281742013376000,19.5753759765625,-1.5012001991271973,-0.29306238889694214,-0.31581708788871765
1751281742032202800,19.59420263671875,-0.4920515716075897,-0.12690715491771698,-0.0665842592716217
1751281742051029500,19.613029541015624,0.4303542375564575,-0.04016435891389847,0.1178968995809555
1751281742069856300,19.631856201171875,0.9984585046768188,-0.13301581144332886,0.007941242307424545
1751281742088683300,19.650683349609373,1.600771188735962,-0.22220206260681152,0.08124501258134842
1751281742107510000,19.669510009765624,2.199418544769287,-0.2503018379211426,0.19853104650974274
1751281742126336800,19.688336669921874,2.7345361709594727,-0.24541492760181427,0.2608392536640167
1751281742145163500,19.70716357421875,3.211010694503784,-0.2026543915271759,0.3231474757194519
1751281742163990500,19.725990478515627,3.649611711502075,-0.13790272176265717,0.4159989058971405
1751281742182817300,19.7448173828125,3.981922149658203,-0.14278964698314667,0.4978547990322113
1751281742201644000,19.76364404296875,4.231154918670654,-0.1000291109085083,0.5442805290222168
1751281742220471000,19.782470947265626,4.407083988189697,-0.12202023714780807,0.5711585879325867
1751281742239297800,19.8012978515625,4.507265567779541,-0.015729768201708794,0.5283980369567871
1751281742258124500,19.82012451171875,4.493826866149902,-0.06826414167881012,0.47464191913604736
1751281742276951300,19.838951416015625,4.328893184661865,-0.18432845175266266,0.49418962001800537
1751281742295778300,19.8577783203125,4.000247955322266,-0.10735948383808136,0.5345066785812378
1751281742314605000,19.87660498046875,3.5420994758605957,-0.10735948383808136,0.48930269479751587
1751281742333431800,19.895431884765625,2.9629995822906494,-0.14523309469223022,0.3842339515686035
1751281742352258600,19.914258544921875,2.3142611980438232,-0.24663665890693665,0.31581708788871765
1751281742371085600,19.93308544921875,1.5836669206619263,-0.14523309469223022,0.20952661335468292
1751281742389912300,19.951912353515624,0.7418952584266663,-0.08536835014820099,0.10323614627122879
1751281742408739000,19.970739013671874,-0.11209368705749512,-0.11102467030286789,0.015271619893610477
1751281742427565800,19.98956591796875,-0.24281874299049377,0.011148282326757908,-0.01282816007733345
1751281742455806200,20.01780615234375,-0.35766133666038513,-0.030390523374080658,-0.037262752652168274
1751281742474633000,20.036633056640625,-0.7009673118591309,-0.10980294644832611,-0.11911863088607788
1751281742493459700,20.055459716796875,-1.2202024459838867,-0.053603384643793106,-0.19608759880065918
1751281742512286700,20.07428662109375,-1.866497278213501,0.04657844081521034,-0.29016077518463135
1751281742531113500,20.093113525390624,-2.5714352130889893,0.06612611562013626,-0.3597993552684784
1751281742549940200,20.111940185546874,-3.240943193435669,0.18829907476902008,-0.4257727563381195
1751281742568767000,20.13076708984375,-3.8432557582855225,0.295811265707016,-0.45387253165245056
1751281742587594000,20.149593994140623,-4.3490519523620605,0.295811265707016,-0.4917461574077606
1751281742606420700,20.168420654296874,-4.6984663009643555,0.3006981909275055,-0.5308414697647095
1751281742625247500,20.18724755859375,-4.903717041015625,0.31902414560317993,-0.5247328281402588
1751281742644074200,20.20607421875,-5.093085289001465,0.3520108163356781,-0.500298261642456
1751281742662901200,20.2249013671875,-5.25924015045166,0.41065385937690735,-0.5161807537078857
1751281742681728000,20.24372802734375,-5.272679328918457,0.6782126426696777,-0.4050033390522003
1751281742700554800,20.2625546875,-5.055211544036865,0.9579886794090271,-0.13622283935546875
1751281742719381800,20.2813818359375,-4.637380123138428,0.6268999576568604,-0.0665842592716217
1751281742738208500,20.30020849609375,-4.032623767852783,0.0795651376247406,-0.3072649836540222
1751281742757035300,20.31903515625,-3.3203554153442383,-0.40546149015426636,-0.43921178579330444
1751281742775862000,20.337862060546875,-2.4736969470977783,-0.5007563829421997,-0.42943793535232544
1751281742794689000,20.35668896484375,-1.4731004238128662,-0.38102689385414124,-0.3194822669029236
1751281742813515800,20.375515869140624,-0.2611446976661682,-0.2075413018465042,-0.11911863088607788
1751281742832342500,20.394342529296875,0.6869174242019653,-0.2331976294517517,0.07391463965177536
1751281742851169500,20.41316943359375,1.45294189453125,-0.2942841053009033,0.05925388261675835
1751281742869996300,20.431996337890624,2.151771068572998,-0.3675878942012787,0.1386663019657135
1751281742888823000,20.450822998046874,2.6612324714660645,-0.3724747896194458,0.24862197041511536
1751281742907649800,20.46964990234375,3.0778422355651855,-0.2441931962966919,0.33169957995414734
1751281742926476800,20.488476806640627,3.4211483001708984,-0.28817546367645264,0.39400777220726013
1751281742945303600,20.507303466796873,3.702146053314209,-0.20509785413742065,0.4269944727420807
1751281742964130300,20.52613037109375,3.9684829711914062,-0.04260781779885292,0.47464191913604736
1751281742982957000,20.54495703125,4.152964115142822,-0.18555018305778503,0.49541133642196655
1751281743001784000,20.5637841796875,4.28002405166626,-0.1562286615371704,0.48075059056282043
1751281743020610800,20.58261083984375,4.310567378997803,-0.17455461621284485,0.4990765154361725
1751281743039437600,20.6014375,4.227489471435547,-0.15012001991271973,0.5283980369567871
1751281743058264300,20.620264404296876,4.040565013885498,-0.11224640160799026,0.5271763205528259
1751281743077091300,20.63909130859375,3.766897678375244,-0.10247256606817245,0.5015199780464172
1751281743095918000,20.65791796875,3.3991570472717285,-0.09880737960338593,0.45509424805641174
1751281743114744800,20.676744873046875,2.9520039558410645,-0.15012001991271973,0.3964512348175049
1751281743133571600,20.695571533203125,2.4791946411132812,-0.1611155867576599,0.3805687427520752
1751281743152398600,20.714398681640624,1.9770638942718506,-0.019394956529140472,0.32070401310920715
1751281743171225300,20.733225341796874,1.3771946430206299,-0.037720900028944016,0.16310089826583862
1751281743190052000,20.752052001953125,0.6527090072631836,-0.037720900028944016,0.08124501258134842
1751281743208879000,20.770879150390623,-0.1951712965965271,-0.06826414167881012,-0.02871064469218254
1751281743227705900,20.789705810546874,-0.6960803866386414,0.0038179049734026194,-0.09834922850131989
1751281743246532600,20.80853271484375,-1.1578941345214844,0.09789107739925385,-0.11911863088607788
1751281743265359400,20.827359375,-1.6465860605239868,0.13454297184944153,-0.17898337543010712
1751281743284186400,20.846186279296877,-2.1780383586883545,0.16019928455352783,-0.2559523284435272
1751281743303013000,20.86501318359375,-2.769355535507202,0.23105959594249725,-0.28405213356018066
1751281743321839900,20.88383984375,-3.17741322517395,0.1101083755493164,-0.36835145950317383
1751281743340667000,20.9026669921875,-3.4083199501037598,0.1467602699995041,-0.42332929372787476
1751281743359493600,20.92149365234375,-3.6111271381378174,0.15409064292907715,-0.40255987644195557
1751281743378320400,20.9403203125,-3.9886415004730225,0.21639885008335114,-0.4526508152484894
1751281743397147100,20.959147216796875,-4.404029846191406,0.4192059636116028,-0.42088583111763
1751281743415974100,20.97797412109375,-4.650818824768066,0.5914698243141174,-0.33658650517463684
1751281743434801000,20.99680078125,-4.699687957763672,0.7502946853637695,-0.2254091054201126
1751281743453627600,21.015627685546875,-4.562854290008545,0.551152765750885,-0.15821397304534912
1751281743472454400,21.034454345703125,-4.226878643035889,0.019700389355421066,-0.3536907136440277
1751281743491281400,21.053281494140624,-3.7345218658447266,-0.514195442199707,-0.5919279456138611
1751281743510108200,21.072108154296874,-3.1199917793273926,-0.7353284955024719,-0.6994401812553406
1751281743528935000,21.090934814453124,-2.459036111831665,-0.3773617148399353,-0.5112938284873962
1751281743547762000,21.109761962890627,-1.777311086654663,0.1724165827035904,-0.07880155742168427
1751281743566588700,21.128588623046873,-0.9489784240722656,0.13454297184944153,-0.04459312930703163
1751281743585415400,21.14741552734375,-0.06811141967773438,-0.07559451460838318,-0.09101885557174683
1751281743604242200,21.1662421875,0.37293294072151184,-0.06582067906856537,-0.01282816007733345
1751281743623069200,21.185069091796876,0.712573766708374,0.07101303339004517,0.1178968995809555
1751281743641896000,21.20389599609375,1.0766491889953613,-0.10980294644832611,0.12278381735086441
1751281743660722700,21.22272265625,1.6215405464172363,-0.07559451460838318,0.16676609218120575
1751281743679549700,21.2415498046875,2.3069307804107666,-0.08292489498853683,0.30970844626426697
1751281743698376400,21.26037646484375,3.081507444381714,-0.12324196845293045,0.3133736252784729
1751281743717203200,21.279203125,3.766897678375244,-0.21609342098236084,0.379347026348114
1751281743736030000,21.298030029296875,4.2678070068359375,-0.1464548259973526,0.49541133642196655
1751281743754857000,21.31685693359375,4.541474342346191,-0.18555018305778503,0.535728394985199
1751281743773683700,21.33568359375,4.569573879241943,-0.17577634751796722,0.5186241865158081
1751281743792510500,21.354510498046874,4.402196884155273,-0.15378521382808685,0.5222893953323364
1751281743811337200,21.373337158203125,4.122420787811279,-0.0951421856880188,0.5271763205528259
1751281743830164200,21.392164306640623,3.8072147369384766,-0.013286309316754341,0.49541133642196655
1751281743848991000,21.410990966796874,3.470017433166504,0.007483093533664942,0.4465421438217163
1751281743867817700,21.429817626953124,3.065624952316284,-0.047494735568761826,0.3964512348175049
1751281743886644500,21.44864453125,2.5964808464050293,-0.05238165333867073,0.3426951467990875
1751281743905471500,21.467471435546877,2.082132577896118,-0.021838415414094925,0.28527384996414185
1751281743924298200,21.48629833984375,1.4309507608413696,-0.003512472379952669,0.20341797173023224
1751281743943125000,21.505125,0.6820304989814758,0.08567378669977188,0.11667517572641373
1751281743961951700,21.52395166015625,-0.01435532234609127,0.1467602699995041,0.0616973415017128
1751281743980778800,21.54277880859375,-0.18173226714134216,0.20173808932304382,0.029932374134659767
1751281743999605500,21.56160546875,-0.1585194170475006,0.06123919412493706,0.027488915249705315
1751281744018432300,21.580432373046875,-0.15485422313213348,-0.14767655730247498,-0.07635809481143951
1751281744037259300,21.59925927734375,-0.2770271897315979,-0.3712530732154846,-0.1692095398902893
1751281744056086000,21.6180859375,-0.6081159114837646,-0.2124282270669937,-0.13622283935546875
1751281744074912800,21.636912841796875,-1.1615593433380127,0.09422589093446732,-0.08124501258134842
1751281744093739500,21.655739501953125,-1.7443243265151978,0.20418155193328857,-0.15088360011577606
1751281744112566500,21.67456640625,-2.2696681022644043,0.1406516134738922,-0.23273947834968567
1751281744131393300,21.693393310546874,-2.7730207443237305,-0.10858121514320374,-0.379347026348114
1751281744150220000,21.712219970703124,-3.1700828075408936,-0.19043709337711334,-0.5100721120834351
1751281744169047000,21.731047119140626,-3.5805838108062744,0.1614210158586502,-0.44898560643196106
1751281744187873800,21.749873779296873,-3.9471027851104736,0.3825540542602539,-0.3084867000579834
1751281744206700500,21.768700439453124,-4.159683704376221,0.4644099473953247,-0.3426951467990875
1751281744225527300,21.78752734375,-4.2403178215026855,0.3214675784111023,-0.33658650517463684
1751281744244354300,21.806354248046876,-4.157240390777588,0.29703301191329956,-0.3536907136440277
1751281744263181000,21.82518115234375,-3.9654288291931152,0.13332124054431915,-0.38301220536231995
1751281744282007800,21.8440078125,-3.685652732849121,0.16019928455352783,-0.347582072019577
1751281744300834600,21.86283447265625,-3.32279896736145,-0.0694858655333519,-0.37201663851737976
1751281744319661600,21.88166162109375,-2.860985279083252,-0.2551887631416321,-0.47464191913604736
1751281744338488300,21.90048828125,-2.2989895343780518,-0.23564109206199646,-0.40744680166244507
1751281744357315000,21.919315185546875,-1.6135993003845215,-0.07070759683847427,-0.1997527778148651
1751281744376142000,21.93814208984375,-0.8549052476882935,-0.10369429737329483,-0.13133592903614044
1751281744394968800,21.95696875,-0.015577051788568497,-0.18432845175266266,-0.08491020649671555
1751281744413795600,21.975795654296874,0.42302384972572327,-0.11102467030286789,-0.0030543238390237093
1751281744432622300,21.994622314453125,0.7260127663612366,0.05635227635502815,0.1081230640411377
1751281744451449300,22.013449462890627,1.1352921724319458,0.07589995115995407,0.16065743565559387
1751281744470276000,22.032276123046874,1.6643010377883911,0.027030766010284424,0.1948658674955368
1751281744489102800,22.051102783203124,2.2568399906158447,0.04413498193025589,0.2938259541988373
1751281744507929900,22.069929931640626,2.8567092418670654,0.0025961752980947495,0.3597993552684784
1751281744526756600,22.088756591796876,3.4321436882019043,-0.11224640160799026,0.37323838472366333
1751281744545583400,22.107583251953123,3.9941394329071045,-0.11713331937789917,0.4367683231830597
1751281744564410000,22.12641015625,4.4498443603515625,-0.1305723488330841,0.49418962001800537
1751281744583236900,22.14523681640625,4.733285903930664,-0.23441936075687408,0.5149590373039246
1751281744602064000,22.16406396484375,4.856680393218994,-0.1611155867576599,0.5320632457733154
1751281744620890600,22.182890625,4.75649881362915,-0.17333288490772247,0.545502245426178
1751281744639717400,22.20171728515625,4.510931015014648,-0.10369429737329483,0.5430588126182556
1751281744658544400,22.22054443359375,4.222602844238281,-0.047494735568761826,0.5247328281402588
1751281744677371100,22.23937109375,3.8902924060821533,-0.0792597085237503,0.46975502371788025
1751281744696198000,22.258197998046874,3.4333655834198,-0.1721111536026001,0.38301220536231995
1751281744715024600,22.277024658203125,2.7895140647888184,-0.17577634751796722,0.29016077518463135
1751281744733851600,22.2958515625,1.840230107307434,-0.14278964698314667,0.22418737411499023
1751281744752678400,22.314678466796874,0.6172788739204407,-0.06704241037368774,0.07757982611656189
1751281744771505200,22.333505126953124,-0.43463030457496643,-0.015729768201708794,-0.04825831577181816
1751281744790332000,22.352331787109375,-1.0662645101547241,-0.09758564829826355,-0.1533270627260208
1751281744809159000,22.371158935546877,-1.8518365621566772,-0.08292489498853683,-0.2877173125743866
1751281744827985700,22.389985595703124,-2.6777257919311523,0.17486004531383514,-0.2926042377948761
1751281744846812400,22.4088125,-3.436419725418091,0.2237292230129242,-0.3597993552684784
1751281744865639400,22.427639404296876,-4.119366645812988,0.15531237423419952,-0.49541133642196655
1751281744884466200,22.446466064453126,-4.726566314697266,0.1724165827035904,-0.5699368119239807
1751281744903293000,22.46529296875,-5.150506496429443,0.2689332067966461,-0.5662716627120972
1751281744922119700,22.48411962890625,-5.286118507385254,0.33490660786628723,-0.5540543794631958
1751281744940946700,22.50294677734375,-5.066206932067871,0.48762279748916626,-0.45875945687294006
1751281744959773400,22.5217734375,-4.4944376945495605,0.32879796624183655,-0.3280344009399414
1751281744978600200,22.54060009765625,-3.7406303882598877,0.052687086164951324,-0.4514290690422058
1751281744997427200,22.55942724609375,-2.9904885292053223,-0.08292489498853683,-0.42332929372787476
1751281745016254000,22.57825390625,-2.2232422828674316,-0.01206457894295454,-0.2620609998703003
1751281745035080700,22.597080810546874,-1.416900873184204,0.08078686892986298,-0.11667517572641373
1751281745053907500,22.615907470703124,-0.602007269859314,-0.021838415414094925,-0.04214967042207718
1751281745072734500,22.634734375,0.11392628401517868,-0.14278964698314667,-0.04581485688686371
1751281745091561200,22.653561279296873,0.3741546869277954,-0.17577634751796722,-0.031154103577136993
1751281745110388000,22.672387939453124,0.7052434086799622,-0.11102467030286789,0.05558869615197182
1751281745129214700,22.691214599609374,1.2122611999511719,-0.09758564829826355,0.1130099818110466
1751281745148041700,22.710041748046876,1.8390084505081177,-0.18066325783729553,0.16554436087608337
1751281745166868500,22.728868408203127,2.433990716934204,-0.21487168967723846,0.24373504519462585
1751281745185695200,22.7476953125,2.998429775238037,-0.12812888622283936,0.3280344009399414
1751281745204522200,22.766522216796876,3.6166248321533203,-0.1623373180627823,0.39767298102378845
1751281745223349000,22.785348876953126,4.115090370178223,-0.17821979522705078,0.47586366534233093
1751281745242175700,22.80417578125,4.45350980758667,-0.09147699922323227,0.5491674542427063
1751281745261002500,22.82300244140625,4.6257734298706055,0.020922118797898293,0.5943714380264282
1751281745279829200,22.841829345703125,4.694190502166748,0.036804601550102234,0.6090322136878967
1751281745298656300,22.86065625,4.612334728240967,0.011148282326757908,0.5858193039894104
1751281745317483000,22.87948291015625,4.405862331390381,0.020922118797898293,0.5345066785812378
1751281745336309800,22.898309814453125,4.0417866706848145,-0.007177661173045635,0.4929678738117218
1751281745355136800,22.91713671875,3.5445427894592285,-0.047494735568761826,0.4159989058971405
1751281745373963500,22.935963623046874,2.95322585105896,-0.19654574990272522,0.2987128794193268
1751281745392790300,22.954790283203124,2.1920883655548096,-0.32360562682151794,0.14721840620040894
1751281745411617000,22.973616943359374,1.1707223653793335,-0.24052800238132477,0.07757982611656189
1751281745430444000,22.992444091796877,-0.09010255336761475,-0.19410228729248047,-0.04214967042207718
1751281745449270800,23.011270751953123,-0.9673043489456177,-0.10980294644832611,-0.20463970303535461
1751281745468097500,23.03009765625,-1.8811581134796143,0.03191768378019333,-0.22663083672523499
1751281745486924500,23.048924560546876,-2.7339253425598145,0.1259908676147461,-0.2974911332130432
1751281745505751300,23.067751220703126,-3.507280111312866,0.16386447846889496,-0.41233372688293457
1751281745524578000,23.086578125,-4.2012224197387695,0.17974695563316345,-0.47464191913604736
1751281745543404800,23.10540478515625,-4.758331298828125,0.22128576040267944,-0.5332849621772766
1751281745562231800,23.124231689453126,-5.121184825897217,0.23105959594249725,-0.5626064538955688
1751281745581058600,23.14305859375,-5.306887626647949,0.21639885008335114,-0.6359102129936218
1751281745599885300,23.16188525390625,-5.350870132446289,0.305585116147995,-0.5980366468429565
1751281745618712000,23.180712158203125,-5.1761627197265625,0.44730573892593384,-0.45998117327690125
1751281745637539000,23.1995390625,-4.766883373260498,0.3459021747112274,-0.4147771894931793
1751281745656365800,23.21836572265625,-4.235430717468262,0.24327689409255981,-0.4612029194831848
1751281745675192600,23.237192626953124,-3.6563310623168945,0.17363831400871277,-0.35613417625427246
1751281745694019600,23.25601953125,-3.0442445278167725,0.08689551800489426,-0.30604326725006104
1751281745712846300,23.274846435546873,-2.413832187652588,-0.008399390615522861,-0.2926042377948761
