time,seconds_elapsed,z,y,x
1751281722612236300,0.174236328125,117.67500305175781,-6.337500095367432,-2.625
1751281722632236300,0.194236328125,117.30000305175781,-6.356250286102295,-3.1125001907348633
1751281722662236400,0.224236328125,116.70000457763672,-6.337500095367432,-3.5812501907348633
1751281722672236300,0.234236328125,116.70000457763672,-6.431250095367432,-3.4312500953674316
1751281722682236400,0.244236328125,116.71875762939453,-6.393750190734863,-3.3187501430511475
1751281722692236300,0.254236328125,116.60625457763672,-6.450000286102295,-3.3937501907348633
1751281722702236400,0.264236328125,116.70000457763672,-6.318750381469727,-3.2062501907348633
1751281722712236300,0.274236328125,116.55000305175781,-6.468750476837158,-3.168750047683716
1751281722722236400,0.284236328125,116.56875610351562,-6.412500381469727,-3.1312501430511475
1751281722732236300,0.294236328125,116.71875762939453,-6.506250381469727,-3.093750238418579
1751281722742236400,0.304236328125,116.71875762939453,-6.356250286102295,-2.8500001430511475
1751281722752236300,0.314236328125,116.75625610351562,-6.281250476837158,-2.700000047683716
1751281722762236400,0.324236328125,116.55000305175781,-6.131250381469727,-2.6812500953674316
1751281722772236300,0.334236328125,116.60625457763672,-6.112500190734863,-2.606250047683716
1751281722782236400,0.344236328125,116.66250610351562,-6.112500190734863,-2.887500047683716
1751281722792236300,0.354236328125,116.66250610351562,-5.943750381469727,-2.7750000953674316
1751281722802236400,0.364236328125,116.92500305175781,-6.187500476837158,-2.625
1751281722812236300,0.374236328125,116.70000457763672,-6.131250381469727,-2.8312501907348633
1751281722822236400,0.384236328125,116.92500305175781,-6,-2.7562501430511475
1751281722832236300,0.394236328125,116.88750457763672,-5.981250286102295,-2.9437501430511475
1751281722842236400,0.404236328125,117.22500610351562,-5.943750381469727,-3
1751281722852236300,0.414236328125,117.50625610351562,-5.887500286102295,-3.1500000953674316
1751281722862236400,0.424236328125,117.35625457763672,-6.056250095367432,-3.1125001907348633
1751281722872236300,0.434236328125,117.28125762939453,-6.018750190734863,-3.2250001430511475
1751281722882236400,0.444236328125,117.39375305175781,-5.943750381469727,-3.1312501430511475
1751281722892236300,0.454236328125,117.78750610351562,-6.037500381469727,-3.0187501907348633
1751281722902236400,0.464236328125,117.78750610351562,-6.075000286102295,-3.0375001430511475
1751281722912236300,0.474236328125,117.8062515258789,-6.168750286102295,-3.075000047683716
1751281722922236400,0.484236328125,117.8062515258789,-6.506250381469727,-3.3000001907348633
1751281722932236300,0.494236328125,117.50625610351562,-6.750000476837158,-3.281250238418579
1751281722942236400,0.504236328125,117.48750305175781,-6.543750286102295,-3.0562500953674316
1751281722952236300,0.514236328125,117.65625762939453,-6.712500095367432,-2.90625
1751281722962236400,0.524236328125,117.50625610351562,-6.768750190734863,-3.1500000953674316
1751281722972236300,0.534236328125,117.26250457763672,-6.618750095367432,-3.1125001907348633
1751281722982236400,0.544236328125,116.9625015258789,-6.731250286102295,-3.262500047683716
1751281722992236300,0.554236328125,116.98125457763672,-6.787500381469727,-3.187500238418579
1751281723002236400,0.564236328125,117.03750610351562,-6.487500190734863,-2.90625
1751281723012236300,0.574236328125,117.00000762939453,-6.318750381469727,-2.6437501907348633
1751281723022236400,0.584236328125,117.01875305175781,-6.206250190734863,-2.6437501907348633
1751281723032236300,0.594236328125,116.85000610351562,-6.187500476837158,-2.9437501430511475
1751281723042236400,0.604236328125,116.9625015258789,-6.187500476837158,-2.9437501430511475
1751281723052236300,0.614236328125,117.20625305175781,-6.262500286102295,-2.7750000953674316
1751281723062236400,0.624236328125,117.46875762939453,-6.056250095367432,-2.5875000953674316
1751281723072236300,0.634236328125,117.31875610351562,-5.925000190734863,-2.4375
1751281723082236400,0.644236328125,117.09375762939453,-6.018750190734863,-2.3062500953674316
1751281723092236300,0.654236328125,117.03750610351562,-6.018750190734863,-2.53125
1751281723102236400,0.664236328125,117.03750610351562,-6.375000476837158,-2.7375001907348633
1751281723112236300,0.674236328125,117.26250457763672,-6.506250381469727,-2.53125
1751281723122236400,0.684236328125,117.07500457763672,-6.487500190734863,-2.4000000953674316
1751281723132236300,0.694236328125,116.79375457763672,-6.375000476837158,-2.7375001907348633
1751281723142236400,0.704236328125,116.64375305175781,-6.468750476837158,-2.8312501907348633
1751281723152236300,0.714236328125,116.9625015258789,-6.412500381469727,-2.8687500953674316
1751281723162236400,0.724236328125,117.03750610351562,-6.600000381469727,-3.1500000953674316
1751281723172236300,0.734236328125,117.20625305175781,-6.618750095367432,-3.0187501907348633
1751281723182236400,0.744236328125,117.35625457763672,-6.487500190734863,-2.9250001907348633
1751281723192236300,0.754236328125,117.30000305175781,-6.468750476837158,-2.9250001907348633
1751281723202236400,0.764236328125,117.48750305175781,-6.506250381469727,-2.9437501430511475
1751281723212236300,0.774236328125,117.78750610351562,-6.862500190734863,-2.9250001907348633
1751281723222236400,0.784236328125,117.82500457763672,-6.712500095367432,-2.793750047683716
1751281723232236300,0.794236328125,117.6187515258789,-6.750000476837158,-2.7750000953674316
1751281723242236400,0.804236328125,117.65625762939453,-6.618750095367432,-2.6625001430511475
1751281723252236300,0.814236328125,117.50625610351562,-6.506250381469727,-2.7375001907348633
1751281723262236400,0.824236328125,117.35625457763672,-6.562500476837158,-2.9625000953674316
1751281723272236300,0.834236328125,117.50625610351562,-6.262500286102295,-3
1751281723282236400,0.844236328125,117.35625457763672,-6.150000095367432,-3.075000047683716
1751281723292236300,0.854236328125,117.26250457763672,-5.887500286102295,-2.9625000953674316
1751281723302236400,0.864236328125,117.2437515258789,-5.962500095367432,-2.887500047683716
1751281723312236300,0.874236328125,117.41250610351562,-6.056250095367432,-3.075000047683716
1751281723322236400,0.884236328125,117.35625457763672,-5.90625,-3.1500000953674316
1751281723332236300,0.894236328125,117.07500457763672,-5.981250286102295,-3.262500047683716
1751281723342236400,0.904236328125,117.13125610351562,-5.962500095367432,-3.0562500953674316
1751281723352236300,0.914236328125,116.9625015258789,-6.262500286102295,-3.0562500953674316
1751281723362236400,0.924236328125,116.9625015258789,-6.356250286102295,-3.0375001430511475
1751281723372236300,0.934236328125,116.79375457763672,-6.300000190734863,-2.8500001430511475
1751281723382236400,0.944236328125,116.8687515258789,-6.487500190734863,-3
1751281723392236300,0.954236328125,116.64375305175781,-6.412500381469727,-3.0187501907348633
1751281723402236400,0.964236328125,116.4000015258789,-6.468750476837158,-2.9250001907348633
1751281723412236300,0.974236328125,116.62500762939453,-6.243750095367432,-2.90625
1751281723422236400,0.984236328125,116.53125762939453,-6.225000381469727,-2.981250047683716
1751281723432236300,0.994236328125,116.60625457763672,-6.206250190734863,-2.9437501430511475
1751281723442236400,1.004236328125,116.64375305175781,-6.168750286102295,-3.0187501907348633
1751281723452236300,1.014236328125,116.53125762939453,-6.318750381469727,-3.3000001907348633
1751281723472236300,1.034236328125,116.71875762939453,-6.206250190734863,-3.2062501907348633
1751281723482236400,1.044236328125,117.01875305175781,-6.262500286102295,-3.262500047683716
1751281723492236300,1.054236328125,117.22500610351562,-6.525000095367432,-3.2250001430511475
1751281723502236400,1.064236328125,117.07500457763672,-6.375000476837158,-3.356250047683716
1751281723512236300,1.074236328125,117.01875305175781,-6.262500286102295,-3.3187501430511475
1751281723522236400,1.084236328125,117.0562515258789,-6.262500286102295,-3.3187501430511475
1751281723532236300,1.094236328125,117.39375305175781,-6.318750381469727,-3.2062501907348633
1751281723542236400,1.104236328125,117.18750762939453,-6.300000190734863,-3.1125001907348633
1751281723552236300,1.114236328125,117.07500457763672,-6.300000190734863,-3.168750047683716
1751281723562236400,1.124236328125,116.9625015258789,-6.337500095367432,-3.3187501430511475
1751281723572236300,1.134236328125,116.90625762939453,-6.468750476837158,-3.4312500953674316
1751281723582236400,1.144236328125,117.20625305175781,-6.450000286102295,-3.356250047683716
1751281723592236300,1.154236328125,117.09375762939453,-6.412500381469727,-3.356250047683716
1751281723602236400,1.164236328125,116.92500305175781,-6.431250095367432,-3.2250001430511475
1751281723612236300,1.174236328125,116.8687515258789,-6.450000286102295,-3.0375001430511475
1751281723622236400,1.184236328125,117.20625305175781,-6.450000286102295,-3.0562500953674316
1751281723632236300,1.194236328125,117.13125610351562,-6.543750286102295,-3.187500238418579
1751281723642236400,1.204236328125,117.07500457763672,-6.675000190734863,-3.168750047683716
1751281723652236300,1.214236328125,117.07500457763672,-6.525000095367432,-2.887500047683716
1751281723662236400,1.224236328125,117.07500457763672,-6.675000190734863,-2.7375001907348633
1751281723672236300,1.234236328125,117.28125762939453,-6.712500095367432,-3.093750238418579
1751281723682236400,1.244236328125,117.18750762939453,-6.712500095367432,-3.2437500953674316
1751281723692236300,1.254236328125,117.00000762939453,-6.600000381469727,-3.4312500953674316
1751281723702236400,1.264236328125,116.66250610351562,-6.693750381469727,-3.5062501430511475
1751281723712236300,1.274236328125,116.73750305175781,-6.712500095367432,-3.4312500953674316
1751281723722236400,1.284236328125,116.81250762939453,-6.506250381469727,-3.356250047683716
1751281723732236300,1.294236328125,116.8687515258789,-6.431250095367432,-3.262500047683716
1751281723742236400,1.304236328125,116.7750015258789,-6.356250286102295,-3.3187501430511475
1751281723752236300,1.314236328125,116.75625610351562,-6.506250381469727,-2.9625000953674316
1751281723762236400,1.324236328125,117.20625305175781,-6.506250381469727,-2.9437501430511475
1751281723772236300,1.334236328125,117.22500610351562,-6.543750286102295,-2.8312501907348633
1751281723782236400,1.344236328125,117.35625457763672,-6.637500286102295,-2.9250001907348633
1751281723792236300,1.354236328125,117.46875762939453,-6.693750381469727,-2.8687500953674316
1751281723802236400,1.364236328125,117.46875762939453,-6.562500476837158,-2.71875
1751281723812236300,1.374236328125,117.39375305175781,-6.506250381469727,-2.7562501430511475
1751281723822236400,1.384236328125,117.41250610351562,-6.637500286102295,-2.7375001907348633
1751281723832236300,1.394236328125,117.20625305175781,-6.431250095367432,-2.9250001907348633
1751281723842236400,1.404236328125,116.88750457763672,-6.356250286102295,-2.8312501907348633
1751281723852236300,1.414236328125,117.0562515258789,-6.337500095367432,-3.0187501907348633
1751281723862236400,1.424236328125,117.1500015258789,-6.375000476837158,-3.093750238418579
1751281723872236300,1.434236328125,117.03750610351562,-6.281250476837158,-3.281250238418579
1751281723882236400,1.444236328125,117.16875457763672,-6.468750476837158,-3.543750047683716
1751281723892236300,1.454236328125,117.16875457763672,-6.525000095367432,-3.7687501907348633
1751281723902236400,1.464236328125,117.35625457763672,-6.206250190734863,-3.8062500953674316
1751281723912236300,1.474236328125,117.39375305175781,-6.056250095367432,-3.6937501430511475
1751281723922236400,1.484236328125,117.31875610351562,-6.150000095367432,-3.637500047683716
1751281723932236300,1.494236328125,117.03750610351562,-5.981250286102295,-3.4875001907348633
1751281723942236400,1.504236328125,116.7750015258789,-5.775000095367432,-3.468750238418579
1751281723952236300,1.514236328125,116.92500305175781,-5.700000286102295,-3.356250047683716
1751281723962236400,1.524236328125,116.81250762939453,-5.568750381469727,-3.3375000953674316
1751281723972236300,1.534236328125,116.79375457763672,-5.400000095367432,-3.3375000953674316
1751281723982236400,1.544236328125,116.47500610351562,-5.550000190734863,-3.3000001907348633
1751281723992236300,1.554236328125,116.64375305175781,-5.775000095367432,-3.3187501430511475
1751281724002236400,1.564236328125,116.60625457763672,-5.737500190734863,-3.375000238418579
1751281724012236300,1.574236328125,116.71875762939453,-5.793750286102295,-3.5250000953674316
1751281724022236400,1.584236328125,117.16875457763672,-6,-3.6000001430511475
1751281724032236300,1.594236328125,117.07500457763672,-6.018750190734863,-3.6750001907348633
1751281724042236400,1.604236328125,117.20625305175781,-6.168750286102295,-3.6937501430511475
1751281724052236300,1.614236328125,117.26250457763672,-6.431250095367432,-3.7687501907348633
1751281724062236400,1.624236328125,117.28125762939453,-6.600000381469727,-3.9750001430511475
1751281724072236300,1.634236328125,117.31875610351562,-6.487500190734863,-3.9562501907348633
1751281724082236400,1.644236328125,117.35625457763672,-6.318750381469727,-4.256250381469727
1751281724092236300,1.654236328125,117.11250305175781,-6.487500190734863,-4.443750381469727
1751281724102236400,1.664236328125,116.79375457763672,-6.525000095367432,-4.5
1751281724112236300,1.674236328125,116.8687515258789,-6.656250476837158,-4.481250286102295
1751281724122236400,1.684236328125,116.9625015258789,-6.768750190734863,-4.537500381469727
1751281724132236300,1.694236328125,117.03750610351562,-6.675000190734863,-4.706250190734863
1751281724142236400,1.704236328125,117.35625457763672,-6.637500286102295,-4.6875
1751281724152236300,1.714236328125,117.3375015258789,-6.825000286102295,-5.100000381469727
1751281724162236400,1.724236328125,117.39375305175781,-7.012500286102295,-5.025000095367432
1751281724172236300,1.734236328125,117.60000610351562,-6.993750095367432,-4.875
1751281724182236400,1.744236328125,117.54375457763672,-6.937500476837158,-4.725000381469727
1751281724192236300,1.754236328125,117.45000457763672,-6.881250381469727,-4.706250190734863
1751281724202236400,1.764236328125,117.4312515258789,-6.768750190734863,-4.612500190734863
1751281724212236300,1.774236328125,117.30000305175781,-6.937500476837158,-4.368750095367432
1751281724222236400,1.784236328125,117.3375015258789,-6.975000381469727,-4.387500286102295
1751281724232236300,1.794236328125,117.2437515258789,-6.975000381469727,-3.9750001430511475
1751281724242236400,1.804236328125,117.26250457763672,-6.975000381469727,-3.918750047683716
1751281724252236300,1.814236328125,117.5250015258789,-6.937500476837158,-3.7875001430511475
1751281724262236400,1.824236328125,117.75000762939453,-6.881250381469727,-3.7687501907348633
1751281724272236300,1.834236328125,117.56250762939453,-6.975000381469727,-3.7687501907348633
1751281724282236400,1.844236328125,117.11250305175781,-7.087500095367432,-3.8625001907348633
1751281724292236300,1.854236328125,117.13125610351562,-7.012500286102295,-4.050000190734863
1751281724302236400,1.864236328125,116.75625610351562,-7.106250286102295,-3.7875001430511475
1751281724312236300,1.874236328125,116.8687515258789,-7.181250095367432,-3.9750001430511475
1751281724322236400,1.884236328125,117.00000762939453,-7.106250286102295,-3.7125000953674316
1751281724332236300,1.894236328125,116.60625457763672,-7.218750476837158,-3.543750047683716
1751281724342236400,1.904236328125,116.4000015258789,-7.368750095367432,-3.468750238418579
1751281724352236300,1.914236328125,116.53125762939453,-7.275000095367432,-3.3375000953674316
1751281724362236400,1.924236328125,116.92500305175781,-7.275000095367432,-3.3000001907348633
1751281724372236300,1.934236328125,116.94375610351562,-7.125000476837158,-3.2062501907348633
1751281724382236400,1.944236328125,116.94375610351562,-6.956250190734863,-3.4875001907348633
1751281724392236300,1.954236328125,116.8687515258789,-6.900000095367432,-3.5062501430511475
1751281724402236400,1.964236328125,116.75625610351562,-6.768750190734863,-3.450000047683716
1751281724412236300,1.974236328125,116.8687515258789,-6.637500286102295,-3.6750001907348633
1751281724422236400,1.984236328125,117.1500015258789,-6.562500476837158,-3.918750047683716
1751281724432236300,1.994236328125,117.35625457763672,-6.412500381469727,-4.050000190734863
1751281724442236400,2.004236328125,117.58125305175781,-6.262500286102295,-3.9000000953674316
1751281724452236300,2.014236328125,117.63750457763672,-6.356250286102295,-4.012500286102295
1751281724462236400,2.024236328125,117.7125015258789,-6.356250286102295,-3.9000000953674316
1751281724472236300,2.034236328125,117.69375610351562,-6.262500286102295,-3.656250238418579
1751281724482236400,2.044236328125,117.5250015258789,-6.243750095367432,-3.825000047683716
1751281724492236300,2.054236328125,117.31875610351562,-6.131250381469727,-3.8625001907348633
1751281724502236400,2.064236328125,117.20625305175781,-6.075000286102295,-3.731250047683716
1751281724512236300,2.074236328125,116.83125305175781,-6.112500190734863,-3.825000047683716
1751281724522236400,2.084236328125,116.62500762939453,-6.206250190734863,-3.918750047683716
1751281724532236300,2.094236328125,116.55000305175781,-6.112500190734863,-3.825000047683716
1751281724542236400,2.104236328125,116.55000305175781,-5.868750095367432,-3.7125000953674316
1751281724552236300,2.114236328125,116.56875610351562,-5.793750286102295,-4.03125
1751281724562236400,2.124236328125,116.66250610351562,-5.868750095367432,-4.181250095367432
1751281724572236300,2.134236328125,117.03750610351562,-5.981250286102295,-4.200000286102295
1751281724582236400,2.144236328125,117.0562515258789,-5.850000381469727,-4.462500095367432
1751281724592236300,2.154236328125,117.1500015258789,-5.887500286102295,-4.537500381469727
1751281724602236400,2.164236328125,116.98125457763672,-5.8125,-4.650000095367432
1751281724612236300,2.174236328125,117.20625305175781,-5.962500095367432,-5.025000095367432
1751281724622236400,2.184236328125,117.41250610351562,-6.412500381469727,-5.400000095367432
1751281724632236300,2.194236328125,117.46875762939453,-6.506250381469727,-5.512500286102295
1751281724642236400,2.204236328125,117.56250762939453,-6.693750381469727,-5.8125
1751281724652236300,2.214236328125,117.35625457763672,-6.825000286102295,-6.056250095367432
1751281724662236400,2.224236328125,117.18750762939453,-6.993750095367432,-6.206250190734863
1751281724672236300,2.234236328125,117.50625610351562,-7.256250381469727,-6.412500381469727
1751281724682236400,2.244236328125,117.67500305175781,-7.425000190734863,-6.881250381469727
1751281724692236300,2.254236328125,117.3375015258789,-7.706250190734863,-6.881250381469727
1751281724702236400,2.264236328125,117.3375015258789,-7.762500286102295,-7.068750381469727
1751281724712236300,2.274236328125,117.2437515258789,-7.875000476837158,-7.368750095367432
1751281724722236400,2.284236328125,117.03750610351562,-8.006250381469727,-7.462500095367432
1751281724732236300,2.294236328125,117.01875305175781,-7.875000476837158,-7.912500381469727
1751281724742236400,2.304236328125,117.18750762939453,-7.987500190734863,-7.818750381469727
1751281724752236300,2.314236328125,117.20625305175781,-7.912500381469727,-8.231250762939453
1751281724762236400,2.324236328125,117.16875457763672,-7.818750381469727,-8.362500190734863
1751281724772236300,2.334236328125,117.30000305175781,-7.650000095367432,-8.700000762939453
1751281724782236400,2.344236328125,117.30000305175781,-7.650000095367432,-8.96250057220459
1751281724792236300,2.354236328125,117.22500610351562,-7.687500476837158,-8.90625
1751281724802236400,2.364236328125,117.22500610351562,-7.556250095367432,-8.925000190734863
1751281724812236300,2.374236328125,117.45000457763672,-7.781250476837158,-8.700000762939453
1751281724822236400,2.384236328125,117.54375457763672,-7.762500286102295,-8.981250762939453
1751281724832236300,2.394236328125,117.41250610351562,-7.893750190734863,-8.568750381469727
1751281724842236400,2.404236328125,117.09375762939453,-7.856250286102295,-8.15625
1751281724852236300,2.414236328125,117.09375762939453,-7.781250476837158,-7.818750381469727
1751281724862236400,2.424236328125,116.73750305175781,-7.612500190734863,-7.500000476837158
1751281724872236300,2.434236328125,116.83125305175781,-7.687500476837158,-7.425000190734863
1751281724882236400,2.444236328125,117.07500457763672,-7.631250381469727,-7.237500190734863
1751281724892236300,2.454236328125,116.83125305175781,-7.275000095367432,-7.012500286102295
1751281724902236400,2.464236328125,116.71875762939453,-7.031250476837158,-6.618750095367432
1751281724912236300,2.474236328125,116.62500762939453,-6.768750190734863,-6.375000476837158
1751281724922236400,2.484236328125,116.83125305175781,-6.581250190734863,-6.168750286102295
1751281724932236300,2.494236328125,116.92500305175781,-6.618750095367432,-5.775000095367432
1751281724942236400,2.504236328125,117.09375762939453,-6.562500476837158,-5.15625
1751281724952236300,2.514236328125,117.0562515258789,-6.318750381469727,-4.331250190734863
1751281724962236400,2.524236328125,116.92500305175781,-6.150000095367432,-3.731250047683716
1751281724972236300,2.534236328125,117.09375762939453,-6.131250381469727,-3.1500000953674316
1751281724982236400,2.544236328125,117.07500457763672,-6.206250190734863,-2.625
1751281724992236300,2.554236328125,117.03750610351562,-6.018750190734863,-1.9875000715255737
1751281725002236400,2.564236328125,117.31875610351562,-6.056250095367432,-1.40625
1751281725012236300,2.574236328125,117.22500610351562,-5.71875,-0.8437500596046448
1751281725022236400,2.584236328125,117.2437515258789,-5.400000095367432,-0.3375000059604645
1751281725032236300,2.594236328125,117.41250610351562,-5.137500286102295,0.07500000298023224
1751281725042236400,2.604236328125,117.50625610351562,-4.950000286102295,0.675000011920929
1751281725052236300,2.614236328125,117.48750305175781,-4.818750381469727,1.21875
1751281725062236400,2.624236328125,117.5250015258789,-4.59375,1.9312500953674316
1751281725072236300,2.634236328125,117.46875762939453,-4.462500095367432,2.3625001907348633
1751281725082236400,2.644236328125,117.09375762939453,-4.200000286102295,2.793750047683716
1751281725092236300,2.654236328125,117.2437515258789,-4.03125,3.187500238418579
1751281725102236400,2.664236328125,117.41250610351562,-3.918750047683716,3.468750238418579
1751281725112236300,2.674236328125,117.26250457763672,-3.8812501430511475,3.918750047683716
1751281725122236400,2.684236328125,117.28125762939453,-3.8062500953674316,4.03125
1751281725132236300,2.694236328125,117.09375762939453,-3.656250238418579,4.03125
1751281725142236400,2.704236328125,117.20625305175781,-3.4312500953674316,3.7875001430511475
1751281725152236300,2.714236328125,117.11250305175781,-3.637500047683716,3.7687501907348633
1751281725162236400,2.724236328125,117.31875610351562,-3.5250000953674316,3.825000047683716
1751281725172236300,2.734236328125,117.00000762939453,-3.468750238418579,3.825000047683716
1751281725182236400,2.744236328125,116.92500305175781,-3.4875001907348633,3.7125000953674316
1751281725192236300,2.754236328125,117.01875305175781,-3.543750047683716,3.2437500953674316
1751281725202236400,2.764236328125,116.9625015258789,-3.8062500953674316,3.0187501907348633
1751281725212236300,2.774236328125,117.18750762939453,-3.750000238418579,2.9437501430511475
1751281725222236400,2.784236328125,116.94375610351562,-3.9000000953674316,3.0562500953674316
1751281725232236300,2.794236328125,117.20625305175781,-3.7875001430511475,2.7750000953674316
1751281725242236400,2.804236328125,117.0562515258789,-3.9750001430511475,2.4750001430511475
1751281725252236300,2.814236328125,116.9625015258789,-4.181250095367432,2.15625
1751281725262236400,2.824236328125,117.1500015258789,-4.518750190734863,1.8562500476837158
1751281725272236300,2.834236328125,117.07500457763672,-4.78125,1.5187500715255737
1751281725282236400,2.844236328125,117.13125610351562,-4.818750381469727,1.162500023841858
1751281725292236300,2.854236328125,117.22500610351562,-5.100000381469727,0.65625
1751281725302236400,2.864236328125,117.35625457763672,-5.193750381469727,0.07500000298023224
1751281725312236300,2.874236328125,117.18750762939453,-5.4375,-0.39375001192092896
1751281725322236400,2.884236328125,117.20625305175781,-5.71875,-0.9937500357627869
1751281725332236300,2.894236328125,117.48750305175781,-5.962500095367432,-1.725000023841858
1751281725342236400,2.904236328125,117.28125762939453,-6.018750190734863,-2.2687501907348633
1751281725352236300,2.914236328125,117.13125610351562,-6.131250381469727,-2.71875
1751281725362236400,2.924236328125,117.26250457763672,-6.318750381469727,-3.2250001430511475
1751281725372236300,2.934236328125,117.11250305175781,-6.618750095367432,-3.6000001430511475
1751281725382236400,2.944236328125,117.03750610351562,-7.012500286102295,-4.331250190734863
1751281725392236300,2.954236328125,117.13125610351562,-7.106250286102295,-4.6875
1751281725402236400,2.964236328125,117.09375762939453,-7.068750381469727,-5.212500095367432
1751281725412236300,2.974236328125,117.11250305175781,-7.312500476837158,-5.456250190734863
1751281725422236400,2.984236328125,116.98125457763672,-7.575000286102295,-6.112500190734863
1751281725432236300,2.994236328125,117.01875305175781,-7.687500476837158,-6.506250381469727
1751281725442236400,3.004236328125,116.66250610351562,-7.725000381469727,-6.975000381469727
1751281725452236300,3.014236328125,116.62500762939453,-7.631250381469727,-7.556250095367432
1751281725462236400,3.024236328125,116.73750305175781,-7.500000476837158,-7.950000286102295
1751281725472236300,3.034236328125,116.6812515258789,-7.631250381469727,-8.568750381469727
1751281725482236400,3.044236328125,116.92500305175781,-7.781250476837158,-9.037500381469727
1751281725492236300,3.054236328125,116.88750457763672,-7.556250095367432,-9.487500190734863
1751281725502236400,3.064236328125,117.09375762939453,-7.368750095367432,-9.581250190734863
1751281725512236300,3.074236328125,117.07500457763672,-7.275000095367432,-9.731250762939453
1751281725522236400,3.084236328125,117.1500015258789,-7.143750190734863,-10.050000190734863
1751281725532236300,3.094236328125,117.3375015258789,-7.312500476837158,-10.21875
1751281725542236400,3.104236328125,117.28125762939453,-7.312500476837158,-10.27500057220459
1751281725552236300,3.114236328125,117.39375305175781,-7.350000381469727,-10.21875
1751281725562236400,3.124236328125,117.1500015258789,-7.218750476837158,-10.08750057220459
1751281725572236300,3.134236328125,117.2437515258789,-7.425000190734863,-9.918750762939453
1751281725582236400,3.144236328125,117.28125762939453,-7.387500286102295,-9.90000057220459
1751281725592236300,3.154236328125,117.5250015258789,-7.500000476837158,-10.012500762939453
1751281725602236400,3.164236328125,117.6187515258789,-7.518750190734863,-9.693750381469727
1751281725612236300,3.174236328125,117.45000457763672,-7.500000476837158,-9.52500057220459
1751281725622236400,3.184236328125,117.4312515258789,-7.537500381469727,-9.206250190734863
1751281725632236300,3.194236328125,117.4312515258789,-7.387500286102295,-8.981250762939453
1751281725642236400,3.204236328125,117.91875457763672,-7.556250095367432,-8.30625057220459
1751281725652236300,3.214236328125,117.8062515258789,-7.406250476837158,-7.725000381469727
1751281725662236400,3.224236328125,117.73125457763672,-7.387500286102295,-7.200000286102295
1751281725672236300,3.234236328125,117.7125015258789,-7.256250381469727,-6.731250286102295
1751281725682236400,3.244236328125,117.76875305175781,-7.200000286102295,-6.206250190734863
1751281725692236300,3.254236328125,117.76875305175781,-6.881250381469727,-5.400000095367432
1751281725702236400,3.264236328125,117.65625762939453,-6.768750190734863,-4.818750381469727
1751281725712236300,3.274236328125,117.6187515258789,-6.543750286102295,-4.087500095367432
1751281725722236400,3.284236328125,117.37500762939453,-6.393750190734863,-3.731250047683716
1751281725732236300,3.294236328125,117.56250762939453,-6.206250190734863,-3.4875001907348633
1751281725742236400,3.304236328125,117.46875762939453,-6.037500381469727,-3.0562500953674316
1751281725752236300,3.314236328125,117.45000457763672,-5.90625,-2.5875000953674316
1751281725762236400,3.324236328125,117.30000305175781,-5.90625,-2.2875001430511475
1751281725772236300,3.334236328125,117.4312515258789,-5.850000381469727,-1.9500000476837158
1751281725782236400,3.344236328125,117.46875762939453,-5.700000286102295,-1.40625
1751281725792236300,3.354236328125,117.58125305175781,-5.756250381469727,-1.03125
1751281725802236400,3.364236328125,117.35625457763672,-5.606250286102295,-0.7875000238418579
1751281725812236300,3.374236328125,117.13125610351562,-5.362500190734863,-0.28125
1751281725822236400,3.384236328125,117.13125610351562,-5.268750190734863,-0.1875
1751281725832236300,3.394236328125,116.79375457763672,-5.118750095367432,0.13125000894069672
1751281725842236400,3.404236328125,117.09375762939453,-4.818750381469727,0.4687500298023224
1751281725852236300,3.414236328125,117.00000762939453,-4.6875,0.5625
1751281725862236400,3.424236328125,116.88750457763672,-4.425000190734863,0.5062500238418579
1751281725872236300,3.434236328125,116.75625610351562,-4.3125,0.5625
1751281725882236400,3.444236328125,116.9625015258789,-4.350000381469727,0.4687500298023224
1751281725892236300,3.454236328125,116.8687515258789,-4.518750190734863,0.26250001788139343
1751281725902236400,3.464236328125,117.09375762939453,-4.575000286102295,0.45000001788139343
1751281725912236300,3.474236328125,117.48750305175781,-4.556250095367432,0.15000000596046448
1751281725922236400,3.484236328125,117.39375305175781,-4.818750381469727,0.09375
1751281725932236300,3.494236328125,117.31875610351562,-5.100000381469727,0
1751281725942236400,3.504236328125,117.60000610351562,-5.381250381469727,-0.16875000298023224
1751281725952236300,3.514236328125,117.58125305175781,-5.381250381469727,-0.35625001788139343
1751281725962236400,3.524236328125,117.58125305175781,-5.362500190734863,-0.45000001788139343
1751281725972236300,3.534236328125,117.8062515258789,-5.4375,-0.6937500238418579
1751281725982236400,3.544236328125,117.63750457763672,-5.456250190734863,-1.068750023841858
1751281725992236300,3.554236328125,117.60000610351562,-5.4375,-1.1812500953674316
1751281726002236400,3.564236328125,117.30000305175781,-5.456250190734863,-1.4250000715255737
1751281726012236300,3.574236328125,117.37500762939453,-5.400000095367432,-1.8000000715255737
1751281726022236400,3.584236328125,117.20625305175781,-5.493750095367432,-2.2875001430511475
1751281726032236300,3.594236328125,117.11250305175781,-5.831250190734863,-2.9625000953674316
1751281726042236400,3.604236328125,116.71875762939453,-5.981250286102295,-3.3937501907348633
1751281726052236300,3.614236328125,116.70000457763672,-6.037500381469727,-3.9562501907348633
1751281726062236400,3.624236328125,116.5875015258789,-6.131250381469727,-4.481250286102295
1751281726072236300,3.634236328125,116.43750762939453,-6.600000381469727,-5.137500286102295
1751281726082236400,3.644236328125,116.71875762939453,-6.843750476837158,-5.793750286102295
1751281726092236300,3.654236328125,116.81250762939453,-7.143750190734863,-6.450000286102295
1751281726102236400,3.664236328125,116.83125305175781,-7.218750476837158,-6.637500286102295
1751281726112236300,3.674236328125,116.88750457763672,-7.218750476837158,-6.900000095367432
1751281726122236400,3.684236328125,117.16875457763672,-7.462500095367432,-7.612500190734863
1751281726132236300,3.694236328125,117.11250305175781,-7.725000381469727,-7.800000190734863
1751281726142236400,3.704236328125,117.13125610351562,-7.875000476837158,-7.987500190734863
1751281726152236300,3.714236328125,117.3375015258789,-8.02500057220459,-8.081250190734863
1751281726162236400,3.724236328125,117.3375015258789,-7.818750381469727,-8.02500057220459
1751281726172236300,3.734236328125,117.00000762939453,-7.631250381469727,-7.856250286102295
1751281726182236400,3.744236328125,116.98125457763672,-7.743750095367432,-8.081250190734863
1751281726192236300,3.754236328125,117.28125762939453,-7.631250381469727,-8.15625
1751281726202236400,3.764236328125,117.18750762939453,-7.500000476837158,-7.893750190734863
1751281726212236300,3.774236328125,117.26250457763672,-7.387500286102295,-7.987500190734863
1751281726222236400,3.784236328125,117.26250457763672,-7.425000190734863,-8.006250381469727
1751281726232236300,3.794236328125,117.28125762939453,-7.218750476837158,-8.193750381469727
1751281726242236400,3.804236328125,117.41250610351562,-7.425000190734863,-8.381250381469727
1751281726252236300,3.814236328125,117.67500305175781,-7.593750476837158,-8.550000190734863
1751281726262236400,3.824236328125,117.82500457763672,-7.425000190734863,-8.68125057220459
1751281726272236300,3.834236328125,117.54375457763672,-7.537500381469727,-8.606250762939453
1751281726282236400,3.844236328125,117.73125457763672,-7.443750381469727,-8.475000381469727
1751281726292236300,3.854236328125,117.88125610351562,-7.293750286102295,-8.287500381469727
1751281726302236400,3.864236328125,117.8062515258789,-7.218750476837158,-8.02500057220459
1751281726312236300,3.874236328125,117.82500457763672,-7.050000190734863,-7.575000286102295
1751281726322236400,3.884236328125,117.41250610351562,-6.881250381469727,-7.387500286102295
1751281726332236300,3.894236328125,117.30000305175781,-6.768750190734863,-7.106250286102295
1751281726342236400,3.904236328125,117.09375762939453,-6.731250286102295,-6.375000476837158
1751281726352236300,3.914236328125,117.1500015258789,-6.543750286102295,-5.868750095367432
1751281726362236400,3.924236328125,116.98125457763672,-6.431250095367432,-5.53125
1751281726372236300,3.934236328125,116.75625610351562,-6.281250476837158,-4.875
1751281726382236400,3.944236328125,116.75625610351562,-6.206250190734863,-4.462500095367432
1751281726392236300,3.954236328125,116.43750762939453,-6.037500381469727,-3.8812501430511475
1751281726402236400,3.964236328125,116.66250610351562,-5.868750095367432,-3.356250047683716
1751281726412236300,3.974236328125,116.5875015258789,-5.737500190734863,-2.700000047683716
1751281726422236400,3.984236328125,116.6812515258789,-5.606250286102295,-2.2875001430511475
1751281726432236300,3.994236328125,116.81250762939453,-5.381250381469727,-2.043750047683716
1751281726442236400,4.004236328125,116.79375457763672,-5.175000190734863,-1.6500000953674316
1751281726452236300,4.014236328125,116.9625015258789,-5.118750095367432,-1.1437500715255737
1751281726462236400,4.024236328125,116.98125457763672,-4.78125,-0.8437500596046448
1751281726472236300,4.034236328125,116.9625015258789,-4.575000286102295,-0.6187500357627869
1751281726482236400,4.044236328125,116.7750015258789,-4.40625,-0.13125000894069672
1751281726492236300,4.054236328125,117.0562515258789,-4.143750190734863,0.07500000298023224
1751281726502236400,4.064236328125,117.03750610351562,-4.012500286102295,0.3375000059604645
1751281726512236300,4.074236328125,116.81250762939453,-3.8062500953674316,0.6937500238418579
1751281726522236400,4.084236328125,116.94375610351562,-3.7125000953674316,1.21875
1751281726532236300,4.094236328125,116.7750015258789,-3.5812501907348633,1.256250023841858
1751281726542236400,4.104236328125,116.88750457763672,-3.3937501907348633,1.4812500476837158
1751281726552236300,4.114236328125,116.7750015258789,-3.3187501430511475,1.8000000715255737
1751281726562236400,4.124236328125,116.75625610351562,-3.375000238418579,1.9875000715255737
1751281726572236300,4.134236328125,116.41875457763672,-3.375000238418579,2.2875001430511475
1751281726582236400,4.144236328125,116.51250457763672,-3.375000238418579,2.325000047683716
1751281726592236300,4.154236328125,116.6812515258789,-3.4875001907348633,2.4750001430511475
1751281726612236300,4.174236328125,116.75625610351562,-3.918750047683716,2.0062501430511475
1751281726622236400,4.184236328125,116.83125305175781,-4.387500286102295,2.043750047683716
1751281726632236300,4.194236328125,116.9625015258789,-4.556250095367432,1.6875001192092896
1751281726642236400,4.204236328125,117.01875305175781,-4.612500190734863,1.3312500715255737
1751281726652236300,4.214236328125,117.1500015258789,-4.78125,0.8437500596046448
1751281726662236400,4.224236328125,116.8687515258789,-4.78125,0.5625
1751281726672236300,4.234236328125,116.7750015258789,-4.931250095367432,0.24375000596046448
1751281726682236400,4.244236328125,116.7750015258789,-5.025000095367432,-0.09375
1751281726692236300,4.254236328125,116.47500610351562,-5.081250190734863,-0.30000001192092896
1751281726702236400,4.264236328125,116.4000015258789,-5.0625,-0.7125000357627869
1751281726712236300,4.274236328125,116.51250457763672,-5.325000286102295,-0.9000000357627869
1751281726722236400,4.284236328125,116.70000457763672,-5.287500381469727,-1.256250023841858
1751281726732236300,4.294236328125,116.55000305175781,-5.4375,-1.631250023841858
1751281726742236400,4.304236328125,116.98125457763672,-5.793750286102295,-2.2875001430511475
1751281726752236300,4.314236328125,116.92500305175781,-6.243750095367432,-2.700000047683716
1751281726772236300,4.334236328125,117.07500457763672,-6.281250476837158,-3.1125001907348633
1751281726782236400,4.344236328125,116.98125457763672,-6.468750476837158,-3.731250047683716
1751281726792236300,4.354236328125,116.94375610351562,-6.506250381469727,-4.200000286102295
1751281726802236400,4.364236328125,116.45625305175781,-6.600000381469727,-4.706250190734863
1751281726812236300,4.374236328125,116.75625610351562,-6.543750286102295,-4.96875
1751281726822236400,4.384236328125,116.66250610351562,-6.450000286102295,-4.950000286102295
1751281726832236300,4.394236328125,116.83125305175781,-6.525000095367432,-5.325000286102295
1751281726842236400,4.404236328125,116.8687515258789,-6.581250190734863,-5.8125
1751281726852236300,4.414236328125,116.66250610351562,-6.656250476837158,-6.281250476837158
1751281726862236400,4.424236328125,116.71875762939453,-6.618750095367432,-6.525000095367432
1751281726872236300,4.434236328125,116.73750305175781,-6.731250286102295,-6.825000286102295
1751281726882236400,4.444236328125,117.35625457763672,-6.918750286102295,-6.843750476837158
1751281726892236300,4.454236328125,117.09375762939453,-6.993750095367432,-7.237500190734863
1751281726902236400,4.464236328125,117.09375762939453,-7.256250381469727,-7.556250095367432
1751281726912236300,4.474236328125,117.16875457763672,-7.275000095367432,-7.668750286102295
1751281726922236400,4.484236328125,117.09375762939453,-7.443750381469727,-7.743750095367432
1751281726932236300,4.494236328125,117.30000305175781,-7.650000095367432,-7.856250286102295
1751281726942236400,4.504236328125,117.35625457763672,-7.818750381469727,-7.968750476837158
1751281726952236300,4.514236328125,117.41250610351562,-7.875000476837158,-8.34375
1751281726962236400,4.524236328125,117.45000457763672,-8.043750762939453,-8.53125
1751281726972236300,4.534236328125,117.65625762939453,-8.081250190734863,-8.268750190734863
1751281726992236300,4.554236328125,117.56250762939453,-8.02500057220459,-8.71875
1751281727002236400,4.564236328125,117.88125610351562,-8.11875057220459,-8.71875
1751281727012236300,4.574236328125,117.56250762939453,-8.0625,-8.77500057220459
1751281727022236400,4.584236328125,117.54375457763672,-8.043750762939453,-8.8125
1751281727032236300,4.594236328125,117.50625610351562,-7.912500381469727,-8.418750762939453
1751281727042236400,4.604236328125,117.30000305175781,-7.950000286102295,-8.456250190734863
1751281727052236300,4.614236328125,117.22500610351562,-8.0625,-8.512500762939453
1751281727062236400,4.624236328125,117.09375762939453,-7.856250286102295,-8.193750381469727
1751281727072236300,4.634236328125,117.09375762939453,-7.612500190734863,-7.837500095367432
1751281727082236400,4.644236328125,116.92500305175781,-7.443750381469727,-7.443750381469727
1751281727092236300,4.654236328125,117.16875457763672,-7.462500095367432,-7.237500190734863
1751281727102236400,4.664236328125,117.28125762939453,-7.312500476837158,-6.975000381469727
1751281727112236300,4.674236328125,117.18750762939453,-7.275000095367432,-6.618750095367432
1751281727122236400,4.684236328125,117.07500457763672,-6.918750286102295,-6.037500381469727
1751281727132236300,4.694236328125,117.01875305175781,-6.750000476837158,-5.662500381469727
1751281727142236400,4.704236328125,116.8687515258789,-6.825000286102295,-5.287500381469727
1751281727152236300,4.714236328125,116.70000457763672,-6.581250190734863,-4.950000286102295
1751281727162236400,4.724236328125,116.66250610351562,-6.506250381469727,-4.912500381469727
1751281727172236300,4.734236328125,116.62500762939453,-6.262500286102295,-4.387500286102295
1751281727182236400,4.744236328125,116.47500610351562,-6.206250190734863,-3.6750001907348633
1751281727192236300,4.754236328125,116.55000305175781,-5.962500095367432,-3.168750047683716
1751281727202236400,4.764236328125,116.5875015258789,-6.056250095367432,-2.7375001907348633
1751281727212236300,4.774236328125,116.51250457763672,-5.850000381469727,-2.25
1751281727222236400,4.784236328125,116.70000457763672,-5.662500381469727,-1.6875001192092896
1751281727232236300,4.794236328125,116.81250762939453,-5.756250381469727,-1.40625
1751281727242236400,4.804236328125,116.66250610351562,-5.456250190734863,-0.6375000476837158
1751281727252236300,4.814236328125,116.62500762939453,-5.025000095367432,0.05625000223517418
1751281727262236400,4.824236328125,116.75625610351562,-4.725000381469727,0.5062500238418579
1751281727272236300,4.834236328125,116.60625457763672,-4.425000190734863,0.8812500238418579
1751281727282236400,4.844236328125,116.88750457763672,-4.106250286102295,1.2000000476837158
1751281727292236300,4.854236328125,116.7750015258789,-4.050000190734863,1.537500023841858
1751281727302236400,4.864236328125,116.83125305175781,-3.825000047683716,1.9687501192092896
1751281727312236300,4.874236328125,116.70000457763672,-3.825000047683716,2.512500047683716
1751281727322236400,4.884236328125,116.73750305175781,-3.8812501430511475,2.625
1751281727332236300,4.894236328125,116.73750305175781,-3.918750047683716,2.5875000953674316
1751281727342236400,4.904236328125,116.62500762939453,-4.050000190734863,2.5687501430511475
1751281727352236300,4.914236328125,116.73750305175781,-3.9937500953674316,2.7375001907348633
1751281727362236400,4.924236328125,116.5875015258789,-3.9000000953674316,2.90625
1751281727372236300,4.934236328125,116.71875762939453,-3.8812501430511475,2.8312501907348633
1751281727382236400,4.944236328125,116.62500762939453,-3.9562501907348633,2.606250047683716
1751281727392236300,4.954236328125,116.81250762939453,-3.731250047683716,2.7375001907348633
1751281727402236400,4.964236328125,117.07500457763672,-3.543750047683716,2.625
1751281727412236300,4.974236328125,117.00000762939453,-3.5812501907348633,2.606250047683716
1751281727422236400,4.984236328125,116.8687515258789,-3.656250238418579,2.34375
1751281727432236300,4.994236328125,116.75625610351562,-4.106250286102295,1.8562500476837158
1751281727442236400,5.004236328125,116.6812515258789,-4.425000190734863,1.6500000953674316
1751281727452236300,5.014236328125,116.73750305175781,-4.3125,1.5562500953674316
1751281727462236400,5.024236328125,116.66250610351562,-4.518750190734863,1.350000023841858
1751281727472236300,5.034236328125,116.41875457763672,-4.6875,0.9187500476837158
1751281727482236400,5.044236328125,116.15625762939453,-4.912500381469727,0.48750001192092896
1751281727492236300,5.054236328125,116.10000610351562,-5.100000381469727,-0.01875000074505806
1751281727502236400,5.064236328125,116.25000762939453,-5.175000190734863,-0.26250001788139343
1751281727512236300,5.074236328125,116.15625762939453,-5.193750381469727,-0.6187500357627869
1751281727522236400,5.084236328125,116.00625610351562,-5.325000286102295,-1.0125000476837158
1751281727532236300,5.094236328125,116.17500305175781,-5.700000286102295,-1.537500023841858
1751281727542236400,5.104236328125,116.28750610351562,-5.925000190734863,-2.0062501430511475
1751281727552236300,5.114236328125,116.41875457763672,-6.093750476837158,-2.3812501430511475
1751281727562236400,5.124236328125,116.62500762939453,-6.375000476837158,-2.8687500953674316
1751281727572236300,5.134236328125,116.7750015258789,-6.600000381469727,-3.3187501430511475
1751281727582236400,5.144236328125,116.7750015258789,-6.825000286102295,-3.8062500953674316
1751281727592236300,5.154236328125,117.07500457763672,-7.087500095367432,-4.125
1751281727602236400,5.164236328125,117.16875457763672,-7.481250286102295,-4.6875
1751281727612236300,5.174236328125,117.03750610351562,-7.518750190734863,-5.137500286102295
1751281727622236400,5.184236328125,116.85000610351562,-7.481250286102295,-5.53125
1751281727632236300,5.194236328125,116.88750457763672,-7.743750095367432,-6.131250381469727
1751281727642236400,5.204236328125,116.94375610351562,-7.687500476837158,-6.281250476837158
1751281727652236300,5.214236328125,117.0562515258789,-7.987500190734863,-6.675000190734863
1751281727662236400,5.224236328125,117.07500457763672,-7.931250095367432,-6.993750095367432
1751281727672236300,5.234236328125,116.92500305175781,-7.893750190734863,-7.237500190734863
1751281727682236400,5.244236328125,116.94375610351562,-7.800000190734863,-7.743750095367432
1751281727692236300,5.254236328125,117.09375762939453,-7.912500381469727,-8.043750762939453
1751281727702236400,5.264236328125,117.13125610351562,-8.043750762939453,-8.231250762939453
1751281727712236300,5.274236328125,117.26250457763672,-7.968750476837158,-8.49375057220459
1751281727722236400,5.284236328125,117.16875457763672,-7.950000286102295,-8.568750381469727
1751281727732236300,5.294236328125,116.98125457763672,-7.650000095367432,-8.456250190734863
1751281727742236400,5.304236328125,116.9625015258789,-7.631250381469727,-8.512500762939453
1751281727752236300,5.314236328125,117.4312515258789,-7.687500476837158,-8.625
1751281727762236400,5.324236328125,117.37500762939453,-7.593750476837158,-8.325000762939453
1751281727772236300,5.334236328125,117.46875762939453,-7.518750190734863,-8.006250381469727
1751281727782236400,5.344236328125,117.69375610351562,-7.406250476837158,-7.818750381469727
1751281727792236300,5.354236328125,117.69375610351562,-7.312500476837158,-7.368750095367432
1751281727802236400,5.364236328125,117.76875305175781,-7.275000095367432,-7.050000190734863
1751281727812236300,5.374236328125,117.86250305175781,-7.162500381469727,-6.806250095367432
1751281727822236400,5.384236328125,117.73125457763672,-6.993750095367432,-6.375000476837158
1751281727832236300,5.394236328125,117.30000305175781,-6.750000476837158,-5.756250381469727
1751281727842236400,5.404236328125,117.37500762939453,-6.637500286102295,-5.175000190734863
1751281727852236300,5.414236328125,117.30000305175781,-6.318750381469727,-4.6875
1751281727862236400,5.424236328125,117.31875610351562,-6.150000095367432,-4.106250286102295
1751281727872236300,5.434236328125,117.07500457763672,-5.868750095367432,-3.4875001907348633
1751281727882236400,5.444236328125,116.79375457763672,-5.568750381469727,-2.8500001430511475
1751281727892236300,5.454236328125,116.94375610351562,-5.456250190734863,-2.2687501907348633
1751281727902236400,5.464236328125,117.1500015258789,-5.34375,-1.537500023841858
1751281727912236300,5.474236328125,117.2437515258789,-5.100000381469727,-0.9375000596046448
1751281727922236400,5.484236328125,117.2437515258789,-4.6875,-0.35625001788139343
1751281727932236300,5.494236328125,117.16875457763672,-4.59375,0.05625000223517418
1751281727942236400,5.504236328125,117.01875305175781,-4.275000095367432,0.5250000357627869
1751281727952236300,5.514236328125,117.22500610351562,-4.050000190734863,0.9187500476837158
1751281727962236400,5.524236328125,117.35625457763672,-3.9750001430511475,1.40625
1751281727972236300,5.534236328125,117.09375762939453,-3.750000238418579,1.912500023841858
1751281727982236400,5.544236328125,117.00000762939453,-3.375000238418579,2.512500047683716
1751281727992236300,5.554236328125,116.94375610351562,-3.281250238418579,2.9625000953674316
1751281728002236400,5.564236328125,116.71875762939453,-3.168750047683716,3.4125001430511475
1751281728012236300,5.574236328125,116.4937515258789,-2.90625,3.731250047683716
1751281728022236400,5.584236328125,116.28750610351562,-2.7750000953674316,4.050000190734863
1751281728032236300,5.594236328125,116.17500305175781,-2.700000047683716,4.556250095367432
1751281728042236400,5.604236328125,116.26875305175781,-2.5875000953674316,4.5
1751281728052236300,5.614236328125,116.5875015258789,-2.606250047683716,4.537500381469727
1751281728062236400,5.624236328125,116.55000305175781,-2.793750047683716,4.481250286102295
1751281728072236300,5.634236328125,116.4937515258789,-2.793750047683716,4.3125
1751281728082236400,5.644236328125,116.71875762939453,-2.8312501907348633,4.068750381469727
1751281728092236300,5.654236328125,116.81250762939453,-2.9625000953674316,4.125
1751281728102236400,5.664236328125,117.16875457763672,-3.1125001907348633,3.937500238418579
1751281728112236300,5.674236328125,117.07500457763672,-3.375000238418579,3.4125001430511475
1751281728122236400,5.684236328125,116.90625762939453,-3.637500047683716,3.2437500953674316
1751281728132236300,5.694236328125,116.47500610351562,-3.637500047683716,2.90625
1751281728142236400,5.704236328125,116.36250305175781,-3.6937501430511475,2.4000000953674316
1751281728152236300,5.714236328125,116.3062515258789,-3.825000047683716,2.0625
1751281728162236400,5.724236328125,116.26875305175781,-4.162500381469727,1.5937501192092896
1751281728172236300,5.734236328125,116.4000015258789,-4.40625,1.1812500953674316
1751281728182236400,5.744236328125,116.36250305175781,-4.537500381469727,0.768750011920929
1751281728192236300,5.754236328125,116.3062515258789,-4.59375,0.1875
1751281728202236400,5.764236328125,116.4937515258789,-4.631250381469727,-0.39375001192092896
1751281728212236300,5.774236328125,116.70000457763672,-4.912500381469727,-0.6000000238418579
1751281728222236400,5.784236328125,116.7750015258789,-5.193750381469727,-1.0125000476837158
1751281728232236300,5.794236328125,116.90625762939453,-5.325000286102295,-1.3312500715255737
1751281728242236400,5.804236328125,117.0562515258789,-5.456250190734863,-1.8000000715255737
1751281728252236300,5.814236328125,116.98125457763672,-5.475000381469727,-2.137500047683716
1751281728262236400,5.824236328125,116.75625610351562,-5.456250190734863,-2.418750047683716
1751281728272236300,5.834236328125,116.83125305175781,-5.493750095367432,-2.5875000953674316
1751281728282236400,5.844236328125,116.83125305175781,-5.831250190734863,-3.0562500953674316
1751281728292236300,5.854236328125,116.8687515258789,-5.90625,-3.5812501907348633
1751281728302236400,5.864236328125,117.16875457763672,-6.018750190734863,-3.9562501907348633
1751281728312236300,5.874236328125,117.28125762939453,-6.168750286102295,-4.293750286102295
1751281728322236400,5.884236328125,117.03750610351562,-6.281250476837158,-4.425000190734863
1751281728332236300,5.894236328125,117.16875457763672,-6.693750381469727,-4.818750381469727
1751281728342236400,5.904236328125,117.26250457763672,-7.068750381469727,-5.306250095367432
1751281728352236300,5.914236328125,117.3375015258789,-7.312500476837158,-5.681250095367432
1751281728362236400,5.924236328125,117.22500610351562,-7.125000476837158,-5.625
1751281728372236300,5.934236328125,117.39375305175781,-7.256250381469727,-5.643750190734863
1751281728382236400,5.944236328125,117.41250610351562,-7.387500286102295,-5.71875
1751281728392236300,5.954236328125,117.46875762939453,-7.500000476837158,-6.300000190734863
1751281728402236400,5.964236328125,117.63750457763672,-7.312500476837158,-6.506250381469727
1751281728412236300,5.974236328125,117.50625610351562,-7.162500381469727,-6.918750286102295
1751281728422236400,5.984236328125,117.56250762939453,-7.218750476837158,-7.087500095367432
1751281728432236300,5.994236328125,117.46875762939453,-7.181250095367432,-7.012500286102295
1751281728442236400,6.004236328125,117.46875762939453,-7.218750476837158,-7.068750381469727
1751281728452236300,6.014236328125,117.37500762939453,-7.181250095367432,-7.331250190734863
1751281728462236400,6.024236328125,117.41250610351562,-7.106250286102295,-7.331250190734863
1751281728472236300,6.034236328125,117.3375015258789,-7.143750190734863,-7.012500286102295
1751281728482236400,6.044236328125,117.0562515258789,-7.443750381469727,-6.956250190734863
1751281728492236300,6.054236328125,117.22500610351562,-7.537500381469727,-6.431250095367432
1751281728502236400,6.064236328125,117.39375305175781,-7.518750190734863,-6.375000476837158
1751281728512236300,6.074236328125,117.7125015258789,-7.593750476837158,-6.187500476837158
1751281728522236400,6.084236328125,117.84375762939453,-7.612500190734863,-5.925000190734863
1751281728532236300,6.094236328125,117.6187515258789,-7.593750476837158,-5.53125
1751281728542236400,6.104236328125,117.35625457763672,-7.575000286102295,-5.15625
1751281728552236300,6.114236328125,117.22500610351562,-7.537500381469727,-4.96875
1751281728562236400,6.124236328125,117.26250457763672,-7.106250286102295,-4.59375
1751281728572236300,6.134236328125,117.07500457763672,-6.843750476837158,-4.3125
1751281728582236400,6.144236328125,116.92500305175781,-6.712500095367432,-3.7875001430511475
1751281728592236300,6.154236328125,116.47500610351562,-6.356250286102295,-3.4125001430511475
1751281728602236400,6.164236328125,116.38125610351562,-6.281250476837158,-3.187500238418579
1751281728612236300,6.174236328125,116.45625305175781,-6.056250095367432,-2.793750047683716
1751281728622236400,6.184236328125,116.43750762939453,-5.71875,-2.4000000953674316
1751281728632236300,6.194236328125,116.62500762939453,-5.4375,-1.818750023841858
1751281728642236400,6.204236328125,116.71875762939453,-5.475000381469727,-1.0875000953674316
1751281728652236300,6.214236328125,116.85000610351562,-5.325000286102295,-0.65625
1751281728662236400,6.224236328125,116.85000610351562,-4.96875,-0.28125
1751281728672236300,6.234236328125,117.13125610351562,-5.006250381469727,-0.09375
1751281728692236300,6.254236328125,117.20625305175781,-4.6875,0.75
1751281728702236400,6.264236328125,117.16875457763672,-4.443750381469727,1.0125000476837158
1751281728712236300,6.274236328125,116.81250762939453,-4.181250095367432,1.4250000715255737
1751281728722236400,6.284236328125,116.8687515258789,-3.918750047683716,1.5187500715255737
1751281728732236300,6.294236328125,116.81250762939453,-3.8625001907348633,1.7062500715255737
1751281728742236400,6.304236328125,116.71875762939453,-3.9750001430511475,1.9312500953674316
1751281728752236300,6.314236328125,116.34375762939453,-3.918750047683716,1.9875000715255737
1751281728762236400,6.324236328125,116.3062515258789,-3.6750001907348633,2.1937501430511475
1751281728772236300,6.334236328125,116.19375610351562,-3.6750001907348633,2.1000001430511475
1751281728782236400,6.344236328125,116.04375457763672,-3.843750238418579,1.9875000715255737
1751281728792236300,6.354236328125,116.3062515258789,-3.937500238418579,1.8375000953674316
1751281728802236400,6.364236328125,116.36250305175781,-4.068750381469727,1.725000023841858
1751281728812236300,6.374236328125,116.19375610351562,-4.106250286102295,1.6125000715255737
1751281728822236400,6.384236328125,116.41875457763672,-4.143750190734863,1.5
1751281728832236300,6.394236328125,116.6812515258789,-4.03125,1.5
1751281728842236400,6.404236328125,116.41875457763672,-4.143750190734863,1.1062500476837158
1751281728852236300,6.414236328125,116.51250457763672,-4.125,1.1062500476837158
1751281728862236400,6.424236328125,116.92500305175781,-4.21875,0.956250011920929
1751281728872236300,6.434236328125,116.83125305175781,-4.443750381469727,0.5437500476837158
1751281728882236400,6.444236328125,116.88750457763672,-4.40625,0.13125000894069672
1751281728892236300,6.454236328125,116.9625015258789,-4.537500381469727,-0.20625001192092896
1751281728902236400,6.464236328125,116.85000610351562,-4.668750286102295,-0.5062500238418579
1751281728912236300,6.474236328125,116.94375610351562,-5.025000095367432,-0.8250000476837158
1751281728922236400,6.484236328125,117.07500457763672,-5.212500095367432,-1.0500000715255737
1751281728932236300,6.494236328125,116.98125457763672,-5.4375,-1.5562500953674316
1751281728942236400,6.504236328125,116.90625762939453,-5.737500190734863,-1.9687501192092896
1751281728952236300,6.514236328125,117.2437515258789,-5.90625,-2.3625001907348633
1751281728962236400,6.524236328125,117.30000305175781,-6.018750190734863,-2.8312501907348633
1751281728972236300,6.534236328125,117.3375015258789,-6.206250190734863,-3.4125001430511475
1751281728982236400,6.544236328125,117.45000457763672,-6.375000476837158,-3.9562501907348633
1751281728992236300,6.554236328125,117.35625457763672,-6.506250381469727,-4.387500286102295
1751281729002236400,6.564236328125,117.31875610351562,-6.656250476837158,-4.893750190734863
1751281729012236300,6.574236328125,117.58125305175781,-6.900000095367432,-5.625
1751281729022236400,6.584236328125,117.5250015258789,-6.993750095367432,-6.150000095367432
1751281729032236300,6.594236328125,117.26250457763672,-6.993750095367432,-6.862500190734863
1751281729042236400,6.604236328125,117.39375305175781,-7.387500286102295,-7.387500286102295
1751281729052236300,6.614236328125,117.41250610351562,-7.462500095367432,-7.612500190734863
1751281729062236400,6.624236328125,117.2437515258789,-7.687500476837158,-7.893750190734863
1751281729072236300,6.634236328125,117.50625610351562,-7.743750095367432,-8.175000190734863
1751281729082236400,6.644236328125,117.46875762939453,-8.006250381469727,-8.53125
1751281729092236300,6.654236328125,117.5250015258789,-8.02500057220459,-8.625
1751281729102236400,6.664236328125,117.48750305175781,-8.11875057220459,-8.662500381469727
1751281729112236300,6.674236328125,117.54375457763672,-8.381250381469727,-8.53125
1751281729122236400,6.684236328125,117.07500457763672,-8.25,-8.568750381469727
1751281729132236300,6.694236328125,117.0562515258789,-8.30625057220459,-8.831250190734863
1751281729142236400,6.704236328125,117.2437515258789,-8.25,-8.850000381469727
1751281729152236300,6.714236328125,117.00000762939453,-8.231250762939453,-9.05625057220459
1751281729162236400,6.724236328125,117.26250457763672,-8.137500762939453,-8.86875057220459
1751281729172236300,6.734236328125,117.09375762939453,-8.11875057220459,-8.850000381469727
1751281729182236400,6.744236328125,117.31875610351562,-7.968750476837158,-9.037500381469727
1751281729192236300,6.754236328125,117.1500015258789,-7.706250190734863,-8.925000190734863
1751281729202236400,6.764236328125,117.28125762939453,-7.706250190734863,-8.8125
1751281729212236300,6.774236328125,117.30000305175781,-7.481250286102295,-8.625
1751281729222236400,6.784236328125,117.18750762939453,-7.443750381469727,-8.40000057220459
1751281729232236300,6.794236328125,117.07500457763672,-7.312500476837158,-7.931250095367432
1751281729242236400,6.804236328125,117.03750610351562,-7.106250286102295,-7.687500476837158
1751281729252236300,6.814236328125,117.1500015258789,-7.050000190734863,-7.443750381469727
1751281729262236400,6.824236328125,117.11250305175781,-7.050000190734863,-6.975000381469727
1751281729272236300,6.834236328125,117.20625305175781,-7.181250095367432,-6.806250095367432
1751281729282236400,6.844236328125,117.01875305175781,-6.956250190734863,-6.412500381469727
1751281729292236300,6.854236328125,116.90625762939453,-6.937500476837158,-6.093750476837158
1751281729302236400,6.864236328125,116.94375610351562,-6.787500381469727,-5.8125
1751281729312236300,6.874236328125,117.03750610351562,-6.618750095367432,-5.418750286102295
1751281729322236400,6.884236328125,116.94375610351562,-6.431250095367432,-4.893750190734863
1751281729332236300,6.894236328125,116.7750015258789,-6.168750286102295,-4.125
1751281729342236400,6.904236328125,116.34375762939453,-5.868750095367432,-3.562500238418579
1751281729352236300,6.914236328125,116.26875305175781,-5.381250381469727,-2.6812500953674316
1751281729362236400,6.924236328125,116.53125762939453,-5.362500190734863,-1.9687501192092896
1751281729372236300,6.934236328125,116.5875015258789,-5.118750095367432,-1.2937500476837158
1751281729382236400,6.944236328125,116.79375457763672,-4.762500286102295,-0.6000000238418579
1751281729392236300,6.954236328125,117.01875305175781,-4.725000381469727,-0.13125000894069672
1751281729402236400,6.964236328125,116.94375610351562,-4.481250286102295,0.45000001788139343
1751281729412236300,6.974236328125,117.1500015258789,-4.368750095367432,1.03125
1751281729422236400,6.984236328125,117.11250305175781,-4.087500095367432,1.7062500715255737
1751281729432236300,6.994236328125,117.2437515258789,-3.9000000953674316,2.15625
1751281729442236400,7.004236328125,117.2437515258789,-3.6750001907348633,2.4000000953674316
1751281729452236300,7.014236328125,117.39375305175781,-3.5062501430511475,2.9250001907348633
1751281729462236400,7.024236328125,117.11250305175781,-3.562500238418579,3.262500047683716
1751281729472236300,7.034236328125,116.64375305175781,-3.3937501907348633,3.7687501907348633
1751281729482236400,7.044236328125,116.4937515258789,-3.4875001907348633,4.087500095367432
1751281729492236300,7.054236328125,116.28750610351562,-3.356250047683716,4.143750190734863
1751281729502236400,7.064236328125,116.4000015258789,-3.3000001907348633,4.050000190734863
1751281729512236300,7.074236328125,116.26875305175781,-3.356250047683716,4.03125
1751281729522236400,7.084236328125,116.17500305175781,-3.262500047683716,4.237500190734863
1751281729532236300,7.094236328125,115.91250610351562,-2.9625000953674316,4.068750381469727
1751281729542236400,7.104236328125,115.98750305175781,-2.6437501907348633,4.087500095367432
1751281729552236300,7.114236328125,116.23125457763672,-2.512500047683716,3.9937500953674316
1751281729562236400,7.124236328125,116.64375305175781,-2.4937500953674316,3.6000001430511475
1751281729572236300,7.134236328125,116.81250762939453,-2.53125,3.3937501907348633
1751281729582236400,7.144236328125,117.03750610351562,-2.7750000953674316,3.2062501907348633
1751281729592236300,7.154236328125,117.1500015258789,-2.8125,2.9437501430511475
1751281729602236400,7.164236328125,117.09375762939453,-3.1500000953674316,2.700000047683716
1751281729612236300,7.174236328125,117.28125762939453,-3.637500047683716,2.5875000953674316
1751281729622236400,7.184236328125,117.54375457763672,-4.03125,2.2687501907348633
1751281729632236300,7.194236328125,117.7125015258789,-4.181250095367432,1.7062500715255737
1751281729642236400,7.204236328125,117.31875610351562,-4.368750095367432,1.3312500715255737
1751281729652236300,7.214236328125,117.09375762939453,-4.743750095367432,0.956250011920929
1751281729662236400,7.224236328125,116.81250762939453,-4.893750190734863,0.48750001192092896
1751281729672236300,7.234236328125,116.75625610351562,-5.100000381469727,0.11250000447034836
1751281729682236400,7.244236328125,116.88750457763672,-4.875,-0.26250001788139343
1751281729692236300,7.254236328125,116.70000457763672,-4.987500190734863,-0.8812500238418579
1751281729702236400,7.264236328125,116.34375762939453,-5.137500286102295,-1.4250000715255737
1751281729712236300,7.274236328125,116.0250015258789,-5.34375,-1.8937500715255737
1751281729722236400,7.284236328125,116.15625762939453,-5.643750190734863,-2.418750047683716
1751281729732236300,7.294236328125,116.45625305175781,-5.793750286102295,-3.0562500953674316
1751281729742236400,7.304236328125,116.73750305175781,-5.981250286102295,-3.4875001907348633
1751281729752236300,7.314236328125,116.71875762939453,-6.206250190734863,-3.9562501907348633
1751281729762236400,7.324236328125,116.79375457763672,-6.693750381469727,-4.837500095367432
1751281729772236300,7.334236328125,116.85000610351562,-7.181250095367432,-5.568750381469727
1751281729792236300,7.354236328125,117.11250305175781,-7.762500286102295,-6.656250476837158
1751281729802236400,7.364236328125,116.94375610351562,-7.668750286102295,-6.768750190734863
1751281729812236300,7.374236328125,116.8687515258789,-7.575000286102295,-6.956250190734863
1751281729822236400,7.384236328125,116.81250762939453,-7.668750286102295,-7.181250095367432
1751281729832236300,7.394236328125,116.6812515258789,-7.931250095367432,-7.593750476837158
1751281729842236400,7.404236328125,116.8687515258789,-7.950000286102295,-7.518750190734863
1751281729852236300,7.414236328125,116.98125457763672,-7.743750095367432,-7.556250095367432
1751281729862236400,7.424236328125,117.11250305175781,-7.706250190734863,-7.725000381469727
1751281729872236300,7.434236328125,117.09375762939453,-7.500000476837158,-7.725000381469727
1751281729882236400,7.444236328125,117.20625305175781,-7.556250095367432,-8.11875057220459
1751281729892236300,7.454236328125,117.28125762939453,-7.781250476837158,-8.568750381469727
1751281729902236400,7.464236328125,117.41250610351562,-7.856250286102295,-8.981250762939453
1751281729912236300,7.474236328125,117.31875610351562,-7.725000381469727,-8.86875057220459
1751281729922236400,7.484236328125,116.9625015258789,-7.875000476837158,-9.075000762939453
1751281729932236300,7.494236328125,117.09375762939453,-7.818750381469727,-8.96250057220459
1751281729942236400,7.504236328125,117.01875305175781,-7.743750095367432,-8.887500762939453
1751281729962236400,7.524236328125,117.60000610351562,-7.875000476837158,-8.475000381469727
1751281729972236300,7.534236328125,117.41250610351562,-7.687500476837158,-7.950000286102295
1751281729982236400,7.544236328125,117.50625610351562,-7.537500381469727,-7.387500286102295
1751281729992236300,7.554236328125,117.6187515258789,-7.387500286102295,-7.143750190734863
1751281730002236400,7.564236328125,117.88125610351562,-7.068750381469727,-6.787500381469727
1751281730012236300,7.574236328125,117.56250762939453,-6.937500476837158,-6.281250476837158
1751281730022236400,7.584236328125,117.50625610351562,-6.825000286102295,-5.868750095367432
1751281730032236300,7.594236328125,117.30000305175781,-6.656250476837158,-5.400000095367432
1751281730042236400,7.604236328125,117.22500610351562,-6.525000095367432,-4.762500286102295
1751281730052236300,7.614236328125,117.41250610351562,-6.487500190734863,-4.275000095367432
1751281730062236400,7.624236328125,117.11250305175781,-6.187500476837158,-3.4875001907348633
1751281730072236300,7.634236328125,117.18750762939453,-6,-2.7750000953674316
1751281730082236400,7.644236328125,117.16875457763672,-5.943750381469727,-2.1187500953674316
1751281730092236300,7.654236328125,117.1500015258789,-5.587500095367432,-1.21875
1751281730102236400,7.664236328125,117.01875305175781,-5.325000286102295,-0.375
1751281730112236300,7.674236328125,117.13125610351562,-5.0625,0.1875
1751281730122236400,7.684236328125,117.20625305175781,-4.800000190734863,0.8812500238418579
1751281730132236300,7.694236328125,117.07500457763672,-4.443750381469727,1.6687500476837158
1751281730142236400,7.704236328125,117.00000762939453,-4.087500095367432,2.2687501907348633
1751281730152236300,7.714236328125,116.92500305175781,-3.5812501907348633,2.9625000953674316
1751281730162236400,7.724236328125,116.81250762939453,-3.093750238418579,3.656250238418579
1751281730172236300,7.734236328125,117.03750610351562,-3,3.8625001907348633
1751281730182236400,7.744236328125,116.94375610351562,-2.71875,4.162500381469727
1751281730192236300,7.754236328125,116.75625610351562,-2.2875001430511475,4.650000095367432
1751281730202236400,7.764236328125,116.75625610351562,-1.9312500953674316,4.837500095367432
1751281730212236300,7.774236328125,116.8687515258789,-1.7437500953674316,5.025000095367432
1751281730222236400,7.784236328125,116.85000610351562,-1.7812501192092896,4.912500381469727
1751281730232236300,7.794236328125,116.81250762939453,-2.0250000953674316,4.762500286102295
1751281730242236400,7.804236328125,116.64375305175781,-2.1187500953674316,4.800000190734863
1751281730252236300,7.814236328125,116.71875762939453,-1.9687501192092896,4.575000286102295
1751281730262236400,7.824236328125,116.90625762939453,-2.15625,4.425000190734863
1751281730272236300,7.834236328125,116.7750015258789,-2.53125,4.181250095367432
1751281730282236400,7.844236328125,116.71875762939453,-2.8125,3.6937501430511475
1751281730292236300,7.854236328125,116.62500762939453,-3.1500000953674316,3.4125001430511475
1751281730302236400,7.864236328125,116.41875457763672,-3.375000238418579,3.2062501907348633
1751281730312236300,7.874236328125,116.38125610351562,-3.543750047683716,2.6812500953674316
1751281730322236400,7.884236328125,116.4000015258789,-3.750000238418579,2.1937501430511475
1751281730332236300,7.894236328125,115.95000457763672,-4.293750286102295,1.7625000476837158
1751281730342236400,7.904236328125,115.72500610351562,-4.293750286102295,1.21875
1751281730352236300,7.914236328125,115.87500762939453,-4.556250095367432,0.768750011920929
1751281730362236400,7.924236328125,115.95000457763672,-4.912500381469727,0.28125
1751281730372236300,7.934236328125,115.8375015258789,-5.25,-0.5062500238418579
1751281730382236400,7.944236328125,115.9312515258789,-5.625,-1.2937500476837158
1751281730392236300,7.954236328125,115.85625457763672,-5.850000381469727,-1.8750001192092896
1751281730402236400,7.964236328125,116.00625610351562,-6.262500286102295,-2.5500001907348633
1751281730412236300,7.974236328125,116.4937515258789,-6.243750095367432,-3.2062501907348633
1751281730422236400,7.984236328125,116.85000610351562,-6.787500381469727,-3.9750001430511475
1751281730432236300,7.994236328125,116.88750457763672,-7.031250476837158,-4.800000190734863
1751281730442236400,8.004236328125,116.62500762939453,-7.218750476837158,-5.456250190734863
1751281730452236300,8.014236328125,116.79375457763672,-7.293750286102295,-6.131250381469727
1751281730462236400,8.024236328125,117.03750610351562,-7.331250190734863,-6.562500476837158
1751281730472236300,8.034236328125,117.2437515258789,-7.537500381469727,-6.881250381469727
1751281730482236400,8.044236328125,117.37500762939453,-7.537500381469727,-7.425000190734863
1751281730492236300,8.054236328125,117.22500610351562,-7.743750095367432,-7.837500095367432
1751281730502236400,8.064236328125,117.03750610351562,-7.687500476837158,-7.987500190734863
1751281730512236300,8.074236328125,117.09375762939453,-7.650000095367432,-8.325000762939453
1751281730522236400,8.084236328125,117.00000762939453,-7.668750286102295,-8.475000381469727
1751281730532236300,8.094236328125,117.00000762939453,-7.481250286102295,-8.550000190734863
1751281730542236400,8.104236328125,116.90625762939453,-7.481250286102295,-9.037500381469727
1751281730552236300,8.114236328125,117.07500457763672,-7.556250095367432,-9.28125
1751281730562236400,8.124236328125,117.03750610351562,-7.762500286102295,-9.5625
1751281730572236300,8.134236328125,117.07500457763672,-8.02500057220459,-9.693750381469727
1751281730582236400,8.144236328125,117.0562515258789,-8.231250762939453,-9.90000057220459
1751281730592236300,8.154236328125,117.01875305175781,-8.100000381469727,-9.80625057220459
1751281730602236400,8.164236328125,116.98125457763672,-8.193750381469727,-9.825000762939453
1751281730612236300,8.174236328125,116.92500305175781,-8.418750762939453,-9.918750762939453
1751281730622236400,8.184236328125,117.13125610351562,-8.49375057220459,-9.450000762939453
1751281730632236300,8.194236328125,117.0562515258789,-8.512500762939453,-9.33750057220459
1751281730642236400,8.204236328125,117.00000762939453,-8.25,-8.887500762939453
1751281730652236300,8.214236328125,117.0562515258789,-8.006250381469727,-8.512500762939453
1751281730662236400,8.224236328125,117.31875610351562,-7.706250190734863,-7.950000286102295
1751281730672236300,8.234236328125,117.03750610351562,-7.518750190734863,-7.387500286102295
1751281730682236400,8.244236328125,117.1500015258789,-7.293750286102295,-6.843750476837158
1751281730692236300,8.254236328125,117.37500762939453,-7.050000190734863,-6.187500476837158
1751281730702236400,8.264236328125,117.3375015258789,-6.993750095367432,-5.662500381469727
1751281730712236300,8.274236328125,117.41250610351562,-6.468750476837158,-4.837500095367432
1751281730722236400,8.284236328125,117.37500762939453,-6.300000190734863,-3.8812501430511475
1751281730732236300,8.294236328125,117.41250610351562,-5.962500095367432,-3.0562500953674316
1751281730742236400,8.304236328125,117.26250457763672,-5.71875,-2.3812501430511475
1751281730752236300,8.314236328125,117.4312515258789,-5.568750381469727,-1.631250023841858
1751281730762236400,8.324236328125,117.50625610351562,-5.0625,-0.675000011920929
1751281730772236300,8.334236328125,117.2437515258789,-4.668750286102295,0.24375000596046448
1751281730782236400,8.344236328125,117.1500015258789,-4.125,1.2750000953674316
1751281730792236300,8.354236328125,117.1500015258789,-3.843750238418579,1.9312500953674316
1751281730802236400,8.364236328125,116.92500305175781,-3.3187501430511475,2.512500047683716
1751281730812236300,8.374236328125,116.94375610351562,-2.9625000953674316,3.093750238418579
1751281730822236400,8.384236328125,116.71875762939453,-2.5500001907348633,3.731250047683716
1751281730832236300,8.394236328125,116.66250610351562,-2.2687501907348633,3.9937500953674316
1751281730842236400,8.404236328125,116.43750762939453,-2.3625001907348633,4.125
1751281730852236300,8.414236328125,116.47500610351562,-2.2125000953674316,4.3125
1751281730862236400,8.424236328125,116.62500762939453,-2.0250000953674316,4.275000095367432
1751281730872236300,8.434236328125,116.36250305175781,-2.1000001430511475,4.256250381469727
1751281730882236400,8.444236328125,116.38125610351562,-2.4000000953674316,3.937500238418579
1751281730892236300,8.454236328125,116.2125015258789,-2.53125,3.6750001907348633
1751281730902236400,8.464236328125,116.34375762939453,-2.9250001907348633,3.2250001430511475
1751281730912236300,8.474236328125,116.47500610351562,-3.2250001430511475,2.9625000953674316
1751281730922236400,8.484236328125,116.55000305175781,-3.4125001430511475,2.6437501907348633
1751281730932236300,8.494236328125,116.62500762939453,-3.731250047683716,2.25
1751281730942236400,8.504236328125,116.19375610351562,-4.200000286102295,1.7437500953674316
1751281730952236300,8.514236328125,116.51250457763672,-4.650000095367432,1.2000000476837158
1751281730962236400,8.524236328125,116.38125610351562,-4.800000190734863,0.6000000238418579
1751281730972236300,8.534236328125,116.32500457763672,-4.96875,0.11250000447034836
1751281730982236400,8.544236328125,116.56875610351562,-5.287500381469727,-0.675000011920929
1751281730992236300,8.554236328125,116.5875015258789,-5.662500381469727,-1.3687500953674316
1751281731002236400,8.564236328125,116.62500762939453,-5.681250095367432,-2.1750001907348633
1751281731012236300,8.574236328125,116.60625457763672,-6,-3.093750238418579
1751281731022236400,8.584236328125,116.98125457763672,-6.225000381469727,-3.8625001907348633
1751281731032236300,8.594236328125,116.88750457763672,-6.318750381469727,-4.59375
1751281731042236400,8.604236328125,117.0562515258789,-6.468750476837158,-5.0625
1751281731052236300,8.614236328125,117.1500015258789,-6.750000476837158,-5.53125
1751281731062236400,8.624236328125,117.0562515258789,-6.825000286102295,-5.868750095367432
1751281731072236300,8.634236328125,117.0562515258789,-6.862500190734863,-6.318750381469727
1751281731082236400,8.644236328125,117.20625305175781,-7.143750190734863,-6.562500476837158
1751281731092236300,8.654236328125,117.20625305175781,-7.181250095367432,-6.768750190734863
1751281731102236400,8.664236328125,117.28125762939453,-7.256250381469727,-7.087500095367432
1751281731112236300,8.674236328125,117.20625305175781,-7.256250381469727,-7.481250286102295
1751281731122236400,8.684236328125,117.26250457763672,-7.500000476837158,-8.081250190734863
1751281731132236300,8.694236328125,117.30000305175781,-7.762500286102295,-8.643750190734863
1751281731142236400,8.704236328125,116.92500305175781,-7.837500095367432,-8.96250057220459
1751281731152236300,8.714236328125,117.03750610351562,-7.856250286102295,-9.24375057220459
1751281731162236400,8.724236328125,117.03750610351562,-7.950000286102295,-9.581250190734863
1751281731172236300,8.734236328125,117.07500457763672,-7.950000286102295,-9.9375
1751281731182236400,8.744236328125,117.13125610351562,-7.987500190734863,-10.387500762939453
1751281731192236300,8.754236328125,117.2437515258789,-8.006250381469727,-10.518750190734863
1751281731202236400,8.764236328125,117.31875610351562,-8.043750762939453,-10.706250190734863
1751281731212236300,8.774236328125,117.39375305175781,-7.893750190734863,-11.043750762939453
1751281731222236400,8.784236328125,117.63750457763672,-7.968750476837158,-11.043750762939453
1751281731232236300,8.794236328125,117.18750762939453,-7.931250095367432,-11.231250762939453
1751281731242236400,8.804236328125,117.39375305175781,-8.11875057220459,-11.58750057220459
1751281731252236300,8.814236328125,117.48750305175781,-8.268750190734863,-11.756250381469727
1751281731262236400,8.824236328125,117.13125610351562,-8.362500190734863,-11.606250762939453
1751281731272236300,8.834236328125,117.18750762939453,-8.418750762939453,-11.625
1751281731282236400,8.844236328125,117.3375015258789,-8.418750762939453,-11.58750057220459
1751281731292236300,8.854236328125,117.2437515258789,-8.568750381469727,-11.58750057220459
1751281731302236400,8.864236328125,117.18750762939453,-8.40000057220459,-11.831250190734863
1751281731312236300,8.874236328125,117.50625610351562,-8.49375057220459,-11.71875
1751281731322236400,8.884236328125,117.37500762939453,-8.325000762939453,-11.700000762939453
1751281731332236300,8.894236328125,117.37500762939453,-8.325000762939453,-11.90625
1751281731342236400,8.904236328125,117.7125015258789,-8.268750190734863,-12
1751281731352236300,8.914236328125,117.69375610351562,-8.456250190734863,-12.018750190734863
1751281731362236400,8.924236328125,117.86250305175781,-8.418750762939453,-11.96250057220459
1751281731372236300,8.934236328125,117.91875457763672,-8.268750190734863,-11.793750762939453
1751281731382236400,8.944236328125,118.05000305175781,-8.418750762939453,-11.643750190734863
1751281731402236400,8.964236328125,118.03125762939453,-8.700000762939453,-11.643750190734863
1751281731412236300,8.974236328125,118.03125762939453,-8.68125057220459,-11.418750762939453
1751281731422236400,8.984236328125,117.7125015258789,-8.512500762939453,-11.362500190734863
1751281731432236300,8.994236328125,117.67500305175781,-8.4375,-11.58750057220459
1751281731442236400,9.004236328125,117.56250762939453,-8.40000057220459,-11.643750190734863
1751281731452236300,9.014236328125,117.60000610351562,-8.49375057220459,-11.4375
1751281731462236400,9.024236328125,117.65625762939453,-8.475000381469727,-11.4375
1751281731472236300,9.034236328125,117.65625762939453,-8.4375,-11.475000381469727
1751281731482236400,9.044236328125,117.76875305175781,-8.418750762939453,-11.643750190734863
1751281731492236300,9.054236328125,117.88125610351562,-8.362500190734863,-11.643750190734863
1751281731502236400,9.064236328125,118.05000305175781,-8.49375057220459,-11.831250190734863
1751281731512236300,9.074236328125,117.91875457763672,-8.4375,-11.568750381469727
1751281731522236400,9.084236328125,117.95625305175781,-8.568750381469727,-11.68125057220459
1751281731532236300,9.094236328125,117.88125610351562,-8.550000190734863,-11.793750762939453
1751281731542236400,9.104236328125,117.69375610351562,-8.49375057220459,-11.90625
1751281731552236300,9.114236328125,117.73125457763672,-8.512500762939453,-11.8125
1751281731562236400,9.124236328125,117.54375457763672,-8.40000057220459,-11.737500190734863
1751281731572236300,9.134236328125,117.03750610351562,-8.49375057220459,-11.58750057220459
1751281731582236400,9.144236328125,116.98125457763672,-8.53125,-11.4375
1751281731592236300,9.154236328125,117.09375762939453,-8.418750762939453,-11.418750762939453
1751281731602236400,9.164236328125,116.75625610351562,-8.512500762939453,-11.0625
1751281731612236300,9.174236328125,116.7750015258789,-8.625,-11.0625
1751281731622236400,9.184236328125,116.62500762939453,-8.40000057220459,-10.893750190734863
1751281731632236300,9.194236328125,116.81250762939453,-8.325000762939453,-10.912500381469727
1751281731642236400,9.204236328125,116.71875762939453,-8.30625057220459,-10.762500762939453
1751281731652236300,9.214236328125,116.8687515258789,-8.100000381469727,-10.518750190734863
1751281731662236400,9.224236328125,117.13125610351562,-8.043750762939453,-10.3125
1751281731672236300,9.234236328125,117.07500457763672,-8.11875057220459,-10.050000190734863
1751281731682236400,9.244236328125,117.39375305175781,-7.837500095367432,-9.862500190734863
1751281731692236300,9.254236328125,117.56250762939453,-7.593750476837158,-9.61875057220459
1751281731702236400,9.264236328125,117.73125457763672,-7.725000381469727,-9.1875
1751281731712236300,9.274236328125,117.7125015258789,-7.800000190734863,-8.831250190734863
1751281731722236400,9.284236328125,117.8062515258789,-7.687500476837158,-8.456250190734863
1751281731732236300,9.294236328125,118.05000305175781,-7.837500095367432,-8.381250381469727
1751281731742236400,9.304236328125,117.84375762939453,-7.837500095367432,-8.006250381469727
1751281731752236300,9.314236328125,117.65625762939453,-7.856250286102295,-7.743750095367432
1751281731762236400,9.324236328125,117.56250762939453,-7.856250286102295,-7.443750381469727
1751281731772236300,9.334236328125,117.37500762939453,-7.800000190734863,-7.125000476837158
1751281731782236400,9.344236328125,117.37500762939453,-7.706250190734863,-6.806250095367432
1751281731792236300,9.354236328125,117.03750610351562,-7.500000476837158,-6.468750476837158
1751281731812236300,9.374236328125,116.75625610351562,-7.500000476837158,-5.700000286102295
1751281731822236400,9.384236328125,116.56875610351562,-7.312500476837158,-5.568750381469727
1751281731832236300,9.394236328125,116.7750015258789,-7.087500095367432,-5.306250095367432
1751281731842236400,9.404236328125,116.70000457763672,-7.087500095367432,-5.137500286102295
1751281731852236300,9.414236328125,116.5875015258789,-6.975000381469727,-4.856250286102295
1751281731862236400,9.424236328125,116.73750305175781,-6.975000381469727,-4.575000286102295
1751281731872236300,9.434236328125,117.0562515258789,-6.900000095367432,-4.387500286102295
1751281731882236400,9.444236328125,117.28125762939453,-6.768750190734863,-4.256250381469727
1751281731892236300,9.454236328125,117.35625457763672,-6.675000190734863,-3.8062500953674316
1751281731902236400,9.464236328125,117.4312515258789,-6.600000381469727,-3.468750238418579
1751281731912236300,9.474236328125,117.22500610351562,-6.581250190734863,-3.187500238418579
1751281731922236400,9.484236328125,117.00000762939453,-6.506250381469727,-2.8687500953674316
1751281731932236300,9.494236328125,117.00000762939453,-6.525000095367432,-2.8125
1751281731942236400,9.504236328125,116.9625015258789,-6.637500286102295,-2.8312501907348633
1751281731952236300,9.514236328125,116.51250457763672,-6.581250190734863,-2.6437501907348633
1751281731962236400,9.524236328125,116.47500610351562,-6.356250286102295,-2.71875
1751281731972236300,9.534236328125,116.26875305175781,-6.543750286102295,-2.625
1751281731982236400,9.544236328125,116.26875305175781,-6.543750286102295,-2.71875
1751281731992236300,9.554236328125,116.7750015258789,-6.712500095367432,-3.093750238418579
1751281732002236400,9.564236328125,116.81250762939453,-6.581250190734863,-2.9250001907348633
1751281732012236300,9.574236328125,116.88750457763672,-6.637500286102295,-3.093750238418579
1751281732022236400,9.584236328125,116.94375610351562,-6.487500190734863,-2.9625000953674316
1751281732032236300,9.594236328125,116.94375610351562,-6.393750190734863,-2.8125
1751281732042236400,9.604236328125,117.0562515258789,-6.431250095367432,-2.6812500953674316
1751281732052236300,9.614236328125,117.16875457763672,-6.281250476837158,-2.700000047683716
1751281732062236400,9.624236328125,117.5250015258789,-6.168750286102295,-2.3625001907348633
1751281732072236300,9.634236328125,117.11250305175781,-5.756250381469727,-1.7437500953674316
1751281732082236400,9.644236328125,117.22500610351562,-5.587500095367432,-1.6875001192092896
1751281732092236300,9.654236328125,117.22500610351562,-5.4375,-1.2375000715255737
1751281732102236400,9.664236328125,117.20625305175781,-5.512500286102295,-1.3125
1751281732112236300,9.674236328125,117.45000457763672,-5.71875,-1.2375000715255737
1751281732122236400,9.684236328125,117.31875610351562,-5.700000286102295,-1.256250023841858
1751281732132236300,9.694236328125,117.39375305175781,-5.700000286102295,-1.256250023841858
1751281732142236400,9.704236328125,117.13125610351562,-5.868750095367432,-1.2375000715255737
1751281732152236300,9.714236328125,117.30000305175781,-5.887500286102295,-1.3687500953674316
1751281732162236400,9.724236328125,117.16875457763672,-6.262500286102295,-1.6687500476837158
1751281732172236300,9.734236328125,117.2437515258789,-6.412500381469727,-1.7812501192092896
1751281732182236400,9.744236328125,117.20625305175781,-6.318750381469727,-1.8375000953674316
1751281732192236300,9.754236328125,117.07500457763672,-6.262500286102295,-2.2875001430511475
1751281732202236400,9.764236328125,117.18750762939453,-6.525000095367432,-2.3625001907348633
1751281732212236300,9.774236328125,117.07500457763672,-6.637500286102295,-2.8500001430511475
1751281732222236400,9.784236328125,117.07500457763672,-6.806250095367432,-3.450000047683716
1751281732232236300,9.794236328125,117.00000762939453,-7.106250286102295,-3.8812501430511475
1751281732242236400,9.804236328125,117.13125610351562,-7.350000381469727,-4.143750190734863
1751281732252236300,9.814236328125,117.0562515258789,-7.368750095367432,-4.631250381469727
1751281732262236400,9.824236328125,117.22500610351562,-7.575000286102295,-5.0625
1751281732272236300,9.834236328125,117.01875305175781,-7.725000381469727,-5.137500286102295
1751281732282236400,9.844236328125,117.03750610351562,-7.725000381469727,-5.681250095367432
1751281732292236300,9.854236328125,117.0562515258789,-7.706250190734863,-6
1751281732302236400,9.864236328125,117.0562515258789,-7.762500286102295,-6.468750476837158
1751281732312236300,9.874236328125,116.94375610351562,-7.800000190734863,-6.900000095367432
1751281732322236400,9.884236328125,116.92500305175781,-7.706250190734863,-7.106250286102295
1751281732332236300,9.894236328125,117.03750610351562,-7.912500381469727,-7.500000476837158
1751281732342236400,9.904236328125,116.60625457763672,-7.818750381469727,-7.837500095367432
1751281732352236300,9.914236328125,116.92500305175781,-7.856250286102295,-8.362500190734863
1751281732362236400,9.924236328125,116.9625015258789,-7.875000476837158,-8.53125
1751281732372236300,9.934236328125,117.09375762939453,-8.100000381469727,-8.58750057220459
1751281732382236400,9.944236328125,117.26250457763672,-8.006250381469727,-8.756250381469727
1751281732392236300,9.954236328125,117.28125762939453,-7.987500190734863,-8.793750762939453
1751281732402236400,9.964236328125,117.3375015258789,-8.043750762939453,-9.15000057220459
1751281732412236300,9.974236328125,117.3375015258789,-7.856250286102295,-9
1751281732422236400,9.984236328125,117.45000457763672,-8.02500057220459,-9.15000057220459
1751281732432236300,9.994236328125,117.35625457763672,-7.781250476837158,-9.09375
1751281732442236400,10.004236328125,117.16875457763672,-7.706250190734863,-8.96250057220459
1751281732452236300,10.014236328125,116.9625015258789,-7.500000476837158,-8.90625
1751281732462236400,10.024236328125,117.0562515258789,-7.556250095367432,-8.606250762939453
1751281732472236300,10.034236328125,117.16875457763672,-7.631250381469727,-8.606250762939453
1751281732482236400,10.044236328125,117.2437515258789,-7.331250190734863,-8.231250762939453
1751281732492236300,10.054236328125,117.26250457763672,-7.237500190734863,-8.100000381469727
1751281732502236400,10.064236328125,117.28125762939453,-7.143750190734863,-7.668750286102295
1751281732512236300,10.074236328125,117.58125305175781,-7.331250190734863,-7.443750381469727
1751281732522236400,10.084236328125,117.95625305175781,-7.331250190734863,-7.406250476837158
1751281732532236300,10.094236328125,118.01250457763672,-7.312500476837158,-7.218750476837158
1751281732542236400,10.104236328125,117.73125457763672,-7.425000190734863,-6.993750095367432
1751281732552236300,10.114236328125,117.76875305175781,-7.387500286102295,-6.618750095367432
1751281732562236400,10.124236328125,117.73125457763672,-7.462500095367432,-6.375000476837158
1751281732572236300,10.134236328125,117.75000762939453,-7.631250381469727,-6.243750095367432
1751281732582236400,10.144236328125,118.12500762939453,-7.743750095367432,-6.150000095367432
1751281732592236300,10.154236328125,117.82500457763672,-7.631250381469727,-5.662500381469727
1751281732602236400,10.164236328125,117.50625610351562,-7.406250476837158,-5.15625
1751281732612236300,10.174236328125,117.65625762939453,-7.368750095367432,-4.875
1751281732622236400,10.184236328125,117.76875305175781,-7.031250476837158,-4.537500381469727
1751281732632236300,10.194236328125,117.60000610351562,-6.900000095367432,-4.293750286102295
1751281732642236400,10.204236328125,117.58125305175781,-6.956250190734863,-4.181250095367432
1751281732652236300,10.214236328125,117.45000457763672,-6.787500381469727,-4.012500286102295
1751281732662236400,10.224236328125,117.16875457763672,-6.637500286102295,-3.750000238418579
1751281732672236300,10.234236328125,117.26250457763672,-6.806250095367432,-4.012500286102295
1751281732682236400,10.244236328125,117.1500015258789,-6.881250381469727,-4.106250286102295
1751281732692236300,10.254236328125,116.9625015258789,-6.787500381469727,-4.21875
1751281732702236400,10.264236328125,116.5875015258789,-6.825000286102295,-4.518750190734863
1751281732712236300,10.274236328125,116.6812515258789,-6.675000190734863,-4.668750286102295
1751281732722236400,10.284236328125,116.60625457763672,-6.543750286102295,-4.631250381469727
1751281732732236300,10.294236328125,116.73750305175781,-6.506250381469727,-4.575000286102295
1751281732742236400,10.304236328125,116.71875762939453,-6.356250286102295,-4.462500095367432
1751281732752236300,10.314236328125,116.62500762939453,-6.037500381469727,-4.181250095367432
1751281732762236400,10.324236328125,116.79375457763672,-6.131250381469727,-4.106250286102295
1751281732772236300,10.334236328125,116.94375610351562,-6.150000095367432,-3.731250047683716
1751281732782236400,10.344236328125,117.35625457763672,-6.093750476837158,-3.2437500953674316
1751281732792236300,10.354236328125,117.37500762939453,-6.056250095367432,-2.793750047683716
1751281732802236400,10.364236328125,117.45000457763672,-5.925000190734863,-2.53125
1751281732812236300,10.374236328125,117.1500015258789,-5.90625,-2.1000001430511475
1751281732822236400,10.384236328125,117.20625305175781,-5.868750095367432,-2.043750047683716
1751281732832236300,10.394236328125,117.03750610351562,-5.793750286102295,-1.5937501192092896
1751281732852236300,10.414236328125,116.98125457763672,-5.118750095367432,-0.6000000238418579
1751281732862236400,10.424236328125,116.7750015258789,-4.950000286102295,-0.15000000596046448
1751281732872236300,10.434236328125,116.6812515258789,-4.856250286102295,0.22500000894069672
1751281732882236400,10.444236328125,116.70000457763672,-4.612500190734863,0.5250000357627869
1751281732892236300,10.454236328125,116.73750305175781,-4.40625,0.675000011920929
1751281732902236400,10.464236328125,116.83125305175781,-4.068750381469727,1.4812500476837158
1751281732912236300,10.474236328125,116.90625762939453,-3.9937500953674316,1.6875001192092896
1751281732922236400,10.484236328125,116.73750305175781,-3.6937501430511475,2.0062501430511475
1751281732932236300,10.494236328125,116.5875015258789,-3.6937501430511475,2.2125000953674316
1751281732942236400,10.504236328125,116.51250457763672,-3.6000001430511475,2.25
1751281732952236300,10.514236328125,116.28750610351562,-3.5062501430511475,2.418750047683716
1751281732962236400,10.524236328125,116.00625610351562,-3.5062501430511475,2.625
1751281732972236300,10.534236328125,116.06250762939453,-3.562500238418579,2.7562501430511475
1751281732982236400,10.544236328125,115.96875762939453,-3.468750238418579,2.5875000953674316
1751281732992236300,10.554236328125,116.17500305175781,-3.468750238418579,2.700000047683716
1751281733002236400,10.564236328125,116.32500457763672,-3.5812501907348633,2.793750047683716
1751281733012236300,10.574236328125,116.28750610351562,-3.6187500953674316,2.7562501430511475
1751281733022236400,10.584236328125,116.45625305175781,-3.5062501430511475,2.6625001430511475
1751281733032236300,10.594236328125,116.62500762939453,-3.8062500953674316,2.2875001430511475
1751281733042236400,10.604236328125,116.5875015258789,-3.825000047683716,1.9687501192092896
1751281733052236300,10.614236328125,116.85000610351562,-3.6187500953674316,1.631250023841858
1751281733062236400,10.624236328125,116.73750305175781,-4.050000190734863,1.0500000715255737
1751281733072236300,10.634236328125,116.60625457763672,-4.275000095367432,0.13125000894069672
1751281733082236400,10.644236328125,116.47500610351562,-4.59375,-0.6000000238418579
1751281733092236300,10.654236328125,116.45625305175781,-4.725000381469727,-1.1812500953674316
1751281733102236400,10.664236328125,116.53125762939453,-5.268750190734863,-2.0062501430511475
1751281733112236300,10.674236328125,116.83125305175781,-5.381250381469727,-2.6625001430511475
1751281733122236400,10.684236328125,117.0562515258789,-5.737500190734863,-3.450000047683716
1751281733132236300,10.694236328125,116.62500762939453,-6.318750381469727,-4.275000095367432
1751281733142236400,10.704236328125,116.51250457763672,-6.543750286102295,-5.100000381469727
1751281733152236300,10.714236328125,116.73750305175781,-6.825000286102295,-5.662500381469727
1751281733162236400,10.724236328125,116.7750015258789,-7.181250095367432,-6.543750286102295
1751281733172236300,10.734236328125,116.85000610351562,-7.500000476837158,-7.668750286102295
1751281733182236400,10.744236328125,116.8687515258789,-7.781250476837158,-8.418750762939453
1751281733192236300,10.754236328125,116.7750015258789,-7.893750190734863,-9.1875
1751281733202236400,10.764236328125,116.75625610351562,-8.081250190734863,-9.693750381469727
1751281733212236300,10.774236328125,116.90625762939453,-7.912500381469727,-10.36875057220459
1751281733222236400,10.784236328125,117.03750610351562,-7.950000286102295,-10.706250190734863
1751281733232236300,10.794236328125,116.94375610351562,-7.931250095367432,-11.081250190734863
1751281733242236400,10.804236328125,117.18750762939453,-7.631250381469727,-11.30625057220459
1751281733252236300,10.814236328125,117.03750610351562,-7.668750286102295,-11.418750762939453
1751281733262236400,10.824236328125,116.62500762939453,-7.612500190734863,-11.512500762939453
1751281733272236300,10.834236328125,116.28750610351562,-7.593750476837158,-11.643750190734863
1751281733282236400,10.844236328125,116.23125457763672,-7.518750190734863,-11.71875
1751281733292236300,10.854236328125,116.13750457763672,-7.481250286102295,-11.34375
1751281733302236400,10.864236328125,116.2125015258789,-7.518750190734863,-11.11875057220459
1751281733312236300,10.874236328125,116.06250762939453,-7.556250095367432,-10.83750057220459
1751281733322236400,10.884236328125,115.80000305175781,-7.575000286102295,-10.425000190734863
1751281733332236300,10.894236328125,115.98750305175781,-7.518750190734863,-9.825000762939453
1751281733342236400,10.904236328125,116.19375610351562,-7.218750476837158,-9.05625057220459
1751281733352236300,10.914236328125,116.19375610351562,-7.125000476837158,-8.268750190734863
1751281733362236400,10.924236328125,116.1187515258789,-7.125000476837158,-7.406250476837158
1751281733372236300,10.934236328125,116.41875457763672,-7.087500095367432,-6.487500190734863
1751281733382236400,10.944236328125,116.38125610351562,-6.843750476837158,-5.512500286102295
1751281733392236300,10.954236328125,116.51250457763672,-6.356250286102295,-4.462500095367432
1751281733402236400,10.964236328125,116.90625762939453,-6.356250286102295,-3.3375000953674316
1751281733412236300,10.974236328125,116.90625762939453,-6.093750476837158,-2.1937501430511475
1751281733422236400,10.984236328125,117.11250305175781,-5.8125,-1.1437500715255737
1751281733432236300,10.994236328125,117.30000305175781,-5.25,-0.07500000298023224
1751281733442236400,11.004236328125,117.48750305175781,-4.837500095367432,0.862500011920929
1751281733452236300,11.014236328125,117.46875762939453,-4.59375,1.8000000715255737
1751281733462236400,11.024236328125,117.4312515258789,-4.200000286102295,2.4937500953674316
1751281733472236300,11.034236328125,117.31875610351562,-3.7687501907348633,3.093750238418579
1751281733482236400,11.044236328125,117.0562515258789,-3.3000001907348633,3.656250238418579
1751281733492236300,11.054236328125,116.92500305175781,-2.9625000953674316,4.087500095367432
1751281733502236400,11.064236328125,116.79375457763672,-2.7562501430511475,4.425000190734863
1751281733512236300,11.074236328125,116.92500305175781,-2.6625001430511475,4.893750190734863
1751281733522236400,11.084236328125,116.85000610351562,-2.4000000953674316,5.212500095367432
1751281733532236300,11.094236328125,116.85000610351562,-2.2125000953674316,5.362500190734863
1751281733542236400,11.104236328125,116.94375610351562,-2.15625,5.643750190734863
1751281733552236300,11.114236328125,117.03750610351562,-2.25,5.850000381469727
1751281733562236400,11.124236328125,117.11250305175781,-2.2125000953674316,5.756250381469727
1751281733572236300,11.134236328125,117.22500610351562,-2.1750001907348633,5.681250095367432
1751281733582236400,11.144236328125,117.03750610351562,-2.1187500953674316,5.943750381469727
1751281733592236300,11.154236328125,116.7750015258789,-2.2125000953674316,5.550000190734863
1751281733602236400,11.164236328125,116.7750015258789,-2.2875001430511475,5.53125
1751281733612236300,11.174236328125,116.60625457763672,-2.231250047683716,5.325000286102295
1751281733622236400,11.184236328125,116.4937515258789,-2.231250047683716,5.193750381469727
1751281733632236300,11.194236328125,116.41875457763672,-2.231250047683716,5.025000095367432
1751281733642236400,11.204236328125,116.3062515258789,-2.1937501430511475,4.875
1751281733652236300,11.214236328125,116.41875457763672,-2.3062500953674316,4.668750286102295
1751281733662236400,11.224236328125,116.5875015258789,-2.512500047683716,4.012500286102295
1751281733672236300,11.234236328125,116.5875015258789,-2.625,3.7875001430511475
1751281733682236400,11.244236328125,116.70000457763672,-2.7375001907348633,3.4125001430511475
1751281733692236300,11.254236328125,116.6812515258789,-3.0375001430511475,2.625
1751281733702236400,11.264236328125,116.7750015258789,-3.3375000953674316,1.6687500476837158
1751281733712236300,11.274236328125,117.03750610351562,-3.9000000953674316,0.9000000357627869
1751281733722236400,11.284236328125,117.11250305175781,-4.3125,0.13125000894069672
1751281733732236300,11.294236328125,117.03750610351562,-4.725000381469727,-0.7875000238418579
1751281733742236400,11.304236328125,117.03750610351562,-5.137500286102295,-1.5562500953674316
1751281733752236300,11.314236328125,117.11250305175781,-5.475000381469727,-2.34375
1751281733762236400,11.324236328125,116.8687515258789,-5.962500095367432,-3.2250001430511475
1751281733772236300,11.334236328125,117.09375762939453,-6.450000286102295,-3.7875001430511475
1751281733782236400,11.344236328125,116.81250762939453,-6.731250286102295,-4.200000286102295
1751281733792236300,11.354236328125,116.4937515258789,-6.881250381469727,-4.931250095367432
1751281733802236400,11.364236328125,116.56875610351562,-7.293750286102295,-5.606250286102295
1751281733812236300,11.374236328125,116.62500762939453,-7.481250286102295,-6.243750095367432
1751281733822236400,11.384236328125,116.66250610351562,-7.650000095367432,-6.881250381469727
1751281733832236300,11.394236328125,116.7750015258789,-7.800000190734863,-7.350000381469727
1751281733842236400,11.404236328125,116.83125305175781,-7.856250286102295,-7.856250286102295
1751281733852236300,11.414236328125,116.55000305175781,-7.856250286102295,-8.418750762939453
1751281733862236400,11.424236328125,116.66250610351562,-7.800000190734863,-9.037500381469727
1751281733872236300,11.434236328125,116.88750457763672,-7.743750095367432,-9.300000190734863
1751281733882236400,11.444236328125,116.8687515258789,-7.668750286102295,-9.543750762939453
1751281733892236300,11.454236328125,116.94375610351562,-7.725000381469727,-9.71250057220459
1751281733902236400,11.464236328125,117.09375762939453,-7.556250095367432,-9.80625057220459
1751281733912236300,11.474236328125,116.94375610351562,-7.650000095367432,-10.03125
1751281733922236400,11.484236328125,117.07500457763672,-7.668750286102295,-10.3125
1751281733932236300,11.494236328125,117.20625305175781,-7.443750381469727,-10.18125057220459
1751281733942236400,11.504236328125,117.39375305175781,-7.631250381469727,-10.068750381469727
1751281733952236300,11.514236328125,117.37500762939453,-7.593750476837158,-9.84375
1751281733962236400,11.524236328125,117.26250457763672,-7.743750095367432,-9.61875057220459
1751281733972236300,11.534236328125,117.11250305175781,-7.575000286102295,-9.318750381469727
1751281733982236400,11.544236328125,116.94375610351562,-7.537500381469727,-9.112500190734863
1751281733992236300,11.554236328125,117.01875305175781,-7.331250190734863,-8.756250381469727
1751281734002236400,11.564236328125,116.73750305175781,-7.125000476837158,-8.006250381469727
1751281734012236300,11.574236328125,116.79375457763672,-7.218750476837158,-7.106250286102295
1751281734022236400,11.584236328125,117.00000762939453,-7.050000190734863,-6.393750190734863
1751281734032236300,11.594236328125,116.79375457763672,-7.068750381469727,-5.831250190734863
1751281734042236400,11.604236328125,116.8687515258789,-6.750000476837158,-5.043750286102295
1751281734052236300,11.614236328125,116.88750457763672,-6.581250190734863,-4.143750190734863
1751281734062236400,11.624236328125,116.9625015258789,-6.318750381469727,-3.0375001430511475
1751281734072236300,11.634236328125,116.85000610351562,-6.056250095367432,-2.1937501430511475
1751281734082236400,11.644236328125,117.26250457763672,-5.700000286102295,-1.3687500953674316
1751281734092236300,11.654236328125,117.30000305175781,-5.287500381469727,-0.7312500476837158
1751281734102236400,11.664236328125,117.16875457763672,-4.818750381469727,0
1751281734112236300,11.674236328125,117.26250457763672,-4.275000095367432,0.8250000476837158
1751281734122236400,11.684236328125,117.26250457763672,-3.6750001907348633,1.5750000476837158
1751281734132236300,11.694236328125,117.18750762939453,-3.187500238418579,2.4000000953674316
1751281734142236400,11.704236328125,117.20625305175781,-3.0562500953674316,2.8125
1751281734152236300,11.714236328125,117.20625305175781,-2.6625001430511475,3.6187500953674316
1751281734162236400,11.724236328125,117.11250305175781,-2.4750001430511475,4.40625
1751281734172236300,11.734236328125,116.92500305175781,-1.912500023841858,4.78125
1751281734182236400,11.744236328125,116.90625762939453,-1.631250023841858,5.25
1751281734192236300,11.754236328125,116.85000610351562,-1.350000023841858,5.8125
1751281734202236400,11.764236328125,116.88750457763672,-1.2750000953674316,6.093750476837158
1751281734212236300,11.774236328125,116.9625015258789,-0.9750000238418579,6.206250190734863
1751281734222236400,11.784236328125,116.70000457763672,-0.675000011920929,6.543750286102295
1751281734232236300,11.794236328125,116.7750015258789,-0.6000000238418579,6.618750095367432
1751281734242236400,11.804236328125,116.75625610351562,-0.39375001192092896,6.356250286102295
1751281734252236300,11.814236328125,116.79375457763672,-0.5437500476837158,6.337500095367432
1751281734262236400,11.824236328125,116.45625305175781,-0.5625,6.300000190734863
1751281734272236300,11.834236328125,116.4000015258789,-0.768750011920929,5.868750095367432
1751281734282236400,11.844236328125,116.15625762939453,-0.862500011920929,5.775000095367432
1751281734292236300,11.854236328125,115.98750305175781,-1.21875,5.643750190734863
1751281734302236400,11.864236328125,116.23125457763672,-1.40625,5.34375
1751281734312236300,11.874236328125,116.23125457763672,-1.6125000715255737,5.175000190734863
1751281734322236400,11.884236328125,115.91250610351562,-1.9500000476837158,4.631250381469727
1751281734332236300,11.894236328125,115.85625457763672,-2.3625001907348633,4.237500190734863
1751281734342236400,11.904236328125,115.9312515258789,-2.793750047683716,3.7875001430511475
1751281734352236300,11.914236328125,116.26875305175781,-2.9437501430511475,3.450000047683716
1751281734362236400,11.924236328125,116.47500610351562,-3.281250238418579,2.7375001907348633
1751281734372236300,11.934236328125,116.56875610351562,-3.656250238418579,1.9500000476837158
1751281734382236400,11.944236328125,116.62500762939453,-4.068750381469727,1.3125
1751281734392236300,11.954236328125,116.6812515258789,-4.518750190734863,0.581250011920929
1751281734402236400,11.964236328125,116.81250762939453,-4.931250095367432,0.05625000223517418
1751281734412236300,11.974236328125,116.88750457763672,-5.137500286102295,-0.5250000357627869
1751281734422236400,11.984236328125,117.0562515258789,-5.550000190734863,-1.2000000476837158
1751281734432236300,11.994236328125,116.92500305175781,-6.150000095367432,-1.9312500953674316
1751281734442236400,12.004236328125,116.7750015258789,-6.525000095367432,-2.53125
1751281734452236300,12.014236328125,116.92500305175781,-6.825000286102295,-3.656250238418579
1751281734462236400,12.024236328125,116.7750015258789,-7.106250286102295,-4.40625
1751281734472236300,12.034236328125,116.85000610351562,-7.350000381469727,-5.381250381469727
1751281734482236400,12.044236328125,116.92500305175781,-7.575000286102295,-6.225000381469727
1751281734492236300,12.054236328125,117.03750610351562,-7.875000476837158,-7.125000476837158
1751281734502236400,12.064236328125,117.1500015258789,-8.137500762939453,-8.175000190734863
1751281734512236300,12.074236328125,117.07500457763672,-8.30625057220459,-9.412500381469727
1751281734522236400,12.084236328125,117.3375015258789,-8.568750381469727,-10.481250762939453
1751281734532236300,12.094236328125,117.13125610351562,-8.606250762939453,-10.987500190734863
1751281734542236400,12.104236328125,117.16875457763672,-8.53125,-11.831250190734863
1751281734552236300,12.114236328125,117.31875610351562,-8.550000190734863,-12.412500381469727
1751281734562236400,12.124236328125,117.63750457763672,-8.737500190734863,-13.031250953674316
1751281734572236300,12.134236328125,117.58125305175781,-8.68125057220459,-13.875000953674316
1751281734582236400,12.144236328125,117.48750305175781,-8.606250762939453,-14.137500762939453
1751281734592236300,12.154236328125,117.48750305175781,-8.58750057220459,-14.437500953674316
1751281734602236400,12.164236328125,117.26250457763672,-8.512500762939453,-14.718750953674316
1751281734612236300,12.174236328125,117.41250610351562,-8.53125,-14.77500057220459
1751281734622236400,12.184236328125,117.4312515258789,-8.71875,-14.68125057220459
1751281734632236300,12.194236328125,117.4312515258789,-8.793750762939453,-14.718750953674316
1751281734642236400,12.204236328125,117.07500457763672,-8.568750381469727,-14.512500762939453
1751281734652236300,12.214236328125,117.0562515258789,-8.568750381469727,-14.006250381469727
1751281734662236400,12.224236328125,117.16875457763672,-8.512500762939453,-13.800000190734863
1751281734672236300,12.234236328125,117.1500015258789,-8.268750190734863,-13.106250762939453
1751281734682236400,12.244236328125,117.28125762939453,-8.287500381469727,-12.412500381469727
1751281734692236300,12.254236328125,117.28125762939453,-8.287500381469727,-11.77500057220459
1751281734702236400,12.264236328125,117.03750610351562,-7.931250095367432,-10.987500190734863
1751281734712236300,12.274236328125,116.8687515258789,-7.818750381469727,-10.18125057220459
1751281734722236400,12.284236328125,116.88750457763672,-7.687500476837158,-9.33750057220459
1751281734732236300,12.294236328125,117.0562515258789,-7.556250095367432,-8.137500762939453
1751281734742236400,12.304236328125,117.1500015258789,-7.275000095367432,-6.956250190734863
1751281734752236300,12.314236328125,117.3375015258789,-7.125000476837158,-5.868750095367432
1751281734762236400,12.324236328125,117.09375762939453,-6.693750381469727,-4.706250190734863
1751281734772236300,12.334236328125,117.0562515258789,-6.468750476837158,-3.6750001907348633
1751281734782236400,12.344236328125,117.35625457763672,-6.243750095367432,-2.7750000953674316
1751281734792236300,12.354236328125,117.30000305175781,-5.775000095367432,-1.6500000953674316
1751281734802236400,12.364236328125,117.26250457763672,-5.400000095367432,-0.675000011920929
1751281734812236300,12.374236328125,117.22500610351562,-5.081250190734863,-0.01875000074505806
1751281734822236400,12.384236328125,117.11250305175781,-4.800000190734863,0.8250000476837158
1751281734832236300,12.394236328125,117.0562515258789,-4.481250286102295,1.5
1751281734842236400,12.404236328125,117.18750762939453,-4.143750190734863,2.25
1751281734852236300,12.414236328125,116.94375610351562,-3.6750001907348633,2.9437501430511475
1751281734862236400,12.424236328125,116.98125457763672,-3.5062501430511475,3.4875001907348633
1751281734872236300,12.434236328125,116.90625762939453,-3.356250047683716,3.7875001430511475
1751281734892236300,12.454236328125,116.9625015258789,-2.7750000953674316,4.518750190734863
1751281734902236400,12.464236328125,116.9625015258789,-2.53125,4.875
1751281734912236300,12.474236328125,116.85000610351562,-2.231250047683716,5.268750190734863
1751281734922236400,12.484236328125,116.94375610351562,-2.137500047683716,5.268750190734863
1751281734932236300,12.494236328125,117.3375015258789,-1.9875000715255737,5.287500381469727
1751281734942236400,12.504236328125,117.35625457763672,-1.818750023841858,5.118750095367432
1751281734952236300,12.514236328125,117.4312515258789,-1.7812501192092896,5.231250286102295
1751281734962236400,12.524236328125,117.54375457763672,-1.8375000953674316,5.193750381469727
1751281734972236300,12.534236328125,117.3375015258789,-2.0062501430511475,5.25
1751281734982236400,12.544236328125,117.22500610351562,-2.25,4.78125
1751281734992236300,12.554236328125,117.16875457763672,-2.4750001430511475,4.443750381469727
1751281735002236400,12.564236328125,117.11250305175781,-2.418750047683716,4.237500190734863
1751281735012236300,12.574236328125,116.79375457763672,-2.5875000953674316,4.03125
1751281735022236400,12.584236328125,116.64375305175781,-2.887500047683716,3.7687501907348633
1751281735032236300,12.594236328125,117.01875305175781,-3.0562500953674316,3.3000001907348633
1751281735042236400,12.604236328125,116.71875762939453,-3.2062501907348633,2.8312501907348633
1751281735052236300,12.614236328125,116.88750457763672,-3.468750238418579,2.2687501907348633
1751281735062236400,12.624236328125,116.94375610351562,-3.6750001907348633,1.8375000953674316
1751281735072236300,12.634236328125,116.81250762939453,-3.8625001907348633,1.0875000953674316
1751281735082236400,12.644236328125,116.6812515258789,-4.368750095367432,0.13125000894069672
1751281735092236300,12.654236328125,116.94375610351562,-4.912500381469727,-0.7312500476837158
1751281735102236400,12.664236328125,116.9625015258789,-5.193750381469727,-1.5750000476837158
1751281735112236300,12.674236328125,116.7750015258789,-5.606250286102295,-2.4750001430511475
1751281735122236400,12.684236328125,117.11250305175781,-6.056250095367432,-3.4312500953674316
1751281735132236300,12.694236328125,117.1500015258789,-6.581250190734863,-4.743750095367432
1751281735142236400,12.704236328125,117.31875610351562,-6.862500190734863,-5.737500190734863
1751281735152236300,12.714236328125,117.41250610351562,-7.200000286102295,-6.656250476837158
1751281735162236400,12.724236328125,117.75000762939453,-7.443750381469727,-7.406250476837158
1751281735172236300,12.734236328125,117.63750457763672,-7.687500476837158,-8.662500381469727
1751281735182236400,12.744236328125,117.65625762939453,-8.02500057220459,-9.43125057220459
1751281735192236300,12.754236328125,117.65625762939453,-8.30625057220459,-10.237500190734863
1751281735202236400,12.764236328125,117.3375015258789,-8.475000381469727,-11.193750381469727
1751281735212236300,12.774236328125,117.4312515258789,-8.58750057220459,-11.77500057220459
1751281735222236400,12.784236328125,117.30000305175781,-8.71875,-12.656250953674316
1751281735232236300,12.794236328125,117.3375015258789,-9.112500190734863,-13.406250953674316
1751281735242236400,12.804236328125,117.16875457763672,-9.225000381469727,-13.781250953674316
1751281735252236300,12.814236328125,117.11250305175781,-9.24375057220459,-13.968750953674316
1751281735262236400,12.824236328125,117.13125610351562,-9.15000057220459,-14.343750953674316
1751281735272236300,12.834236328125,117.1500015258789,-9.1875,-14.625000953674316
1751281735282236400,12.844236328125,117.4312515258789,-9.05625057220459,-14.49375057220459
1751281735292236300,12.854236328125,117.13125610351562,-8.96250057220459,-14.49375057220459
1751281735302236400,12.864236328125,117.20625305175781,-8.850000381469727,-14.231250762939453
1751281735312236300,12.874236328125,117.37500762939453,-8.58750057220459,-14.006250381469727
1751281735322236400,12.884236328125,117.31875610351562,-8.512500762939453,-13.875000953674316
1751281735332236300,12.894236328125,117.6187515258789,-8.268750190734863,-13.74375057220459
1751281735342236400,12.904236328125,117.76875305175781,-8.325000762939453,-13.55625057220459
1751281735352236300,12.914236328125,117.65625762939453,-8.40000057220459,-13.27500057220459
1751281735362236400,12.924236328125,117.69375610351562,-8.49375057220459,-13.068750381469727
1751281735372236300,12.934236328125,117.84375762939453,-8.268750190734863,-12.543750762939453
1751281735382236400,12.944236328125,117.69375610351562,-8.25,-12.093750953674316
1751281735392236300,12.954236328125,117.4312515258789,-8.25,-11.756250381469727
1751281735402236400,12.964236328125,117.35625457763672,-8.11875057220459,-11.25
1751281735412236300,12.974236328125,117.11250305175781,-7.987500190734863,-10.425000190734863
1751281735422236400,12.984236328125,117.09375762939453,-7.912500381469727,-9.75
1751281735432236300,12.994236328125,116.92500305175781,-7.537500381469727,-8.943750381469727
1751281735442236400,13.004236328125,116.88750457763672,-7.443750381469727,-8.02500057220459
1751281735452236300,13.014236328125,117.09375762939453,-7.275000095367432,-7.068750381469727
1751281735462236400,13.024236328125,117.28125762939453,-7.068750381469727,-6.018750190734863
1751281735472236300,13.034236328125,117.63750457763672,-6.712500095367432,-4.837500095367432
1751281735482236400,13.044236328125,117.56250762939453,-6.618750095367432,-3.9937500953674316
1751281735492236300,13.054236328125,117.5250015258789,-6.337500095367432,-2.981250047683716
1751281735502236400,13.064236328125,117.35625457763672,-5.943750381469727,-1.9312500953674316
1751281735512236300,13.074236328125,117.58125305175781,-5.8125,-0.8812500238418579
1751281735522236400,13.084236328125,117.5250015258789,-5.512500286102295,0.01875000074505806
1751281735532236300,13.094236328125,117.20625305175781,-5.287500381469727,0.7312500476837158
1751281735542236400,13.104236328125,116.88750457763672,-4.875,1.4625000953674316
1751281735552236300,13.114236328125,116.64375305175781,-4.59375,2.2687501907348633
1751281735562236400,13.124236328125,116.75625610351562,-4.3125,3.075000047683716
1751281735572236300,13.134236328125,116.6812515258789,-4.21875,3.825000047683716
1751281735582236400,13.144236328125,116.79375457763672,-3.825000047683716,4.425000190734863
1751281735592236300,13.154236328125,116.75625610351562,-3.468750238418579,4.725000381469727
1751281735602236400,13.164236328125,116.73750305175781,-3.0562500953674316,4.800000190734863
1751281735612236300,13.174236328125,116.90625762939453,-2.90625,5.137500286102295
1751281735622236400,13.184236328125,117.09375762939453,-2.6812500953674316,5.306250095367432
1751281735632236300,13.194236328125,116.98125457763672,-2.71875,5.268750190734863
1751281735642236400,13.204236328125,117.13125610351562,-2.34375,5.493750095367432
1751281735652236300,13.214236328125,117.26250457763672,-2.137500047683716,5.34375
1751281735662236400,13.224236328125,117.00000762939453,-1.8937500715255737,5.550000190734863
1751281735672236300,13.234236328125,117.13125610351562,-1.8937500715255737,5.475000381469727
1751281735682236400,13.244236328125,117.16875457763672,-1.8750001192092896,5.493750095367432
1751281735692236300,13.254236328125,116.94375610351562,-1.6125000715255737,5.081250190734863
1751281735702236400,13.264236328125,116.9625015258789,-1.8750001192092896,4.800000190734863
1751281735712236300,13.274236328125,116.9625015258789,-1.725000023841858,4.6875
1751281735722236400,13.284236328125,116.71875762939453,-1.9312500953674316,4.181250095367432
1751281735732236300,13.294236328125,116.6812515258789,-2.325000047683716,3.6750001907348633
1751281735742236400,13.304236328125,116.92500305175781,-3.0375001430511475,2.9625000953674316
1751281735752236300,13.314236328125,116.71875762939453,-3.3187501430511475,2.4937500953674316
1751281735762236400,13.324236328125,116.7750015258789,-3.6750001907348633,1.818750023841858
1751281735772236300,13.334236328125,116.83125305175781,-4.275000095367432,1.3312500715255737
1751281735782236400,13.344236328125,116.5875015258789,-4.650000095367432,0.5250000357627869
1751281735792236300,13.354236328125,116.60625457763672,-5.100000381469727,-0.45000001788139343
1751281735802236400,13.364236328125,116.8687515258789,-5.475000381469727,-1.443750023841858
1751281735812236300,13.374236328125,116.75625610351562,-5.756250381469727,-2.2687501907348633
1751281735822236400,13.384236328125,116.79375457763672,-6,-3.262500047683716
1751281735832236300,13.394236328125,116.79375457763672,-6.243750095367432,-4.125
1751281735842236400,13.404236328125,116.70000457763672,-6.581250190734863,-4.987500190734863
1751281735852236300,13.414236328125,116.5875015258789,-6.675000190734863,-6
1751281735862236400,13.424236328125,116.73750305175781,-6.993750095367432,-6.900000095367432
1751281735872236300,13.434236328125,116.75625610351562,-7.181250095367432,-7.706250190734863
1751281735882236400,13.444236328125,116.6812515258789,-7.368750095367432,-8.550000190734863
1751281735892236300,13.454236328125,116.79375457763672,-7.612500190734863,-9.168750762939453
1751281735902236400,13.464236328125,116.81250762939453,-7.800000190734863,-9.825000762939453
1751281735912236300,13.474236328125,116.73750305175781,-7.818750381469727,-10.612500190734863
1751281735922236400,13.484236328125,116.88750457763672,-7.950000286102295,-11.11875057220459
1751281735932236300,13.494236328125,116.90625762939453,-8.268750190734863,-11.58750057220459
1751281735942236400,13.504236328125,116.79375457763672,-8.231250762939453,-12.018750190734863
1751281735952236300,13.514236328125,116.98125457763672,-8.325000762939453,-12.393750190734863
1751281735962236400,13.524236328125,116.85000610351562,-8.456250190734863,-12.52500057220459
1751281735972236300,13.534236328125,116.6812515258789,-8.30625057220459,-12.768750190734863
1751281735982236400,13.544236328125,116.4937515258789,-8.287500381469727,-13.031250953674316
1751281735992236300,13.554236328125,116.73750305175781,-8.512500762939453,-12.90000057220459
1751281736002236400,13.564236328125,116.51250457763672,-8.58750057220459,-12.918750762939453
1751281736012236300,13.574236328125,116.73750305175781,-8.49375057220459,-12.71250057220459
1751281736022236400,13.584236328125,116.90625762939453,-8.418750762939453,-12.131250381469727
1751281736032236300,13.594236328125,116.81250762939453,-8.456250190734863,-11.96250057220459
1751281736042236400,13.604236328125,117.13125610351562,-8.475000381469727,-11.34375
1751281736052236300,13.614236328125,117.45000457763672,-8.53125,-10.912500381469727
1751281736062236400,13.624236328125,117.78750610351562,-8.475000381469727,-10.068750381469727
1751281736072236300,13.634236328125,117.76875305175781,-8.362500190734863,-9.24375057220459
