time,seconds_elapsed,z,y,x
1751281722572236300,0.134236328125,-34.70625305175781,-20.4375,-7.200000286102295
1751281722592236300,0.154236328125,-33.54375076293945,-20.287500381469727,-7.125000476837158
1751281722612236300,0.174236328125,-33.35625076293945,-20.55000114440918,-7.312500476837158
1751281722632236300,0.194236328125,-33.31875228881836,-20.662500381469727,-7.500000476837158
1751281722662236400,0.224236328125,-33.58125305175781,-20.850000381469727,-8.043750762939453
1751281722672236300,0.234236328125,-33.618751525878906,-21.01875114440918,-8.043750762939453
1751281722682236400,0.244236328125,-33.60000228881836,-20.981250762939453,-7.931250095367432
1751281722692236300,0.254236328125,-33.73125076293945,-21.037500381469727,-8.006250381469727
1751281722702236400,0.264236328125,-33.618751525878906,-20.90625,-7.818750381469727
1751281722712236300,0.274236328125,-33.78750228881836,-21.056251525878906,-7.781250476837158
1751281722722236400,0.284236328125,-33.75,-21,-7.743750095367432
1751281722732236300,0.294236328125,-33.618751525878906,-21.09375,-7.706250190734863
1751281722742236400,0.304236328125,-33.618751525878906,-20.943750381469727,-7.462500095367432
1751281722752236300,0.314236328125,-33.58125305175781,-20.868751525878906,-7.312500476837158
1751281722762236400,0.324236328125,-33.78750228881836,-20.71875,-7.293750286102295
1751281722772236300,0.334236328125,-33.712501525878906,-20.700000762939453,-7.218750476837158
1751281722782236400,0.344236328125,-33.65625,-20.700000762939453,-7.500000476837158
1751281722792236300,0.354236328125,-33.65625,-20.53125,-7.387500286102295
1751281722802236400,0.364236328125,-33.39375305175781,-20.775001525878906,-7.237500190734863
1751281722812236300,0.374236328125,-33.618751525878906,-20.71875,-7.443750381469727
1751281722822236400,0.384236328125,-33.41250228881836,-20.587501525878906,-7.368750095367432
1751281722832236300,0.394236328125,-33.45000076293945,-20.568750381469727,-7.556250095367432
1751281722842236400,0.404236328125,-33.09375,-20.53125,-7.612500190734863
1751281722852236300,0.414236328125,-32.83125305175781,-20.475000381469727,-7.762500286102295
1751281722862236400,0.424236328125,-32.962501525878906,-20.64375114440918,-7.725000381469727
1751281722872236300,0.434236328125,-33.03750228881836,-20.606250762939453,-7.837500095367432
1751281722882236400,0.444236328125,-32.94375228881836,-20.53125,-7.743750095367432
1751281722892236300,0.454236328125,-32.53125,-20.625,-7.631250381469727
1751281722902236400,0.464236328125,-32.53125,-20.662500381469727,-7.650000095367432
1751281722912236300,0.474236328125,-32.51250076293945,-20.756250381469727,-7.687500476837158
1751281722922236400,0.484236328125,-32.51250076293945,-21.09375,-7.912500381469727
1751281722932236300,0.494236328125,-32.8125,-21.337501525878906,-7.893750190734863
1751281722942236400,0.504236328125,-32.83125305175781,-21.150001525878906,-7.668750286102295
1751281722952236300,0.514236328125,-32.681251525878906,-21.30000114440918,-7.518750190734863
1751281722962236400,0.524236328125,-32.8125,-21.356250762939453,-7.762500286102295
1751281722972236300,0.534236328125,-33.056251525878906,-21.225000381469727,-7.725000381469727
1751281722982236400,0.544236328125,-33.35625076293945,-21.318750381469727,-7.875000476837158
1751281722992236300,0.554236328125,-33.337501525878906,-21.375,-7.800000190734863
1751281723002236400,0.564236328125,-33.30000305175781,-21.075000762939453,-7.518750190734863
1751281723012236300,0.574236328125,-33.31875228881836,-20.90625,-7.256250381469727
1751281723022236400,0.584236328125,-33.31875228881836,-20.793750762939453,-7.256250381469727
1751281723032236300,0.594236328125,-33.46875,-20.775001525878906,-7.556250095367432
1751281723042236400,0.604236328125,-33.35625076293945,-20.775001525878906,-7.556250095367432
1751281723052236300,0.614236328125,-33.11250305175781,-20.850000381469727,-7.387500286102295
1751281723062236400,0.624236328125,-32.85000228881836,-20.64375114440918,-7.200000286102295
1751281723072236300,0.634236328125,-33,-20.512500762939453,-7.050000190734863
1751281723082236400,0.644236328125,-33.22500228881836,-20.606250762939453,-6.918750286102295
1751281723092236300,0.654236328125,-33.28125,-20.606250762939453,-7.143750190734863
1751281723102236400,0.664236328125,-33.30000305175781,-20.962501525878906,-7.350000381469727
1751281723112236300,0.674236328125,-33.07500076293945,-21.11250114440918,-7.143750190734863
1751281723122236400,0.684236328125,-33.243751525878906,-21.075000762939453,-7.012500286102295
1751281723132236300,0.694236328125,-33.525001525878906,-20.962501525878906,-7.350000381469727
1751281723142236400,0.704236328125,-33.67500305175781,-21.056251525878906,-7.443750381469727
1751281723152236300,0.714236328125,-33.35625076293945,-21,-7.481250286102295
1751281723162236400,0.724236328125,-33.28125,-21.1875,-7.762500286102295
1751281723172236300,0.734236328125,-33.11250305175781,-21.225000381469727,-7.631250381469727
1751281723182236400,0.744236328125,-32.962501525878906,-21.075000762939453,-7.537500381469727
1751281723192236300,0.754236328125,-33.03750228881836,-21.056251525878906,-7.537500381469727
1751281723202236400,0.764236328125,-32.83125305175781,-21.09375,-7.556250095367432
1751281723212236300,0.774236328125,-32.53125,-21.450000762939453,-7.537500381469727
1751281723222236400,0.784236328125,-32.51250076293945,-21.30000114440918,-7.406250476837158
1751281723232236300,0.794236328125,-32.70000076293945,-21.337501525878906,-7.387500286102295
1751281723242236400,0.804236328125,-32.66250228881836,-21.20625114440918,-7.275000095367432
1751281723252236300,0.814236328125,-32.83125305175781,-21.09375,-7.350000381469727
1751281723262236400,0.824236328125,-32.962501525878906,-21.150001525878906,-7.575000286102295
1751281723272236300,0.834236328125,-32.83125305175781,-20.850000381469727,-7.612500190734863
1751281723282236400,0.844236328125,-32.962501525878906,-20.73750114440918,-7.687500476837158
1751281723292236300,0.854236328125,-33.07500076293945,-20.493751525878906,-7.575000286102295
1751281723302236400,0.864236328125,-33.07500076293945,-20.55000114440918,-7.500000476837158
1751281723312236300,0.874236328125,-32.92500305175781,-20.64375114440918,-7.687500476837158
1751281723322236400,0.884236328125,-32.98125076293945,-20.493751525878906,-7.762500286102295
1751281723332236300,0.894236328125,-33.26250076293945,-20.568750381469727,-7.875000476837158
1751281723342236400,0.904236328125,-33.20625305175781,-20.55000114440918,-7.668750286102295
1751281723352236300,0.914236328125,-33.35625076293945,-20.850000381469727,-7.668750286102295
1751281723362236400,0.924236328125,-33.375,-20.943750381469727,-7.650000095367432
1751281723372236300,0.934236328125,-33.525001525878906,-20.887500762939453,-7.462500095367432
1751281723382236400,0.944236328125,-33.46875,-21.075000762939453,-7.612500190734863
1751281723392236300,0.954236328125,-33.67500305175781,-21,-7.631250381469727
1751281723402236400,0.964236328125,-33.91875076293945,-21.075000762939453,-7.537500381469727
1751281723412236300,0.974236328125,-33.69375228881836,-20.83125114440918,-7.518750190734863
1751281723422236400,0.984236328125,-33.78750228881836,-20.8125,-7.593750476837158
1751281723432236300,0.994236328125,-33.712501525878906,-20.793750762939453,-7.556250095367432
1751281723442236400,1.004236328125,-33.69375228881836,-20.756250381469727,-7.631250381469727
1751281723452236300,1.014236328125,-33.78750228881836,-20.90625,-7.912500381469727
1751281723472236300,1.034236328125,-33.618751525878906,-20.793750762939453,-7.818750381469727
1751281723482236400,1.044236328125,-33.31875228881836,-20.850000381469727,-7.875000476837158
1751281723492236300,1.054236328125,-33.11250305175781,-21.11250114440918,-7.837500095367432
1751281723502236400,1.064236328125,-33.243751525878906,-20.981250762939453,-7.968750476837158
1751281723512236300,1.074236328125,-33.30000305175781,-20.850000381469727,-7.931250095367432
1751281723522236400,1.084236328125,-33.26250076293945,-20.850000381469727,-7.931250095367432
1751281723532236300,1.094236328125,-32.92500305175781,-20.90625,-7.818750381469727
1751281723542236400,1.104236328125,-33.150001525878906,-20.887500762939453,-7.725000381469727
1751281723552236300,1.114236328125,-33.243751525878906,-20.887500762939453,-7.781250476837158
1751281723562236400,1.124236328125,-33.35625076293945,-20.92500114440918,-7.931250095367432
1751281723572236300,1.134236328125,-33.41250228881836,-21.056251525878906,-8.043750762939453
1751281723582236400,1.144236328125,-33.11250305175781,-21.037500381469727,-7.968750476837158
1751281723592236300,1.154236328125,-33.22500228881836,-21,-7.968750476837158
1751281723602236400,1.164236328125,-33.41250228881836,-21.01875114440918,-7.837500095367432
1751281723612236300,1.174236328125,-33.45000076293945,-21.037500381469727,-7.650000095367432
1751281723622236400,1.184236328125,-33.11250305175781,-21.056251525878906,-7.668750286102295
1751281723632236300,1.194236328125,-33.20625305175781,-21.131250381469727,-7.800000190734863
1751281723642236400,1.204236328125,-33.243751525878906,-21.262500762939453,-7.781250476837158
1751281723652236300,1.214236328125,-33.243751525878906,-21.11250114440918,-7.500000476837158
1751281723662236400,1.224236328125,-33.243751525878906,-21.262500762939453,-7.350000381469727
1751281723672236300,1.234236328125,-33.03750228881836,-21.30000114440918,-7.706250190734863
1751281723682236400,1.244236328125,-33.13125228881836,-21.30000114440918,-7.856250286102295
1751281723692236300,1.254236328125,-33.31875228881836,-21.20625114440918,-8.043750762939453
1751281723702236400,1.264236328125,-33.67500305175781,-21.28125,-8.11875057220459
1751281723712236300,1.274236328125,-33.58125305175781,-21.30000114440918,-8.043750762939453
1751281723722236400,1.284236328125,-33.50625228881836,-21.09375,-7.968750476837158
1751281723732236300,1.294236328125,-33.45000076293945,-21.01875114440918,-7.875000476837158
1751281723742236400,1.304236328125,-33.54375076293945,-20.943750381469727,-7.912500381469727
1751281723752236300,1.314236328125,-33.5625,-21.09375,-7.575000286102295
1751281723762236400,1.324236328125,-33.11250305175781,-21.09375,-7.556250095367432
1751281723772236300,1.334236328125,-33.09375,-21.131250381469727,-7.443750381469727
1751281723782236400,1.344236328125,-32.98125076293945,-21.225000381469727,-7.537500381469727
1751281723792236300,1.354236328125,-32.85000228881836,-21.28125,-7.481250286102295
1751281723802236400,1.364236328125,-32.85000228881836,-21.150001525878906,-7.331250190734863
1751281723812236300,1.374236328125,-32.92500305175781,-21.09375,-7.368750095367432
1751281723822236400,1.384236328125,-32.92500305175781,-21.225000381469727,-7.350000381469727
1751281723832236300,1.394236328125,-33.11250305175781,-21.01875114440918,-7.537500381469727
1751281723842236400,1.404236328125,-33.45000076293945,-20.943750381469727,-7.443750381469727
1751281723852236300,1.414236328125,-33.26250076293945,-20.92500114440918,-7.631250381469727
1751281723862236400,1.424236328125,-33.16875076293945,-20.962501525878906,-7.706250190734863
1751281723872236300,1.434236328125,-33.28125,-20.868751525878906,-7.893750190734863
1751281723882236400,1.444236328125,-33.150001525878906,-21.056251525878906,-8.137500762939453
1751281723892236300,1.454236328125,-33.150001525878906,-21.11250114440918,-8.362500190734863
1751281723902236400,1.464236328125,-32.962501525878906,-20.793750762939453,-8.418750762939453
1751281723912236300,1.474236328125,-32.94375228881836,-20.64375114440918,-8.30625057220459
1751281723922236400,1.484236328125,-33.01875305175781,-20.73750114440918,-8.25
1751281723932236300,1.494236328125,-33.28125,-20.568750381469727,-8.100000381469727
1751281723942236400,1.504236328125,-33.54375076293945,-20.381250381469727,-8.081250190734863
1751281723952236300,1.514236328125,-33.39375305175781,-20.287500381469727,-7.968750476837158
1751281723962236400,1.524236328125,-33.525001525878906,-20.17500114440918,-7.950000286102295
1751281723972236300,1.534236328125,-33.525001525878906,-19.98750114440918,-7.950000286102295
1751281723982236400,1.544236328125,-33.84375,-20.137500762939453,-7.912500381469727
1751281723992236300,1.554236328125,-33.67500305175781,-20.36250114440918,-7.931250095367432
1751281724002236400,1.564236328125,-33.712501525878906,-20.325000762939453,-7.987500190734863
1751281724012236300,1.574236328125,-33.60000228881836,-20.400001525878906,-8.137500762939453
1751281724022236400,1.584236328125,-33.150001525878906,-20.587501525878906,-8.21250057220459
1751281724032236300,1.594236328125,-33.243751525878906,-20.606250762939453,-8.287500381469727
1751281724042236400,1.604236328125,-33.11250305175781,-20.756250381469727,-8.30625057220459
1751281724052236300,1.614236328125,-33.056251525878906,-21.01875114440918,-8.381250381469727
1751281724062236400,1.624236328125,-33.03750228881836,-21.1875,-8.58750057220459
1751281724072236300,1.634236328125,-33.01875305175781,-21.075000762939453,-8.568750381469727
1751281724082236400,1.644236328125,-32.962501525878906,-20.90625,-8.86875057220459
1751281724092236300,1.654236328125,-33.20625305175781,-21.075000762939453,-9.05625057220459
1751281724102236400,1.664236328125,-33.525001525878906,-21.11250114440918,-9.112500190734863
1751281724112236300,1.674236328125,-33.45000076293945,-21.243751525878906,-9.09375
1751281724122236400,1.684236328125,-33.375,-21.356250762939453,-9.15000057220459
1751281724132236300,1.694236328125,-33.30000305175781,-21.262500762939453,-9.318750381469727
1751281724142236400,1.704236328125,-32.962501525878906,-21.225000381469727,-9.300000190734863
1751281724152236300,1.714236328125,-32.98125076293945,-21.412500381469727,-9.71250057220459
1751281724162236400,1.724236328125,-32.92500305175781,-21.600000381469727,-9.637500762939453
1751281724172236300,1.734236328125,-32.71875,-21.600000381469727,-9.487500190734863
1751281724182236400,1.744236328125,-32.79375076293945,-21.525001525878906,-9.33750057220459
1751281724192236300,1.754236328125,-32.868751525878906,-21.46875,-9.318750381469727
1751281724202236400,1.764236328125,-32.88750076293945,-21.356250762939453,-9.225000381469727
1751281724212236300,1.774236328125,-33.01875305175781,-21.543750762939453,-8.981250762939453
1751281724222236400,1.784236328125,-33,-21.5625,-9
1751281724232236300,1.794236328125,-33.07500076293945,-21.5625,-8.58750057220459
1751281724242236400,1.804236328125,-33.056251525878906,-21.5625,-8.53125
1751281724252236300,1.814236328125,-32.79375076293945,-21.525001525878906,-8.40000057220459
1751281724262236400,1.824236328125,-32.587501525878906,-21.46875,-8.381250381469727
1751281724272236300,1.834236328125,-32.75625228881836,-21.5625,-8.381250381469727
1751281724282236400,1.844236328125,-33.22500228881836,-21.67500114440918,-8.475000381469727
1751281724292236300,1.854236328125,-33.1875,-21.600000381469727,-8.662500381469727
1751281724302236400,1.864236328125,-33.5625,-21.693750381469727,-8.40000057220459
1751281724312236300,1.874236328125,-33.45000076293945,-21.76875114440918,-8.58750057220459
1751281724322236400,1.884236328125,-33.337501525878906,-21.693750381469727,-8.325000762939453
1751281724332236300,1.894236328125,-33.712501525878906,-21.806251525878906,-8.15625
1751281724342236400,1.904236328125,-33.91875076293945,-21.95625114440918,-8.081250190734863
1751281724352236300,1.914236328125,-33.78750228881836,-21.86250114440918,-7.950000286102295
1751281724362236400,1.924236328125,-33.39375305175781,-21.86250114440918,-7.912500381469727
1751281724372236300,1.934236328125,-33.375,-21.712501525878906,-7.818750381469727
1751281724382236400,1.944236328125,-33.375,-21.543750762939453,-8.100000381469727
1751281724392236300,1.954236328125,-33.45000076293945,-21.48750114440918,-8.11875057220459
1751281724402236400,1.964236328125,-33.5625,-21.356250762939453,-8.0625
1751281724412236300,1.974236328125,-33.46875,-21.225000381469727,-8.287500381469727
1751281724422236400,1.984236328125,-33.16875076293945,-21.150001525878906,-8.53125
1751281724432236300,1.994236328125,-32.962501525878906,-21,-8.662500381469727
1751281724442236400,2.004236328125,-32.73750305175781,-20.850000381469727,-8.512500762939453
1751281724452236300,2.014236328125,-32.681251525878906,-20.943750381469727,-8.625
1751281724462236400,2.024236328125,-32.625,-20.962501525878906,-8.512500762939453
1751281724472236300,2.034236328125,-32.625,-20.850000381469727,-8.268750190734863
1751281724482236400,2.044236328125,-32.79375076293945,-20.83125114440918,-8.4375
1751281724492236300,2.054236328125,-33,-20.71875,-8.475000381469727
1751281724502236400,2.064236328125,-33.11250305175781,-20.662500381469727,-8.34375
1751281724512236300,2.074236328125,-33.50625228881836,-20.700000762939453,-8.4375
1751281724522236400,2.084236328125,-33.69375228881836,-20.793750762939453,-8.53125
1751281724532236300,2.094236328125,-33.78750228881836,-20.71875,-8.4375
1751281724542236400,2.104236328125,-33.76875305175781,-20.45625114440918,-8.325000762939453
1751281724552236300,2.114236328125,-33.75,-20.381250381469727,-8.643750190734863
1751281724562236400,2.124236328125,-33.67500305175781,-20.45625114440918,-8.793750762939453
1751281724572236300,2.134236328125,-33.28125,-20.568750381469727,-8.8125
1751281724582236400,2.144236328125,-33.26250076293945,-20.45625114440918,-9.075000762939453
1751281724592236300,2.154236328125,-33.1875,-20.475000381469727,-9.15000057220459
1751281724602236400,2.164236328125,-33.337501525878906,-20.400001525878906,-9.262500762939453
1751281724612236300,2.174236328125,-33.11250305175781,-20.55000114440918,-9.637500762939453
1751281724622236400,2.184236328125,-32.90625,-21,-10.012500762939453
1751281724632236300,2.194236328125,-32.868751525878906,-21.09375,-10.125
1751281724642236400,2.204236328125,-32.75625228881836,-21.28125,-10.425000190734863
1751281724652236300,2.214236328125,-32.962501525878906,-21.412500381469727,-10.668750762939453
1751281724662236400,2.224236328125,-33.13125228881836,-21.58125114440918,-10.818750381469727
1751281724672236300,2.234236328125,-32.8125,-21.84375,-11.02500057220459
1751281724682236400,2.244236328125,-32.66250228881836,-22.012500762939453,-11.49375057220459
1751281724692236300,2.254236328125,-33,-22.293750762939453,-11.49375057220459
1751281724702236400,2.264236328125,-32.98125076293945,-22.350000381469727,-11.68125057220459
1751281724712236300,2.274236328125,-33.09375,-22.462501525878906,-11.981250762939453
1751281724722236400,2.284236328125,-33.28125,-22.59375,-12.075000762939453
1751281724732236300,2.294236328125,-33.30000305175781,-22.462501525878906,-12.52500057220459
1751281724742236400,2.304236328125,-33.13125228881836,-22.575000762939453,-12.43125057220459
1751281724752236300,2.314236328125,-33.11250305175781,-22.5,-12.843750953674316
1751281724762236400,2.324236328125,-33.150001525878906,-22.40625,-12.975000381469727
1751281724772236300,2.334236328125,-33.01875305175781,-22.23750114440918,-13.312500953674316
1751281724782236400,2.344236328125,-33.01875305175781,-22.23750114440918,-13.575000762939453
1751281724792236300,2.354236328125,-33.11250305175781,-22.275001525878906,-13.518750190734863
1751281724802236400,2.364236328125,-33.09375,-22.14375114440918,-13.537500381469727
1751281724812236300,2.374236328125,-32.88750076293945,-22.368751525878906,-13.312500953674316
1751281724822236400,2.384236328125,-32.775001525878906,-22.350000381469727,-13.593750953674316
1751281724832236300,2.394236328125,-32.90625,-22.481250762939453,-13.18125057220459
1751281724842236400,2.404236328125,-33.22500228881836,-22.443750381469727,-12.768750190734863
1751281724852236300,2.414236328125,-33.243751525878906,-22.368751525878906,-12.43125057220459
1751281724862236400,2.424236328125,-33.60000228881836,-22.21875,-12.112500190734863
1751281724872236300,2.434236328125,-33.48750305175781,-22.275001525878906,-12.037500381469727
1751281724882236400,2.444236328125,-33.26250076293945,-22.21875,-11.850000381469727
1751281724892236300,2.454236328125,-33.48750305175781,-21.86250114440918,-11.625
1751281724902236400,2.464236328125,-33.60000228881836,-21.637500762939453,-11.231250762939453
1751281724912236300,2.474236328125,-33.712501525878906,-21.356250762939453,-10.987500190734863
1751281724922236400,2.484236328125,-33.48750305175781,-21.168750762939453,-10.78125
1751281724932236300,2.494236328125,-33.39375305175781,-21.20625114440918,-10.387500762939453
1751281724942236400,2.504236328125,-33.22500228881836,-21.150001525878906,-9.768750190734863
1751281724952236300,2.514236328125,-33.26250076293945,-20.90625,-8.943750381469727
1751281724962236400,2.524236328125,-33.39375305175781,-20.73750114440918,-8.34375
1751281724972236300,2.534236328125,-33.22500228881836,-20.71875,-7.762500286102295
1751281724982236400,2.544236328125,-33.243751525878906,-20.793750762939453,-7.237500190734863
1751281724992236300,2.554236328125,-33.28125,-20.606250762939453,-6.600000381469727
1751281725002236400,2.564236328125,-33,-20.64375114440918,-6.018750190734863
1751281725012236300,2.574236328125,-33.09375,-20.306251525878906,-5.456250190734863
1751281725022236400,2.584236328125,-33.09375,-19.98750114440918,-4.931250095367432
1751281725032236300,2.594236328125,-32.92500305175781,-19.725000381469727,-4.537500381469727
1751281725042236400,2.604236328125,-32.83125305175781,-19.537500381469727,-3.937500238418579
1751281725052236300,2.614236328125,-32.85000228881836,-19.40625,-3.3937501907348633
1751281725062236400,2.624236328125,-32.79375076293945,-19.181251525878906,-2.6812500953674316
1751281725072236300,2.634236328125,-32.85000228881836,-19.068750381469727,-2.25
1751281725082236400,2.644236328125,-33.22500228881836,-18.787500381469727,-1.818750023841858
1751281725092236300,2.654236328125,-33.07500076293945,-18.618751525878906,-1.4250000715255737
1751281725102236400,2.664236328125,-32.90625,-18.506250381469727,-1.1437500715255737
1751281725112236300,2.674236328125,-33.056251525878906,-18.46875,-0.6937500238418579
1751281725122236400,2.684236328125,-33.03750228881836,-18.39375114440918,-0.581250011920929
1751281725132236300,2.694236328125,-33.22500228881836,-18.243751525878906,-0.581250011920929
1751281725142236400,2.704236328125,-33.11250305175781,-18.01875114440918,-0.8250000476837158
1751281725152236300,2.714236328125,-33.22500228881836,-18.225000381469727,-0.8437500596046448
1751281725162236400,2.724236328125,-33,-18.131250381469727,-0.7875000238418579
1751281725172236300,2.734236328125,-33.31875228881836,-18.056251525878906,-0.7875000238418579
1751281725182236400,2.744236328125,-33.39375305175781,-18.09375,-0.9000000357627869
1751281725192236300,2.754236328125,-33.30000305175781,-18.131250381469727,-1.3687500953674316
1751281725202236400,2.764236328125,-33.375,-18.39375114440918,-1.5937501192092896
1751281725212236300,2.774236328125,-33.150001525878906,-18.337501525878906,-1.6687500476837158
1751281725222236400,2.784236328125,-33.375,-18.48750114440918,-1.5562500953674316
1751281725232236300,2.794236328125,-33.11250305175781,-18.375,-1.8375000953674316
1751281725242236400,2.804236328125,-33.26250076293945,-18.5625,-2.137500047683716
1751281725252236300,2.814236328125,-33.375,-18.76875114440918,-2.4562501907348633
1751281725262236400,2.824236328125,-33.1875,-19.106250762939453,-2.7562501430511475
1751281725272236300,2.834236328125,-33.243751525878906,-19.368751525878906,-3.093750238418579
1751281725282236400,2.844236328125,-33.1875,-19.40625,-3.450000047683716
1751281725292236300,2.854236328125,-33.09375,-19.6875,-3.9562501907348633
1751281725302236400,2.864236328125,-32.962501525878906,-19.78125,-4.537500381469727
1751281725312236300,2.874236328125,-33.13125228881836,-20.025001525878906,-5.006250381469727
1751281725322236400,2.884236328125,-33.11250305175781,-20.306251525878906,-5.606250286102295
1751281725332236300,2.894236328125,-32.83125305175781,-20.55000114440918,-6.337500095367432
1751281725342236400,2.904236328125,-33.03750228881836,-20.606250762939453,-6.881250381469727
1751281725352236300,2.914236328125,-33.20625305175781,-20.71875,-7.331250190734863
1751281725362236400,2.924236328125,-33.056251525878906,-20.92500114440918,-7.837500095367432
1751281725372236300,2.934236328125,-33.20625305175781,-21.20625114440918,-8.21250057220459
1751281725382236400,2.944236328125,-33.28125,-21.600000381469727,-8.943750381469727
1751281725392236300,2.954236328125,-33.1875,-21.693750381469727,-9.28125
1751281725402236400,2.964236328125,-33.22500228881836,-21.65625,-9.825000762939453
1751281725412236300,2.974236328125,-33.20625305175781,-21.900001525878906,-10.068750381469727
1751281725422236400,2.984236328125,-33.337501525878906,-22.162500381469727,-10.725000381469727
1751281725432236300,2.994236328125,-33.31875228881836,-22.275001525878906,-11.11875057220459
1751281725442236400,3.004236328125,-33.65625,-22.3125,-11.58750057220459
1751281725452236300,3.014236328125,-33.69375228881836,-22.23750114440918,-12.168750762939453
1751281725462236400,3.024236328125,-33.58125305175781,-22.087501525878906,-12.562500953674316
1751281725472236300,3.034236328125,-33.63750076293945,-22.21875,-13.18125057220459
1751281725482236400,3.044236328125,-33.41250228881836,-22.368751525878906,-13.65000057220459
1751281725492236300,3.054236328125,-33.45000076293945,-22.14375114440918,-14.100000381469727
1751281725502236400,3.064236328125,-33.243751525878906,-21.975000381469727,-14.193750381469727
1751281725512236300,3.074236328125,-33.243751525878906,-21.86250114440918,-14.343750953674316
1751281725522236400,3.084236328125,-33.16875076293945,-21.731250762939453,-14.662500381469727
1751281725532236300,3.094236328125,-33,-21.900001525878906,-14.831250190734863
1751281725542236400,3.104236328125,-33.03750228881836,-21.900001525878906,-14.887500762939453
1751281725552236300,3.114236328125,-32.92500305175781,-21.9375,-14.831250190734863
1751281725562236400,3.124236328125,-33.16875076293945,-21.806251525878906,-14.700000762939453
1751281725572236300,3.134236328125,-33.07500076293945,-22.012500762939453,-14.531250953674316
1751281725582236400,3.144236328125,-33.056251525878906,-21.975000381469727,-14.512500762939453
1751281725592236300,3.154236328125,-32.79375076293945,-22.106250762939453,-14.625000953674316
1751281725602236400,3.164236328125,-32.70000076293945,-22.106250762939453,-14.30625057220459
1751281725612236300,3.174236328125,-32.868751525878906,-22.087501525878906,-14.137500762939453
1751281725622236400,3.184236328125,-32.88750076293945,-22.125,-13.818750381469727
1751281725632236300,3.194236328125,-32.88750076293945,-21.975000381469727,-13.593750953674316
1751281725642236400,3.204236328125,-32.41875076293945,-22.14375114440918,-12.918750762939453
1751281725652236300,3.214236328125,-32.51250076293945,-21.993751525878906,-12.33750057220459
1751281725662236400,3.224236328125,-32.60625076293945,-21.975000381469727,-11.8125
1751281725672236300,3.234236328125,-32.60625076293945,-21.86250114440918,-11.34375
1751281725682236400,3.244236328125,-32.56875228881836,-21.787500381469727,-10.818750381469727
1751281725692236300,3.254236328125,-32.56875228881836,-21.46875,-9.99375057220459
1751281725702236400,3.264236328125,-32.66250228881836,-21.356250762939453,-9.43125057220459
1751281725712236300,3.274236328125,-32.70000076293945,-21.131250381469727,-8.700000762939453
1751281725722236400,3.284236328125,-32.94375228881836,-20.981250762939453,-8.34375
1751281725732236300,3.294236328125,-32.75625228881836,-20.793750762939453,-8.100000381469727
1751281725742236400,3.304236328125,-32.85000228881836,-20.64375114440918,-7.668750286102295
1751281725752236300,3.314236328125,-32.868751525878906,-20.493751525878906,-7.200000286102295
1751281725762236400,3.324236328125,-33.03750228881836,-20.493751525878906,-6.900000095367432
1751281725772236300,3.334236328125,-32.88750076293945,-20.45625114440918,-6.562500476837158
1751281725782236400,3.344236328125,-32.868751525878906,-20.287500381469727,-6.018750190734863
1751281725792236300,3.354236328125,-32.75625228881836,-20.34375,-5.643750190734863
1751281725802236400,3.364236328125,-32.962501525878906,-20.193750381469727,-5.400000095367432
1751281725812236300,3.374236328125,-33.1875,-19.950000762939453,-4.893750190734863
1751281725822236400,3.384236328125,-33.1875,-19.856250762939453,-4.800000190734863
1751281725832236300,3.394236328125,-33.525001525878906,-19.70625114440918,-4.481250286102295
1751281725842236400,3.404236328125,-33.22500228881836,-19.40625,-4.143750190734863
1751281725852236300,3.414236328125,-33.337501525878906,-19.275001525878906,-4.050000190734863
1751281725862236400,3.424236328125,-33.45000076293945,-19.012500762939453,-4.106250286102295
1751281725872236300,3.434236328125,-33.58125305175781,-18.900001525878906,-4.050000190734863
1751281725882236400,3.444236328125,-33.35625076293945,-18.9375,-4.143750190734863
1751281725892236300,3.454236328125,-33.46875,-19.125,-4.350000381469727
1751281725902236400,3.464236328125,-33.22500228881836,-19.162500381469727,-4.162500381469727
1751281725912236300,3.474236328125,-32.83125305175781,-19.14375114440918,-4.462500095367432
1751281725922236400,3.484236328125,-32.92500305175781,-19.40625,-4.518750190734863
1751281725932236300,3.494236328125,-33,-19.70625114440918,-4.612500190734863
1751281725942236400,3.504236328125,-32.71875,-19.96875,-4.78125
1751281725952236300,3.514236328125,-32.73750305175781,-19.96875,-4.96875
1751281725962236400,3.524236328125,-32.73750305175781,-19.950000762939453,-5.0625
1751281725972236300,3.534236328125,-32.51250076293945,-20.025001525878906,-5.306250095367432
1751281725982236400,3.544236328125,-32.70000076293945,-20.043750762939453,-5.681250095367432
1751281725992236300,3.554236328125,-32.73750305175781,-20.025001525878906,-5.793750286102295
1751281726002236400,3.564236328125,-33.01875305175781,-20.043750762939453,-6.037500381469727
1751281726012236300,3.574236328125,-32.94375228881836,-19.98750114440918,-6.412500381469727
1751281726022236400,3.584236328125,-33.11250305175781,-20.08125114440918,-6.900000095367432
1751281726032236300,3.594236328125,-33.22500228881836,-20.418750762939453,-7.575000286102295
1751281726042236400,3.604236328125,-33.60000228881836,-20.568750381469727,-8.006250381469727
1751281726052236300,3.614236328125,-33.618751525878906,-20.625,-8.568750381469727
1751281726062236400,3.624236328125,-33.73125076293945,-20.71875,-9.09375
1751281726072236300,3.634236328125,-33.88125228881836,-21.1875,-9.75
1751281726082236400,3.644236328125,-33.60000228881836,-21.431251525878906,-10.40625
1751281726092236300,3.654236328125,-33.50625228881836,-21.731250762939453,-11.0625
1751281726102236400,3.664236328125,-33.50625228881836,-21.806251525878906,-11.25
1751281726112236300,3.674236328125,-33.45000076293945,-21.806251525878906,-11.512500762939453
1751281726122236400,3.684236328125,-33.150001525878906,-22.05000114440918,-12.225000381469727
1751281726132236300,3.694236328125,-33.22500228881836,-22.3125,-12.412500381469727
1751281726142236400,3.704236328125,-33.1875,-22.462501525878906,-12.600000381469727
1751281726152236300,3.714236328125,-32.98125076293945,-22.631250381469727,-12.693750381469727
1751281726162236400,3.724236328125,-33,-22.40625,-12.637500762939453
1751281726172236300,3.734236328125,-33.31875228881836,-22.21875,-12.468750953674316
1751281726182236400,3.744236328125,-33.337501525878906,-22.33125114440918,-12.693750381469727
1751281726192236300,3.754236328125,-33.03750228881836,-22.21875,-12.768750190734863
1751281726202236400,3.764236328125,-33.13125228881836,-22.087501525878906,-12.506250381469727
1751281726212236300,3.774236328125,-33.056251525878906,-21.975000381469727,-12.600000381469727
1751281726222236400,3.784236328125,-33.056251525878906,-22.012500762939453,-12.61875057220459
1751281726232236300,3.794236328125,-33.056251525878906,-21.806251525878906,-12.80625057220459
1751281726242236400,3.804236328125,-32.92500305175781,-22.012500762939453,-12.99375057220459
1751281726252236300,3.814236328125,-32.64375305175781,-22.181251525878906,-13.162500381469727
1751281726262236400,3.824236328125,-32.493751525878906,-22.012500762939453,-13.293750762939453
1751281726272236300,3.834236328125,-32.79375076293945,-22.125,-13.218750953674316
1751281726282236400,3.844236328125,-32.587501525878906,-22.03125,-13.08750057220459
1751281726292236300,3.854236328125,-32.4375,-21.900001525878906,-12.90000057220459
1751281726302236400,3.864236328125,-32.51250076293945,-21.806251525878906,-12.637500762939453
1751281726312236300,3.874236328125,-32.51250076293945,-21.65625,-12.187500953674316
1751281726322236400,3.884236328125,-32.90625,-21.46875,-12
1751281726332236300,3.894236328125,-33.01875305175781,-21.356250762939453,-11.71875
1751281726342236400,3.904236328125,-33.22500228881836,-21.318750381469727,-10.987500190734863
1751281726352236300,3.914236328125,-33.16875076293945,-21.131250381469727,-10.481250762939453
1751281726362236400,3.924236328125,-33.337501525878906,-21.01875114440918,-10.143750190734863
1751281726372236300,3.934236328125,-33.5625,-20.868751525878906,-9.487500190734863
1751281726382236400,3.944236328125,-33.5625,-20.793750762939453,-9.075000762939453
1751281726392236300,3.954236328125,-33.88125228881836,-20.625,-8.49375057220459
1751281726402236400,3.964236328125,-33.65625,-20.45625114440918,-7.968750476837158
1751281726412236300,3.974236328125,-33.75,-20.325000762939453,-7.312500476837158
1751281726422236400,3.984236328125,-33.63750076293945,-20.193750381469727,-6.900000095367432
1751281726432236300,3.994236328125,-33.50625228881836,-19.96875,-6.656250476837158
1751281726442236400,4.004236328125,-33.525001525878906,-19.762500762939453,-6.262500286102295
1751281726452236300,4.014236328125,-33.375,-19.70625114440918,-5.756250381469727
1751281726462236400,4.024236328125,-33.337501525878906,-19.368751525878906,-5.456250190734863
1751281726472236300,4.034236328125,-33.35625076293945,-19.162500381469727,-5.231250286102295
1751281726482236400,4.044236328125,-33.54375076293945,-18.993751525878906,-4.743750095367432
1751281726492236300,4.054236328125,-33.26250076293945,-18.75,-4.537500381469727
1751281726502236400,4.064236328125,-33.28125,-18.618751525878906,-4.275000095367432
1751281726512236300,4.074236328125,-33.50625228881836,-18.39375114440918,-3.918750047683716
1751281726522236400,4.084236328125,-33.375,-18.30000114440918,-3.3937501907348633
1751281726532236300,4.094236328125,-33.54375076293945,-18.168750762939453,-3.356250047683716
1751281726542236400,4.104236328125,-33.431251525878906,-17.981250762939453,-3.1312501430511475
1751281726552236300,4.114236328125,-33.5625,-17.90625,-2.8125
1751281726562236400,4.124236328125,-33.5625,-17.962501525878906,-2.625
1751281726572236300,4.134236328125,-33.900001525878906,-17.981250762939453,-2.325000047683716
1751281726582236400,4.144236328125,-33.82500076293945,-17.962501525878906,-2.2875001430511475
1751281726592236300,4.154236328125,-33.63750076293945,-18.075000762939453,-2.137500047683716
1751281726612236300,4.174236328125,-33.5625,-18.506250381469727,-2.606250047683716
1751281726622236400,4.184236328125,-33.48750305175781,-18.975000381469727,-2.5687501430511475
1751281726632236300,4.194236328125,-33.375,-19.14375114440918,-2.9250001907348633
1751281726642236400,4.204236328125,-33.31875228881836,-19.200000762939453,-3.281250238418579
1751281726652236300,4.214236328125,-33.16875076293945,-19.368751525878906,-3.7687501907348633
1751281726662236400,4.224236328125,-33.46875,-19.368751525878906,-4.050000190734863
1751281726672236300,4.234236328125,-33.54375076293945,-19.51875114440918,-4.368750095367432
1751281726682236400,4.244236328125,-33.5625,-19.61250114440918,-4.706250190734863
1751281726692236300,4.254236328125,-33.84375,-19.668750762939453,-4.912500381469727
1751281726702236400,4.264236328125,-33.91875076293945,-19.650001525878906,-5.325000286102295
1751281726712236300,4.274236328125,-33.82500076293945,-19.912500381469727,-5.512500286102295
1751281726722236400,4.284236328125,-33.63750076293945,-19.875,-5.850000381469727
1751281726732236300,4.294236328125,-33.76875305175781,-20.025001525878906,-6.243750095367432
1751281726742236400,4.304236328125,-33.35625076293945,-20.400001525878906,-6.900000095367432
1751281726752236300,4.314236328125,-33.39375305175781,-20.83125114440918,-7.312500476837158
1751281726762236400,4.324236328125,-33.46875,-20.83125114440918,-7.537500381469727
1751281726772236300,4.334236328125,-33.26250076293945,-20.868751525878906,-7.725000381469727
1751281726782236400,4.344236328125,-33.337501525878906,-21.075000762939453,-8.34375
1751281726792236300,4.354236328125,-33.375,-21.09375,-8.8125
1751281726802236400,4.364236328125,-33.88125228881836,-21.1875,-9.318750381469727
1751281726812236300,4.374236328125,-33.5625,-21.131250381469727,-9.581250190734863
1751281726822236400,4.384236328125,-33.65625,-21.056251525878906,-9.5625
1751281726832236300,4.394236328125,-33.50625228881836,-21.11250114440918,-9.9375
1751281726842236400,4.404236328125,-33.46875,-21.168750762939453,-10.425000190734863
1751281726852236300,4.414236328125,-33.65625,-21.243751525878906,-10.893750190734863
1751281726862236400,4.424236328125,-33.60000228881836,-21.20625114440918,-11.137500762939453
1751281726872236300,4.434236328125,-33.58125305175781,-21.318750381469727,-11.4375
1751281726882236400,4.444236328125,-32.962501525878906,-21.506250381469727,-11.456250190734863
1751281726892236300,4.454236328125,-33.22500228881836,-21.58125114440918,-11.850000381469727
1751281726902236400,4.464236328125,-33.22500228881836,-21.84375,-12.15000057220459
1751281726912236300,4.474236328125,-33.150001525878906,-21.86250114440918,-12.281250953674316
1751281726922236400,4.484236328125,-33.22500228881836,-22.03125,-12.356250762939453
1751281726932236300,4.494236328125,-33.01875305175781,-22.23750114440918,-12.468750953674316
1751281726942236400,4.504236328125,-32.98125076293945,-22.40625,-12.581250190734863
1751281726952236300,4.514236328125,-32.92500305175781,-22.462501525878906,-12.956250190734863
1751281726962236400,4.524236328125,-32.868751525878906,-22.631250381469727,-13.143750190734863
1751281726972236300,4.534236328125,-32.681251525878906,-22.668750762939453,-12.881250381469727
1751281726992236300,4.554236328125,-32.75625228881836,-22.61250114440918,-13.331250190734863
1751281727002236400,4.564236328125,-32.4375,-22.70625114440918,-13.331250190734863
1751281727012236300,4.574236328125,-32.75625228881836,-22.650001525878906,-13.387500762939453
1751281727022236400,4.584236328125,-32.775001525878906,-22.650001525878906,-13.425000190734863
1751281727032236300,4.594236328125,-32.8125,-22.5,-13.031250953674316
1751281727042236400,4.604236328125,-33.01875305175781,-22.556251525878906,-13.068750381469727
1751281727052236300,4.614236328125,-33.09375,-22.668750762939453,-13.125000953674316
1751281727062236400,4.624236328125,-33.22500228881836,-22.443750381469727,-12.80625057220459
1751281727072236300,4.634236328125,-33.22500228881836,-22.200000762939453,-12.450000762939453
1751281727082236400,4.644236328125,-33.39375305175781,-22.03125,-12.05625057220459
1751281727092236300,4.654236328125,-33.16875076293945,-22.05000114440918,-11.850000381469727
1751281727102236400,4.664236328125,-33.03750228881836,-21.900001525878906,-11.58750057220459
1751281727112236300,4.674236328125,-33.13125228881836,-21.86250114440918,-11.231250762939453
1751281727122236400,4.684236328125,-33.243751525878906,-21.506250381469727,-10.65000057220459
1751281727132236300,4.694236328125,-33.30000305175781,-21.337501525878906,-10.27500057220459
1751281727142236400,4.704236328125,-33.45000076293945,-21.412500381469727,-9.90000057220459
1751281727152236300,4.714236328125,-33.618751525878906,-21.168750762939453,-9.5625
1751281727162236400,4.724236328125,-33.67500305175781,-21.11250114440918,-9.52500057220459
1751281727172236300,4.734236328125,-33.69375228881836,-20.850000381469727,-9
1751281727182236400,4.744236328125,-33.86250305175781,-20.793750762939453,-8.287500381469727
1751281727192236300,4.754236328125,-33.76875305175781,-20.55000114440918,-7.781250476837158
1751281727202236400,4.764236328125,-33.73125076293945,-20.662500381469727,-7.350000381469727
1751281727212236300,4.774236328125,-33.806251525878906,-20.4375,-6.862500190734863
1751281727222236400,4.784236328125,-33.63750076293945,-20.25,-6.300000190734863
1751281727232236300,4.794236328125,-33.50625228881836,-20.34375,-6.018750190734863
1751281727242236400,4.804236328125,-33.65625,-20.043750762939453,-5.25
1751281727252236300,4.814236328125,-33.69375228881836,-19.61250114440918,-4.556250095367432
1751281727262236400,4.824236328125,-33.5625,-19.3125,-4.106250286102295
1751281727272236300,4.834236328125,-33.712501525878906,-19.012500762939453,-3.731250047683716
1751281727282236400,4.844236328125,-33.431251525878906,-18.693750381469727,-3.4125001430511475
1751281727292236300,4.854236328125,-33.5625,-18.637500762939453,-3.075000047683716
1751281727302236400,4.864236328125,-33.50625228881836,-18.412500381469727,-2.6437501907348633
1751281727312236300,4.874236328125,-33.63750076293945,-18.412500381469727,-2.1000001430511475
1751281727322236400,4.884236328125,-33.60000228881836,-18.48750114440918,-1.9875000715255737
1751281727332236300,4.894236328125,-33.60000228881836,-18.506250381469727,-2.0250000953674316
1751281727342236400,4.904236328125,-33.712501525878906,-18.637500762939453,-2.043750047683716
1751281727352236300,4.914236328125,-33.58125305175781,-18.58125114440918,-1.8562500476837158
1751281727362236400,4.924236328125,-33.73125076293945,-18.48750114440918,-1.7062500715255737
1751281727372236300,4.934236328125,-33.60000228881836,-18.46875,-1.7812501192092896
1751281727382236400,4.944236328125,-33.69375228881836,-18.543750762939453,-2.0062501430511475
1751281727392236300,4.954236328125,-33.50625228881836,-18.318750381469727,-1.8750001192092896
1751281727402236400,4.964236328125,-33.243751525878906,-18.131250381469727,-1.9875000715255737
1751281727412236300,4.974236328125,-33.31875228881836,-18.1875,-2.0062501430511475
1751281727422236400,4.984236328125,-33.46875,-18.243751525878906,-2.2687501907348633
1751281727432236300,4.994236328125,-33.58125305175781,-18.693750381469727,-2.7562501430511475
1751281727442236400,5.004236328125,-33.63750076293945,-19.012500762939453,-2.9625000953674316
1751281727452236300,5.014236328125,-33.58125305175781,-18.900001525878906,-3.0562500953674316
1751281727462236400,5.024236328125,-33.65625,-19.106250762939453,-3.262500047683716
1751281727472236300,5.034236328125,-33.900001525878906,-19.275001525878906,-3.6937501430511475
1751281727482236400,5.044236328125,-34.16250228881836,-19.5,-4.125
1751281727492236300,5.054236328125,-34.23750305175781,-19.6875,-4.631250381469727
1751281727502236400,5.064236328125,-34.06875228881836,-19.762500762939453,-4.875
1751281727512236300,5.074236328125,-34.16250228881836,-19.78125,-5.231250286102295
1751281727522236400,5.084236328125,-34.3125,-19.912500381469727,-5.625
1751281727532236300,5.094236328125,-34.16250228881836,-20.287500381469727,-6.150000095367432
1751281727542236400,5.104236328125,-34.03125,-20.53125,-6.618750095367432
1751281727552236300,5.114236328125,-33.900001525878906,-20.681251525878906,-6.993750095367432
1751281727562236400,5.124236328125,-33.69375228881836,-20.962501525878906,-7.481250286102295
1751281727572236300,5.134236328125,-33.54375076293945,-21.1875,-7.931250095367432
1751281727582236400,5.144236328125,-33.54375076293945,-21.412500381469727,-8.418750762939453
1751281727592236300,5.154236328125,-33.243751525878906,-21.67500114440918,-8.737500190734863
1751281727602236400,5.164236328125,-33.150001525878906,-22.068750381469727,-9.300000190734863
1751281727612236300,5.174236328125,-33.30000305175781,-22.106250762939453,-9.75
1751281727622236400,5.184236328125,-33.46875,-22.068750381469727,-10.143750190734863
1751281727632236300,5.194236328125,-33.431251525878906,-22.33125114440918,-10.74375057220459
1751281727642236400,5.204236328125,-33.375,-22.293750762939453,-10.875
1751281727652236300,5.214236328125,-33.28125,-22.575000762939453,-11.287500381469727
1751281727662236400,5.224236328125,-33.26250076293945,-22.51875114440918,-11.606250762939453
1751281727672236300,5.234236328125,-33.39375305175781,-22.481250762939453,-11.850000381469727
1751281727682236400,5.244236328125,-33.375,-22.387500762939453,-12.356250762939453
1751281727692236300,5.254236328125,-33.243751525878906,-22.5,-12.656250953674316
1751281727702236400,5.264236328125,-33.1875,-22.631250381469727,-12.843750953674316
1751281727712236300,5.274236328125,-33.07500076293945,-22.556251525878906,-13.106250762939453
1751281727722236400,5.284236328125,-33.150001525878906,-22.537500381469727,-13.18125057220459
1751281727732236300,5.294236328125,-33.337501525878906,-22.23750114440918,-13.068750381469727
1751281727742236400,5.304236328125,-33.35625076293945,-22.21875,-13.125000953674316
1751281727752236300,5.314236328125,-32.90625,-22.275001525878906,-13.237500190734863
1751281727762236400,5.324236328125,-32.94375228881836,-22.181251525878906,-12.937500953674316
1751281727772236300,5.334236328125,-32.85000228881836,-22.106250762939453,-12.61875057220459
1751281727782236400,5.344236328125,-32.64375305175781,-21.993751525878906,-12.43125057220459
1751281727792236300,5.354236328125,-32.625,-21.918750762939453,-11.981250762939453
1751281727802236400,5.364236328125,-32.55000305175781,-21.86250114440918,-11.662500381469727
1751281727812236300,5.374236328125,-32.45625305175781,-21.75,-11.418750762939453
1751281727822236400,5.384236328125,-32.587501525878906,-21.58125114440918,-10.987500190734863
1751281727832236300,5.394236328125,-33.01875305175781,-21.337501525878906,-10.36875057220459
1751281727842236400,5.404236328125,-32.94375228881836,-21.225000381469727,-9.787500381469727
1751281727852236300,5.414236328125,-33.01875305175781,-20.92500114440918,-9.300000190734863
1751281727862236400,5.424236328125,-33.01875305175781,-20.73750114440918,-8.71875
1751281727872236300,5.434236328125,-33.243751525878906,-20.45625114440918,-8.100000381469727
1751281727882236400,5.444236328125,-33.54375076293945,-20.15625,-7.462500095367432
1751281727892236300,5.454236328125,-33.375,-20.043750762939453,-6.881250381469727
1751281727902236400,5.464236328125,-33.16875076293945,-19.931251525878906,-6.150000095367432
1751281727912236300,5.474236328125,-33.07500076293945,-19.6875,-5.550000190734863
1751281727922236400,5.484236328125,-33.07500076293945,-19.293750762939453,-4.96875
1751281727932236300,5.494236328125,-33.150001525878906,-19.181251525878906,-4.556250095367432
1751281727942236400,5.504236328125,-33.31875228881836,-18.86250114440918,-4.087500095367432
1751281727952236300,5.514236328125,-33.09375,-18.637500762939453,-3.6937501430511475
1751281727962236400,5.524236328125,-32.962501525878906,-18.5625,-3.2062501907348633
1751281727972236300,5.534236328125,-33.22500228881836,-18.337501525878906,-2.700000047683716
1751281727982236400,5.544236328125,-33.31875228881836,-17.962501525878906,-2.1000001430511475
1751281727992236300,5.554236328125,-33.39375305175781,-17.868751525878906,-1.6500000953674316
1751281728002236400,5.564236328125,-33.618751525878906,-17.756250381469727,-1.2000000476837158
1751281728012236300,5.574236328125,-33.82500076293945,-17.493751525878906,-0.8812500238418579
1751281728022236400,5.584236328125,-34.03125,-17.381250381469727,-0.5625
1751281728032236300,5.594236328125,-34.16250228881836,-17.287500381469727,-0.05625000223517418
1751281728042236400,5.604236328125,-34.06875228881836,-17.17500114440918,-0.11250000447034836
1751281728052236300,5.614236328125,-33.75,-17.193750381469727,-0.07500000298023224
1751281728062236400,5.624236328125,-33.76875305175781,-17.381250381469727,-0.13125000894069672
1751281728072236300,5.634236328125,-33.82500076293945,-17.381250381469727,-0.30000001192092896
1751281728082236400,5.644236328125,-33.60000228881836,-17.418750762939453,-0.5437500476837158
1751281728092236300,5.654236328125,-33.50625228881836,-17.55000114440918,-0.48750001192092896
1751281728102236400,5.664236328125,-33.150001525878906,-17.700000762939453,-0.675000011920929
1751281728112236300,5.674236328125,-33.26250076293945,-17.962501525878906,-1.2000000476837158
1751281728122236400,5.684236328125,-33.41250228881836,-18.225000381469727,-1.3687500953674316
1751281728132236300,5.694236328125,-33.84375,-18.243751525878906,-1.7062500715255737
1751281728142236400,5.704236328125,-33.95625305175781,-18.28125,-2.2125000953674316
1751281728152236300,5.714236328125,-34.01250076293945,-18.412500381469727,-2.53125
1751281728162236400,5.724236328125,-34.06875228881836,-18.75,-3.0187501907348633
1751281728172236300,5.734236328125,-33.91875076293945,-18.993751525878906,-3.4125001430511475
1751281728182236400,5.744236328125,-33.95625305175781,-19.125,-3.843750238418579
1751281728192236300,5.754236328125,-34.03125,-19.181251525878906,-4.425000190734863
1751281728202236400,5.764236328125,-33.82500076293945,-19.21875,-5.006250381469727
1751281728212236300,5.774236328125,-33.618751525878906,-19.5,-5.212500095367432
1751281728222236400,5.784236328125,-33.54375076293945,-19.78125,-5.625
1751281728232236300,5.794236328125,-33.41250228881836,-19.931251525878906,-5.943750381469727
1751281728242236400,5.804236328125,-33.26250076293945,-20.043750762939453,-6.412500381469727
1751281728252236300,5.814236328125,-33.337501525878906,-20.0625,-6.750000476837158
1751281728262236400,5.824236328125,-33.5625,-20.043750762939453,-7.031250476837158
1751281728272236300,5.834236328125,-33.50625228881836,-20.08125114440918,-7.200000286102295
1751281728282236400,5.844236328125,-33.48750305175781,-20.418750762939453,-7.668750286102295
1751281728292236300,5.854236328125,-33.45000076293945,-20.512500762939453,-8.193750381469727
1751281728302236400,5.864236328125,-33.16875076293945,-20.606250762939453,-8.568750381469727
1751281728312236300,5.874236328125,-33.056251525878906,-20.775001525878906,-8.90625
1751281728322236400,5.884236328125,-33.28125,-20.868751525878906,-9.037500381469727
1751281728332236300,5.894236328125,-33.16875076293945,-21.30000114440918,-9.43125057220459
1751281728342236400,5.904236328125,-33.07500076293945,-21.65625,-9.918750762939453
1751281728352236300,5.914236328125,-32.98125076293945,-21.900001525878906,-10.293750762939453
1751281728362236400,5.924236328125,-33.11250305175781,-21.731250762939453,-10.237500190734863
1751281728372236300,5.934236328125,-32.94375228881836,-21.84375,-10.256250381469727
1751281728382236400,5.944236328125,-32.92500305175781,-21.975000381469727,-10.331250190734863
1751281728392236300,5.954236328125,-32.85000228881836,-22.087501525878906,-10.912500381469727
1751281728402236400,5.964236328125,-32.681251525878906,-21.900001525878906,-11.11875057220459
1751281728412236300,5.974236328125,-32.8125,-21.76875114440918,-11.53125
1751281728422236400,5.984236328125,-32.775001525878906,-21.806251525878906,-11.700000762939453
1751281728432236300,5.994236328125,-32.85000228881836,-21.76875114440918,-11.625
1751281728442236400,6.004236328125,-32.85000228881836,-21.806251525878906,-11.68125057220459
1751281728452236300,6.014236328125,-32.94375228881836,-21.787500381469727,-11.943750381469727
1751281728462236400,6.024236328125,-32.90625,-21.693750381469727,-11.943750381469727
1751281728472236300,6.034236328125,-32.98125076293945,-21.731250762939453,-11.625
1751281728482236400,6.044236328125,-33.26250076293945,-22.05000114440918,-11.568750381469727
1751281728492236300,6.054236328125,-33.09375,-22.14375114440918,-11.043750762939453
1751281728502236400,6.064236328125,-32.94375228881836,-22.106250762939453,-10.987500190734863
1751281728512236300,6.074236328125,-32.60625076293945,-22.181251525878906,-10.800000190734863
1751281728522236400,6.084236328125,-32.493751525878906,-22.200000762939453,-10.537500381469727
1751281728532236300,6.094236328125,-32.70000076293945,-22.181251525878906,-10.143750190734863
1751281728542236400,6.104236328125,-32.962501525878906,-22.162500381469727,-9.768750190734863
1751281728552236300,6.114236328125,-33.11250305175781,-22.125,-9.581250190734863
1751281728562236400,6.124236328125,-33.056251525878906,-21.693750381469727,-9.206250190734863
1751281728572236300,6.134236328125,-33.243751525878906,-21.431251525878906,-8.925000190734863
1751281728582236400,6.144236328125,-33.39375305175781,-21.30000114440918,-8.40000057220459
1751281728592236300,6.154236328125,-33.84375,-20.943750381469727,-8.006250381469727
1751281728602236400,6.164236328125,-33.9375,-20.868751525878906,-7.800000190734863
1751281728612236300,6.174236328125,-33.86250305175781,-20.64375114440918,-7.406250476837158
1751281728622236400,6.184236328125,-33.88125228881836,-20.306251525878906,-7.012500286102295
1751281728632236300,6.194236328125,-33.69375228881836,-20.025001525878906,-6.412500381469727
1751281728642236400,6.204236328125,-33.60000228881836,-20.0625,-5.700000286102295
1751281728652236300,6.214236328125,-33.48750305175781,-19.912500381469727,-5.268750190734863
1751281728662236400,6.224236328125,-33.48750305175781,-19.556251525878906,-4.893750190734863
1751281728672236300,6.234236328125,-33.1875,-19.59375,-4.6875
1751281728692236300,6.254236328125,-33.11250305175781,-19.275001525878906,-3.8625001907348633
1751281728702236400,6.264236328125,-33.16875076293945,-19.05000114440918,-3.6000001430511475
1751281728712236300,6.274236328125,-33.50625228881836,-18.76875114440918,-3.187500238418579
1751281728722236400,6.284236328125,-33.46875,-18.506250381469727,-3.093750238418579
1751281728732236300,6.294236328125,-33.50625228881836,-18.450000762939453,-2.90625
1751281728742236400,6.304236328125,-33.618751525878906,-18.5625,-2.6812500953674316
1751281728752236300,6.314236328125,-33.97500228881836,-18.506250381469727,-2.625
1751281728762236400,6.324236328125,-34.01250076293945,-18.262500762939453,-2.418750047683716
1751281728772236300,6.334236328125,-34.125,-18.262500762939453,-2.512500047683716
1751281728782236400,6.344236328125,-34.275001525878906,-18.431251525878906,-2.625
1751281728792236300,6.354236328125,-34.01250076293945,-18.525001525878906,-2.7750000953674316
1751281728802236400,6.364236328125,-33.95625305175781,-18.67500114440918,-2.887500047683716
1751281728812236300,6.374236328125,-34.125,-18.693750381469727,-3
1751281728822236400,6.384236328125,-33.900001525878906,-18.731250762939453,-3.1125001907348633
1751281728832236300,6.394236328125,-33.63750076293945,-18.618751525878906,-3.1125001907348633
1751281728842236400,6.404236328125,-33.91875076293945,-18.731250762939453,-3.5062501430511475
1751281728852236300,6.414236328125,-33.806251525878906,-18.712501525878906,-3.5062501430511475
1751281728862236400,6.424236328125,-33.39375305175781,-18.825000762939453,-3.656250238418579
1751281728872236300,6.434236328125,-33.48750305175781,-19.03125,-4.068750381469727
1751281728882236400,6.444236328125,-33.431251525878906,-18.993751525878906,-4.481250286102295
1751281728892236300,6.454236328125,-33.35625076293945,-19.125,-4.818750381469727
1751281728902236400,6.464236328125,-33.48750305175781,-19.256250381469727,-5.118750095367432
1751281728912236300,6.474236328125,-33.375,-19.61250114440918,-5.4375
1751281728922236400,6.484236328125,-33.243751525878906,-19.80000114440918,-5.662500381469727
1751281728932236300,6.494236328125,-33.337501525878906,-20.025001525878906,-6.168750286102295
1751281728942236400,6.504236328125,-33.431251525878906,-20.325000762939453,-6.581250190734863
1751281728952236300,6.514236328125,-33.07500076293945,-20.493751525878906,-6.975000381469727
1751281728962236400,6.524236328125,-33.01875305175781,-20.606250762939453,-7.443750381469727
1751281728972236300,6.534236328125,-32.98125076293945,-20.793750762939453,-8.02500057220459
1751281728982236400,6.544236328125,-32.868751525878906,-20.962501525878906,-8.568750381469727
1751281728992236300,6.554236328125,-32.98125076293945,-21.09375,-9
1751281729002236400,6.564236328125,-33,-21.243751525878906,-9.506250381469727
1751281729012236300,6.574236328125,-32.75625228881836,-21.48750114440918,-10.237500190734863
1751281729022236400,6.584236328125,-32.79375076293945,-21.600000381469727,-10.762500762939453
1751281729032236300,6.594236328125,-33.07500076293945,-21.58125114440918,-11.475000381469727
1751281729042236400,6.604236328125,-32.94375228881836,-21.975000381469727,-12
1751281729052236300,6.614236328125,-32.90625,-22.05000114440918,-12.206250190734863
1751281729062236400,6.624236328125,-33.07500076293945,-22.275001525878906,-12.506250381469727
1751281729072236300,6.634236328125,-32.8125,-22.33125114440918,-12.787500381469727
1751281729082236400,6.644236328125,-32.85000228881836,-22.59375,-13.143750190734863
1751281729092236300,6.654236328125,-32.8125,-22.61250114440918,-13.237500190734863
1751281729102236400,6.664236328125,-32.83125305175781,-22.70625114440918,-13.27500057220459
1751281729112236300,6.674236328125,-32.775001525878906,-22.96875,-13.143750190734863
1751281729122236400,6.684236328125,-33.243751525878906,-22.837501525878906,-13.18125057220459
1751281729132236300,6.694236328125,-33.26250076293945,-22.89375114440918,-13.443750381469727
1751281729142236400,6.704236328125,-33.09375,-22.837501525878906,-13.46250057220459
1751281729152236300,6.714236328125,-33.31875228881836,-22.818750381469727,-13.668750762939453
1751281729162236400,6.724236328125,-33.056251525878906,-22.725000381469727,-13.481250762939453
1751281729172236300,6.734236328125,-33.243751525878906,-22.70625114440918,-13.46250057220459
1751281729182236400,6.744236328125,-33,-22.556251525878906,-13.65000057220459
1751281729192236300,6.754236328125,-33.16875076293945,-22.293750762939453,-13.537500381469727
1751281729202236400,6.764236328125,-33.03750228881836,-22.293750762939453,-13.425000190734863
1751281729212236300,6.774236328125,-33.01875305175781,-22.068750381469727,-13.237500190734863
1751281729222236400,6.784236328125,-33.13125228881836,-22.03125,-13.012500762939453
1751281729232236300,6.794236328125,-33.26250076293945,-21.900001525878906,-12.543750762939453
1751281729242236400,6.804236328125,-33.28125,-21.693750381469727,-12.300000190734863
1751281729252236300,6.814236328125,-33.1875,-21.637500762939453,-12.05625057220459
1751281729262236400,6.824236328125,-33.22500228881836,-21.637500762939453,-11.58750057220459
1751281729272236300,6.834236328125,-33.13125228881836,-21.76875114440918,-11.418750762939453
1751281729282236400,6.844236328125,-33.30000305175781,-21.543750762939453,-11.02500057220459
1751281729292236300,6.854236328125,-33.431251525878906,-21.525001525878906,-10.706250190734863
1751281729302236400,6.864236328125,-33.375,-21.375,-10.425000190734863
1751281729312236300,6.874236328125,-33.28125,-21.20625114440918,-10.03125
1751281729322236400,6.884236328125,-33.375,-21.01875114440918,-9.506250381469727
1751281729332236300,6.894236328125,-33.5625,-20.756250381469727,-8.737500190734863
1751281729342236400,6.904236328125,-33.97500228881836,-20.45625114440918,-8.175000190734863
1751281729352236300,6.914236328125,-34.05000305175781,-19.96875,-7.293750286102295
1751281729362236400,6.924236328125,-33.806251525878906,-19.950000762939453,-6.581250190734863
1751281729372236300,6.934236328125,-33.73125076293945,-19.70625114440918,-5.90625
1751281729382236400,6.944236328125,-33.525001525878906,-19.368751525878906,-5.212500095367432
1751281729392236300,6.954236328125,-33.30000305175781,-19.3125,-4.743750095367432
1751281729402236400,6.964236328125,-33.375,-19.087501525878906,-4.162500381469727
1751281729412236300,6.974236328125,-33.1875,-18.95625114440918,-3.5812501907348633
1751281729422236400,6.984236328125,-33.22500228881836,-18.67500114440918,-2.90625
1751281729432236300,6.994236328125,-33.07500076293945,-18.48750114440918,-2.4562501907348633
1751281729452236300,7.014236328125,-32.94375228881836,-18.09375,-1.6875001192092896
1751281729462236400,7.024236328125,-33.20625305175781,-18.150001525878906,-1.350000023841858
1751281729472236300,7.034236328125,-33.67500305175781,-17.981250762939453,-0.8437500596046448
1751281729482236400,7.044236328125,-33.82500076293945,-18.075000762939453,-0.5250000357627869
1751281729492236300,7.054236328125,-34.03125,-17.943750381469727,-0.4687500298023224
1751281729502236400,7.064236328125,-33.91875076293945,-17.887500762939453,-0.5625
1751281729512236300,7.074236328125,-34.05000305175781,-17.943750381469727,-0.581250011920929
1751281729522236400,7.084236328125,-34.14375305175781,-17.850000381469727,-0.375
1751281729532236300,7.094236328125,-34.40625,-17.55000114440918,-0.5437500476837158
1751281729542236400,7.104236328125,-34.33125305175781,-17.231250762939453,-0.5250000357627869
1751281729552236300,7.114236328125,-34.087501525878906,-17.118751525878906,-0.6187500357627869
1751281729562236400,7.124236328125,-33.67500305175781,-17.08125114440918,-1.0125000476837158
1751281729572236300,7.134236328125,-33.525001525878906,-17.137500762939453,-1.21875
1751281729582236400,7.144236328125,-33.28125,-17.36250114440918,-1.40625
1751281729592236300,7.154236328125,-33.16875076293945,-17.400001525878906,-1.6687500476837158
1751281729602236400,7.164236328125,-33.243751525878906,-17.73750114440918,-1.912500023841858
1751281729612236300,7.174236328125,-33.03750228881836,-18.225000381469727,-2.0250000953674316
1751281729622236400,7.184236328125,-32.775001525878906,-18.618751525878906,-2.34375
1751281729632236300,7.194236328125,-32.625,-18.76875114440918,-2.90625
1751281729642236400,7.204236328125,-33,-18.95625114440918,-3.281250238418579
1751281729652236300,7.214236328125,-33.243751525878906,-19.33125114440918,-3.656250238418579
1751281729662236400,7.224236328125,-33.50625228881836,-19.481250762939453,-4.125
1751281729672236300,7.234236328125,-33.5625,-19.6875,-4.5
1751281729682236400,7.244236328125,-33.431251525878906,-19.462501525878906,-4.875
1751281729692236300,7.254236328125,-33.63750076293945,-19.575000762939453,-5.493750095367432
1751281729702236400,7.264236328125,-33.97500228881836,-19.725000381469727,-6.037500381469727
1751281729712236300,7.274236328125,-34.29375076293945,-19.931251525878906,-6.506250381469727
1751281729722236400,7.284236328125,-34.16250228881836,-20.231250762939453,-7.031250476837158
1751281729732236300,7.294236328125,-33.86250305175781,-20.381250381469727,-7.668750286102295
1751281729742236400,7.304236328125,-33.60000228881836,-20.568750381469727,-8.100000381469727
1751281729752236300,7.314236328125,-33.60000228881836,-20.793750762939453,-8.568750381469727
1751281729762236400,7.324236328125,-33.525001525878906,-21.28125,-9.450000762939453
1751281729772236300,7.334236328125,-33.46875,-21.76875114440918,-10.18125057220459
1751281729792236300,7.354236328125,-33.22500228881836,-22.350000381469727,-11.268750190734863
1751281729802236400,7.364236328125,-33.39375305175781,-22.256250381469727,-11.362500190734863
1751281729812236300,7.374236328125,-33.46875,-22.162500381469727,-11.568750381469727
1751281729822236400,7.384236328125,-33.525001525878906,-22.256250381469727,-11.793750762939453
1751281729832236300,7.394236328125,-33.63750076293945,-22.51875114440918,-12.206250190734863
1751281729842236400,7.404236328125,-33.45000076293945,-22.537500381469727,-12.131250381469727
1751281729852236300,7.414236328125,-33.337501525878906,-22.350000381469727,-12.168750762939453
1751281729862236400,7.424236328125,-33.22500228881836,-22.293750762939453,-12.33750057220459
1751281729872236300,7.434236328125,-33.22500228881836,-22.087501525878906,-12.33750057220459
1751281729882236400,7.444236328125,-33.11250305175781,-22.14375114440918,-12.731250762939453
1751281729892236300,7.454236328125,-33.03750228881836,-22.368751525878906,-13.18125057220459
1751281729902236400,7.464236328125,-32.90625,-22.443750381469727,-13.593750953674316
1751281729912236300,7.474236328125,-33,-22.33125114440918,-13.481250762939453
1751281729922236400,7.484236328125,-33.375,-22.462501525878906,-13.687500953674316
1751281729932236300,7.494236328125,-33.243751525878906,-22.40625,-13.55625057220459
1751281729942236400,7.504236328125,-33.30000305175781,-22.350000381469727,-13.500000953674316
1751281729962236400,7.524236328125,-32.71875,-22.481250762939453,-13.08750057220459
1751281729972236300,7.534236328125,-32.90625,-22.275001525878906,-12.562500953674316
1751281729982236400,7.544236328125,-32.8125,-22.125,-12
1751281729992236300,7.554236328125,-32.70000076293945,-21.993751525878906,-11.756250381469727
1751281730002236400,7.564236328125,-32.45625305175781,-21.65625,-11.40000057220459
1751281730012236300,7.574236328125,-32.775001525878906,-21.525001525878906,-10.875
1751281730022236400,7.584236328125,-32.8125,-21.412500381469727,-10.46250057220459
1751281730032236300,7.594236328125,-33.01875305175781,-21.262500762939453,-10.012500762939453
1751281730042236400,7.604236328125,-33.09375,-21.11250114440918,-9.375
1751281730052236300,7.614236328125,-32.90625,-21.075000762939453,-8.887500762939453
1751281730062236400,7.624236328125,-33.20625305175781,-20.775001525878906,-8.100000381469727
1751281730072236300,7.634236328125,-33.150001525878906,-20.587501525878906,-7.387500286102295
1751281730082236400,7.644236328125,-33.150001525878906,-20.53125,-6.731250286102295
1751281730092236300,7.654236328125,-33.16875076293945,-20.17500114440918,-5.831250190734863
1751281730102236400,7.664236328125,-33.30000305175781,-19.931251525878906,-4.987500190734863
1751281730112236300,7.674236328125,-33.20625305175781,-19.650001525878906,-4.425000190734863
1751281730122236400,7.684236328125,-33.11250305175781,-19.387500762939453,-3.731250047683716
1751281730132236300,7.694236328125,-33.26250076293945,-19.03125,-2.9437501430511475
1751281730142236400,7.704236328125,-33.31875228881836,-18.67500114440918,-2.34375
1751281730152236300,7.714236328125,-33.39375305175781,-18.168750762939453,-1.6500000953674316
1751281730162236400,7.724236328125,-33.50625228881836,-17.681251525878906,-0.956250011920929
1751281730172236300,7.734236328125,-33.28125,-17.606250762939453,-0.75
1751281730182236400,7.744236328125,-33.39375305175781,-17.306251525878906,-0.45000001788139343
1751281730192236300,7.754236328125,-33.5625,-16.875,0.03750000149011612
1751281730212236300,7.774236328125,-33.46875,-16.33125114440918,0.4125000238418579
1751281730222236400,7.784236328125,-33.48750305175781,-16.368751525878906,0.30000001192092896
1751281730232236300,7.794236328125,-33.50625228881836,-16.61250114440918,0.15000000596046448
1751281730242236400,7.804236328125,-33.69375228881836,-16.70625114440918,0.1875
1751281730252236300,7.814236328125,-33.60000228881836,-16.575000762939453,-0.03750000149011612
1751281730262236400,7.824236328125,-33.41250228881836,-16.743751525878906,-0.1875
1751281730272236300,7.834236328125,-33.54375076293945,-17.137500762939453,-0.4312500059604645
1751281730282236400,7.844236328125,-33.60000228881836,-17.400001525878906,-0.9187500476837158
1751281730292236300,7.854236328125,-33.69375228881836,-17.73750114440918,-1.2000000476837158
1751281730302236400,7.864236328125,-33.900001525878906,-17.962501525878906,-1.40625
1751281730312236300,7.874236328125,-33.95625305175781,-18.131250381469727,-1.9312500953674316
1751281730322236400,7.884236328125,-33.91875076293945,-18.337501525878906,-2.418750047683716
1751281730332236300,7.894236328125,-34.368751525878906,-18.881250381469727,-2.8500001430511475
1751281730342236400,7.904236328125,-34.59375,-18.900001525878906,-3.3937501907348633
1751281730352236300,7.914236328125,-34.462501525878906,-19.14375114440918,-3.843750238418579
1751281730362236400,7.924236328125,-34.368751525878906,-19.5,-4.331250190734863
1751281730372236300,7.934236328125,-34.48125076293945,-19.856250762939453,-5.118750095367432
1751281730382236400,7.944236328125,-34.40625,-20.212501525878906,-5.90625
1751281730392236300,7.954236328125,-34.48125076293945,-20.4375,-6.487500190734863
1751281730402236400,7.964236328125,-34.3125,-20.850000381469727,-7.162500381469727
1751281730412236300,7.974236328125,-33.82500076293945,-20.850000381469727,-7.818750381469727
1751281730422236400,7.984236328125,-33.48750305175781,-21.375,-8.58750057220459
1751281730432236300,7.994236328125,-33.431251525878906,-21.618751525878906,-9.412500381469727
1751281730442236400,8.004236328125,-33.69375228881836,-21.806251525878906,-10.068750381469727
1751281730452236300,8.014236328125,-33.525001525878906,-21.881250381469727,-10.74375057220459
1751281730462236400,8.024236328125,-33.30000305175781,-21.918750762939453,-11.175000190734863
1751281730472236300,8.034236328125,-33.07500076293945,-22.125,-11.49375057220459
1751281730482236400,8.044236328125,-32.94375228881836,-22.125,-12.037500381469727
1751281730492236300,8.054236328125,-33.11250305175781,-22.33125114440918,-12.450000762939453
1751281730502236400,8.064236328125,-33.30000305175781,-22.275001525878906,-12.600000381469727
1751281730512236300,8.074236328125,-33.243751525878906,-22.256250381469727,-12.937500953674316
1751281730522236400,8.084236328125,-33.31875228881836,-22.256250381469727,-13.08750057220459
1751281730532236300,8.094236328125,-33.31875228881836,-22.068750381469727,-13.162500381469727
1751281730542236400,8.104236328125,-33.41250228881836,-22.068750381469727,-13.65000057220459
1751281730552236300,8.114236328125,-33.26250076293945,-22.14375114440918,-13.893750190734863
1751281730562236400,8.124236328125,-33.28125,-22.350000381469727,-14.175000190734863
1751281730572236300,8.134236328125,-33.243751525878906,-22.61250114440918,-14.30625057220459
1751281730582236400,8.144236328125,-33.26250076293945,-22.818750381469727,-14.512500762939453
1751281730592236300,8.154236328125,-33.30000305175781,-22.6875,-14.418750762939453
1751281730602236400,8.164236328125,-33.35625076293945,-22.78125,-14.437500953674316
1751281730612236300,8.174236328125,-33.39375305175781,-23.006250381469727,-14.531250953674316
1751281730622236400,8.184236328125,-33.1875,-23.08125114440918,-14.062500953674316
1751281730632236300,8.194236328125,-33.28125,-23.100000381469727,-13.950000762939453
1751281730642236400,8.204236328125,-33.31875228881836,-22.837501525878906,-13.500000953674316
1751281730652236300,8.214236328125,-33.26250076293945,-22.61250114440918,-13.125000953674316
1751281730662236400,8.224236328125,-33.01875305175781,-22.293750762939453,-12.562500953674316
1751281730672236300,8.234236328125,-33.28125,-22.125,-12
1751281730682236400,8.244236328125,-33.16875076293945,-21.881250381469727,-11.456250190734863
1751281730692236300,8.254236328125,-32.94375228881836,-21.637500762939453,-10.800000190734863
1751281730702236400,8.264236328125,-32.98125076293945,-21.58125114440918,-10.27500057220459
1751281730712236300,8.274236328125,-32.90625,-21.056251525878906,-9.450000762939453
1751281730722236400,8.284236328125,-32.94375228881836,-20.887500762939453,-8.49375057220459
1751281730732236300,8.294236328125,-32.92500305175781,-20.55000114440918,-7.668750286102295
1751281730742236400,8.304236328125,-33.056251525878906,-20.306251525878906,-6.993750095367432
1751281730752236300,8.314236328125,-32.88750076293945,-20.17500114440918,-6.243750095367432
1751281730762236400,8.324236328125,-32.8125,-19.650001525878906,-5.287500381469727
1751281730772236300,8.334236328125,-33.07500076293945,-19.256250381469727,-4.368750095367432
1751281730782236400,8.344236328125,-33.1875,-18.712501525878906,-3.3375000953674316
1751281730792236300,8.354236328125,-33.16875076293945,-18.431251525878906,-2.6812500953674316
1751281730802236400,8.364236328125,-33.39375305175781,-17.90625,-2.1000001430511475
1751281730812236300,8.374236328125,-33.375,-17.55000114440918,-1.5187500715255737
1751281730822236400,8.384236328125,-33.60000228881836,-17.137500762939453,-0.8812500238418579
1751281730832236300,8.394236328125,-33.65625,-16.856250762939453,-0.6187500357627869
1751281730842236400,8.404236328125,-33.88125228881836,-16.950000762939453,-0.48750001192092896
1751281730852236300,8.414236328125,-33.84375,-16.818750381469727,-0.28125
1751281730862236400,8.424236328125,-33.712501525878906,-16.61250114440918,-0.3375000059604645
1751281730872236300,8.434236328125,-33.97500228881836,-16.6875,-0.35625001788139343
1751281730882236400,8.444236328125,-33.9375,-16.98750114440918,-0.675000011920929
1751281730892236300,8.454236328125,-34.10625076293945,-17.118751525878906,-0.9375000596046448
1751281730902236400,8.464236328125,-33.993751525878906,-17.53125,-1.3875000476837158
1751281730912236300,8.474236328125,-33.86250305175781,-17.8125,-1.6500000953674316
1751281730922236400,8.484236328125,-33.76875305175781,-18,-1.9687501192092896
1751281730932236300,8.494236328125,-33.69375228881836,-18.318750381469727,-2.3625001907348633
1751281730942236400,8.504236328125,-34.125,-18.787500381469727,-2.8687500953674316
1751281730952236300,8.514236328125,-33.806251525878906,-19.23750114440918,-3.4125001430511475
1751281730962236400,8.524236328125,-33.9375,-19.387500762939453,-4.012500286102295
1751281730972236300,8.534236328125,-33.993751525878906,-19.575000762939453,-4.5
1751281730982236400,8.544236328125,-33.76875305175781,-19.875,-5.287500381469727
1751281730992236300,8.554236328125,-33.73125076293945,-20.25,-5.981250286102295
1751281731002236400,8.564236328125,-33.69375228881836,-20.26875114440918,-6.787500381469727
1751281731012236300,8.574236328125,-33.712501525878906,-20.587501525878906,-7.706250190734863
1751281731022236400,8.584236328125,-33.35625076293945,-20.8125,-8.475000381469727
1751281731032236300,8.594236328125,-33.431251525878906,-20.90625,-9.206250190734863
1751281731042236400,8.604236328125,-33.26250076293945,-21.075000762939453,-9.675000190734863
1751281731052236300,8.614236328125,-33.16875076293945,-21.337501525878906,-10.143750190734863
1751281731062236400,8.624236328125,-33.28125,-21.412500381469727,-10.481250762939453
1751281731072236300,8.634236328125,-33.26250076293945,-21.450000762939453,-10.93125057220459
1751281731082236400,8.644236328125,-33.11250305175781,-21.731250762939453,-11.175000190734863
1751281731092236300,8.654236328125,-33.13125228881836,-21.76875114440918,-11.381250381469727
1751281731102236400,8.664236328125,-33.056251525878906,-21.84375,-11.700000762939453
1751281731112236300,8.674236328125,-33.13125228881836,-21.84375,-12.093750953674316
1751281731122236400,8.684236328125,-33.056251525878906,-22.106250762939453,-12.693750381469727
1751281731132236300,8.694236328125,-33.03750228881836,-22.350000381469727,-13.256250381469727
1751281731142236400,8.704236328125,-33.39375305175781,-22.42500114440918,-13.575000762939453
1751281731152236300,8.714236328125,-33.30000305175781,-22.462501525878906,-13.856250762939453
1751281731162236400,8.724236328125,-33.28125,-22.537500381469727,-14.193750381469727
1751281731172236300,8.734236328125,-33.243751525878906,-22.537500381469727,-14.550000190734863
1751281731182236400,8.744236328125,-33.1875,-22.575000762939453,-15.000000953674316
1751281731192236300,8.754236328125,-33.07500076293945,-22.59375,-15.131250381469727
1751281731202236400,8.764236328125,-33,-22.631250381469727,-15.318750381469727
1751281731212236300,8.774236328125,-32.92500305175781,-22.481250762939453,-15.656250953674316
1751281731222236400,8.784236328125,-32.681251525878906,-22.556251525878906,-15.656250953674316
1751281731232236300,8.794236328125,-33.13125228881836,-22.51875114440918,-15.843750953674316
1751281731242236400,8.804236328125,-32.92500305175781,-22.70625114440918,-16.200000762939453
1751281731252236300,8.814236328125,-32.85000228881836,-22.856250762939453,-16.368751525878906
1751281731262236400,8.824236328125,-33.20625305175781,-22.950000762939453,-16.21875
1751281731272236300,8.834236328125,-33.13125228881836,-23.006250381469727,-16.23750114440918
1751281731282236400,8.844236328125,-32.98125076293945,-23.025001525878906,-16.200000762939453
1751281731292236300,8.854236328125,-33.07500076293945,-23.15625,-16.181251525878906
1751281731302236400,8.864236328125,-33.13125228881836,-23.006250381469727,-16.443750381469727
1751281731312236300,8.874236328125,-32.8125,-23.100000381469727,-16.33125114440918
1751281731322236400,8.884236328125,-32.962501525878906,-22.912500381469727,-16.3125
1751281731332236300,8.894236328125,-32.94375228881836,-22.912500381469727,-16.51875114440918
1751281731342236400,8.904236328125,-32.625,-22.856250762939453,-16.61250114440918
1751281731352236300,8.914236328125,-32.625,-23.043750762939453,-16.631250381469727
1751281731362236400,8.924236328125,-32.45625305175781,-23.006250381469727,-16.575000762939453
1751281731372236300,8.934236328125,-32.41875076293945,-22.856250762939453,-16.40625
1751281731382236400,8.944236328125,-32.26875305175781,-23.006250381469727,-16.256250381469727
1751281731402236400,8.964236328125,-32.28750228881836,-23.306251525878906,-16.256250381469727
1751281731412236300,8.974236328125,-32.28750228881836,-23.26875114440918,-16.03125
1751281731422236400,8.984236328125,-32.60625076293945,-23.100000381469727,-15.975000381469727
1751281731432236300,8.994236328125,-32.64375305175781,-23.025001525878906,-16.181251525878906
1751281731442236400,9.004236328125,-32.775001525878906,-22.98750114440918,-16.256250381469727
1751281731452236300,9.014236328125,-32.71875,-23.08125114440918,-16.05000114440918
1751281731462236400,9.024236328125,-32.66250228881836,-23.0625,-16.05000114440918
1751281731472236300,9.034236328125,-32.66250228881836,-23.025001525878906,-16.087501525878906
1751281731482236400,9.044236328125,-32.55000305175781,-23.025001525878906,-16.256250381469727
1751281731492236300,9.054236328125,-32.4375,-22.950000762939453,-16.256250381469727
1751281731502236400,9.064236328125,-32.26875305175781,-23.08125114440918,-16.443750381469727
1751281731512236300,9.074236328125,-32.400001525878906,-23.025001525878906,-16.181251525878906
1751281731522236400,9.084236328125,-32.36250305175781,-23.15625,-16.293750762939453
1751281731532236300,9.094236328125,-32.4375,-23.137500762939453,-16.40625
1751281731542236400,9.104236328125,-32.625,-23.08125114440918,-16.51875114440918
1751281731552236300,9.114236328125,-32.587501525878906,-23.100000381469727,-16.42500114440918
1751281731562236400,9.124236328125,-32.79375076293945,-22.98750114440918,-16.350000381469727
1751281731572236300,9.134236328125,-33.30000305175781,-23.08125114440918,-16.200000762939453
1751281731582236400,9.144236328125,-33.337501525878906,-23.118751525878906,-16.05000114440918
1751281731592236300,9.154236328125,-33.22500228881836,-23.006250381469727,-16.03125
1751281731602236400,9.164236328125,-33.58125305175781,-23.100000381469727,-15.675000190734863
1751281731612236300,9.174236328125,-33.5625,-23.212501525878906,-15.675000190734863
1751281731622236400,9.184236328125,-33.712501525878906,-22.98750114440918,-15.506250381469727
1751281731632236300,9.194236328125,-33.50625228881836,-22.912500381469727,-15.52500057220459
1751281731642236400,9.204236328125,-33.60000228881836,-22.89375114440918,-15.375000953674316
1751281731652236300,9.214236328125,-33.45000076293945,-22.6875,-15.131250381469727
1751281731662236400,9.224236328125,-33.1875,-22.631250381469727,-14.925000190734863
1751281731672236300,9.234236328125,-33.243751525878906,-22.70625114440918,-14.662500381469727
1751281731682236400,9.244236328125,-32.92500305175781,-22.42500114440918,-14.475000381469727
1751281731692236300,9.254236328125,-32.775001525878906,-22.181251525878906,-14.231250762939453
1751281731702236400,9.264236328125,-32.60625076293945,-22.3125,-13.800000190734863
1751281731712236300,9.274236328125,-32.60625076293945,-22.387500762939453,-13.443750381469727
1751281731722236400,9.284236328125,-32.51250076293945,-22.275001525878906,-13.068750381469727
1751281731732236300,9.294236328125,-32.26875305175781,-22.42500114440918,-12.99375057220459
1751281731742236400,9.304236328125,-32.47500228881836,-22.42500114440918,-12.61875057220459
1751281731752236300,9.314236328125,-32.66250228881836,-22.443750381469727,-12.356250762939453
1751281731762236400,9.324236328125,-32.75625228881836,-22.443750381469727,-12.05625057220459
1751281731772236300,9.334236328125,-32.94375228881836,-22.40625,-11.737500190734863
1751281731782236400,9.344236328125,-32.94375228881836,-22.293750762939453,-11.418750762939453
1751281731792236300,9.354236328125,-33.28125,-22.106250762939453,-11.081250190734863
1751281731812236300,9.374236328125,-33.5625,-22.087501525878906,-10.3125
1751281731822236400,9.384236328125,-33.76875305175781,-21.900001525878906,-10.18125057220459
1751281731832236300,9.394236328125,-33.54375076293945,-21.693750381469727,-9.918750762939453
1751281731842236400,9.404236328125,-33.618751525878906,-21.67500114440918,-9.75
1751281731852236300,9.414236328125,-33.73125076293945,-21.5625,-9.46875
1751281731862236400,9.424236328125,-33.60000228881836,-21.5625,-9.1875
1751281731872236300,9.434236328125,-33.28125,-21.48750114440918,-9
1751281731882236400,9.444236328125,-33.03750228881836,-21.356250762939453,-8.86875057220459
1751281731892236300,9.454236328125,-32.962501525878906,-21.262500762939453,-8.418750762939453
1751281731902236400,9.464236328125,-32.88750076293945,-21.1875,-8.081250190734863
1751281731912236300,9.474236328125,-33.09375,-21.168750762939453,-7.800000190734863
1751281731922236400,9.484236328125,-33.31875228881836,-21.09375,-7.481250286102295
1751281731932236300,9.494236328125,-33.31875228881836,-21.11250114440918,-7.425000190734863
1751281731942236400,9.504236328125,-33.375,-21.225000381469727,-7.443750381469727
1751281731952236300,9.514236328125,-33.806251525878906,-21.168750762939453,-7.256250381469727
1751281731962236400,9.524236328125,-33.86250305175781,-20.943750381469727,-7.331250190734863
1751281731972236300,9.534236328125,-34.06875228881836,-21.131250381469727,-7.237500190734863
1751281731982236400,9.544236328125,-34.06875228881836,-21.131250381469727,-7.331250190734863
1751281731992236300,9.554236328125,-33.5625,-21.30000114440918,-7.706250190734863
1751281732002236400,9.564236328125,-33.50625228881836,-21.168750762939453,-7.537500381469727
1751281732012236300,9.574236328125,-33.45000076293945,-21.225000381469727,-7.687500476837158
1751281732022236400,9.584236328125,-33.375,-21.075000762939453,-7.575000286102295
1751281732032236300,9.594236328125,-33.375,-20.981250762939453,-7.425000190734863
1751281732042236400,9.604236328125,-33.28125,-21.01875114440918,-7.293750286102295
1751281732052236300,9.614236328125,-33.16875076293945,-20.868751525878906,-7.312500476837158
1751281732062236400,9.624236328125,-32.79375076293945,-20.756250381469727,-6.975000381469727
1751281732072236300,9.634236328125,-33.22500228881836,-20.34375,-6.356250286102295
1751281732082236400,9.644236328125,-33.11250305175781,-20.17500114440918,-6.300000190734863
1751281732092236300,9.654236328125,-33.09375,-20.025001525878906,-5.850000381469727
1751281732102236400,9.664236328125,-33.11250305175781,-20.100000381469727,-5.925000190734863
1751281732112236300,9.674236328125,-32.868751525878906,-20.306251525878906,-5.850000381469727
1751281732122236400,9.684236328125,-33,-20.287500381469727,-5.868750095367432
1751281732132236300,9.694236328125,-32.92500305175781,-20.287500381469727,-5.868750095367432
1751281732142236400,9.704236328125,-33.20625305175781,-20.45625114440918,-5.850000381469727
1751281732152236300,9.714236328125,-33.01875305175781,-20.493751525878906,-5.981250286102295
1751281732162236400,9.724236328125,-33.150001525878906,-20.850000381469727,-6.262500286102295
1751281732172236300,9.734236328125,-33.07500076293945,-21,-6.393750190734863
1751281732182236400,9.744236328125,-33.11250305175781,-20.90625,-6.450000286102295
1751281732192236300,9.754236328125,-33.243751525878906,-20.850000381469727,-6.881250381469727
1751281732202236400,9.764236328125,-33.150001525878906,-21.131250381469727,-6.975000381469727
1751281732212236300,9.774236328125,-33.26250076293945,-21.225000381469727,-7.462500095367432
1751281732222236400,9.784236328125,-33.243751525878906,-21.39375114440918,-8.0625
1751281732232236300,9.794236328125,-33.31875228881836,-21.693750381469727,-8.49375057220459
1751281732242236400,9.804236328125,-33.1875,-21.9375,-8.756250381469727
1751281732252236300,9.814236328125,-33.26250076293945,-21.95625114440918,-9.24375057220459
1751281732262236400,9.824236328125,-33.09375,-22.162500381469727,-9.675000190734863
1751281732272236300,9.834236328125,-33.30000305175781,-22.3125,-9.75
1751281732282236400,9.844236328125,-33.28125,-22.3125,-10.293750762939453
1751281732292236300,9.854236328125,-33.26250076293945,-22.293750762939453,-10.612500190734863
1751281732302236400,9.864236328125,-33.26250076293945,-22.350000381469727,-11.081250190734863
1751281732312236300,9.874236328125,-33.39375305175781,-22.387500762939453,-11.512500762939453
1751281732322236400,9.884236328125,-33.39375305175781,-22.293750762939453,-11.71875
1751281732332236300,9.894236328125,-33.28125,-22.51875114440918,-12.112500190734863
1751281732342236400,9.904236328125,-33.712501525878906,-22.40625,-12.450000762939453
1751281732352236300,9.914236328125,-33.39375305175781,-22.443750381469727,-12.975000381469727
1751281732362236400,9.924236328125,-33.375,-22.462501525878906,-13.143750190734863
1751281732372236300,9.934236328125,-33.22500228881836,-22.6875,-13.200000762939453
1751281732382236400,9.944236328125,-33.056251525878906,-22.59375,-13.36875057220459
1751281732392236300,9.954236328125,-33.03750228881836,-22.575000762939453,-13.406250953674316
1751281732402236400,9.964236328125,-32.98125076293945,-22.631250381469727,-13.762500762939453
1751281732412236300,9.974236328125,-32.98125076293945,-22.443750381469727,-13.612500190734863
1751281732422236400,9.984236328125,-32.868751525878906,-22.61250114440918,-13.762500762939453
1751281732432236300,9.994236328125,-32.98125076293945,-22.368751525878906,-13.706250190734863
1751281732442236400,10.004236328125,-33.150001525878906,-22.293750762939453,-13.575000762939453
1751281732452236300,10.014236328125,-33.35625076293945,-22.087501525878906,-13.518750190734863
1751281732462236400,10.024236328125,-33.26250076293945,-22.14375114440918,-13.218750953674316
1751281732472236300,10.034236328125,-33.150001525878906,-22.23750114440918,-13.218750953674316
1751281732482236400,10.044236328125,-33.07500076293945,-21.9375,-12.843750953674316
1751281732492236300,10.054236328125,-33.056251525878906,-21.825000762939453,-12.71250057220459
1751281732502236400,10.064236328125,-33.03750228881836,-21.75,-12.281250953674316
1751281732512236300,10.074236328125,-32.73750305175781,-21.918750762939453,-12.05625057220459
1751281732522236400,10.084236328125,-32.36250305175781,-21.9375,-12.018750190734863
1751281732532236300,10.094236328125,-32.306251525878906,-21.900001525878906,-11.831250190734863
1751281732542236400,10.104236328125,-32.587501525878906,-22.012500762939453,-11.606250762939453
1751281732552236300,10.114236328125,-32.55000305175781,-21.975000381469727,-11.231250762939453
1751281732562236400,10.124236328125,-32.587501525878906,-22.068750381469727,-10.987500190734863
1751281732572236300,10.134236328125,-32.587501525878906,-22.21875,-10.856250762939453
1751281732582236400,10.144236328125,-32.19375228881836,-22.33125114440918,-10.762500762939453
1751281732592236300,10.154236328125,-32.493751525878906,-22.21875,-10.27500057220459
1751281732602236400,10.164236328125,-32.8125,-21.993751525878906,-9.768750190734863
1751281732612236300,10.174236328125,-32.66250228881836,-21.95625114440918,-9.487500190734863
1751281732622236400,10.184236328125,-32.55000305175781,-21.618751525878906,-9.15000057220459
1751281732632236300,10.194236328125,-32.71875,-21.48750114440918,-8.90625
1751281732642236400,10.204236328125,-32.73750305175781,-21.543750762939453,-8.793750762939453
1751281732652236300,10.214236328125,-32.868751525878906,-21.375,-8.625
1751281732662236400,10.224236328125,-33.150001525878906,-21.225000381469727,-8.362500190734863
1751281732672236300,10.234236328125,-33.07500076293945,-21.39375114440918,-8.625
1751281732682236400,10.244236328125,-33.16875076293945,-21.46875,-8.71875
1751281732692236300,10.254236328125,-33.35625076293945,-21.39375114440918,-8.8125
1751281732702236400,10.264236328125,-33.73125076293945,-21.412500381469727,-9.131250381469727
1751281732712236300,10.274236328125,-33.63750076293945,-21.262500762939453,-9.28125
1751281732722236400,10.284236328125,-33.73125076293945,-21.131250381469727,-9.24375057220459
1751281732732236300,10.294236328125,-33.60000228881836,-21.09375,-9.1875
1751281732742236400,10.304236328125,-33.618751525878906,-20.943750381469727,-9.075000762939453
1751281732752236300,10.314236328125,-33.69375228881836,-20.625,-8.793750762939453
1751281732762236400,10.324236328125,-33.525001525878906,-20.73750114440918,-8.71875
1751281732772236300,10.334236328125,-33.375,-20.73750114440918,-8.34375
1751281732782236400,10.344236328125,-32.962501525878906,-20.681251525878906,-7.856250286102295
1751281732792236300,10.354236328125,-32.94375228881836,-20.64375114440918,-7.406250476837158
1751281732802236400,10.364236328125,-32.868751525878906,-20.512500762939453,-7.143750190734863
1751281732812236300,10.374236328125,-33.16875076293945,-20.493751525878906,-6.712500095367432
1751281732822236400,10.384236328125,-33.13125228881836,-20.45625114440918,-6.656250476837158
1751281732832236300,10.394236328125,-33.30000305175781,-20.381250381469727,-6.206250190734863
1751281732852236300,10.414236328125,-33.337501525878906,-19.70625114440918,-5.193750381469727
1751281732862236400,10.424236328125,-33.54375076293945,-19.556251525878906,-4.762500286102295
1751281732872236300,10.434236328125,-33.65625,-19.443750381469727,-4.387500286102295
1751281732882236400,10.444236328125,-33.618751525878906,-19.21875,-4.087500095367432
1751281732892236300,10.454236328125,-33.58125305175781,-18.993751525878906,-3.918750047683716
1751281732902236400,10.464236328125,-33.48750305175781,-18.65625,-3.1312501430511475
1751281732912236300,10.474236328125,-33.41250228881836,-18.58125114440918,-2.9250001907348633
1751281732922236400,10.484236328125,-33.58125305175781,-18.28125,-2.606250047683716
1751281732932236300,10.494236328125,-33.75,-18.30000114440918,-2.4000000953674316
1751281732942236400,10.504236328125,-33.806251525878906,-18.1875,-2.3625001907348633
1751281732952236300,10.514236328125,-34.05000305175781,-18.09375,-2.1937501430511475
1751281732962236400,10.524236328125,-34.3125,-18.09375,-1.9875000715255737
1751281732972236300,10.534236328125,-34.25625228881836,-18.150001525878906,-1.8562500476837158
1751281732982236400,10.544236328125,-34.35000228881836,-18.075000762939453,-2.0250000953674316
1751281732992236300,10.554236328125,-34.14375305175781,-18.056251525878906,-1.912500023841858
1751281733002236400,10.564236328125,-33.993751525878906,-18.168750762939453,-1.818750023841858
1751281733012236300,10.574236328125,-34.05000305175781,-18.20625114440918,-1.8562500476837158
1751281733022236400,10.584236328125,-33.86250305175781,-18.09375,-1.9500000476837158
1751281733032236300,10.594236328125,-33.712501525878906,-18.39375114440918,-2.325000047683716
1751281733042236400,10.604236328125,-33.73125076293945,-18.412500381469727,-2.6437501907348633
1751281733052236300,10.614236328125,-33.46875,-18.20625114440918,-2.981250047683716
1751281733062236400,10.624236328125,-33.58125305175781,-18.637500762939453,-3.562500238418579
1751281733072236300,10.634236328125,-33.73125076293945,-18.86250114440918,-4.481250286102295
1751281733082236400,10.644236328125,-33.84375,-19.181251525878906,-5.212500095367432
1751281733092236300,10.654236328125,-33.86250305175781,-19.3125,-5.793750286102295
1751281733102236400,10.664236328125,-33.78750228881836,-19.856250762939453,-6.618750095367432
1751281733112236300,10.674236328125,-33.48750305175781,-19.96875,-7.275000095367432
1751281733122236400,10.684236328125,-33.26250076293945,-20.325000762939453,-8.0625
1751281733132236300,10.694236328125,-33.712501525878906,-20.90625,-8.887500762939453
1751281733142236400,10.704236328125,-33.806251525878906,-21.131250381469727,-9.71250057220459
1751281733152236300,10.714236328125,-33.58125305175781,-21.412500381469727,-10.27500057220459
1751281733162236400,10.724236328125,-33.54375076293945,-21.787500381469727,-11.15625
1751281733172236300,10.734236328125,-33.46875,-22.106250762939453,-12.281250953674316
1751281733182236400,10.744236328125,-33.45000076293945,-22.368751525878906,-13.031250953674316
1751281733192236300,10.754236328125,-33.5625,-22.481250762939453,-13.800000190734863
1751281733202236400,10.764236328125,-33.5625,-22.668750762939453,-14.30625057220459
1751281733212236300,10.774236328125,-33.431251525878906,-22.5,-14.981250762939453
1751281733222236400,10.784236328125,-33.28125,-22.556251525878906,-15.318750381469727
1751281733232236300,10.794236328125,-33.375,-22.51875114440918,-15.693750381469727
1751281733242236400,10.804236328125,-33.13125228881836,-22.23750114440918,-15.918750762939453
1751281733252236300,10.814236328125,-33.28125,-22.275001525878906,-16.012500762939453
1751281733262236400,10.824236328125,-33.69375228881836,-22.200000762939453,-16.125
1751281733272236300,10.834236328125,-34.03125,-22.181251525878906,-16.256250381469727
1751281733282236400,10.844236328125,-34.087501525878906,-22.106250762939453,-16.33125114440918
1751281733292236300,10.854236328125,-34.181251525878906,-22.068750381469727,-15.956250190734863
1751281733302236400,10.864236328125,-34.10625076293945,-22.106250762939453,-15.731250762939453
1751281733312236300,10.874236328125,-34.25625228881836,-22.14375114440918,-15.450000762939453
1751281733322236400,10.884236328125,-34.53750228881836,-22.162500381469727,-15.037500381469727
1751281733332236300,10.894236328125,-34.33125305175781,-22.125,-14.437500953674316
1751281733342236400,10.904236328125,-34.14375305175781,-21.806251525878906,-13.668750762939453
1751281733352236300,10.914236328125,-34.125,-21.712501525878906,-12.881250381469727
1751281733362236400,10.924236328125,-34.20000076293945,-21.712501525878906,-12
1751281733372236300,10.934236328125,-33.91875076293945,-21.67500114440918,-11.100000381469727
1751281733382236400,10.944236328125,-33.9375,-21.431251525878906,-10.125
1751281733392236300,10.954236328125,-33.806251525878906,-20.943750381469727,-9.075000762939453
1751281733402236400,10.964236328125,-33.41250228881836,-20.943750381469727,-7.950000286102295
1751281733412236300,10.974236328125,-33.41250228881836,-20.681251525878906,-6.806250095367432
1751281733422236400,10.984236328125,-33.20625305175781,-20.400001525878906,-5.756250381469727
1751281733432236300,10.994236328125,-33.01875305175781,-19.856250762939453,-4.6875
1751281733442236400,11.004236328125,-32.83125305175781,-19.42500114440918,-3.750000238418579
1751281733452236300,11.014236328125,-32.85000228881836,-19.181251525878906,-2.8125
1751281733462236400,11.024236328125,-32.88750076293945,-18.787500381469727,-2.1187500953674316
1751281733472236300,11.034236328125,-33,-18.356250762939453,-1.5187500715255737
1751281733482236400,11.044236328125,-33.26250076293945,-17.887500762939453,-0.956250011920929
1751281733492236300,11.054236328125,-33.39375305175781,-17.55000114440918,-0.5250000357627869
1751281733502236400,11.064236328125,-33.525001525878906,-17.34375,-0.1875
1751281733512236300,11.074236328125,-33.39375305175781,-17.25,0.28125
1751281733522236400,11.084236328125,-33.48750305175781,-16.98750114440918,0.6000000238418579
1751281733532236300,11.094236328125,-33.46875,-16.818750381469727,0.75
1751281733542236400,11.104236328125,-33.375,-16.743751525878906,1.03125
1751281733552236300,11.114236328125,-33.28125,-16.837501525878906,1.2375000715255737
1751281733562236400,11.124236328125,-33.20625305175781,-16.80000114440918,1.1437500715255737
1751281733572236300,11.134236328125,-33.09375,-16.762500762939453,1.068750023841858
1751281733582236400,11.144236328125,-33.28125,-16.70625114440918,1.3312500715255737
1751281733592236300,11.154236328125,-33.54375076293945,-16.80000114440918,0.9375000596046448
1751281733602236400,11.164236328125,-33.54375076293945,-16.875,0.9187500476837158
1751281733612236300,11.174236328125,-33.712501525878906,-16.818750381469727,0.7125000357627869
1751281733622236400,11.184236328125,-33.84375,-16.818750381469727,0.581250011920929
1751281733632236300,11.194236328125,-33.900001525878906,-16.818750381469727,0.4125000238418579
1751281733642236400,11.204236328125,-34.01250076293945,-16.78125,0.26250001788139343
1751281733652236300,11.214236328125,-33.900001525878906,-16.89375114440918,0.05625000223517418
1751281733662236400,11.224236328125,-33.73125076293945,-17.118751525878906,-0.6000000238418579
1751281733672236300,11.234236328125,-33.73125076293945,-17.212501525878906,-0.8250000476837158
1751281733682236400,11.244236328125,-33.618751525878906,-17.325000762939453,-1.2000000476837158
1751281733692236300,11.254236328125,-33.63750076293945,-17.625,-1.9875000715255737
1751281733702236400,11.264236328125,-33.54375076293945,-17.943750381469727,-2.9437501430511475
1751281733712236300,11.274236328125,-33.28125,-18.506250381469727,-3.7125000953674316
1751281733722236400,11.284236328125,-33.20625305175781,-18.900001525878906,-4.481250286102295
1751281733732236300,11.294236328125,-33.28125,-19.3125,-5.400000095367432
1751281733742236400,11.304236328125,-33.28125,-19.725000381469727,-6.168750286102295
1751281733752236300,11.314236328125,-33.20625305175781,-20.0625,-6.956250190734863
1751281733762236400,11.324236328125,-33.45000076293945,-20.55000114440918,-7.837500095367432
1751281733772236300,11.334236328125,-33.22500228881836,-21.037500381469727,-8.40000057220459
1751281733782236400,11.344236328125,-33.50625228881836,-21.318750381469727,-8.8125
1751281733792236300,11.354236328125,-33.84375,-21.46875,-9.543750762939453
1751281733802236400,11.364236328125,-33.76875305175781,-21.900001525878906,-10.21875
1751281733812236300,11.374236328125,-33.69375228881836,-22.068750381469727,-10.856250762939453
1751281733822236400,11.384236328125,-33.65625,-22.256250381469727,-11.49375057220459
1751281733832236300,11.394236328125,-33.54375076293945,-22.40625,-11.96250057220459
1751281733842236400,11.404236328125,-33.50625228881836,-22.462501525878906,-12.468750953674316
1751281733852236300,11.414236328125,-33.78750228881836,-22.462501525878906,-13.031250953674316
1751281733862236400,11.424236328125,-33.67500305175781,-22.387500762939453,-13.65000057220459
1751281733872236300,11.434236328125,-33.431251525878906,-22.33125114440918,-13.912500381469727
1751281733882236400,11.444236328125,-33.45000076293945,-22.256250381469727,-14.156250953674316
1751281733892236300,11.454236328125,-33.375,-22.3125,-14.325000762939453
1751281733902236400,11.464236328125,-33.243751525878906,-22.162500381469727,-14.418750762939453
1751281733912236300,11.474236328125,-33.375,-22.23750114440918,-14.643750190734863
1751281733922236400,11.484236328125,-33.243751525878906,-22.256250381469727,-14.925000190734863
1751281733932236300,11.494236328125,-33.11250305175781,-22.05000114440918,-14.793750762939453
1751281733942236400,11.504236328125,-32.92500305175781,-22.21875,-14.68125057220459
1751281733952236300,11.514236328125,-32.962501525878906,-22.181251525878906,-14.456250190734863
1751281733962236400,11.524236328125,-33.056251525878906,-22.33125114440918,-14.231250762939453
1751281733972236300,11.534236328125,-33.20625305175781,-22.162500381469727,-13.93125057220459
1751281733982236400,11.544236328125,-33.375,-22.125,-13.725000381469727
1751281733992236300,11.554236328125,-33.31875228881836,-21.918750762939453,-13.36875057220459
1751281734002236400,11.564236328125,-33.60000228881836,-21.712501525878906,-12.61875057220459
1751281734012236300,11.574236328125,-33.525001525878906,-21.806251525878906,-11.71875
1751281734022236400,11.584236328125,-33.337501525878906,-21.637500762939453,-11.006250381469727
1751281734032236300,11.594236328125,-33.525001525878906,-21.65625,-10.443750381469727
1751281734042236400,11.604236328125,-33.45000076293945,-21.337501525878906,-9.65625
1751281734052236300,11.614236328125,-33.45000076293945,-21.168750762939453,-8.756250381469727
1751281734062236400,11.624236328125,-33.375,-20.90625,-7.650000095367432
1751281734072236300,11.634236328125,-33.46875,-20.662500381469727,-6.806250095367432
1751281734082236400,11.644236328125,-33.056251525878906,-20.287500381469727,-5.981250286102295
1751281734092236300,11.654236328125,-33.01875305175781,-19.875,-5.34375
1751281734102236400,11.664236328125,-33.16875076293945,-19.40625,-4.612500190734863
1751281734112236300,11.674236328125,-33.056251525878906,-18.86250114440918,-3.7875001430511475
1751281734122236400,11.684236328125,-33.056251525878906,-18.262500762939453,-3.0375001430511475
1751281734132236300,11.694236328125,-33.150001525878906,-17.775001525878906,-2.2125000953674316
1751281734142236400,11.704236328125,-33.11250305175781,-17.64375114440918,-1.8000000715255737
1751281734152236300,11.714236328125,-33.13125228881836,-17.26875114440918,-0.9937500357627869
1751281734162236400,11.724236328125,-33.20625305175781,-17.0625,-0.20625001192092896
1751281734172236300,11.734236328125,-33.39375305175781,-16.5,0.16875000298023224
1751281734182236400,11.744236328125,-33.431251525878906,-16.21875,0.6375000476837158
1751281734192236300,11.754236328125,-33.46875,-15.937500953674316,1.2000000476837158
1751281734202236400,11.764236328125,-33.45000076293945,-15.881250381469727,1.4812500476837158
1751281734212236300,11.774236328125,-33.375,-15.562500953674316,1.5937501192092896
1751281734222236400,11.784236328125,-33.63750076293945,-15.262500762939453,1.9312500953674316
1751281734232236300,11.794236328125,-33.54375076293945,-15.187500953674316,2.0062501430511475
1751281734242236400,11.804236328125,-33.5625,-14.981250762939453,1.7437500953674316
1751281734252236300,11.814236328125,-33.525001525878906,-15.131250381469727,1.725000023841858
1751281734262236400,11.824236328125,-33.88125228881836,-15.15000057220459,1.6875001192092896
1751281734272236300,11.834236328125,-33.9375,-15.356250762939453,1.256250023841858
1751281734282236400,11.844236328125,-34.16250228881836,-15.450000762939453,1.162500023841858
1751281734292236300,11.854236328125,-34.33125305175781,-15.80625057220459,1.03125
1751281734302236400,11.864236328125,-34.087501525878906,-15.99375057220459,0.7312500476837158
1751281734312236300,11.874236328125,-34.087501525878906,-16.200000762939453,0.5625
1751281734322236400,11.884236328125,-34.40625,-16.537500381469727,0.01875000074505806
1751281734332236300,11.894236328125,-34.48125076293945,-16.950000762939453,-0.375
1751281734342236400,11.904236328125,-34.38750076293945,-17.400001525878906,-0.8250000476837158
1751281734352236300,11.914236328125,-34.06875228881836,-17.53125,-1.162500023841858
1751281734362236400,11.924236328125,-33.84375,-17.868751525878906,-1.8750001192092896
1751281734372236300,11.934236328125,-33.75,-18.243751525878906,-2.6625001430511475
1751281734382236400,11.944236328125,-33.69375228881836,-18.65625,-3.3000001907348633
1751281734392236300,11.954236328125,-33.65625,-19.106250762939453,-4.03125
1751281734402236400,11.964236328125,-33.50625228881836,-19.51875114440918,-4.556250095367432
1751281734412236300,11.974236328125,-33.431251525878906,-19.725000381469727,-5.137500286102295
1751281734422236400,11.984236328125,-33.28125,-20.137500762939453,-5.8125
1751281734432236300,11.994236328125,-33.41250228881836,-20.756250381469727,-6.543750286102295
1751281734442236400,12.004236328125,-33.54375076293945,-21.11250114440918,-7.143750190734863
1751281734452236300,12.014236328125,-33.41250228881836,-21.412500381469727,-8.268750190734863
1751281734462236400,12.024236328125,-33.54375076293945,-21.693750381469727,-9.018750190734863
1751281734472236300,12.034236328125,-33.46875,-21.9375,-9.99375057220459
1751281734482236400,12.044236328125,-33.39375305175781,-22.162500381469727,-10.83750057220459
1751281734492236300,12.054236328125,-33.30000305175781,-22.481250762939453,-11.737500190734863
1751281734502236400,12.064236328125,-33.16875076293945,-22.725000381469727,-12.787500381469727
1751281734512236300,12.074236328125,-33.243751525878906,-22.89375114440918,-14.02500057220459
1751281734522236400,12.084236328125,-33,-23.15625,-15.093750953674316
1751281734532236300,12.094236328125,-33.1875,-23.193750381469727,-15.600000381469727
1751281734542236400,12.104236328125,-33.150001525878906,-23.118751525878906,-16.443750381469727
1751281734552236300,12.114236328125,-33,-23.137500762939453,-17.025001525878906
1751281734562236400,12.124236328125,-32.681251525878906,-23.325000762939453,-17.64375114440918
1751281734572236300,12.134236328125,-32.73750305175781,-23.26875114440918,-18.48750114440918
1751281734582236400,12.144236328125,-32.83125305175781,-23.193750381469727,-18.75
1751281734592236300,12.154236328125,-32.83125305175781,-23.17500114440918,-19.05000114440918
1751281734602236400,12.164236328125,-33.056251525878906,-23.100000381469727,-19.33125114440918
1751281734612236300,12.174236328125,-32.90625,-23.118751525878906,-19.387500762939453
1751281734622236400,12.184236328125,-32.90625,-23.306251525878906,-19.293750762939453
1751281734632236300,12.194236328125,-32.90625,-23.381250381469727,-19.33125114440918
1751281734642236400,12.204236328125,-33.243751525878906,-23.15625,-19.125
1751281734652236300,12.214236328125,-33.26250076293945,-23.15625,-18.618751525878906
1751281734662236400,12.224236328125,-33.16875076293945,-23.100000381469727,-18.412500381469727
1751281734672236300,12.234236328125,-33.1875,-22.856250762939453,-17.71875
1751281734682236400,12.244236328125,-33.03750228881836,-22.875,-17.025001525878906
1751281734692236300,12.254236328125,-33.03750228881836,-22.875,-16.368751525878906
1751281734702236400,12.264236328125,-33.30000305175781,-22.51875114440918,-15.600000381469727
1751281734712236300,12.274236328125,-33.45000076293945,-22.42500114440918,-14.793750762939453
1751281734722236400,12.284236328125,-33.431251525878906,-22.275001525878906,-13.950000762939453
1751281734732236300,12.294236328125,-33.26250076293945,-22.14375114440918,-12.750000953674316
1751281734742236400,12.304236328125,-33.16875076293945,-21.86250114440918,-11.568750381469727
1751281734752236300,12.314236328125,-32.98125076293945,-21.712501525878906,-10.481250762939453
1751281734762236400,12.324236328125,-33.22500228881836,-21.28125,-9.318750381469727
1751281734772236300,12.334236328125,-33.26250076293945,-21.056251525878906,-8.287500381469727
1751281734782236400,12.344236328125,-32.962501525878906,-20.83125114440918,-7.387500286102295
1751281734792236300,12.354236328125,-33.03750228881836,-20.36250114440918,-6.262500286102295
1751281734802236400,12.364236328125,-33.056251525878906,-19.98750114440918,-5.287500381469727
1751281734812236300,12.374236328125,-33.11250305175781,-19.6875,-4.631250381469727
1751281734822236400,12.384236328125,-33.20625305175781,-19.387500762939453,-3.7875001430511475
1751281734832236300,12.394236328125,-33.26250076293945,-19.068750381469727,-3.1125001907348633
1751281734842236400,12.404236328125,-33.13125228881836,-18.731250762939453,-2.3625001907348633
1751281734852236300,12.414236328125,-33.375,-18.262500762939453,-1.6687500476837158
1751281734862236400,12.424236328125,-33.35625076293945,-18.09375,-1.125
1751281734872236300,12.434236328125,-33.41250228881836,-17.943750381469727,-0.8250000476837158
1751281734882236400,12.444236328125,-33.35625076293945,-17.681251525878906,-0.39375001192092896
1751281734892236300,12.454236328125,-33.35625076293945,-17.36250114440918,-0.09375
1751281734902236400,12.464236328125,-33.35625076293945,-17.118751525878906,0.26250001788139343
1751281734912236300,12.474236328125,-33.46875,-16.818750381469727,0.65625
1751281734922236400,12.484236328125,-33.375,-16.725000381469727,0.65625
1751281734932236300,12.494236328125,-32.98125076293945,-16.575000762939453,0.675000011920929
1751281734942236400,12.504236328125,-32.98125076293945,-16.40625,0.5062500238418579
1751281734952236300,12.514236328125,-32.88750076293945,-16.368751525878906,0.6187500357627869
1751281734962236400,12.524236328125,-32.775001525878906,-16.42500114440918,0.581250011920929
1751281734972236300,12.534236328125,-32.98125076293945,-16.59375,0.6375000476837158
1751281734982236400,12.544236328125,-33.11250305175781,-16.837501525878906,0.16875000298023224
1751281734992236300,12.554236328125,-33.150001525878906,-17.0625,-0.16875000298023224
1751281735002236400,12.564236328125,-33.20625305175781,-17.006250381469727,-0.375
1751281735012236300,12.574236328125,-33.525001525878906,-17.17500114440918,-0.581250011920929
1751281735022236400,12.584236328125,-33.67500305175781,-17.475000381469727,-0.8437500596046448
1751281735032236300,12.594236328125,-33.30000305175781,-17.64375114440918,-1.3125
1751281735042236400,12.604236328125,-33.618751525878906,-17.793750762939453,-1.7812501192092896
1751281735052236300,12.614236328125,-33.431251525878906,-18.056251525878906,-2.34375
1751281735062236400,12.624236328125,-33.375,-18.262500762939453,-2.7750000953674316
1751281735072236300,12.634236328125,-33.50625228881836,-18.450000762939453,-3.5250000953674316
1751281735082236400,12.644236328125,-33.63750076293945,-18.975000381469727,-4.481250286102295
1751281735092236300,12.654236328125,-33.375,-19.51875114440918,-5.34375
1751281735102236400,12.664236328125,-33.35625076293945,-19.78125,-6.187500476837158
1751281735112236300,12.674236328125,-33.54375076293945,-20.193750381469727,-7.087500095367432
1751281735122236400,12.684236328125,-33.20625305175781,-20.662500381469727,-8.043750762939453
1751281735132236300,12.694236328125,-33.1875,-21.168750762939453,-9.356250762939453
1751281735142236400,12.704236328125,-33,-21.450000762939453,-10.350000381469727
1751281735152236300,12.714236328125,-32.90625,-21.787500381469727,-11.268750190734863
1751281735162236400,12.724236328125,-32.56875228881836,-22.03125,-12
1751281735172236300,12.734236328125,-32.681251525878906,-22.275001525878906,-13.27500057220459
1751281735182236400,12.744236328125,-32.66250228881836,-22.631250381469727,-14.043750762939453
1751281735192236300,12.754236328125,-32.66250228881836,-22.89375114440918,-14.850000381469727
1751281735202236400,12.764236328125,-32.98125076293945,-23.0625,-15.80625057220459
1751281735212236300,12.774236328125,-32.90625,-23.17500114440918,-16.387500762939453
1751281735222236400,12.784236328125,-33.01875305175781,-23.306251525878906,-17.26875114440918
1751281735232236300,12.794236328125,-32.98125076293945,-23.700000762939453,-18.01875114440918
1751281735242236400,12.804236328125,-33.150001525878906,-23.8125,-18.39375114440918
1751281735252236300,12.814236328125,-33.20625305175781,-23.850000381469727,-18.58125114440918
1751281735262236400,12.824236328125,-33.1875,-23.73750114440918,-18.95625114440918
1751281735272236300,12.834236328125,-33.1875,-23.775001525878906,-19.23750114440918
1751281735282236400,12.844236328125,-32.90625,-23.64375114440918,-19.106250762939453
1751281735292236300,12.854236328125,-33.20625305175781,-23.55000114440918,-19.106250762939453
1751281735302236400,12.864236328125,-33.11250305175781,-23.4375,-18.84375
1751281735312236300,12.874236328125,-32.94375228881836,-23.193750381469727,-18.618751525878906
1751281735322236400,12.884236328125,-33,-23.100000381469727,-18.48750114440918
1751281735332236300,12.894236328125,-32.70000076293945,-22.856250762939453,-18.356250762939453
1751281735342236400,12.904236328125,-32.55000305175781,-22.912500381469727,-18.168750762939453
1751281735352236300,12.914236328125,-32.66250228881836,-22.98750114440918,-17.887500762939453
1751281735362236400,12.924236328125,-32.625,-23.08125114440918,-17.681251525878906
1751281735372236300,12.934236328125,-32.493751525878906,-22.856250762939453,-17.15625
1751281735382236400,12.944236328125,-32.64375305175781,-22.837501525878906,-16.70625114440918
1751281735392236300,12.954236328125,-32.88750076293945,-22.837501525878906,-16.368751525878906
1751281735402236400,12.964236328125,-32.962501525878906,-22.70625114440918,-15.862500190734863
1751281735412236300,12.974236328125,-33.20625305175781,-22.575000762939453,-15.037500381469727
1751281735422236400,12.984236328125,-33.22500228881836,-22.51875114440918,-14.362500190734863
1751281735432236300,12.994236328125,-33.39375305175781,-22.125,-13.55625057220459
1751281735442236400,13.004236328125,-33.431251525878906,-22.03125,-12.637500762939453
1751281735452236300,13.014236328125,-33.22500228881836,-21.86250114440918,-11.68125057220459
1751281735462236400,13.024236328125,-33.03750228881836,-21.65625,-10.631250381469727
1751281735472236300,13.034236328125,-32.681251525878906,-21.30000114440918,-9.450000762939453
1751281735482236400,13.044236328125,-32.75625228881836,-21.20625114440918,-8.606250762939453
1751281735492236300,13.054236328125,-32.8125,-20.92500114440918,-7.593750476837158
1751281735502236400,13.064236328125,-32.962501525878906,-20.53125,-6.543750286102295
1751281735512236300,13.074236328125,-32.73750305175781,-20.400001525878906,-5.493750095367432
1751281735522236400,13.084236328125,-32.8125,-20.100000381469727,-4.59375
1751281735532236300,13.094236328125,-33.13125228881836,-19.875,-3.8812501430511475
1751281735542236400,13.104236328125,-33.431251525878906,-19.462501525878906,-3.1500000953674316
1751281735552236300,13.114236328125,-33.67500305175781,-19.181251525878906,-2.34375
1751281735562236400,13.124236328125,-33.5625,-18.900001525878906,-1.537500023841858
1751281735572236300,13.134236328125,-33.63750076293945,-18.806251525878906,-0.7875000238418579
1751281735582236400,13.144236328125,-33.525001525878906,-18.412500381469727,-0.1875
1751281735592236300,13.154236328125,-33.5625,-18.056251525878906,0.11250000447034836
1751281735602236400,13.164236328125,-33.58125305175781,-17.64375114440918,0.1875
1751281735612236300,13.174236328125,-33.41250228881836,-17.493751525878906,0.5250000357627869
1751281735622236400,13.184236328125,-33.243751525878906,-17.26875114440918,0.6937500238418579
1751281735632236300,13.194236328125,-33.337501525878906,-17.306251525878906,0.65625
1751281735642236400,13.204236328125,-33.1875,-16.931251525878906,0.8812500238418579
1751281735652236300,13.214236328125,-33.056251525878906,-16.725000381469727,0.7312500476837158
1751281735662236400,13.224236328125,-33.31875228881836,-16.481250762939453,0.9375000596046448
1751281735672236300,13.234236328125,-33.1875,-16.481250762939453,0.862500011920929
1751281735682236400,13.244236328125,-33.16875076293945,-16.462501525878906,0.8812500238418579
1751281735692236300,13.254236328125,-33.375,-16.200000762939453,0.4687500298023224
1751281735702236400,13.264236328125,-33.35625076293945,-16.462501525878906,0.1875
1751281735712236300,13.274236328125,-33.35625076293945,-16.3125,0.07500000298023224
1751281735722236400,13.284236328125,-33.618751525878906,-16.51875114440918,-0.4312500059604645
1751281735732236300,13.294236328125,-33.65625,-16.912500381469727,-0.9375000596046448
1751281735742236400,13.304236328125,-33.39375305175781,-17.625,-1.6500000953674316
1751281735752236300,13.314236328125,-33.60000228881836,-17.90625,-2.1187500953674316
1751281735762236400,13.324236328125,-33.54375076293945,-18.262500762939453,-2.793750047683716
1751281735772236300,13.334236328125,-33.48750305175781,-18.86250114440918,-3.281250238418579
1751281735782236400,13.344236328125,-33.73125076293945,-19.23750114440918,-4.087500095367432
1751281735792236300,13.354236328125,-33.712501525878906,-19.6875,-5.0625
1751281735802236400,13.364236328125,-33.45000076293945,-20.0625,-6.056250095367432
1751281735812236300,13.374236328125,-33.5625,-20.34375,-6.881250381469727
1751281735822236400,13.384236328125,-33.54375076293945,-20.587501525878906,-7.875000476837158
1751281735832236300,13.394236328125,-33.54375076293945,-20.83125114440918,-8.737500190734863
1751281735842236400,13.404236328125,-33.618751525878906,-21.1875,-9.600000381469727
1751281735852236300,13.414236328125,-33.73125076293945,-21.262500762939453,-10.612500190734863
1751281735862236400,13.424236328125,-33.58125305175781,-21.58125114440918,-11.512500762939453
1751281735872236300,13.434236328125,-33.5625,-21.76875114440918,-12.318750381469727
1751281735882236400,13.444236328125,-33.63750076293945,-21.95625114440918,-13.162500381469727
1751281735892236300,13.454236328125,-33.525001525878906,-22.21875,-13.781250953674316
1751281735902236400,13.464236328125,-33.50625228881836,-22.387500762939453,-14.437500953674316
1751281735912236300,13.474236328125,-33.58125305175781,-22.40625,-15.225000381469727
1751281735922236400,13.484236328125,-33.431251525878906,-22.537500381469727,-15.731250762939453
1751281735932236300,13.494236328125,-33.41250228881836,-22.856250762939453,-16.200000762939453
1751281735942236400,13.504236328125,-33.525001525878906,-22.818750381469727,-16.631250381469727
1751281735952236300,13.514236328125,-33.337501525878906,-22.912500381469727,-17.006250381469727
1751281735962236400,13.524236328125,-33.46875,-23.043750762939453,-17.137500762939453
1751281735972236300,13.534236328125,-33.65625,-22.89375114440918,-17.381250381469727
1751281735982236400,13.544236328125,-33.82500076293945,-22.875,-17.64375114440918
1751281735992236300,13.554236328125,-33.58125305175781,-23.100000381469727,-17.512500762939453
1751281736002236400,13.564236328125,-33.806251525878906,-23.17500114440918,-17.53125
1751281736012236300,13.574236328125,-33.60000228881836,-23.08125114440918,-17.325000762939453
1751281736022236400,13.584236328125,-33.41250228881836,-23.006250381469727,-16.743751525878906
1751281736032236300,13.594236328125,-33.50625228881836,-23.043750762939453,-16.575000762939453
1751281736042236400,13.604236328125,-33.1875,-23.0625,-15.956250190734863
1751281736052236300,13.614236328125,-32.868751525878906,-23.118751525878906,-15.52500057220459
1751281736062236400,13.624236328125,-32.53125,-23.0625,-14.68125057220459
1751281736072236300,13.634236328125,-32.55000305175781,-22.950000762939453,-13.856250762939453
1751281736082236400,13.644236328125,-32.32500076293945,-22.743751525878906,-12.825000762939453
1751281736092236300,13.654236328125,-32.23125076293945,-22.575000762939453,-11.737500190734863
1751281736102236400,13.664236328125,-32.28750228881836,-22.387500762939453,-10.74375057220459
1751281736112236300,13.674236328125,-32.19375228881836,-22.21875,-9.225000381469727
1751281736122236400,13.684236328125,-32.34375,-21.76875114440918,-8.100000381469727
1751281736132236300,13.694236328125,-32.625,-21.48750114440918,-6.843750476837158
1751281736142236400,13.704236328125,-32.868751525878906,-21.075000762939453,-5.8125
1751281736152236300,13.714236328125,-33.11250305175781,-20.625,-4.650000095367432
1751281736162236400,13.724236328125,-33.09375,-20.25,-3.6750001907348633
1751281736172236300,13.734236328125,-33,-19.837501525878906,-2.606250047683716
1751281736182236400,13.744236328125,-32.8125,-19.650001525878906,-1.7812501192092896
1751281736192236300,13.754236328125,-33.03750228881836,-19.106250762939453,-0.9000000357627869
1751281736202236400,13.764236328125,-32.92500305175781,-18.58125114440918,-0.05625000223517418
1751281736212236300,13.774236328125,-32.587501525878906,-17.943750381469727,0.8062500357627869
1751281736222236400,13.784236328125,-32.75625228881836,-17.418750762939453,1.6875001192092896
1751281736232236300,13.794236328125,-32.56875228881836,-17.118751525878906,2.1937501430511475
1751281736242236400,13.804236328125,-32.90625,-16.6875,2.8125
1751281736252236300,13.814236328125,-32.962501525878906,-16.162500381469727,3.1125001907348633
1751281736262236400,13.824236328125,-33.150001525878906,-15.731250762939453,3.4125001430511475
1751281736272236300,13.834236328125,-33.375,-15.450000762939453,3.5062501430511475
1751281736282236400,13.844236328125,-33.45000076293945,-15.43125057220459,3.4312500953674316
1751281736292236300,13.854236328125,-33.993751525878906,-15.262500762939453,3.3000001907348633
1751281736302236400,13.864236328125,-33.900001525878906,-15.168750762939453,3.2062501907348633
1751281736312236300,13.874236328125,-33.993751525878906,-15.018750190734863,3.075000047683716
1751281736322236400,13.884236328125,-33.806251525878906,-14.943750381469727,2.8687500953674316
1751281736332236300,13.894236328125,-33.86250305175781,-15.018750190734863,2.5875000953674316
