time,seconds_elapsed,z,y,x
1751281722577183000,0.139182861328125,9.836296081542969,-0.29371899366378784,1.0564311742782593
1751281722605423000,0.167423095703125,9.836296081542969,-0.28893333673477173,1.089930772781372
1751281722633663200,0.195663330078125,9.841081619262695,-0.26979073882102966,1.085145115852356
1751281722652490000,0.214489990234375,9.802796363830566,-0.2745763957500458,1.0707881450653076
1751281722671317000,0.23331689453125,9.8267240524292,-0.26979073882102966,1.0516455173492432
1751281722690143700,0.252143798828125,9.831509590148926,-0.26979073882102966,1.0612168312072754
1751281722708970500,0.270970458984375,9.802796363830566,-0.2793620526790619,1.046859860420227
1751281722727797200,0.28979736328125,9.81236743927002,-0.2745763957500458,1.0564311742782593
1751281722746624000,0.3086240234375,9.8267240524292,-0.2841476798057556,1.0755738019943237
1751281722765450800,0.32745068359375,9.807581901550293,-0.2841476798057556,1.0660024881362915
1751281722784277500,0.346277587890625,9.8267240524292,-0.2841476798057556,1.0564311742782593
1751281722803104500,0.3651044921875,9.8267240524292,-0.28893333673477173,1.046859860420227
1751281722821931300,0.38393115234375,9.821938514709473,-0.2793620526790619,1.0707881450653076
1751281722840758000,0.402758056640625,9.8267240524292,-0.2745763957500458,1.0803594589233398
1751281722859584800,0.421584716796875,9.836296081542969,-0.26500511169433594,1.0755738019943237
1751281722878411500,0.44041162109375,9.817152976989746,-0.2554338276386261,1.0707881450653076
1751281722897238300,0.45923828125,9.807581901550293,-0.2554338276386261,1.0612168312072754
1751281722916065000,0.47806494140625,9.836296081542969,-0.2602194547653198,1.0803594589233398
1751281722934892000,0.49689208984375,9.807581901550293,-0.2745763957500458,1.0612168312072754
1751281722953718800,0.51571875,9.8267240524292,-0.28893333673477173,1.0564311742782593
1751281722972545500,0.534545654296875,9.821938514709473,-0.2841476798057556,1.0755738019943237
1751281722991372300,0.553372314453125,9.817152976989746,-0.2745763957500458,1.0564311742782593
1751281723010199000,0.572198974609375,9.8267240524292,-0.2745763957500458,1.0564311742782593
1751281723029026000,0.591026123046875,9.841081619262695,-0.26500511169433594,1.046859860420227
1751281723047852800,0.609852783203125,9.754940032958984,-0.2602194547653198,1.01814603805542
1751281723066679600,0.628679443359375,9.769296646118164,-0.2315055876970291,1.085145115852356
1751281723085506300,0.64750634765625,9.984650611877441,-0.32243284583091736,1.0277173519134521
1751281723104333000,0.6663330078125,9.93679428100586,-0.3367897868156433,1.1186445951461792
1751281723123160000,0.68516015625,9.817152976989746,-0.31764721870422363,1.1425727605819702
1751281723141986800,0.70398681640625,9.783653259277344,-0.2602194547653198,1.0277173519134521
1751281723160813600,0.7228134765625,9.711869239807129,-0.21714866161346436,1.0277173519134521
1751281723179640300,0.741640380859375,9.869794845581055,-0.2745763957500458,1.0516455173492432
1751281723198467000,0.760467041015625,9.869794845581055,-0.3080759048461914,1.0755738019943237
1751281723217293800,0.7792939453125,9.8267240524292,-0.2793620526790619,1.085145115852356
1751281723236120800,0.798120849609375,9.836296081542969,-0.25064817070961,1.0660024881362915
1751281723254947600,0.816947509765625,9.802796363830566,-0.26500511169433594,1.046859860420227
1751281723273774300,0.8357744140625,9.821938514709473,-0.3032902777194977,1.042074203491211
1751281723292601000,0.85460107421875,9.855438232421875,-0.29371899366378784,1.0707881450653076
1751281723311427800,0.873427734375,9.81236743927002,-0.2554338276386261,1.0660024881362915
1751281723330254800,0.8922548828125,9.8267240524292,-0.26979073882102966,1.046859860420227
1751281723349081600,0.91108154296875,9.836296081542969,-0.2745763957500458,1.0612168312072754
1751281723367908400,0.929908447265625,9.831509590148926,-0.29371899366378784,1.0707881450653076
1751281723386735000,0.948735107421875,9.817152976989746,-0.26979073882102966,1.0660024881362915
1751281723405561900,0.967561767578125,9.831509590148926,-0.2745763957500458,1.0755738019943237
1751281723424388900,0.986388916015625,9.817152976989746,-0.2602194547653198,1.0612168312072754
1751281723443215600,1.005215576171875,9.750154495239258,-0.2745763957500458,1.0564311742782593
1751281723462042400,1.02404248046875,9.77408218383789,-0.23629122972488403,1.0755738019943237
1751281723480869000,1.042869140625,9.927223205566406,-0.29371899366378784,1.01814603805542
1751281723499695900,1.06169580078125,9.88415241241455,-0.34636107087135315,1.089930772781372
1751281723518523000,1.08052294921875,9.946365356445312,-0.35114672780036926,1.0707881450653076
1751281723537349600,1.099349609375,9.836296081542969,-0.2841476798057556,1.042074203491211
1751281723556176400,1.11817626953125,9.726225852966309,-0.21714866161346436,1.0325030088424683
1751281723575003100,1.137003173828125,9.68794059753418,-0.21714866161346436,1.0325030088424683
1751281723593830100,1.155830078125,9.88415241241455,-0.2841476798057556,1.0325030088424683
1751281723612657000,1.174656982421875,9.874580383300781,-0.3415754437446594,1.089930772781372
1751281723631483600,1.193483642578125,9.88415241241455,-0.3320041298866272,1.0660024881362915
1751281723650310400,1.212310302734375,9.888937950134277,-0.3128615617752075,1.0564311742782593
1751281723669137200,1.23113720703125,9.70229721069336,-0.2841476798057556,1.1042876243591309
1751281723687964200,1.249964111328125,9.89850902557373,-0.29371899366378784,1.046859860420227
1751281723706791000,1.268791015625,9.78843879699707,-0.2841476798057556,1.0707881450653076
1751281723725617700,1.28761767578125,9.850652694702148,-0.32243284583091736,1.0707881450653076
1751281723744444400,1.3064443359375,9.81236743927002,-0.32243284583091736,1.0755738019943237
1751281723763271200,1.325271240234375,9.78843879699707,-0.28893333673477173,1.0660024881362915
1751281723782098200,1.34409814453125,9.8267240524292,-0.26979073882102966,1.0516455173492432
1751281723800925000,1.362925048828125,9.793225288391113,-0.3080759048461914,1.0707881450653076
1751281723819751700,1.381751708984375,9.874580383300781,-0.3415754437446594,1.0803594589233398
1751281723838578400,1.400578369140625,9.8267240524292,-0.3320041298866272,1.0755738019943237
1751281723857405400,1.419405517578125,9.860223770141602,-0.3032902777194977,1.022931694984436
1751281723876232200,1.438232177734375,9.79801082611084,-0.31764721870422363,1.0564311742782593
1751281723895059000,1.457058837890625,9.769296646118164,-0.32721850275993347,1.0516455173492432
1751281723913885700,1.4758857421875,9.860223770141602,-0.355932354927063,1.0660024881362915
1751281723932712700,1.494712646484375,9.903294563293457,-0.355932354927063,0.9846464991569519
1751281723951539500,1.51353955078125,9.89850902557373,-0.22193430364131927,0.7884350419044495
1751281723970366200,1.5323662109375,10.109077453613281,0.050847481936216354,0.2715853750705719
1751281723989193000,1.55119287109375,10.156933784484863,-0.11665010452270508,0.28594231605529785
1751281724008019700,1.570019775390625,9.831509590148926,-0.8823533654212952,1.01814603805542
1751281724026846700,1.5888466796875,9.659226417541504,-0.6287141442298889,1.6019947528839111
1751281724045673500,1.607673583984375,9.142376899719238,0.03170489892363548,1.812563180923462
1751281724064500200,1.626500244140625,10.348360061645508,-0.4325026869773865,1.4249259233474731
1751281724083327000,1.645326904296875,9.448657989501953,-0.7100701332092285,1.8556339740753174
1751281724102154000,1.664154052734375,10.166504859924316,-0.35114672780036926,0.9128618240356445
1751281724120980700,1.682980712890625,9.941579818725586,-0.3415754437446594,1.0564311742782593
1751281724139807500,1.701807373046875,9.558728218078613,-0.13100704550743103,1.022931694984436
1751281724158634200,1.72063427734375,9.841081619262695,-0.1788634955883026,1.0085747241973877
1751281724177461200,1.739461181640625,9.745368003845215,-0.3128615617752075,1.1473584175109863
1751281724196288000,1.7582880859375,10.003793716430664,-0.37028929591178894,1.0707881450653076
1751281724215114800,1.77711474609375,9.807581901550293,-0.29371899366378784,1.1282159090042114
1751281724233941500,1.79594140625,9.692726135253906,-0.34636107087135315,1.2717852592468262
1751281724252768300,1.814768310546875,9.927223205566406,-0.35114672780036926,1.2239288091659546
1751281724271595300,1.83359521484375,9.793225288391113,-0.7148557901382446,1.92741858959198
1751281724290422000,1.852422119140625,9.960722923278809,-0.8392825126647949,1.6498512029647827
1751281724309248800,1.871248779296875,9.496515274047852,0.07956135272979736,0.5395814776420593
1751281724328075500,1.890075439453125,9.707083702087402,0.44805604219436646,-0.21655045449733734
1751281724346902500,1.908902587890625,10.180862426757812,0.7399803996086121,-0.6376872062683105
1751281724365729300,1.927729248046875,9.831509590148926,-0.4707878530025482,1.5206388235092163
1751281724384556000,1.94655615234375,9.860223770141602,-0.786640465259552,1.7072789669036865
1751281724403382800,1.9653828125,9.91286563873291,-0.15972091257572174,0.9655039310455322
1751281724422209800,1.984209716796875,9.750154495239258,-0.2267199456691742,1.1904292106628418
1751281724441036500,2.00303662109375,9.860223770141602,-0.2841476798057556,0.989432156085968
1751281724459863300,2.02186328125,9.726225852966309,-0.25064817070961,1.109073281288147
1751281724478690000,2.04068994140625,9.783653259277344,-0.11665010452270508,0.8841479420661926
1751281724497517000,2.05951708984375,9.8267240524292,-0.11665010452270508,0.7740781307220459
1751281724516343800,2.07834375,10.113862991333008,-0.2267199456691742,0.5970092415809631
1751281724535170600,2.097170654296875,10.013364791870117,-0.1740778535604477,0.49172505736351013
1751281724553997300,2.115997314453125,9.893723487854004,-0.18843477964401245,0.5252245664596558
1751281724572824300,2.13482421875,9.932008743286133,0.12263216078281403,0.1950150430202484
1751281724591651000,2.153651123046875,10.166504859924316,-0.11665010452270508,0.21415762603282928
1751281724610477800,2.172477783203125,9.869794845581055,-0.6765705943107605,0.8889335989952087
1751281724629304600,2.1913046875,9.778867721557617,-0.8488538265228271,1.2765709161758423
1751281724648131600,2.210131591796875,9.740582466125488,-0.5569294691085815,1.2813565731048584
1751281724666958300,2.228958251953125,9.721440315246582,-0.4612165689468384,1.4584254026412964
1751281724685785000,2.24778515625,9.745368003845215,-0.5665007829666138,1.7120646238327026
1751281724704611800,2.26661181640625,9.64965534210205,-0.494716078042984,2.042274236679077
1751281724723438800,2.28543896484375,9.534799575805664,-0.34636107087135315,2.0039889812469482
1751281724742265600,2.304265625,9.448657989501953,-0.666999340057373,2.3820550441741943
1751281724761092400,2.32309228515625,9.908080101013184,-0.42771705985069275,1.439282774925232
1751281724779919000,2.341919189453125,9.975079536437988,-0.6526423692703247,1.6929219961166382
1751281724798746000,2.36074609375,9.597013473510742,-0.8344969153404236,2.310270309448242
1751281724817572900,2.37957275390625,9.544371604919434,-0.8057830333709717,2.372483730316162
1751281724836399600,2.398399658203125,9.625727653503418,-0.786640465259552,2.348555326461792
1751281724855226400,2.417226318359375,9.716654777526855,-0.6239284873008728,1.8939191102981567
1751281724874053400,2.436053466796875,9.711869239807129,-0.542572557926178,1.3866406679153442
1751281724892880100,2.454880126953125,9.903294563293457,-0.7914260625839233,1.113858938217163
1751281724911707000,2.473706787109375,9.750154495239258,-1.2460623979568481,1.3962119817733765
1751281724930533600,2.49253369140625,9.92243766784668,-0.8584251403808594,1.7599210739135742
1751281724949360600,2.511360595703125,9.625727653503418,-0.2745763957500458,1.3244273662567139
1751281724968187400,2.5301875,9.678369522094727,-0.3128615617752075,0.7597211599349976
1751281724987014100,2.54901416015625,9.77408218383789,-0.6143572330474854,0.6735795736312866
1751281725005841000,2.5678408203125,10.530214309692383,-0.1788634955883026,0.28594231605529785
1751281725024668000,2.58666796875,9.81236743927002,0.10348957777023315,-0.08733802288770676
1751281725043494700,2.60549462890625,9.869794845581055,-0.08793623000383377,-0.34576287865638733
1751281725062321400,2.6243212890625,9.893723487854004,-0.35114672780036926,-0.35054850578308105
1751281725081148200,2.643148193359375,10.04686450958252,-0.0975075215101242,0.0323031060397625
1751281725099975200,2.66197509765625,9.807581901550293,-0.01136590726673603,0.11844471842050552
1751281725118802000,2.680802001953125,10.113862991333008,0.19920247793197632,-0.6424728631973267
1751281725137628700,2.699628662109375,10.491929054260254,-0.05922235921025276,-0.2356930375099182
1751281725156455700,2.71845556640625,9.252447128295898,0.13698910176753998,0.2763710021972656
1751281725175282400,2.737282470703125,10.066006660461426,0.18005990982055664,-0.26919254660606384
1751281725194109200,2.756109130859375,10.051650047302246,0.18963119387626648,0.1902294009923935
1751281725212936000,2.77493603515625,9.941579818725586,-0.3798605799674988,0.6544370055198669
1751281725231762700,2.7937626953125,10.051650047302246,-0.5808576941490173,0.7357929348945618
1751281725250589700,2.812589599609375,9.807581901550293,-0.13579268753528595,0.30987054109573364
1751281725269416400,2.83141650390625,9.874580383300781,0.23270200192928314,-0.13998012244701385
1751281725288243200,2.8502431640625,10.238289833068848,-0.09272187948226929,-0.13040883839130402
1751281725307070200,2.8690703125,10.04686450958252,-0.6478567123413086,0.2189432680606842
1751281725325897000,2.88789697265625,9.81236743927002,-1.179063320159912,0.7405785918235779
1751281725344723700,2.9067236328125,9.654440879821777,-1.3704891204833984,1.2335001230239868
1751281725363550500,2.925550537109375,9.319445610046387,-1.1312068700790405,1.8460626602172852
1751281725382377200,2.944377197265625,9.817152976989746,-0.45643091201782227,1.5876377820968628
1751281725401204200,2.963204345703125,10.113862991333008,0.18005990982055664,0.6065805554389954
1751281725420031000,2.982031005859375,10.056435585021973,-0.29850462079048157,0.6592226624488831
1751281725438857700,3.000857666015625,9.486943244934082,-1.3657035827636719,1.7407784461975098
1751281725457684700,3.019684814453125,9.697511672973633,-1.332203984260559,2.8558337688446045
1751281725476511500,3.038511474609375,9.10409164428711,-0.8967102766036987,3.267399311065674
1751281725495338200,3.057338134765625,9.32423210144043,-0.8871390223503113,3.5641093254089355
1751281725514165000,3.0761650390625,9.57787036895752,-0.8249256014823914,2.338984251022339
1751281725532992000,3.094991943359375,10.37228775024414,-0.6239284873008728,1.932204246520996
1751281725551818800,3.11381884765625,9.841081619262695,-0.8153542876243591,1.9465612173080444
1751281725570645500,3.1326455078125,9.506086349487305,-0.8057830333709717,2.0614166259765625
1751281725589472500,3.151472412109375,9.668798446655273,-1.2556337118148804,2.42512583732605
1751281725608299300,3.17029931640625,8.845666885375977,-1.5427724123001099,2.86061954498291
1751281725627126000,3.1891259765625,10.673783302307129,-1.2795618772506714,2.4155545234680176
1751281725645952800,3.207952880859375,8.68774127960205,-0.3415754437446594,0.7692924737930298
1751281725664779500,3.226779541015625,10.554142951965332,0.06999006122350693,-0.503689169883728
1751281725683606500,3.2456064453125,10.128219604492188,-0.07836493849754333,-0.4462614357471466
1751281725702433300,3.264433349609375,9.817152976989746,-0.8201399445533752,0.5874379873275757
1751281725721260000,3.283260009765625,9.769296646118164,-0.6526423692703247,0.8602197170257568
1751281725740087000,3.302087158203125,9.860223770141602,-0.5234299302101135,0.7980063557624817
1751281725758913800,3.320913818359375,9.68794059753418,-0.5186443328857422,0.8506484627723694
1751281725777740500,3.339740478515625,9.845867156982422,-0.11186445504426956,0.22372891008853912
1751281725796567300,3.3585673828125,10.195219039916992,0.15613168478012085,-0.35054850578308105
1751281725815394300,3.377394287109375,10.180862426757812,0.29012975096702576,-0.5706881880760193
1751281725834221000,3.396220947265625,10.109077453613281,0.5437689423561096,-0.8243274092674255
1751281725853047800,3.4150478515625,10.779067993164062,-0.5282155871391296,0.38644084334373474
1751281725871874600,3.43387451171875,9.348159790039062,-0.0687936544418335,0.5970092415809631
1751281725890701600,3.45270166015625,9.721440315246582,0.1417747437953949,-0.21176479756832123
1751281725909528300,3.4715283203125,10.089935302734375,0.13698910176753998,-0.06819544732570648
1751281725928355000,3.49035498046875,9.999007225036621,-0.5760720372200012,0.41515472531318665
1751281725947182000,3.50918212890625,9.979865074157715,-1.0546365976333618,0.8267202377319336
1751281725966008800,3.5280087890625,9.79801082611084,-0.6909275650978088,0.989432156085968
1751281725984835600,3.546835693359375,9.41037368774414,0.4001995921134949,0.04666004329919815
1751281726003662300,3.565662353515625,10.468000411987305,0.5629115104675293,-0.3314059376716614
1751281726022489300,3.5844892578125,10.003793716430664,-0.9541380405426025,0.9750752449035645
1751281726041316000,3.603316162109375,9.946365356445312,-1.547558069229126,2.0709879398345947
1751281726060142800,3.622142822265625,9.180662155151367,-0.633499801158905,1.908276081085205
1751281726078969900,3.640969970703125,9.644869804382324,-0.4181457459926605,1.812563180923462
1751281726097796600,3.659796630859375,9.750154495239258,-0.8249256014823914,2.410768747329712
1751281726116623400,3.678623291015625,9.68794059753418,-0.6526423692703247,2.358126640319824
1751281726135450000,3.6974501953125,9.697511672973633,-0.2841476798057556,1.683350682258606
1751281726154277000,3.716277099609375,9.597013473510742,-0.5856433510780334,1.817348837852478
1751281726173103900,3.735103759765625,9.740582466125488,-0.8919246196746826,1.9800606966018677
1751281726191930600,3.7539306640625,10.491929054260254,-0.6047859191894531,1.290927767753601
1751281726210757400,3.77275732421875,9.592227935791016,-0.5760720372200012,1.7934205532073975
1751281726229584400,3.79158447265625,8.998807907104492,-0.22193430364131927,2.0518453121185303
1751281726248411100,3.8104111328125,9.807581901550293,-0.5904290080070496,1.9561325311660767
1751281726267238000,3.82923779296875,9.740582466125488,-0.9445667266845703,1.9561325311660767
1751281726286064600,3.848064697265625,9.855438232421875,-1.2460623979568481,1.9369899034500122
1751281726304891600,3.8668916015625,9.544371604919434,-1.2891331911087036,1.726421594619751
1751281726323718400,3.885718505859375,9.664012908935547,-1.2604193687438965,1.7455641031265259
1751281726342545200,3.904545166015625,9.845867156982422,-0.3607180118560791,1.046859860420227
1751281726361372200,3.9233720703125,10.085148811340332,0.37148571014404297,0.36251261830329895
1751281726380199000,3.942198974609375,9.893723487854004,-0.3032902777194977,0.7357929348945618
1751281726399025700,3.961025634765625,9.769296646118164,-0.8392825126647949,0.9367900490760803
1751281726417852400,3.979852294921875,9.79801082611084,-0.9780662655830383,1.1042876243591309
1751281726436679400,3.998679443359375,9.965508460998535,-0.7962117195129395,0.9367900490760803
1751281726455506200,4.017506103515625,9.77408218383789,-0.5282155871391296,0.7405785918235779
1751281726474333000,4.0363330078125,9.817152976989746,0.1704886108636856,0.21415762603282928
1751281726493159700,4.05515966796875,10.080363273620605,0.802193820476532,-0.6664010882377625
1751281726511986700,4.073986572265625,10.267004013061523,0.4001995921134949,-1.1114661693572998
1751281726530813400,4.0928134765625,10.51107120513916,0.0077766734175384045,-0.6185446381568909
1751281726549640200,4.11164013671875,9.888937950134277,-0.3320041298866272,0.49651068449020386
1751281726568467200,4.13046728515625,9.625727653503418,-0.001794616924598813,0.5060819983482361
1751281726587294000,4.1492939453125,9.70229721069336,0.21355941891670227,0.08973085135221481
1751281726606120700,4.16812060546875,9.965508460998535,0.44327038526535034,-0.25004997849464417
1751281726624947700,4.18694775390625,10.200004577636719,-0.11665010452270508,0.11844471842050552
1751281726643774500,4.2057744140625,10.300503730773926,-0.6143572330474854,0.534795880317688
1751281726662601200,4.224601318359375,9.68794059753418,-0.8584251403808594,0.7214360237121582
1751281726681428000,4.243427978515625,9.530014038085938,-0.42771705985069275,0.8171489238739014
1751281726700255000,4.2622548828125,10.267004013061523,-0.6143572330474854,1.0037890672683716
1751281726719081700,4.281081787109375,9.601799011230469,-1.059422254562378,1.5780665874481201
1751281726737908500,4.299908447265625,9.79801082611084,-0.8488538265228271,1.592423439025879
1751281726756735200,4.3187353515625,9.678369522094727,-0.05922235921025276,0.9846464991569519
1751281726775562200,4.337562255859375,9.592227935791016,-0.42771705985069275,1.1904292106628418
1751281726794389000,4.356388916015625,9.496515274047852,-0.6287141442298889,1.6402798891067505
1751281726813215700,4.3752158203125,10.075577735900879,-0.50907301902771,1.3387842178344727
1751281726832042800,4.394042724609375,9.740582466125488,-0.4085744619369507,1.3770694732666016
1751281726850869500,4.412869384765625,9.601799011230469,-0.7387840151786804,1.683350682258606
1751281726869696300,4.4316962890625,9.960722923278809,-0.7818548083305359,2.276770830154419
1751281726888523000,4.45052294921875,9.644869804382324,-0.7244270443916321,2.42512583732605
1751281726907350000,4.46935009765625,9.640084266662598,-0.4995017349720001,2.1954147815704346
1751281726926176800,4.4881767578125,9.750154495239258,-0.18843477964401245,1.01814603805542
1751281726945003500,4.50700341796875,10.128219604492188,-0.3607180118560791,0.8889335989952087
1751281726963830500,4.52583056640625,9.597013473510742,-0.3607180118560791,1.3962119817733765
1751281726982657300,4.5446572265625,9.783653259277344,-0.4133601188659668,1.6402798891067505
1751281727001484000,4.563484130859375,10.003793716430664,-0.7052844762802124,2.094916343688965
1751281727020310800,4.582310791015625,9.668798446655273,-0.7244270443916321,2.1236300468444824
1751281727039137800,4.6011376953125,9.108877182006836,-0.5186443328857422,1.908276081085205
1751281727057964500,4.619964599609375,9.515657424926758,-0.8679963946342468,1.932204246520996
1751281727076791300,4.638791259765625,10.094720840454102,-0.9828519225120544,1.836491346359253
1751281727095618000,4.6576181640625,10.070792198181152,-0.7244270443916321,1.6450655460357666
1751281727114445000,4.676445068359375,9.79801082611084,-0.6430711150169373,1.3483555316925049
1751281727133271800,4.695271728515625,9.616155624389648,-0.5282155871391296,0.9272187948226929
1751281727152098600,4.7140986328125,9.769296646118164,-0.7292127013206482,0.6879364848136902
1751281727170925600,4.732925537109375,10.02293586730957,-0.4707878530025482,0.8841479420661926
1751281727189752300,4.75175244140625,9.78843879699707,-0.50907301902771,0.8793623447418213
1751281727208579000,4.7705791015625,9.869794845581055,-0.3607180118560791,0.5300102233886719
1751281727227406000,4.789406005859375,9.778867721557617,-0.3367897868156433,0.28115665912628174
1751281727246232800,4.80823291015625,10.0612211227417,-0.3655036687850952,-0.0011964113218709826
1751281727265059600,4.8270595703125,10.238289833068848,0.10348957777023315,-0.3314059376716614
1751281727283886300,4.84588623046875,10.02293586730957,0.022133609279990196,-0.3122633695602417
1751281727302713300,4.86471337890625,9.932008743286133,0.0029910283628851175,-0.19262222945690155
1751281727321540000,4.8835400390625,9.965508460998535,0.2231307178735733,-0.37447673082351685
1751281727340366800,4.902366943359375,9.78843879699707,-0.01136590726673603,0.4295116662979126
1751281727359193900,4.92119384765625,10.185647964477539,0.08434699475765228,-0.04905286431312561
1751281727378020600,4.9400205078125,10.118648529052734,-0.08793623000383377,-0.2069791555404663
1751281727396847400,4.958847412109375,9.979865074157715,-0.22193430364131927,-0.13519448041915894
1751281727415674000,4.977674072265625,9.8267240524292,-0.23629122972488403,0.2715853750705719
1751281727434501000,4.996501220703125,9.654440879821777,-0.19322042167186737,0.5204389095306396
1751281727453328000,5.015327880859375,9.975079536437988,-0.5856433510780334,0.5539384484291077
1751281727472154600,5.034154541015625,10.089935302734375,-0.4995017349720001,0.5635097622871399
1751281727490981400,5.0529814453125,9.855438232421875,-0.5952146053314209,0.5587241053581238
1751281727509808400,5.071808349609375,9.855438232421875,-0.8584251403808594,0.9176474809646606
1751281727528635100,5.09063525390625,9.673583984375,-0.6478567123413086,1.2861422300338745
1751281727547462000,5.1094619140625,9.683155059814453,-0.31764721870422363,1.022931694984436
1751281727566289000,5.128288818359375,9.57787036895752,-0.4325026869773865,0.9607182741165161
1751281727585115600,5.14711572265625,10.080363273620605,-0.8201399445533752,1.5828521251678467
1751281727603942400,5.1659423828125,9.754940032958984,-1.083350419998169,2.128415822982788
1751281727622769400,5.184769287109375,9.544371604919434,-0.844068169593811,2.348555326461792
1751281727641596200,5.20359619140625,9.683155059814453,-0.45164528489112854,2.2337000370025635
1751281727660423000,5.2224228515625,9.70229721069336,-0.6382854580879211,2.4299113750457764
1751281727679249700,5.241249755859375,9.644869804382324,-0.6191428303718567,1.8795621395111084
1751281727698076700,5.26007666015625,10.066006660461426,-0.600000262260437,1.7024933099746704
1751281727716903400,5.2789033203125,9.57787036895752,-0.9158528447151184,2.4299113750457764
1751281727735730200,5.297730224609375,9.400801658630371,-0.9206385016441345,2.3772692680358887
1751281727754557200,5.31655712890625,9.333803176879883,-0.8249256014823914,1.9561325311660767
1751281727773384000,5.335384033203125,9.893723487854004,-0.7292127013206482,1.7072789669036865
1751281727792210700,5.354210693359375,10.099506378173828,-0.7004988193511963,1.659422516822815
1751281727811037400,5.373037353515625,9.716654777526855,-0.7387840151786804,1.482353687286377
1751281727829864400,5.391864501953125,9.711869239807129,-0.8105686902999878,1.444068431854248
1751281727848691200,5.410691162109375,9.57787036895752,-0.6287141442298889,1.1377872228622437
1751281727867518000,5.42951806640625,10.166504859924316,-0.45643091201782227,0.6448656916618347
1751281727886345000,5.448344970703125,10.04686450958252,-0.4899304509162903,0.6592226624488831
1751281727905171700,5.467171630859375,9.793225288391113,-0.6717849373817444,0.8123632669448853
1751281727923998500,5.48599853515625,9.960722923278809,-0.7100701332092285,0.4821537733078003
1751281727942825500,5.504825439453125,9.764511108398438,-0.719641387462616,0.20937198400497437
1751281727961652200,5.52365234375,9.841081619262695,-0.06400800496339798,-0.5467599630355835
1751281727980479000,5.54247900390625,10.04686450958252,0.4336991012096405,-1.3986048698425293
1751281727999305700,5.5613056640625,10.314860343933105,0.2183450609445572,-1.5900306701660156
1751281728018132700,5.5801328125,10.558928489685059,0.10348957777023315,-0.5515456199645996
1751281728036959500,5.59895947265625,9.903294563293457,0.10827522724866867,-0.16390834748744965
1751281728055786200,5.6177861328125,9.869794845581055,0.20877377688884735,-0.29312077164649963
1751281728074613000,5.636613037109375,9.850652694702148,-0.030508488416671753,0.10408778488636017
1751281728093440000,5.65543994140625,9.707083702087402,-0.11186445504426956,0.5060819983482361
1751281728112266800,5.674266845703125,9.888937950134277,0.022133609279990196,-0.0011964113218709826
1751281728131093500,5.693093505859375,10.123434066772461,-0.20757736265659332,0.1663011759519577
1751281728149920500,5.71192041015625,10.03729248046875,-0.9110672473907471,0.6687939167022705
1751281728168747300,5.730747314453125,9.831509590148926,-1.0785647630691528,0.8697910308837891
1751281728187574000,5.749573974609375,9.836296081542969,-0.6526423692703247,0.7980063557624817
1751281728206401000,5.768401123046875,9.89850902557373,-0.5042873620986938,0.9415757060050964
1751281728225227800,5.787227783203125,9.644869804382324,-0.997208833694458,1.750349760055542
1751281728244054500,5.806054443359375,9.817152976989746,-0.8967102766036987,1.836491346359253
1751281728262881300,5.82488134765625,9.568299293518066,-0.3607180118560791,1.7120646238327026
1751281728281708300,5.843708251953125,9.616155624389648,-0.3080759048461914,1.573280930519104
1751281728300535000,5.86253515625,9.817152976989746,-0.4420739710330963,1.5302101373672485
1751281728319361800,5.88136181640625,9.946365356445312,-0.6382854580879211,1.4297115802764893
1751281728338188800,5.900188720703125,9.841081619262695,-0.6765705943107605,1.5828521251678467
1751281728357015600,5.919015625,9.740582466125488,-0.48514479398727417,1.5397813320159912
1751281728375842300,5.93784228515625,9.740582466125488,-0.34636107087135315,1.4536397457122803
1751281728394669000,5.9566689453125,9.668798446655273,-0.7339983582496643,2.0997018814086914
1751281728413496000,5.97549609375,9.908080101013184,-0.7914260625839233,2.018345832824707
1751281728432322800,5.99432275390625,10.080363273620605,-0.34636107087135315,1.195214867591858
1751281728451149600,6.013149658203125,9.10409164428711,-0.4420739710330963,1.9609181880950928
1751281728469976600,6.0319765625,10.094720840454102,-0.719641387462616,1.9657038450241089
1751281728488803300,6.05080322265625,9.204590797424316,-0.6765705943107605,2.276770830154419
1751281728507630000,6.069630126953125,9.290732383728027,-0.5808576941490173,1.8077775239944458
1751281728526457000,6.08845703125,9.927223205566406,-0.42293140292167664,1.7216359376907349
1751281728545283800,6.107283935546875,10.032506942749023,-0.5521438121795654,1.357926845550537
1751281728564110600,6.126110595703125,10.070792198181152,-0.9302098155021667,1.1282159090042114
1751281728582937300,6.144937255859375,9.678369522094727,-1.1216355562210083,1.042074203491211
1751281728601764400,6.163764404296875,9.89850902557373,-0.8584251403808594,0.5682953596115112
1751281728620591000,6.182591064453125,10.085148811340332,-0.4133601188659668,0.30987054109573364
1751281728639417900,6.20141796875,9.932008743286133,-0.3080759048461914,0.39122650027275085
1751281728658244900,6.220244873046875,9.778867721557617,-0.2554338276386261,0.22851456701755524
1751281728677071600,6.239071533203125,9.845867156982422,-0.2315055876970291,-0.12083754688501358
1751281728695898400,6.2578984375,10.252646446228027,0.23748764395713806,-0.6759724020957947
1751281728714725400,6.276725341796875,10.357931137084961,0.5246263742446899,-1.1210373640060425
1751281728733552000,6.29555224609375,9.975079536437988,-0.0975075215101242,0.17108681797981262
1751281728752379000,6.31437890625,9.510871887207031,0.09870393574237823,0.3768695592880249
1751281728771205600,6.33320556640625,9.979865074157715,0.01734796352684498,0.12801600992679596
1751281728790032600,6.35203271484375,9.8267240524292,-0.3655036687850952,0.7740781307220459
1751281728808859400,6.370859375,9.860223770141602,-0.42771705985069275,0.6065805554389954
1751281728827686100,6.38968603515625,9.946365356445312,-0.04007977992296219,0.22372891008853912
1751281728846513000,6.408512939453125,10.113862991333008,0.13220344483852386,-0.020338991656899452
1751281728865340000,6.42733984375,10.032506942749023,-0.10707881301641464,0.02273181453347206
1751281728884166700,6.446166748046875,10.166504859924316,-0.3655036687850952,0.05623133108019829
1751281728902993400,6.464993408203125,9.879366874694824,-0.8392825126647949,0.5060819983482361
1751281728921820400,6.4838203125,9.510871887207031,-1.1264212131500244,1.200000524520874
1751281728940647200,6.502647216796875,9.630513191223145,-0.7052844762802124,1.0947163105010986
1751281728959474000,6.521473876953125,9.979865074157715,-0.1453639715909958,0.6448656916618347
1751281728978301000,6.540301025390625,10.066006660461426,0.10827522724866867,0.4582255482673645
1751281728997127700,6.559127685546875,10.03729248046875,-0.9684949517250061,1.2717852592468262
1751281729015954400,6.577954345703125,9.697511672973633,-1.6049858331680298,2.3772692680358887
1751281729034781200,6.59678125,9.223732948303223,-1.1072787046432495,2.7314071655273438
1751281729053608200,6.615608154296875,9.32423210144043,-0.7148557901382446,2.779263496398926
1751281729072435000,6.63443505859375,9.860223770141602,-0.7722834944725037,2.8558337688446045
1751281729091261700,6.65326171875,9.472586631774902,-0.753140926361084,2.554338216781616
1751281729110088700,6.672088623046875,10.223933219909668,-0.24586252868175507,0.8123632669448853
1751281729128915500,6.69091552734375,9.769296646118164,-0.4899304509162903,1.333998680114746
1751281729147742200,6.7097421875,9.893723487854004,-0.5234299302101135,1.4871392250061035
1751281729166569200,6.7285693359375,9.41037368774414,-0.6717849373817444,1.8939191102981567
1751281729185396000,6.74739599609375,9.539586067199707,-0.9924231767654419,2.3820550441741943
1751281729204222700,6.76622265625,9.79801082611084,-0.8392825126647949,2.5016961097717285
1751281729223049500,6.785049560546875,9.558728218078613,-0.5521438121795654,2.118844509124756
1751281729241876500,6.80387646484375,9.932008743286133,-0.877567708492279,1.7886348962783813
1751281729260703200,6.822703125,9.716654777526855,-0.96370929479599,1.6307085752487183
1751281729279530000,6.841530029296875,9.731011390686035,-0.666999340057373,1.2717852592468262
1751281729298357000,6.86035693359375,9.654440879821777,-0.5760720372200012,0.9990034699440002
1751281729317183700,6.879183837890625,9.754940032958984,-1.0977073907852173,1.1186445951461792
1751281729336010500,6.898010498046875,9.932008743286133,-1.5571293830871582,1.200000524520874
1751281729354837500,6.91683740234375,10.075577735900879,-0.9397810697555542,1.0277173519134521
1751281729373664300,6.935664306640625,9.831509590148926,-0.14057832956314087,0.3002992272377014
1751281729392491000,6.954490966796875,10.056435585021973,0.06041877344250679,-0.5946164131164551
1751281729411317800,6.97331787109375,10.0612211227417,-0.18364913761615753,-0.7286145091056824
1751281729430144800,6.992144775390625,9.955936431884766,-0.45643091201782227,-0.40797626972198486
1751281729448971500,7.010971435546875,9.841081619262695,0.24227328598499298,-0.29790642857551575
1751281729467798300,7.02979833984375,10.02293586730957,0.7160521745681763,-0.7429714202880859
1751281729486625000,7.048625,10.075577735900879,0.10827522724866867,-0.7238288521766663
1751281729505452000,7.0674521484375,10.262218475341797,-0.1788634955883026,0.22372891008853912
1751281729524278800,7.08627880859375,10.243075370788574,-0.03529413416981697,-0.16869398951530457
1751281729543105500,7.10510546875,9.984650611877441,0.09870393574237823,-0.364905446767807
1751281729561932500,7.1239326171875,9.860223770141602,-0.07357929646968842,-0.18305093050003052
1751281729580759300,7.14275927734375,9.831509590148926,-0.4420739710330963,0.14715859293937683
1751281729599586000,7.1615859375,9.836296081542969,-0.29371899366378784,0.2763710021972656
1751281729618413000,7.1804130859375,9.893723487854004,0.09870393574237823,0.04666004329919815
1751281729637239800,7.19923974609375,10.137791633605957,-0.13579268753528595,0.05623133108019829
1751281729656066600,7.218066650390625,10.032506942749023,-0.8392825126647949,0.6448656916618347
1751281729674893300,7.236893310546875,9.783653259277344,-1.2269197702407837,1.089930772781372
1751281729693720300,7.25572021484375,9.558728218078613,-1.2747762203216553,1.171286702156067
1751281729712547000,7.274547119140625,9.659226417541504,-1.179063320159912,1.415354609489441
1751281729731373800,7.293373779296875,9.802796363830566,-1.2508480548858643,1.9226330518722534
1751281729750200800,7.312200927734375,9.817152976989746,-0.8679963946342468,2.056631088256836
1751281729769027600,7.331027587890625,9.635298728942871,-0.48035913705825806,1.9609181880950928
1751281729787854300,7.349854248046875,9.573084831237793,-0.5042873620986938,2.032702922821045
1751281729806681300,7.368681396484375,9.620942115783691,-0.7052844762802124,2.190629243850708
1751281729825508000,7.387508056640625,9.625727653503418,-0.6574280261993408,2.3676979541778564
1751281729844334800,7.4063349609375,9.601799011230469,-0.5856433510780334,2.4681966304779053
1751281729863161600,7.42516162109375,9.860223770141602,-0.4420739710330963,1.511067509651184
1751281729881988600,7.443988525390625,10.075577735900879,-0.7674978375434875,1.7072789669036865
1751281729900815400,7.4628154296875,9.553942680358887,-0.8201399445533752,2.410768747329712
1751281729919642000,7.48164208984375,9.41037368774414,-0.877567708492279,2.3772692680358887
1751281729938469000,7.50046923828125,9.573084831237793,-0.9924231767654419,2.5256242752075195
1751281729957295900,7.5192958984375,9.644869804382324,-0.8679963946342468,2.252842426300049
1751281729976122600,7.53812255859375,9.836296081542969,-1.0211371183395386,2.0231316089630127
1751281729994949400,7.556949462890625,9.616155624389648,-1.1359925270080566,1.7742780447006226
1751281730013776400,7.5757763671875,9.93679428100586,-0.7435696125030518,1.0516455173492432
1751281730032603100,7.59460302734375,9.81236743927002,-1.0354939699172974,1.0085747241973877
1751281730051430000,7.613429931640625,9.91286563873291,-1.0689935684204102,1.089930772781372
1751281730070257000,7.6322568359375,9.888937950134277,-0.6909275650978088,0.7740781307220459
1751281730089083600,7.651083740234375,9.89850902557373,-0.3128615617752075,0.05623133108019829
1751281730107910400,7.669910400390625,9.908080101013184,-0.389431893825531,-0.5228317379951477
1751281730126737400,7.6887373046875,10.305289268493652,-0.15493527054786682,-1.144965648651123
1751281730145564200,7.707564208984375,10.128219604492188,0.0364905446767807,-1.2646067142486572
1751281730164391000,7.726390869140625,10.109077453613281,0.23270200192928314,-1.714457392692566
1751281730183217700,7.7452177734375,10.568499565124512,0.3523431420326233,-1.628315806388855
1751281730202044700,7.764044677734375,9.77408218383789,0.026919255033135414,-0.3936193287372589
1751281730220871400,7.782871337890625,9.989436149597168,0.11306086927652359,-0.26919254660606384
1751281730239698200,7.8016982421875,9.8267240524292,0.2757728099822998,-0.19262222945690155
1751281730258525000,7.82052490234375,10.712068557739258,-0.3798605799674988,0.1663011759519577
1751281730277352000,7.83935205078125,9.381659507751465,-0.35114672780036926,0.3242274820804596
1751281730296178700,7.8581787109375,9.975079536437988,-0.3080759048461914,-0.010767702013254166
1751281730315005400,7.87700537109375,9.711869239807129,0.03170489892363548,-0.6472585201263428
1751281730333832400,7.89583251953125,9.955936431884766,0.08434699475765228,-0.7381857633590698
1751281730352659200,7.9146591796875,10.62114143371582,-1.3704891204833984,-0.09212367236614227
1751281730371486000,7.93348583984375,10.2478609085083,-2.246262311935425,0.8267202377319336
1751281730390313000,7.95231298828125,9.597013473510742,-1.815554141998291,1.8508483171463013
1751281730409139700,7.9711396484375,9.108877182006836,-0.9397810697555542,2.2576282024383545
1751281730427966500,7.989966552734375,9.357730865478516,-0.6861419081687927,2.750549554824829
1751281730446793200,8.008793212890625,9.888937950134277,-1.0977073907852173,2.7218358516693115
1751281730465620200,8.0276201171875,9.611370086669922,-1.1647064685821533,2.6213371753692627
1751281730484447000,8.046447021484376,9.836296081542969,-1.0354939699172974,2.5734808444976807
1751281730503273700,8.065273681640624,9.362516403198242,-0.5712863802909851,2.544766902923584
1751281730522100700,8.084100830078125,9.56351375579834,-0.5377869009971619,2.324627161026001
1751281730540927500,8.102927490234375,10.027721405029297,-0.39421752095222473,1.2717852592468262
1751281730559754200,8.121754150390625,9.290732383728027,-0.3128615617752075,1.6546368598937988
1751281730578581200,8.140581298828126,9.903294563293457,-0.5473581552505493,2.3676979541778564
1751281730597408000,8.159407958984374,9.510871887207031,-0.9349954724311829,3.267399311065674
1751281730616234800,8.17823486328125,9.994221687316895,-1.3752747774124146,3.568894863128662
1751281730635061500,8.1970615234375,9.070592880249023,-1.4422738552093506,3.0520453453063965
1751281730653888500,8.215888427734376,9.611370086669922,-1.6767704486846924,2.2911276817321777
1751281730672715300,8.23471533203125,9.568299293518066,-2.0165512561798096,1.7312071323394775
1751281730691542000,8.2535419921875,10.219147682189941,-1.0450652837753296,1.1521440744400024
1751281730710368800,8.27236865234375,10.003793716430664,-0.7292127013206482,0.30508488416671753
1751281730729195800,8.29119580078125,10.137791633605957,-1.1168500185012817,-0.06340979784727097
1751281730748022500,8.3100224609375,9.166305541992188,-0.6143572330474854,-1.1114661693572998
1751281730766849300,8.328849365234374,10.898709297180176,0.47676992416381836,-2.3030917644500732
1751281730785676300,8.34767626953125,9.654440879821777,-0.2267199456691742,-1.7336000204086304
1751281730804503000,8.3665029296875,9.821938514709473,-0.025722842663526535,-1.7527425289154053
1751281730823329800,8.385329833984375,10.515857696533203,0.5676971673965454,-2.3030917644500732
1751281730842156500,8.404156494140626,10.898709297180176,0.529412031173706,-1.4225330352783203
1751281730860983600,8.422983642578124,10.195219039916992,-0.12622138857841492,-0.8099704384803772
1751281730879810300,8.441810302734375,9.79801082611084,-0.6143572330474854,-0.2835494875907898
1751281730898637000,8.460636962890625,8.802596092224121,-0.494716078042984,0.14715859293937683
1751281730917464000,8.479464111328125,10.448858261108398,-0.600000262260437,0.4486542344093323
1751281730936290800,8.498290771484376,9.46301555633545,-0.20757736265659332,0.3290131092071533
1751281730955117600,8.51711767578125,10.267004013061523,-0.1740778535604477,0.11844471842050552
1751281730973944600,8.535944580078125,10.070792198181152,-1.0498509407043457,0.625723123550415
1751281730992771300,8.554771240234375,9.932008743286133,-1.9351953268051147,1.5493526458740234
1751281731011598000,8.57359814453125,9.19980525970459,-1.179063320159912,2.1571295261383057
1751281731030424800,8.5924248046875,9.984650611877441,-0.9589236974716187,2.1714866161346436
1751281731049251800,8.611251953125,9.764511108398438,-0.8871390223503113,2.1858434677124023
1751281731068078600,8.63007861328125,9.654440879821777,-0.7004988193511963,1.7694923877716064
1751281731086905300,8.6489052734375,9.597013473510742,-0.5760720372200012,1.7838492393493652
1751281731105732400,8.667732421875,9.845867156982422,-0.6478567123413086,1.597209095954895
1751281731124559000,8.68655908203125,9.707083702087402,-0.5234299302101135,1.6402798891067505
1751281731143385900,8.7053857421875,9.750154495239258,-0.5617151260375977,1.6737794876098633
1751281731162212900,8.724212890625,9.754940032958984,-0.5473581552505493,1.683350682258606
1751281731181039600,8.74303955078125,9.745368003845215,-0.5186443328857422,1.6977076530456543
1751281731199866400,8.761866455078126,9.754940032958984,-0.5234299302101135,1.7216359376907349
1751281731218693000,8.780693115234374,9.707083702087402,-0.5330012440681458,1.7312071323394775
1751281731237520100,8.79952001953125,9.769296646118164,-0.45643091201782227,1.5493526458740234
1751281731256347000,8.818346923828125,9.908080101013184,-0.16929219663143158,0.865005373954773
1751281731275173600,8.837173583984375,9.802796363830566,-0.28893333673477173,1.1377872228622437
1751281731294000400,8.85600048828125,9.807581901550293,-0.2841476798057556,1.171286702156067
1751281731312827400,8.874827392578124,9.869794845581055,-0.2793620526790619,1.0947163105010986
1751281731331654100,8.893654052734375,9.77408218383789,-0.2793620526790619,1.089930772781372
1751281731350481000,8.91248095703125,9.874580383300781,-0.2745763957500458,1.0755738019943237
1751281731369308000,8.931307861328126,9.793225288391113,-0.28893333673477173,1.089930772781372
1751281731397548000,8.959548095703125,9.860223770141602,-0.2841476798057556,1.0707881450653076
1751281731416374800,8.978374755859376,10.171290397644043,-0.39421752095222473,1.2574282884597778
1751281731435201800,8.997201904296874,9.391230583190918,-0.19800607860088348,1.26699960231781
1751281731454028500,9.016028564453125,10.185647964477539,-0.19322042167186737,0.898504912853241
1751281731472855300,9.034855224609375,9.716654777526855,-0.18364913761615753,0.989432156085968
1751281731491682300,9.053682373046875,9.683155059814453,-0.3846462368965149,1.3244273662567139
1751281731510509000,9.072509033203126,10.04686450958252,-0.5042873620986938,1.353141188621521
1751281731529335800,9.091335693359374,9.764511108398438,-0.389431893825531,1.3004990816116333
1751281731548162600,9.11016259765625,9.57787036895752,-0.4707878530025482,1.3052847385406494
1751281731566989600,9.128989501953125,9.850652694702148,-0.6622136831283569,1.573280930519104
1751281731585816300,9.14781640625,9.932008743286133,-0.7052844762802124,1.6450655460357666
1751281731604643000,9.16664306640625,9.510871887207031,-0.4899304509162903,1.5014961957931519
1751281731623469800,9.1854697265625,9.860223770141602,-0.3367897868156433,1.3674981594085693
1751281731642296800,9.204296875,9.845867156982422,-0.389431893825531,1.2287144660949707
1751281731661123600,9.22312353515625,9.769296646118164,-0.5617151260375977,1.262213945388794
1751281731679950300,9.241950439453126,9.836296081542969,-0.6382854580879211,1.3148560523986816
1751281731698777300,9.26077734375,9.778867721557617,-0.45643091201782227,1.2861422300338745
1751281731717604000,9.27960400390625,9.78843879699707,-0.39900317788124084,1.2287144660949707
1751281731736430800,9.298430908203125,9.817152976989746,-0.355932354927063,1.1617153882980347
1751281731755257900,9.3172578125,9.855438232421875,-0.26979073882102966,1.085145115852356
1751281731774084600,9.336084716796876,9.841081619262695,-0.20757736265659332,0.9655039310455322
1751281731792911400,9.354911376953124,9.855438232421875,-0.1453639715909958,0.8410771489143372
1751281731811738000,9.373738037109375,9.92243766784668,-0.1501496136188507,0.7645068168640137
1751281731839978500,9.401978515625,9.874580383300781,-0.09272187948226929,0.6448656916618347
1751281731858805200,9.42080517578125,9.92243766784668,-0.13100704550743103,0.6496513485908508
1751281731877632000,9.439632080078125,9.869794845581055,-0.0975075215101242,0.6448656916618347
1751281731896459000,9.458458984375,10.02293586730957,0.0364905446767807,0.4055834412574768
1751281731915285800,9.47728564453125,9.654440879821777,0.0077766734175384045,0.36251261830329895
1751281731934112500,9.496112548828124,10.0612211227417,-0.030508488416671753,0.46779683232307434
1751281731952939500,9.514939453125,10.027721405029297,-0.10229317098855972,0.3529413342475891
1751281731971766300,9.533766357421875,9.79801082611084,-0.2315055876970291,0.9463613629341125
1751281731990593000,9.552593017578126,9.697511672973633,-0.26979073882102966,1.1282159090042114
1751281732009419800,9.571419677734376,9.91286563873291,-0.3032902777194977,1.0755738019943237
1751281732028246800,9.590246826171875,10.233504295349121,-0.48035913705825806,1.0325030088424683
1751281732047073500,9.609073486328125,9.654440879821777,-0.18364913761615753,1.357926845550537
1751281732065900300,9.627900390625,9.42473030090332,-0.18843477964401245,1.6737794876098633
1751281732084727300,9.646727294921876,10.568499565124512,-0.3320041298866272,1.8987047672271729
1751281732103554000,9.665553955078124,8.706883430480957,-0.16929219663143158,-0.14476576447486877
1751281732122380800,9.684380859375,11.645269393920898,0.39541393518447876,-0.3840480446815491
1751281732141207800,9.703207763671875,9.151947975158691,0.7734799385070801,-0.6424728631973267
1751281732160034600,9.72203466796875,10.13300609588623,0.649053156375885,-0.1543370634317398
1751281732178861300,9.740861328125,10.013364791870117,0.09870393574237823,0.5156532526016235
1751281732197688000,9.75968798828125,9.731011390686035,-0.3367897868156433,0.7501499056816101
1751281732216515000,9.77851513671875,10.185647964477539,-0.7339983582496643,0.8171489238739014
1751281732235341800,9.797341796875,10.051650047302246,-0.8919246196746826,0.7932206988334656
1751281732254168600,9.81616845703125,9.616155624389648,-0.6143572330474854,0.6735795736312866
1751281732272995600,9.83499560546875,9.865009307861328,-0.6239284873008728,0.9702895879745483
1751281732291822300,9.853822265625,9.965508460998535,-0.7722834944725037,1.444068431854248
1751281732310649000,9.872649169921875,9.587442398071289,-0.666999340057373,1.7982062101364136
1751281732329475800,9.891475830078125,9.443872451782227,-0.7052844762802124,2.2193429470062256
1751281732348302800,9.910302734375,10.027721405029297,-0.8392825126647949,2.410768747329712
1751281732367129600,9.929129638671874,9.582656860351562,-0.6239284873008728,2.7984061241149902
1751281732385956400,9.947956298828124,9.477372169494629,-0.4612165689468384,1.4536397457122803
1751281732404783000,9.966783203125,10.109077453613281,-0.7722834944725037,1.6307085752487183
1751281732423610000,9.985610107421875,9.587442398071289,-0.6957131624221802,1.7024933099746704
1751281732442436900,10.004436767578126,9.740582466125488,-0.542572557926178,1.5780665874481201
1751281732461263600,10.023263671875,9.81236743927002,-0.4085744619369507,1.4584254026412964
1751281732480090600,10.042090576171875,9.817152976989746,-0.3080759048461914,1.2478569746017456
1751281732498917400,10.06091748046875,9.4390869140625,-0.7292127013206482,1.2430713176727295
1751281732517744000,10.079744140625,10.223933219909668,-0.21714866161346436,0.7262216806411743
1751281732536571100,10.098571044921876,9.520442962646484,-0.3798605799674988,0.9320043921470642
1751281732555398000,10.11739794921875,7.591827869415283,0.2757728099822998,0.7932206988334656
1751281732574224600,10.136224609375,11.975479125976562,0.1944168359041214,0.3529413342475891
1751281732593051400,10.155051513671875,9.156734466552734,0.2757728099822998,0.33858439326286316
1751281732611878400,10.17387841796875,10.401001930236816,0.15613168478012085,-0.3840480446815491
1751281732630705200,10.192705078125,9.88415241241455,-0.006580262444913387,0.5970092415809631
1751281732649532000,10.211531982421874,9.08973503112793,-0.10229317098855972,1.3148560523986816
1751281732668359000,10.23035888671875,9.56351375579834,-0.39421752095222473,1.7694923877716064
1751281732687185700,10.249185546875,9.917651176452637,-0.7483552694320679,2.1092731952667236
1751281732706012400,10.268012451171876,9.821938514709473,-1.1024930477142334,2.3772692680358887
1751281732724839200,10.286839111328124,10.195219039916992,-1.0019944906234741,2.204986095428467
1751281732743666200,10.305666259765625,9.467801094055176,-0.39421752095222473,1.812563180923462
1751281732762493000,10.324492919921875,9.573084831237793,-0.5569294691085815,1.3866406679153442
1751281732781319700,10.343319580078125,9.879366874694824,-0.8344969153404236,1.357926845550537
1751281732800146400,10.362146484375,9.750154495239258,-0.8679963946342468,1.592423439025879
1751281732818973400,10.380973388671874,9.754940032958984,-0.6526423692703247,1.0085747241973877
1751281732847213600,10.409213623046876,10.032506942749023,-0.29850462079048157,0.22851456701755524
1751281732866040600,10.42804052734375,10.02293586730957,-0.22193430364131927,-0.3409772217273712
1751281732884867300,10.446867431640625,9.927223205566406,-0.03529413416981697,-0.6424728631973267
1751281732903694000,10.465694091796875,10.070792198181152,0.1417747437953949,-0.35054850578308105
1751281732922520800,10.484520751953125,10.113862991333008,-0.030508488416671753,0.008374879136681557
1751281732941347800,10.503347900390626,9.965508460998535,0.3332005441188812,-0.010767702013254166
1751281732960174600,10.522174560546874,9.443872451782227,0.47198426723480225,-0.6137589812278748
1751281732979001300,10.54100146484375,9.965508460998535,0.7830511927604675,-0.8769695162773132
1751281732997828000,10.559828125,10.377073287963867,0.2183450609445572,-0.8195417523384094
1751281733016655000,10.578655029296876,10.243075370788574,-0.05922235921025276,-0.8291130661964417
1751281733035481900,10.59748193359375,10.429716110229492,-0.37028929591178894,-1.1784651279449463
1751281733054308900,10.616308837890625,10.200004577636719,-0.7004988193511963,-1.293320655822754
1751281733073135600,10.635135498046875,9.769296646118164,-1.3226326704025269,-0.7860422134399414
1751281733091962400,10.65396240234375,9.92243766784668,-1.8059829473495483,-0.04426721855998039
1751281733110789000,10.6727890625,10.099506378173828,-1.949552297592163,0.7597211599349976
1751281733129616100,10.6916162109375,9.597013473510742,-1.724626898765564,1.5828521251678467
1751281733148443000,10.71044287109375,9.271589279174805,-1.6767704486846924,2.726621389389038
1751281733167269600,10.72926953125,8.989236831665039,-1.5284154415130615,3.889533281326294
1751281733186096400,10.748096435546875,9.467801094055176,-1.3561322689056396,4.444668292999268
1751281733204923400,10.76692333984375,9.558728218078613,-1.72941255569458,4.143172264099121
1751281733223750100,10.785750244140624,9.597013473510742,-1.4470595121383667,3.0520453453063965
1751281733242577000,10.804576904296875,9.491728782653809,-1.2269197702407837,2.8319056034088135
1751281733261404000,10.82340380859375,9.333803176879883,-1.332203984260559,3.544966697692871
1751281733280230700,10.842230712890625,9.659226417541504,-1.7533408403396606,3.5545380115509033
1751281733299057400,10.861057373046876,9.620942115783691,-2.2366909980773926,3.607180118560791
1751281733317884200,10.87988427734375,8.82652473449707,-2.0644078254699707,2.8079774379730225
1751281733336711200,10.898711181640625,9.979865074157715,-1.609771490097046,1.4057832956314087
1751281733355538000,10.917537841796875,9.865009307861328,-1.2843475341796875,0.21415762603282928
1751281733374364700,10.93636474609375,9.807581901550293,-1.1982059478759766,-0.3936193287372589
1751281733393191700,10.955191650390624,9.908080101013184,-0.8679963946342468,-1.0348957777023315
1751281733412018400,10.974018310546874,9.903294563293457,-0.25064817070961,-1.317248821258545
1751281733430845200,10.99284521484375,10.281360626220703,0.3475574851036072,-1.2454642057418823
1751281733449672200,11.011672119140625,10.25743293762207,0.44805604219436646,-1.0109676122665405
1751281733468499000,11.0304990234375,10.089935302734375,0.01734796352684498,-0.6137589812278748
1751281733487325700,11.04932568359375,9.994221687316895,0.09391828626394272,-0.29790642857551575
1751281733506152400,11.06815234375,10.089935302734375,0.1657029688358307,-0.10648060590028763
1751281733524979500,11.0869794921875,9.841081619262695,0.01734796352684498,0.23808585107326508
1751281733543806200,11.10580615234375,9.979865074157715,-0.08315058797597885,0.3290131092071533
1751281733562633000,11.124633056640626,9.716654777526855,0.12741780281066895,-0.03469592705368996
1751281733581459700,11.143459716796874,9.448657989501953,0.4001995921134949,-0.6903293132781982
1751281733600286700,11.16228662109375,9.955936431884766,1.0079765319824219,-1.3698909282684326
1751281733619113500,11.181113525390625,10.558928489685059,0.7304090857505798,-1.8340985774993896
1751281733637940200,11.199940185546875,10.4823579788208,-0.006580262444913387,-1.7958134412765503
1751281733656767200,11.218767333984376,10.343574523925781,-1.064207911491394,-0.5228317379951477
1751281733675594000,11.237593994140624,9.960722923278809,-1.8490537405014038,0.9463613629341125
1751281733694420700,11.256420654296875,9.520442962646484,-2.002194404602051,1.4249259233474731
1751281733713247500,11.27524755859375,9.467801094055176,-1.5619150400161743,1.2335001230239868
1751281733732074500,11.294074462890626,9.625727653503418,-1.0546365976333618,1.0803594589233398
1751281733750901200,11.3129013671875,9.874580383300781,-0.9397810697555542,0.592223584651947
1751281733769728000,11.33172802734375,10.070792198181152,-0.9924231767654419,0.8697910308837891
1751281733788555000,11.350554931640625,9.793225288391113,-1.155135154724121,1.290927767753601
1751281733807381800,11.3693818359375,10.453643798828125,-1.3369896411895752,1.5876377820968628
1751281733826208500,11.38820849609375,9.171091079711914,-1.088136076927185,2.640479803085327
1751281733845035500,11.407035400390624,9.33858871459961,-1.2556337118148804,3.5162527561187744
1751281733863862300,11.4258623046875,9.204590797424316,-1.5140584707260132,4.348955154418945
1751281733882689000,11.44468896484375,9.506086349487305,-1.2508480548858643,3.3343982696533203
1751281733901515800,11.463515869140625,9.683155059814453,-0.997208833694458,3.056830883026123
1751281733920342800,11.4823427734375,9.659226417541504,-1.0307083129882812,2.7361927032470703
1751281733939169500,11.50116943359375,9.4390869140625,-1.1838489770889282,2.717050075531006
1751281733957996300,11.519996337890625,9.453444480895996,-1.4135600328445435,2.630908489227295
1751281733976823000,11.538822998046875,9.903294563293457,-1.3369896411895752,1.9896320104599
1751281733995650000,11.557650146484375,9.592227935791016,-1.4279168844223022,1.755135416984558
1751281734014476800,11.576476806640626,9.606584548950195,-1.815554141998291,1.6163517236709595
1751281734033303600,11.595303466796874,10.013364791870117,-1.5379867553710938,1.171286702156067
1751281734052130600,11.614130615234375,10.094720840454102,-1.4470595121383667,0.6879364848136902
1751281734070957300,11.632957275390625,10.051650047302246,-1.1168500185012817,-0.2548356056213379
1751281734089784000,11.6517841796875,9.927223205566406,-0.7004988193511963,-0.7716853022575378
1751281734108610800,11.67061083984375,9.874580383300781,-0.2602194547653198,-0.9343972206115723
1751281734127437800,11.689437744140625,9.831509590148926,0.09391828626394272,-1.144965648651123
1751281734146264600,11.7082646484375,10.434501647949219,0.13220344483852386,-1.23589289188385
1751281734165091300,11.72709130859375,9.946365356445312,0.2949153780937195,-1.0396814346313477
1751281734183918300,11.74591845703125,9.850652694702148,0.5676971673965454,-1.168893814086914
1751281734202745000,11.7647451171875,10.070792198181152,0.36670008301734924,-1.0013962984085083
1751281734221571800,11.78357177734375,10.14736270904541,-0.030508488416671753,0.13280165195465088
1751281734240398600,11.802398681640625,10.02293586730957,0.12741780281066895,-0.364905446767807
1751281734259225600,11.8212255859375,9.946365356445312,-0.2745763957500458,-0.2883351147174835
1751281734278052400,11.84005224609375,9.999007225036621,-0.3415754437446594,-0.2835494875907898
1751281734296879000,11.858879150390624,10.166504859924316,-0.12622138857841492,-0.7046862840652466
1751281734315705900,11.877705810546875,10.152148246765137,-0.01615155301988125,-0.9966106414794922
1751281734334532900,11.896532958984375,9.92243766784668,-0.09272187948226929,-0.9104689955711365
1751281734353359600,11.915359619140625,9.93679428100586,-0.35114672780036926,-0.5228317379951477
1751281734372186400,11.934186279296876,10.051650047302246,-0.7244270443916321,-0.19740787148475647
1751281734391013400,11.953013427734374,9.91286563873291,-1.1024930477142334,-0.08255238085985184
1751281734409840000,11.971840087890625,9.93679428100586,-1.5188441276550293,0.12801600992679596
1751281734428667000,11.9906669921875,9.70229721069336,-1.7868403196334839,0.5970092415809631
1751281734466320600,12.028320556640624,9.740582466125488,-2.002194404602051,1.726421594619751
1751281734485147400,12.0471474609375,9.735796928405762,-1.973480463027954,2.032702922821045
1751281734503974100,12.06597412109375,9.683155059814453,-1.7868403196334839,2.2671995162963867
1751281734522801200,12.08480126953125,9.33858871459961,-1.6815561056137085,2.8797619342803955
1751281734541628000,12.1036279296875,9.68794059753418,-1.6002001762390137,3.401397466659546
1751281734560454700,12.12245458984375,9.587442398071289,-1.3609179258346558,4.104887008666992
1751281734579281700,12.14128173828125,9.185447692871094,-1.2077772617340088,4.262813568115234
1751281734598108400,12.1601083984375,9.386445045471191,-1.5332010984420776,4.1144585609436035
1751281734616935200,12.17893505859375,9.434301376342773,-2.011765718460083,4.157529354095459
1751281734635762000,12.197761962890626,9.496515274047852,-2.3371894359588623,3.583251953125
1751281734654589000,12.2165888671875,9.79801082611084,-2.51425838470459,2.851048231124878
1751281734673415700,12.235415771484375,9.587442398071289,-2.475973129272461,2.1619153022766113
1751281734692242400,12.254242431640625,9.467801094055176,-2.145763635635376,1.3866406679153442
1751281734711069400,12.2730693359375,9.793225288391113,-1.6432709693908691,0.2763710021972656
1751281734729896200,12.291896240234376,9.975079536437988,-1.3609179258346558,-0.503689169883728
1751281734748723000,12.310722900390624,10.128219604492188,-1.0785647630691528,-0.8386843204498291
1751281734767549700,12.3295498046875,10.16171932220459,-0.7004988193511963,-0.8817551732063293
1751281734786376700,12.348376708984375,9.850652694702148,-0.06400800496339798,-0.9391828775405884
1751281734805203500,12.367203369140626,10.027721405029297,0.18484555184841156,-0.9200403094291687
1751281734824030200,12.3860302734375,10.209575653076172,0.2470589429140091,-0.9726824164390564
1751281734842857000,12.40485693359375,10.13300609588623,0.39062830805778503,-1.144965648651123
1751281734861684000,12.42368408203125,10.04686450958252,0.5389832854270935,-1.4991034269332886
1751281734880510700,12.4425107421875,10.233504295349121,0.3858426511287689,-1.6139588356018066
1751281734899337500,12.46133740234375,10.094720840454102,-0.04486542567610741,-0.10648060590028763
1751281734918164500,12.48016455078125,9.78843879699707,-0.15493527054786682,0.5300102233886719
1751281734936991200,12.4989912109375,9.975079536437988,-0.09272187948226929,0.3529413342475891
1751281734955818000,12.51781787109375,9.965508460998535,0.050847481936216354,0.137587308883667
1751281734974645000,12.53664501953125,10.018150329589844,0.18484555184841156,-0.37926238775253296
1751281734993471700,12.5554716796875,10.281360626220703,0.1417747437953949,-1.389033555984497
1751281735012298500,12.574298583984374,10.156933784484863,0.18484555184841156,-1.8628123998641968
1751281735031125200,12.593125244140625,10.080363273620605,-0.01615155301988125,-1.7336000204086304
1751281735049952300,12.6119521484375,9.979865074157715,-0.5138586759567261,-1.3268201351165771
1751281735068779000,12.630779052734376,9.979865074157715,-1.174277663230896,-0.9966106414794922
1751281735087605800,12.649605712890626,10.04686450958252,-1.7868403196334839,-0.11126625537872314
1751281735106432800,12.668432861328125,9.89850902557373,-2.3467607498168945,0.7884350419044495
1751281735125259500,12.687259521484375,9.692726135253906,-2.5573291778564453,1.6737794876098633
1751281735144086300,12.706086181640625,9.558728218078613,-2.246262311935425,2.5399811267852783
1751281735162913000,12.7249130859375,9.611370086669922,-2.2127628326416016,3.387040376663208
1751281735181740000,12.743739990234374,9.482157707214355,-2.0165512561798096,3.655036687850952
1751281735200566800,12.76256689453125,9.372088432312012,-1.4949159622192383,3.726821184158325
1751281735219393500,12.7813935546875,9.400801658630371,-1.059422254562378,3.7698919773101807
1751281735238220300,12.80022021484375,9.491728782653809,-1.1024930477142334,3.363112211227417
1751281735257047300,12.81904736328125,9.999007225036621,-0.5521438121795654,1.511067509651184
1751281735275874000,12.8378740234375,9.874580383300781,-0.8823533654212952,2.0853450298309326
1751281735294700800,12.85670068359375,9.640084266662598,-1.3609179258346558,2.8319056034088135
1751281735313527800,12.87552783203125,9.333803176879883,-1.5906288623809814,3.152543783187866
1751281735332354600,12.8943544921875,9.367302894592285,-1.571486234664917,2.9276185035705566
1751281735351181300,12.913181396484376,9.486943244934082,-1.5379867553710938,2.7457640171051025
1751281735370008000,12.932008056640624,9.673583984375,-1.5188441276550293,2.5495524406433105
1751281735388835000,12.9508349609375,9.77408218383789,-1.571486234664917,1.903490424156189
1751281735407661800,12.969661865234375,9.630513191223145,-1.3609179258346558,0.9990034699440002
1751281735426488600,12.988488525390625,10.104291915893555,-1.0929217338562012,0.2955136001110077
1751281735445315600,13.007315673828124,9.841081619262695,-0.9014959335327148,-0.08255238085985184
1751281735464142300,13.026142333984374,9.92243766784668,-0.6765705943107605,-0.32662028074264526
1751281735482969000,13.044968994140625,10.219147682189941,-0.7052844762802124,-0.39840495586395264
1751281735501795800,13.0637958984375,9.793225288391113,-0.47557350993156433,-0.48454657196998596
1751281735520622800,13.082622802734376,10.104291915893555,-0.06400800496339798,-0.776470959186554
1751281735539449600,13.10144970703125,9.965508460998535,0.2183450609445572,-0.9822536706924438
1751281735558276400,13.1202763671875,10.013364791870117,0.3284149169921875,-0.9439685344696045
1751281735577103000,13.13910302734375,10.0612211227417,0.07956135272979736,-0.8003991842269897
1751281735595930000,13.15793017578125,10.276575088500977,0.12263216078281403,-0.900897741317749
1751281735614756900,13.1767568359375,9.932008743286133,0.4336991012096405,-1.0683952569961548
1751281735633583600,13.19558349609375,10.027721405029297,-0.04486542567610741,-0.06340979784727097
1751281735652410600,13.21441064453125,9.994221687316895,0.2997010350227356,-1.0923235416412354
1751281735671237400,13.2332373046875,10.066006660461426,0.5150550603866577,-1.29810631275177
1751281735690064100,13.252064208984375,10.310074806213379,0.2231307178735733,-1.384247899055481
1751281735708891000,13.270890869140626,10.25743293762207,-0.0975075215101242,-1.073180913925171
1751281735727718000,13.2897177734375,9.979865074157715,-0.6287141442298889,-0.7621139883995056
1751281735746544600,13.308544677734375,9.855438232421875,-0.7962117195129395,-0.2548356056213379
1751281735765371400,13.327371337890625,9.831509590148926,-1.1312068700790405,0.18065811693668365
1751281735784198100,13.3461982421875,9.975079536437988,-1.4039887189865112,0.6017948985099792
1751281735803025200,13.365025146484374,9.836296081542969,-1.6193426847457886,1.0660024881362915
1751281735821852000,13.383851806640624,9.635298728942871,-1.5044872760772705,1.2765709161758423
1751281735840678700,13.4026787109375,9.783653259277344,-1.456630825996399,1.3962119817733765
1751281735859505700,13.421505615234375,9.640084266662598,-1.4997016191482544,1.7120646238327026
1751281735878332400,13.44033251953125,9.625727653503418,-1.4518451690673828,2.554338216781616
1751281735897159200,13.4591591796875,9.539586067199707,-1.571486234664917,3.4205398559570312
1751281735915986000,13.47798583984375,9.558728218078613,-1.973480463027954,4.372883319854736
1751281735934813000,13.49681298828125,9.118449211120605,-2.3611178398132324,4.995017051696777
1751281735953639700,13.5156396484375,9.544371604919434,-1.609771490097046,3.5497524738311768
1751281735972466400,13.534466552734376,9.295517921447754,-1.5379867553710938,3.4779677391052246
1751281735991293400,13.55329345703125,9.180662155151367,-1.7150555849075317,3.2004003524780273
1751281736010120200,13.5721201171875,9.625727653503418,-1.7485551834106445,2.8223342895507812
1751281736028947000,13.590947021484375,9.582656860351562,-1.9112670421600342,2.606980323791504
1751281736047773700,13.609773681640625,9.515657424926758,-2.1026928424835205,2.094916343688965
1751281736066600700,13.6286005859375,9.984650611877441,-2.365903377532959,1.0995019674301147
1751281736085427500,13.647427490234374,9.960722923278809,-2.011765718460083,0.16151553392410278
1751281736104254200,13.666254150390625,10.051650047302246,-1.41834557056427,-0.6424728631973267
1751281736123081200,13.685081298828125,9.855438232421875,-0.45643091201782227,-0.8386843204498291
1751281736141908000,13.703907958984376,9.874580383300781,0.1417747437953949,-0.9631111025810242
1751281736160734700,13.722734619140626,10.329216957092285,0.18484555184841156,-0.9583254456520081
1751281736179561700,13.741561767578125,9.841081619262695,0.18005990982055664,-1.2023934125900269
1751281736198388500,13.760388427734375,10.02293586730957,0.2183450609445572,-1.4416756629943848
1751281736217215200,13.77921533203125,9.879366874694824,0.2757728099822998,-1.6091731786727905
1751281736236042000,13.7980419921875,10.281360626220703,0.2709871530532837,-1.6713865995407104
1751281736254869000,13.816868896484374,10.113862991333008,0.5054838061332703,-1.7383856773376465
1751281736273695700,13.83569580078125,10.204790115356445,0.06520441919565201,-0.10169496387243271
1751281736292522500,13.8545224609375,10.070792198181152,-0.04007977992296219,-0.3026920557022095
1751281736311349200,13.873349365234375,9.994221687316895,0.22791635990142822,-0.7190431952476501
1751281736330176300,13.89217626953125,9.984650611877441,0.21355941891670227,-1.058824062347412
1751281736349003000,13.9110029296875,10.200004577636719,0.03170489892363548,-1.1545369625091553
1751281736367829800,13.929829833984375,9.946365356445312,-0.3080759048461914,-0.8482556343078613
1751281736386656800,13.94865673828125,9.979865074157715,-0.906281590461731,-0.7956135272979736
1751281736405483500,13.9674833984375,9.941579818725586,-0.7387840151786804,-0.3122633695602417
1751281736424310300,13.986310302734376,9.989436149597168,-0.8632107973098755,0.12801600992679596
1751281736443137000,14.005136962890624,9.955936431884766,-1.815554141998291,0.4534398913383484
1751281736461964000,14.023964111328125,10.13300609588623,-2.0309081077575684,0.47258245944976807
1751281736480790800,14.042790771484375,9.510871887207031,-1.4997016191482544,0.6831508874893188
1751281736499617500,14.061617431640625,9.659226417541504,-1.4087743759155273,1.0325030088424683
1751281736518444500,14.080444580078124,9.8267240524292,-1.389631748199463,1.9561325311660767
1751281736537271300,14.099271240234375,9.659226417541504,-1.332203984260559,2.9180471897125244
1751281736556098000,14.11809814453125,9.601799011230469,-1.5379867553710938,3.3678979873657227
1751281736574924800,14.1369248046875,9.611370086669922,-1.8394824266433716,3.755535125732422
1751281736593751800,14.155751708984376,9.41037368774414,-1.7916259765625,4.18145751953125
1751281736612578600,14.17457861328125,9.113663673400879,-1.4709876775741577,4.023531436920166
1751281736631405300,14.1934052734375,9.57787036895752,-1.3800604343414307,3.1334011554718018
1751281736650232000,14.212232177734375,9.54915714263916,-1.7772690057754517,3.3535408973693848
1751281736669059000,14.23105908203125,9.491728782653809,-1.5044872760772705,3.1142587661743164
1751281736687885800,14.2498857421875,9.209376335144043,-1.700698733329773,3.0664021968841553
1751281736706712600,14.268712646484374,9.78843879699707,-1.9016958475112915,2.592623233795166
1751281736725539600,14.28753955078125,9.783653259277344,-2.0309081077575684,1.7312071323394775
1751281736744366300,14.306366455078125,9.692726135253906,-1.7724833488464355,1.0755738019943237
1751281736763193000,14.325193115234375,9.821938514709473,-1.2029916048049927,0.4055834412574768
1751281736782019800,14.344019775390626,9.999007225036621,-0.9445667266845703,-0.21176479756832123
1751281736800846800,14.362846923828124,10.099506378173828,-1.1120643615722656,-0.7621139883995056
1751281736819673600,14.381673583984375,10.042078018188477,-0.877567708492279,-1.0683952569961548
1751281736838500400,14.400500244140625,10.13300609588623,-0.2602194547653198,-1.073180913925171
1751281736857327000,14.4193271484375,10.051650047302246,0.06999006122350693,-1.054038405418396
1751281736876154000,14.438154052734374,9.888937950134277,0.3044866919517517,-1.3028919696807861
1751281736894980900,14.45698095703125,9.994221687316895,0.47676992416381836,-1.4943177700042725
1751281736913807600,14.4758076171875,10.185647964477539,0.5246263742446899,-1.3986048698425293
1751281736932634600,14.494634521484375,10.554142951965332,0.8691928386688232,-1.168893814086914
1751281736951461400,14.51346142578125,9.879366874694824,-0.15972091257572174,-0.19740787148475647
1751281736970288000,14.5322880859375,9.932008743286133,0.23748764395713806,-0.7429714202880859
1751281736989115000,14.551114990234375,10.123434066772461,0.0364905446767807,-0.7908278703689575
1751281737007942000,14.56994189453125,10.166504859924316,-0.09272187948226929,-0.9774680733680725
1751281737026768600,14.5887685546875,10.018150329589844,-0.06400800496339798,-0.9152546525001526
1751281737045595400,14.607595458984376,9.879366874694824,-0.19800607860088348,-0.40797626972198486
1751281737064422100,14.626422119140624,10.104291915893555,-0.633499801158905,-0.259621262550354
1751281737083249200,14.645249267578125,10.209575653076172,-0.9397810697555542,-0.1543370634317398
1751281737102076000,14.664075927734375,10.089935302734375,-1.2269197702407837,0.22851456701755524
1751281737120902700,14.682902587890625,9.477372169494629,-1.552343726158142,0.6927221417427063
1751281737139729400,14.7017294921875,9.4390869140625,-1.394417405128479,1.1330015659332275
1751281737158556400,14.720556396484374,9.644869804382324,-0.9110672473907471,1.597209095954895
1751281737177383200,14.739383056640625,9.807581901550293,-0.7722834944725037,1.8508483171463013
1751281737196210000,14.7582099609375,9.764511108398438,-1.0307083129882812,2.128415822982788
1751281737215037000,14.777036865234376,9.759725570678711,-1.2795618772506714,2.688336133956909
1751281737233863700,14.79586376953125,9.640084266662598,-1.3130614757537842,2.6835505962371826
1751281737252690400,14.8146904296875,9.587442398071289,-1.2317054271697998,2.851048231124878
1751281737271517200,14.83351708984375,9.707083702087402,-1.1264212131500244,3.425325632095337
1751281737290344200,14.85234423828125,9.19980525970459,-1.1982059478759766,3.4061830043792725
1751281737309171000,14.8711708984375,9.601799011230469,-1.2843475341796875,2.7314071655273438
1751281737327997700,14.889997802734374,9.668798446655273,-1.3178470134735107,3.1334011554718018
1751281737346824400,14.908824462890625,9.400801658630371,-1.571486234664917,3.3583266735076904
1751281737365651500,14.9276513671875,9.319445610046387,-1.8490537405014038,3.3822548389434814
1751281737384478200,14.946478271484375,9.54915714263916,-1.7676976919174194,2.874976396560669
1751281737403305000,14.965304931640626,9.56351375579834,-1.7198412418365479,2.2480568885803223
1751281737422132000,14.984132080078124,9.64965534210205,-1.8490537405014038,1.7072789669036865
1751281737440958700,15.002958740234375,9.77408218383789,-2.0404794216156006,0.9272187948226929
1751281737459785500,15.021785400390625,9.754940032958984,-1.8490537405014038,-0.06340979784727097
1751281737478612200,15.0406123046875,10.190433502197266,-1.1264212131500244,-0.8482556343078613
1751281737497439200,15.059439208984376,10.042078018188477,-0.4707878530025482,-1.140179991722107
1751281737516266000,15.078265869140624,10.0612211227417,-0.07357929646968842,-1.2454642057418823
1751281737535092700,15.0970927734375,10.223933219909668,0.0077766734175384045,-1.1497513055801392
1751281737553919700,15.115919677734375,10.0612211227417,0.12263216078281403,-1.0444670915603638
1751281737572746500,15.13474658203125,10.200004577636719,0.39541393518447876,-1.058824062347412
1751281737591573200,15.1535732421875,10.094720840454102,0.6251249313354492,-1.1210373640060425
1751281737610400000,15.17239990234375,10.16171932220459,0.6442674994468689,-1.2023934125900269
1751281737629227000,15.19122705078125,9.754940032958984,-0.11665010452270508,0.10408778488636017
1751281737648053800,15.2100537109375,10.02293586730957,-0.020937198773026466,-0.3026920557022095
1751281737666880500,15.228880615234376,10.0612211227417,0.1657029688358307,-0.537188708782196
1751281737685707300,15.247707275390624,10.185647964477539,0.18484555184841156,-0.9487541913986206
1751281737704534300,15.2665341796875,10.066006660461426,0.4049852192401886,-0.9056833982467651
1751281737723361000,15.285361083984375,10.04686450958252,0.2805584669113159,-1.0348957777023315
1751281737742187800,15.304187744140625,10.25743293762207,-0.12143574655056,-1.0109676122665405
1751281737761014800,15.323014892578126,9.893723487854004,-0.8249256014823914,-0.714257538318634
1751281737779841500,15.341841552734374,10.128219604492188,-1.2317054271697998,-0.537188708782196
1751281737798668300,15.360668212890625,9.999007225036621,-1.5332010984420776,-0.37447673082351685
1751281737817495000,15.3794951171875,9.8267240524292,-1.6480566263198853,-0.10169496387243271
1751281737836322000,15.398322021484375,9.8267240524292,-1.6432709693908691,0.381655216217041
1751281737855148800,15.417148681640626,9.81236743927002,-1.7724833488464355,1.0947163105010986
1751281737873975600,15.4359755859375,9.697511672973633,-1.8681962490081787,1.8604196310043335
1751281737892802300,15.45480224609375,9.530014038085938,-1.8251254558563232,2.449054002761841
1751281737911629300,15.47362939453125,9.520442962646484,-1.8969101905822754,2.8319056034088135
1751281737930456000,15.4924560546875,9.477372169494629,-1.949552297592163,3.45882511138916
1751281737949282800,15.51128271484375,9.57787036895752,-2.2606191635131836,4.5308098793029785
1751281737968109600,15.530109619140624,9.017950057983398,-2.5190439224243164,5.267798900604248
1751281737986936600,15.5489365234375,9.740582466125488,-1.4901303052902222,3.2243285179138184
1751281738005763300,15.567763427734375,9.515657424926758,-1.4374881982803345,3.2721848487854004
1751281738024590000,15.586590087890626,9.477372169494629,-1.6767704486846924,3.3583266735076904
1751281738043417000,15.6054169921875,9.195018768310547,-1.877767562866211,3.387040376663208
1751281738062243800,15.624243896484375,9.458230018615723,-1.8681962490081787,3.080759048461914
1751281738081070600,15.643070556640625,9.625727653503418,-1.9304096698760986,2.2719850540161133
1751281738099897300,15.6618974609375,9.70229721069336,-1.9351953268051147,1.5206388235092163
1751281738118724400,15.680724365234376,9.88415241241455,-1.7629120349884033,0.7070791125297546
1751281738137551000,15.699551025390624,9.989436149597168,-1.6815561056137085,0.09451649338006973
1751281738156377900,15.7183779296875,9.908080101013184,-1.4709876775741577,-0.5180460810661316
1751281738175204600,15.73720458984375,10.367502212524414,-0.9541380405426025,-0.8386843204498291
1751281738194031600,15.756031494140625,9.994221687316895,-0.7914260625839233,-0.7429714202880859
1751281738212858400,15.7748583984375,9.726225852966309,-0.3415754437446594,-1.0157532691955566
1751281738231685000,15.79368505859375,10.204790115356445,0.05563312768936157,-1.2550355195999146
1751281738250512100,15.81251220703125,8.860024452209473,-0.01615155301988125,-1.1545369625091553
1751281738269339000,15.8313388671875,10.343574523925781,0.2757728099822998,-0.9726824164390564
1751281738288165600,15.85016552734375,10.922636985778809,0.3044866919517517,-1.4225330352783203
1751281738306992400,15.868992431640624,10.616355895996094,0.07477571070194244,-1.786242127418518
1751281738325819400,15.8878193359375,9.941579818725586,0.357128769159317,-0.8626125454902649
1751281738344646100,15.906646240234375,9.850652694702148,0.4336991012096405,-0.5994020700454712
1751281738363473000,15.925472900390625,9.908080101013184,0.26141586899757385,-0.6520441770553589
1751281738382300000,15.9442998046875,10.501500129699707,-0.06400800496339798,-0.8865407705307007
1751281738401126700,15.963126708984374,10.142577171325684,-0.08315058797597885,-1.3507484197616577
1751281738419953400,15.981953369140625,9.888937950134277,-0.10707881301641464,-1.7288143634796143
1751281738438780200,16.0007802734375,10.099506378173828,-0.29371899366378784,-1.633101463317871
1751281738457607000,16.01960693359375,9.999007225036621,-0.7483552694320679,-1.1832507848739624
1751281738476434000,16.038433837890626,10.03729248046875,-1.2987045049667358,-0.747757077217102
1751281738495260700,16.0572607421875,10.04686450958252,-2.1744775772094727,0.061016976833343506
1751281738514087400,16.07608740234375,9.845867156982422,-2.806182861328125,1.0372886657714844
1751281738532914400,16.09491455078125,9.530014038085938,-2.8013970851898193,1.659422516822815
1751281738551741200,16.1137412109375,9.697511672973633,-2.4329023361206055,1.5828521251678467
1751281738570568000,16.13256787109375,9.644869804382324,-1.8442680835723877,1.9130617380142212
1751281738589394700,16.151394775390624,9.606584548950195,-1.5427724123001099,2.4299113750457764
1751281738608221700,16.1702216796875,9.616155624389648,-1.4422738552093506,2.544766902923584
1751281738627048400,16.18904833984375,9.821938514709473,-1.4997016191482544,2.669193744659424
1751281738645875200,16.207875244140624,9.520442962646484,-1.3561322689056396,3.1142587661743164
1751281738664702000,16.226701904296874,9.491728782653809,-1.394417405128479,3.401397466659546
1751281738683529000,16.245529052734376,9.664012908935547,-1.9399809837341309,4.401597023010254
1751281738702355700,16.264355712890627,9.510871887207031,-1.3130614757537842,2.803191661834717
1751281738721182500,16.283182373046873,9.309874534606934,-1.456630825996399,2.985046148300171
1751281738740009500,16.302009521484376,9.448657989501953,-1.7389838695526123,3.1716864109039307
1751281738758836200,16.320836181640626,9.587442398071289,-1.7198412418365479,3.1764719486236572
1751281738777663000,16.3396630859375,9.276374816894531,-1.9974087476730347,3.2721848487854004
1751281738796489700,16.35848974609375,9.711869239807129,-2.365903377532959,2.908475875854492
1751281738815316500,16.37731640625,9.405587196350098,-2.1984057426452637,2.1092731952667236
1751281738834143500,16.3961435546875,9.769296646118164,-1.9591234922409058,0.9798609018325806
1751281738852970200,16.41497021484375,9.836296081542969,-1.6289139986038208,0.4295116662979126
1751281738871797000,16.433796875,9.793225288391113,-1.4901303052902222,0.061016976833343506
1751281738890624000,16.4526240234375,10.080363273620605,-1.1455638408660889,-0.5659025311470032
1751281738909450800,16.47145068359375,9.975079536437988,-0.5617151260375977,-1.0205388069152832
1751281738928277500,16.490277587890624,10.228718757629395,-0.020937198773026466,-1.3794622421264648
1751281738947104300,16.509104248046874,10.180862426757812,0.23270200192928314,-1.9010975360870361
1751281738965931300,16.52793115234375,9.932008743286133,0.4049852192401886,-2.1403799057006836
1751281738984758000,16.546758056640623,10.094720840454102,0.42412781715393066,-2.097309112548828
1751281739003584800,16.565584716796874,10.343574523925781,0.2566302418708801,-1.5134602785110474
1751281739022411800,16.584411865234376,10.195219039916992,0.09391828626394272,-0.7525427341461182
1751281739041238500,16.603238525390626,9.92243766784668,-0.3415754437446594,1.022931694984436
1751281739060065300,16.622065185546877,9.778867721557617,-0.13579268753528595,0.4342973232269287
1751281739078892000,16.64089208984375,10.2478609085083,0.14656038582324982,-0.900897741317749
1751281739097718800,16.65971875,10.2478609085083,0.45284169912338257,-2.221735715866089
1751281739116545800,16.6785458984375,10.070792198181152,0.5485545992851257,-2.3222343921661377
1751281739135372500,16.69737255859375,10.176076889038086,0.1178465187549591,-1.8580267429351807
1751281739154199300,16.71619921875,10.080363273620605,-0.6239284873008728,-1.2023934125900269
1751281739173026300,16.7350263671875,10.0612211227417,-1.3561322689056396,-0.6137589812278748
1751281739191853000,16.75385302734375,9.759725570678711,-1.7341982126235962,0.09451649338006973
1751281739210679800,16.7726796875,9.888937950134277,-2.1409780979156494,0.7740781307220459
1751281739229506600,16.791506591796875,9.78843879699707,-2.1649062633514404,1.0707881450653076
1751281739248333600,16.81033349609375,9.678369522094727,-2.1170499324798584,1.5780665874481201
1751281739267160300,16.829160400390624,9.707083702087402,-1.9926230907440186,2.0614166259765625
1751281739285987000,16.847987060546874,9.496515274047852,-1.9304096698760986,2.458625316619873
1751281739304813800,16.866813720703124,9.553942680358887,-1.7820546627044678,2.568695068359375
1751281739323640800,16.885640869140627,9.68794059753418,-1.4662020206451416,2.5399811267852783
1751281739342467600,16.904467529296873,9.573084831237793,-1.0307083129882812,2.5351955890655518
1751281739361294300,16.92329443359375,9.616155624389648,-0.8201399445533752,2.779263496398926
1751281739389534700,16.95153466796875,9.544371604919434,-0.9828519225120544,3.544966697692871
1751281739408361500,16.970361572265624,9.750154495239258,-0.997208833694458,2.4299113750457764
1751281739427188200,16.989188232421874,9.77408218383789,-1.3609179258346558,2.702693223953247
1751281739446015000,17.008014892578124,9.271589279174805,-1.6145570278167725,3.387040376663208
1751281739464842000,17.026842041015627,9.266803741455078,-1.8969101905822754,3.6646077632904053
1751281739483668700,17.045668701171873,9.539586067199707,-2.145763635635376,3.568894863128662
1751281739502495500,17.06449560546875,9.156734466552734,-2.2271196842193604,3.157329559326172
1751281739521322500,17.083322509765626,9.635298728942871,-2.073979139328003,2.2480568885803223
1751281739540149200,17.102149169921876,9.606584548950195,-1.9304096698760986,1.5254244804382324
1751281739558976000,17.12097607421875,9.735796928405762,-1.8251254558563232,1.0564311742782593
1751281739577802800,17.139802734375,10.056435585021973,-1.6815561056137085,0.3433700501918793
1751281739596629500,17.15862939453125,9.917651176452637,-1.3369896411895752,-0.2548356056213379
1751281739615456500,17.17745654296875,10.04686450958252,-1.0163514614105225,-0.8578268885612488
1751281739634283300,17.196283203125,10.089935302734375,-0.7579265832901001,-1.211964726448059
1751281739653110000,17.215110107421875,9.91286563873291,-0.47557350993156433,-1.451246976852417
1751281739671937000,17.23393701171875,10.429716110229492,-0.3128615617752075,-1.4608181715011597
1751281739690763800,17.252763671875,9.975079536437988,-0.12622138857841492,-1.604387640953064
1751281739709590500,17.271590576171874,10.386645317077637,0.251844584941864,-1.8293129205703735
1751281739728417300,17.290417236328125,10.195219039916992,0.3044866919517517,-1.6474584341049194
1751281739747244300,17.309244384765623,10.142577171325684,0.34277185797691345,-1.3507484197616577
1751281739766071000,17.328071044921874,9.955936431884766,-0.1501496136188507,0.4534398913383484
1751281739784897800,17.346897705078124,9.836296081542969,-0.16929219663143158,0.5204389095306396
1751281739803724500,17.365724609375,9.970293998718262,0.01734796352684498,-0.2356930375099182
1751281739822551600,17.384551513671877,9.932008743286133,0.14656038582324982,-0.833898663520813
1751281739850791700,17.412791748046875,10.128219604492188,0.11306086927652359,-1.4943177700042725
1751281739869618400,17.431618408203125,10.185647964477539,0.05563312768936157,-1.3698909282684326
1751281739888445400,17.450445556640624,10.142577171325684,-0.07836493849754333,-0.9678967595100403
1751281739907272200,17.469272216796874,9.965508460998535,-0.5665007829666138,-0.503689169883728
1751281739926099000,17.488098876953124,9.979865074157715,-1.2652050256729126,-0.22612173855304718
1751281739944925700,17.50692578125,9.807581901550293,-1.7102699279785156,0.08015955984592438
1751281739963752700,17.525752685546873,9.807581901550293,-1.7964116334915161,0.2715853750705719
1751281739982579500,17.544579345703124,9.778867721557617,-1.7629120349884033,0.2476571500301361
1751281740001406200,17.56340625,9.836296081542969,-1.7485551834106445,0.3529413342475891
1751281740020233000,17.58223291015625,9.874580383300781,-1.968694806098938,0.5778666734695435
1751281740039060000,17.60106005859375,9.917651176452637,-2.097907304763794,1.089930772781372
1751281740057886700,17.61988671875,10.65942668914795,-2.241476535797119,1.592423439025879
1751281740076713500,17.63871337890625,9.448657989501953,-1.9208383560180664,2.5112674236297607
1751281740095540500,17.65754052734375,9.247661590576172,-1.8299111127853394,3.5545380115509033
1751281740114367200,17.6763671875,9.118449211120605,-1.9974087476730347,4.420739650726318
1751281740133194000,17.695194091796875,9.764511108398438,-2.2654049396514893,5.473581790924072
1751281740152020700,17.714020751953125,9.673583984375,-1.85383939743042,4.281956195831299
1751281740170847700,17.73284765625,9.319445610046387,-1.7533408403396606,4.143172264099121
1751281740189674500,17.751674560546874,8.682954788208008,-1.5236297845840454,3.8081772327423096
1751281740208501200,17.770501220703125,10.00857925415039,-1.973480463027954,3.4540395736694336
1751281740227328000,17.789327880859375,9.242876052856445,-2.279761791229248,3.119044303894043
1751281740246155000,17.808155029296874,9.32423210144043,-2.3850460052490234,2.520838737487793
1751281740264981800,17.826981689453124,9.975079536437988,-2.437688112258911,1.6737794876098633
1751281740283808500,17.84580859375,9.831509590148926,-2.437688112258911,0.7645068168640137
1751281740302635300,17.86463525390625,9.860223770141602,-2.155334949493408,-0.2548356056213379
1751281740321462300,17.883462158203123,10.066006660461426,-1.6193426847457886,-1.0683952569961548
1751281740340289000,17.9022890625,9.908080101013184,-0.9828519225120544,-1.6809579133987427
1751281740359115800,17.92111572265625,9.754940032958984,-0.4372883439064026,-1.9824535846710205
1751281740377942500,17.939942626953126,10.27178955078125,-0.09272187948226929,-1.9250258207321167
1751281740396769500,17.95876953125,10.209575653076172,0.20877377688884735,-2.063809633255005
1751281740415596300,17.97759619140625,9.979865074157715,0.251844584941864,-2.3270199298858643
1751281740434423000,17.996423095703125,9.970293998718262,0.29012975096702576,-2.221735715866089
1751281740453249800,18.015249755859376,10.113862991333008,0.3044866919517517,-2.001596212387085
1751281740472076800,18.034076904296874,10.109077453613281,0.6107679605484009,-1.714457392692566
1751281740490903600,18.052903564453125,9.544371604919434,0.16091732680797577,-0.3314059376716614
1751281740509730300,18.071730224609375,9.984650611877441,0.2805584669113159,-0.8386843204498291
1751281740528557000,18.09055712890625,9.927223205566406,0.23748764395713806,-0.7908278703689575
1751281740547384000,18.109384033203124,10.62114143371582,0.10348957777023315,-0.6951149702072144
1751281740566210800,18.1282109375,10.276575088500977,-0.04486542567610741,-0.9966106414794922
1751281740585037600,18.14703759765625,9.745368003845215,0.13698910176753998,-1.1928220987319946
1751281740603864600,18.165864501953124,9.903294563293457,-0.1501496136188507,-0.9152546525001526
1751281740622691300,18.18469140625,10.013364791870117,-0.7052844762802124,-0.2069791555404663
1751281740641518000,18.20351806640625,10.04686450958252,-1.1168500185012817,-0.12083754688501358
1751281740660344800,18.2223447265625,9.91286563873291,-1.3992030620574951,-0.22612173855304718
1751281740679171600,18.241171630859377,9.955936431884766,-1.877767562866211,-0.029910283163189888
1751281740697998600,18.25999853515625,9.908080101013184,-2.0404794216156006,0.39601215720176697
1751281740716825300,18.278825439453126,9.735796928405762,-1.9782661199569702,0.9128618240356445
1751281740735652000,18.297652099609376,9.927223205566406,-2.0404794216156006,1.2239288091659546
1751281740754479000,18.31647900390625,9.807581901550293,-1.8394824266433716,1.597209095954895
1751281740773305900,18.335305908203125,9.625727653503418,-1.662413477897644,1.7168502807617188
1751281740792132600,18.354132568359375,9.587442398071289,-1.4757733345031738,1.9896320104599
1751281740810959400,18.37295947265625,9.486943244934082,-1.41834557056427,2.4634108543395996
1751281740829786400,18.391786376953124,10.027721405029297,-1.5619150400161743,3.2099716663360596
1751281740848613000,18.410613037109375,9.793225288391113,-2.179263114929199,4.774877548217773
1751281740867439900,18.42943994140625,9.099306106567383,-1.9016958475112915,5.2630133628845215
1751281740886266600,18.4482666015625,8.563314437866211,-1.1934202909469604,3.655036687850952
1751281740905093600,18.46709375,9.865009307861328,-1.5954145193099976,3.7603209018707275
1751281740923920400,18.48592041015625,9.57787036895752,-1.7437695264816284,3.449253797531128
1751281740942747100,18.5047470703125,9.434301376342773,-1.633699655532837,2.83669114112854
1751281740961574000,18.523573974609373,9.79801082611084,-1.5619150400161743,2.286342144012451
1751281740980401000,18.54240087890625,9.726225852966309,-1.4757733345031738,1.7694923877716064
1751281740999227600,18.5612275390625,9.8267240524292,-1.5810575485229492,1.0277173519134521
1751281741018054400,18.580054443359376,10.042078018188477,-1.7102699279785156,0.3577269911766052
1751281741036881400,18.59888134765625,9.783653259277344,-1.4422738552093506,-0.3601198196411133
1751281741055708200,18.617708251953125,9.932008743286133,-1.0689935684204102,-0.9056833982467651
1751281741074535000,18.636534912109376,9.869794845581055,-0.5760720372200012,-1.3316057920455933
1751281741093361700,18.655361572265626,10.190433502197266,-0.40378883481025696,-1.4943177700042725
1751281741112188400,18.6741884765625,9.860223770141602,-0.24586252868175507,-1.2741780281066895
1751281741131015400,18.693015380859375,10.013364791870117,-0.3607180118560791,-0.867398202419281
1751281741149842200,18.71184228515625,10.003793716430664,-0.2602194547653198,-0.6903293132781982
1751281741168669000,18.7306689453125,10.056435585021973,-0.11665010452270508,-0.5754738450050354
1751281741187496000,18.749495849609374,10.02293586730957,-0.01136590726673603,-0.776470959186554
1751281741206322700,18.76832275390625,9.984650611877441,0.16091732680797577,-1.0253244638442993
1751281741225149400,18.7871494140625,9.841081619262695,0.12741780281066895,-0.9343972206115723
1751281741243976200,18.80597607421875,10.051650047302246,0.15613168478012085,-0.537188708782196
1751281741262803200,18.82480322265625,9.855438232421875,0.21355941891670227,-0.09690931439399719
1751281741281630000,18.8436298828125,9.697511672973633,-0.09272187948226929,0.6687939167022705
1751281741300456700,18.862456787109377,10.195219039916992,-0.09272187948226929,0.25722843408584595
1751281741319283500,18.881283447265623,10.334002494812012,0.3762713670730591,-0.8051848411560059
1751281741338110500,18.9001103515625,9.57787036895752,0.735194742679596,-1.0971091985702515
1751281741356937200,18.918937255859376,10.290931701660156,0.3523431420326233,-1.2502498626708984
1751281741375764000,18.937763916015626,10.348360061645508,-0.3655036687850952,-1.0636097192764282
1751281741394590700,18.9565908203125,9.979865074157715,-0.6526423692703247,-0.503689169883728
1751281741413417700,18.975417724609375,9.544371604919434,-0.719641387462616,0.2715853750705719
1751281741432244500,18.994244384765626,9.597013473510742,-0.7579265832901001,0.5491527915000916
1751281741451071200,19.0130712890625,9.941579818725586,-0.906281590461731,0.5300102233886719
1751281741469898200,19.031898193359375,10.468000411987305,-1.1407781839370728,0.23330020904541016
1751281741488725000,19.05072509765625,9.530014038085938,-1.064207911491394,0.061016976833343506
1751281741507551700,19.0695517578125,9.721440315246582,-1.0929217338562012,0.15672987699508667
1751281741526378500,19.08837841796875,9.664012908935547,-1.3178470134735107,0.23330020904541016
1751281741545205500,19.10720556640625,10.156933784484863,-1.6576279401779175,0.43908295035362244
1751281741564032300,19.1260322265625,9.893723487854004,-1.9208383560180664,0.8123632669448853
1751281741582859000,19.14485888671875,9.88415241241455,-2.083550214767456,1.3244273662567139
1751281741601685800,19.163685791015624,9.683155059814453,-1.9399809837341309,1.5254244804382324
1751281741620512800,19.1825126953125,9.477372169494629,-1.4949159622192383,1.6785650253295898
1751281741639339500,19.201339599609376,9.568299293518066,-1.2939188480377197,2.3916261196136475
1751281741658166300,19.220166259765627,10.027721405029297,-1.5427724123001099,3.5497524738311768
1751281741676993000,19.238992919921873,9.309874534606934,-1.4039887189865112,5.023731231689453
1751281741695820000,19.257820068359376,8.395816802978516,-1.662413477897644,5.167300701141357
1751281741714646800,19.276646728515626,10.03729248046875,-1.2747762203216553,3.449253797531128
1751281741733473500,19.2954736328125,9.673583984375,-1.150349497795105,3.1381869316101074
1751281741752300300,19.31430029296875,9.238089561462402,-1.2747762203216553,3.0185458660125732
1751281741771127300,19.333127197265625,9.955936431884766,-1.8490537405014038,2.8558337688446045
1751281741789954000,19.3519541015625,9.33858871459961,-1.7964116334915161,2.3437697887420654
1751281741808780800,19.37078076171875,9.640084266662598,-1.6193426847457886,1.9752750396728516
1751281741827607800,19.38960791015625,9.77408218383789,-1.5571293830871582,1.6163517236709595
1751281741855848000,19.417847900390626,9.850652694702148,-1.5188441276550293,0.7022934556007385
1751281741874674700,19.4366748046875,9.93679428100586,-1.41834557056427,0.26201409101486206
1751281741893501400,19.45550146484375,9.941579818725586,-1.3369896411895752,-0.03469592705368996
1751281741912328400,19.474328369140625,9.989436149597168,-1.1694921255111694,-0.27397820353507996
1751281741931155200,19.4931552734375,9.726225852966309,-0.8488538265228271,-0.6424728631973267
1751281741949982000,19.51198193359375,9.668798446655273,-0.29850462079048157,-1.3363914489746094
1751281741968809000,19.53080908203125,11.142776489257812,-0.2315055876970291,-1.5326029062271118
1751281741987635700,19.5496357421875,9.376873970031738,0.1704886108636856,-1.6522440910339355
1751281742006462500,19.56846240234375,10.25743293762207,0.29012975096702576,-1.810170292854309
1751281742025289200,19.587289306640624,10.702497482299805,0.2949153780937195,-1.9776679277420044
1751281742044116200,19.6061162109375,10.066006660461426,0.44327038526535034,-1.164108157157898
1751281742062943000,19.62494287109375,9.553942680358887,0.37148571014404297,-0.8530412912368774
1751281742081769700,19.643769775390624,10.381858825683594,0.2997010350227356,-0.9678967595100403
1751281742100596500,19.662596435546874,10.156933784484863,0.13698910176753998,-0.9200403094291687
1751281742119423500,19.681423583984376,9.975079536437988,0.0029910283628851175,-0.7190431952476501
1751281742138250200,19.700250244140626,9.932008743286133,-0.18843477964401245,-0.4893322288990021
1751281742157077000,19.719076904296877,10.018150329589844,-0.4899304509162903,-0.40797626972198486
1751281742175903700,19.73790380859375,10.03729248046875,-0.8919246196746826,-0.29312077164649963
1751281742194730800,19.756730712890626,9.879366874694824,-1.0689935684204102,-0.029910283163189888
1751281742213557500,19.7755576171875,9.955936431884766,-1.2221341133117676,0.2715853750705719
1751281742232384300,19.79438427734375,9.57787036895752,-1.4327025413513184,0.5826523303985596
1751281742251211300,19.813211181640625,9.850652694702148,-1.6767704486846924,0.7836494445800781
1751281742270038000,19.8320380859375,9.984650611877441,-1.7198412418365479,1.046859860420227
1751281742288864800,19.85086474609375,9.855438232421875,-1.6815561056137085,1.5637096166610718
1751281742307691500,19.86969140625,9.659226417541504,-1.662413477897644,1.8987047672271729
1751281742326518500,19.8885185546875,9.716654777526855,-1.5044872760772705,2.3054845333099365
1751281742345345300,19.90734521484375,9.77408218383789,-1.2460623979568481,2.702693223953247
1751281742364172000,19.926172119140624,9.19023323059082,-0.9206385016441345,3.3966116905212402
1751281742382998800,19.944998779296874,9.367302894592285,-0.9302098155021667,4.2245283126831055
1751281742401825800,19.96382568359375,9.491728782653809,-1.485344648361206,3.482753276824951
1751281742420652500,19.982652587890627,9.544371604919434,-0.2793620526790619,1.2765709161758423
1751281742439479300,20.001479248046873,9.941579818725586,-0.21714866161346436,1.1521440744400024
1751281742458306300,20.020306396484376,9.836296081542969,-0.6765705943107605,1.7790635824203491
1751281742477133000,20.039133056640626,9.611370086669922,-0.9397810697555542,2.3820550441741943
1751281742495959800,20.057959716796876,9.640084266662598,-0.9876375198364258,2.750549554824829
1751281742514786600,20.07678662109375,9.587442398071289,-1.2939188480377197,2.7840490341186523
1751281742533613300,20.09561328125,9.46301555633545,-1.552343726158142,2.5974090099334717
1751281742552440300,20.1144404296875,9.510871887207031,-1.3992030620574951,2.6021945476531982
1751281742571267000,20.13326708984375,9.678369522094727,-1.212562918663025,2.5016961097717285
1751281742590093800,20.15209375,9.68794059753418,-1.1455638408660889,2.1619153022766113
1751281742608920800,20.1709208984375,9.707083702087402,-1.3226326704025269,1.5828521251678467
1751281742627747600,20.18974755859375,9.807581901550293,-1.4279168844223022,1.1282159090042114
1751281742646574300,20.20857421875,9.903294563293457,-1.5667005777359009,1.1569297313690186
1751281742665401000,20.227401123046874,9.764511108398438,-1.5667005777359009,0.7692924737930298
1751281742684228000,20.24622802734375,10.13300609588623,-1.5188441276550293,0.10408778488636017
1751281742703054800,20.265054931640623,10.444072723388672,-1.2221341133117676,-0.6951149702072144
1751281742721881600,20.283881591796874,9.381659507751465,-0.6047859191894531,-1.389033555984497
1751281742740708400,20.302708251953124,9.845867156982422,-0.13579268753528595,-1.9058831930160522
1751281742759535400,20.321535400390626,10.075577735900879,0.01734796352684498,-1.963310956954956
1751281742778362000,20.340362060546877,10.2478609085083,0.14656038582324982,-1.9920248985290527
1751281742797188900,20.35918896484375,10.099506378173828,0.7399803996086121,-2.5806591510772705
1751281742816016000,20.378015869140626,10.439287185668945,0.4911268353462219,-2.7625136375427246
1751281742834842600,20.396842529296876,9.888937950134277,0.5581258535385132,-1.2550355195999146
1751281742853669400,20.41566943359375,10.118648529052734,0.4336991012096405,-1.3028919696807861
1751281742872496000,20.43449609375,10.300503730773926,0.18005990982055664,-0.8578268885612488
1751281742891323100,20.4533232421875,9.754940032958984,-0.001794616924598813,-0.2356930375099182
1751281742910150000,20.47214990234375,10.223933219909668,-0.4181457459926605,-0.24047867953777313
1751281742928976600,20.4909765625,9.783653259277344,-0.4420739710330963,-0.14476576447486877
1751281742947803600,20.5098037109375,9.711869239807129,-0.4372883439064026,0.08015955984592438
1751281742966630400,20.52863037109375,10.137791633605957,-0.7914260625839233,0.008374879136681557
1751281742985457200,20.54745703125,9.879366874694824,-1.0163514614105225,0.07537391036748886
1751281743004284000,20.566283935546874,9.793225288391113,-1.1838489770889282,0.3290131092071533
1751281743023111000,20.58511083984375,9.999007225036621,-1.3848460912704468,0.6113662123680115
1751281743041937700,20.603937744140627,9.764511108398438,-1.4374881982803345,0.8841479420661926
1751281743060764400,20.622764404296873,9.793225288391113,-1.461416482925415,1.2526426315307617
1751281743079591200,20.641591064453124,9.793225288391113,-1.5810575485229492,1.6546368598937988
1751281743098418200,20.660418212890626,9.616155624389648,-1.6815561056137085,2.042274236679077
1751281743117245000,20.679244873046876,9.764511108398438,-1.3848460912704468,2.5734808444976807
1751281743136071700,20.69807177734375,9.544371604919434,-1.1024930477142334,2.937189817428589
1751281743154898400,20.7168984375,9.31466007232666,-1.0450652837753296,2.8319056034088135
1751281743173725400,20.735725341796876,9.659226417541504,-1.1694921255111694,2.8797619342803955
1751281743192552200,20.75455224609375,9.553942680358887,-1.4709876775741577,3.482753276824951
1751281743211379000,20.77337890625,9.606584548950195,-0.9924231767654419,2.506481647491455
1751281743230205700,20.792205810546875,9.209376335144043,-0.8967102766036987,2.606980323791504
1751281743249032700,20.81103271484375,9.793225288391113,-0.8153542876243591,2.3198416233062744
1751281743267859500,20.829859375,9.553942680358887,-0.8584251403808594,2.4155545234680176
1751281743286686200,20.848686279296874,9.64965534210205,-1.0115658044815063,2.530410051345825
1751281743305513200,20.86751318359375,9.951150894165039,-0.9493523836135864,2.5112674236297607
1751281743324340000,20.886340087890623,9.42473030090332,-1.179063320159912,1.8269200325012207
1751281743343166700,20.905166748046874,9.850652694702148,-1.1264212131500244,1.4727823734283447
1751281743361993500,20.923993408203124,9.807581901550293,-1.2556337118148804,1.6115660667419434
1751281743380820500,20.942820556640626,9.601799011230469,-1.5332010984420776,1.8556339740753174
1751281743399647200,20.961647216796877,9.92243766784668,-1.576271891593933,1.4727823734283447
1751281743418474000,20.980473876953123,9.88415241241455,-1.3609179258346558,0.8458628058433533
1751281743437301000,20.999301025390626,10.094720840454102,-1.1312068700790405,0.1423729509115219
1751281743456127700,21.018127685546876,9.817152976989746,-0.8297112584114075,-0.623330295085907
1751281743474954500,21.03695458984375,9.496515274047852,-0.5665007829666138,-1.207179069519043
1751281743493781200,21.05578125,9.965508460998535,-0.3320041298866272,-1.3938192129135132
1751281743512608300,21.074608154296875,10.200004577636719,-0.19800607860088348,-1.2502498626708984
1751281743531435000,21.09343505859375,10.573285102844238,-0.3128615617752075,-0.7238288521766663
1751281743550261800,21.11226171875,10.066006660461426,0.5198407173156738,-0.867398202419281
1751281743569088500,21.131088623046875,9.821938514709473,1.0510473251342773,-1.8245272636413574
1751281743587915500,21.14991552734375,10.39621639251709,0.6059823632240295,-1.1306086778640747
1751281743606742300,21.1687421875,9.611370086669922,-0.11186445504426956,0.4534398913383484
1751281743625569000,21.187569091796874,10.491929054260254,0.10348957777023315,-0.26440688967704773
1751281743644396000,21.20639599609375,9.673583984375,0.34277185797691345,-0.24047867953777313
1751281743663222800,21.225222900390627,9.979865074157715,0.2805584669113159,-0.6999006271362305
1751281743682049500,21.244049560546873,10.16171932220459,0.1704886108636856,-1.231107234954834
1751281743700876300,21.262876220703124,9.979865074157715,0.251844584941864,-1.5134602785110474
1751281743719703300,21.281703369140626,10.176076889038086,-0.1453639715909958,-1.0827522277832031
1751281743738530000,21.300530029296876,10.137791633605957,-0.8392825126647949,-0.623330295085907
1751281743757356800,21.319356689453127,9.817152976989746,-1.3800604343414307,-0.17347964644432068
1751281743776183600,21.33818359375,9.869794845581055,-1.6480566263198853,0.5395814776420593
1751281743795010600,21.357010498046876,9.77408218383789,-1.7437695264816284,1.1665010452270508
1751281743813837300,21.37583740234375,9.683155059814453,-1.6576279401779175,1.6689938306808472
1751281743832664000,21.3946640625,9.644869804382324,-1.5188441276550293,1.92741858959198
1751281743851490800,21.41349072265625,9.735796928405762,-1.4949159622192383,2.080559253692627
1751281743870317800,21.43231787109375,9.716654777526855,-1.4135600328445435,2.286342144012451
1751281743889144600,21.45114453125,9.640084266662598,-1.217348575592041,2.396411895751953
1751281743907971300,21.469971435546874,9.630513191223145,-1.083350419998169,2.544766902923584
1751281743926798300,21.48879833984375,9.587442398071289,-1.0067801475524902,3.0185458660125732
1751281743945625000,21.507625,9.668798446655273,-0.6717849373817444,3.142972469329834
1751281743964451800,21.526451904296874,9.477372169494629,-0.45164528489112854,2.066202402114868
1751281743983278600,21.545278564453124,10.200004577636719,-0.21236300468444824,0.7405785918235779
1751281744002105600,21.564105712890626,9.754940032958984,-0.10707881301641464,0.6879364848136902
1751281744020932400,21.582932373046877,9.793225288391113,-0.19800607860088348,0.8219345808029175
1751281744039759000,21.601759033203123,9.888937950134277,-0.6382854580879211,1.4297115802764893
1751281744058585900,21.6205859375,9.664012908935547,-1.2747762203216553,2.2337000370025635
1751281744077412900,21.639412841796876,9.520442962646484,-1.2747762203216553,2.1571295261383057
1751281744096239600,21.658239501953126,9.587442398071289,-0.7962117195129395,2.2911276817321777
1751281744115066400,21.67706640625,9.865009307861328,-0.5330012440681458,2.544766902923584
1751281744133893400,21.695893310546875,9.453444480895996,-0.9349954724311829,2.5016961097717285
1751281744152720100,21.71472021484375,9.640084266662598,-1.2843475341796875,2.252842426300049
1751281744171547000,21.733546875,9.984650611877441,-1.7198412418365479,1.7647067308425903
1751281744190373600,21.75237353515625,9.582656860351562,-1.485344648361206,1.171286702156067
1751281744209200600,21.77120068359375,9.984650611877441,-1.3513466119766235,0.6592226624488831
1751281744228027400,21.79002734375,9.711869239807129,-1.0785647630691528,0.4630111753940582
1751281744246854100,21.808854248046874,9.93679428100586,-0.7387840151786804,0.2189432680606842
1751281744265681200,21.82768115234375,9.759725570678711,-0.39900317788124084,-0.21655045449733734
1751281744284508000,21.8465078125,10.420144081115723,-0.3320041298866272,-0.5754738450050354
1751281744303334700,21.865334716796873,9.592227935791016,-0.07836493849754333,-0.6664010882377625
1751281744322161400,21.884161376953124,10.176076889038086,0.09391828626394272,-0.7812566161155701
1751281744340988400,21.902988525390626,10.2478609085083,0.18963119387626648,-0.7429714202880859
1751281744359815200,21.921815185546876,10.195219039916992,0.4289134442806244,-1.1114661693572998
1751281744378642000,21.940641845703126,10.04686450958252,0.9122636318206787,-1.5804593563079834
1751281744397468700,21.95946875,10.252646446228027,0.6011967062950134,-0.900897741317749
1751281744416295700,21.978295654296875,9.91286563873291,-0.11665010452270508,0.4342973232269287
1751281744435122400,21.997122314453126,9.994221687316895,0.012562318705022335,0.0323031060397625
1751281744453949200,22.01594921875,9.783653259277344,0.31405797600746155,-0.3840480446815491
1751281744472776200,22.034776123046875,10.075577735900879,0.15134602785110474,-0.589830756187439
1751281744491603000,22.05360302734375,10.02293586730957,-0.06400800496339798,-0.776470959186554
1751281744510429700,22.0724296875,10.094720840454102,-0.08315058797597885,-0.9152546525001526
1751281744529256400,22.09125634765625,10.066006660461426,-0.32721850275993347,-0.8434699773788452
1751281744548083200,22.110083251953125,10.080363273620605,-0.6813562512397766,-0.8195417523384094
1751281744566910200,22.12891015625,10.042078018188477,-1.0498509407043457,-0.6376872062683105
1751281744585737000,22.147737060546874,9.869794845581055,-1.2652050256729126,-0.10169496387243271
1751281744604563700,22.166563720703124,9.802796363830566,-1.4135600328445435,0.4342973232269287
1751281744623390700,22.185390625,9.821938514709473,-1.3992030620574951,1.0660024881362915
1751281744642217500,22.204217529296876,9.673583984375,-1.3992030620574951,1.568495273590088
1751281744661044200,22.223044189453127,9.817152976989746,-1.5284154415130615,1.6737794876098633
1751281744679871000,22.24187109375,9.68794059753418,-1.6193426847457886,1.817348837852478
1751281744698698000,22.260697998046876,9.640084266662598,-1.4470595121383667,2.310270309448242
1751281744717524700,22.279524658203126,9.616155624389648,-1.4087743759155273,3.0616166591644287
1751281744736351500,22.2983515625,9.400801658630371,-1.485344648361206,4.100101470947266
1751281744755178500,22.317178466796875,9.348159790039062,-1.6767704486846924,4.794020175933838
1751281744774005200,22.336005126953125,9.764511108398438,-0.8249256014823914,2.5016961097717285
1751281744792832000,22.35483203125,9.525228500366211,-1.179063320159912,2.9563324451446533
1751281744811658800,22.37365869140625,9.396016120910645,-1.638485312461853,3.3104701042175293
1751281744830485800,22.39248583984375,9.616155624389648,-1.6480566263198853,3.0903303623199463
1751281744849312500,22.4113125,9.496515274047852,-1.4901303052902222,2.506481647491455
1751281744868139300,22.43013916015625,9.640084266662598,-1.6241283416748047,2.23848557472229
1751281744886966000,22.448966064453124,9.745368003845215,-1.7629120349884033,1.8652052879333496
1751281744905793000,22.46779296875,9.735796928405762,-1.8011972904205322,1.085145115852356
1751281744924619800,22.486619873046877,9.70229721069336,-1.5092729330062866,0.26201409101486206
1751281744943446500,22.505446533203123,10.310074806213379,-1.0259226560592651,-0.5132604837417603
1751281744962273500,22.5242734375,9.888937950134277,-0.19800607860088348,-1.3459627628326416
1751281744981100300,22.543100341796876,9.865009307861328,0.1417747437953949,-1.5326029062271118
1751281744999927000,22.561927001953126,10.444072723388672,0.15613168478012085,-1.4321043491363525
1751281745018753800,22.58075390625,10.204790115356445,0.050847481936216354,-1.1976077556610107
1751281745037580800,22.599580810546875,10.204790115356445,0.3044866919517517,-1.4608181715011597
1751281745056407600,22.618407470703126,10.027721405029297,0.6921239495277405,-1.6235301494598389
1751281745075234300,22.637234375,9.927223205566406,-0.001794616924598813,0.09451649338006973
1751281745094061300,22.656061279296875,9.970293998718262,-0.08793623000383377,0.1950150430202484
1751281745112888000,22.67488818359375,9.93679428100586,0.1657029688358307,-0.19262222945690155
1751281745131714800,22.69371484375,10.113862991333008,0.39062830805778503,-0.7334001660346985
1751281745150541600,22.71254150390625,9.903294563293457,0.735194742679596,-0.9631111025810242
1751281745169368600,22.73136865234375,9.927223205566406,-0.19322042167186737,-0.7381857633590698
1751281745188195300,22.7501953125,10.142577171325684,0.2470589429140091,-0.8291130661964417
1751281745207022000,22.76902197265625,10.319645881652832,-0.2267199456691742,-0.6711867451667786
1751281745225848800,22.787848876953124,9.908080101013184,-0.50907301902771,-0.25004997849464417
1751281745244675800,22.80667578125,9.965508460998535,-1.2987045049667358,0.04187439754605293
1751281745263502600,22.825502685546876,9.807581901550293,-1.7102699279785156,0.20937198400497437
1751281745282329300,22.844329345703127,9.927223205566406,-1.9351953268051147,0.44386860728263855
1751281745301156000,22.863156005859373,9.659226417541504,-1.7485551834106445,0.989432156085968
1751281745319983000,22.881983154296876,9.874580383300781,-1.724626898765564,1.420140266418457
1751281745338809900,22.900809814453126,9.721440315246582,-1.662413477897644,1.8699909448623657
1751281745357636600,22.91963671875,9.692726135253906,-1.5092729330062866,2.166700839996338
1751281745376463400,22.93846337890625,9.57787036895752,-1.3226326704025269,2.458625316619873
1751281745395290400,22.957290283203125,9.57787036895752,-1.1694921255111694,3.4301111698150635
1751281745414117000,22.9761171875,9.64965534210205,-1.1359925270080566,4.459024906158447
1751281745432943900,22.99494384765625,9.238089561462402,-1.3417752981185913,3.6646077632904053
1751281745451771000,23.01377099609375,9.56351375579834,-1.332203984260559,3.5258240699768066
1751281745470597600,23.03259765625,9.635298728942871,-1.8059829473495483,3.2817561626434326
1751281745489424400,23.05142431640625,9.295517921447754,-1.6911274194717407,2.89890456199646
1751281745508251100,23.070251220703124,9.754940032958984,-1.8586249351501465,2.334198474884033
1751281745527078100,23.089078125,9.78843879699707,-1.9591234922409058,1.7934205532073975
1751281745545905000,23.10790478515625,9.683155059814453,-2.0069799423217773,1.333998680114746
1751281745564731600,23.126731689453123,9.568299293518066,-1.906481385231018,1.0660024881362915
1751281745592972000,23.154971923828125,9.917651176452637,-1.5810575485229492,1.0037890672683716
1751281745611798800,23.173798828125,10.070792198181152,-1.236491084098816,0.3242274820804596
1751281745630625500,23.19262548828125,9.941579818725586,-0.6047859191894531,-0.6089733839035034
1751281745649452300,23.211452392578124,9.874580383300781,-0.01615155301988125,-0.8003991842269897
1751281745668279300,23.230279296875,10.343574523925781,0.2183450609445572,-0.9439685344696045
1751281745687106000,23.24910595703125,10.02293586730957,0.1657029688358307,-1.1593226194381714
1751281745705932800,23.267932861328124,10.089935302734375,0.08434699475765228,-1.2215359210968018
1751281745724759600,23.286759521484374,10.13300609588623,-0.03529413416981697,-1.0923235416412354
1751281745743586600,23.305586669921876,10.070792198181152,0.050847481936216354,-1.1593226194381714
1751281745762413300,23.324413330078126,10.180862426757812,0.34277185797691345,-1.475175142288208
1751281745781240000,23.343239990234373,10.444072723388672,0.4289134442806244,-0.9296116232872009
1751281745800067000,23.362067138671875,9.668798446655273,0.2949153780937195,0.12323036789894104
1751281745818893800,23.380893798828126,10.137791633605957,0.5054838061332703,-0.4127618968486786
1751281745837720600,23.399720458984376,10.343574523925781,0.6586244106292725,-1.3363914489746094
1751281745856547300,23.41854736328125,9.92243766784668,0.9936196208000183,-1.3651052713394165
1751281745875374300,23.437374267578125,10.357931137084961,0.7591229677200317,-1.7240287065505981
1751281745894201000,23.456201171875,10.085148811340332,-0.633499801158905,-1.4799607992172241
1751281745913027800,23.47502783203125,10.649855613708496,-1.4135600328445435,-0.8961120843887329
1751281745931854800,23.493854736328124,9.506086349487305,-1.700698733329773,-0.039481572806835175
1751281745950681600,23.512681640625,9.630513191223145,-2.059622049331665,0.1423729509115219
1751281745969508400,23.53150830078125,10.099506378173828,-2.318047046661377,-0.08733802288770676
1751281745988335000,23.550335205078124,9.845867156982422,-2.222334146499634,0.16151553392410278
1751281746007162000,23.569162109375,9.81236743927002,-2.193620204925537,1.0612168312072754
1751281746025988900,23.58798876953125,9.496515274047852,-2.1888344287872314,2.0374884605407715
1751281746044815600,23.606815673828127,9.692726135253906,-2.1984057426452637,2.6452653408050537
1751281746063642400,23.625642333984374,9.654440879821777,-2.035693883895874,2.999403238296509
1751281746082469400,23.644469482421876,9.295517921447754,-1.6432709693908691,3.64546537399292
1751281746101296000,23.663296142578126,9.477372169494629,-1.705484390258789,4.406383037567139
1751281746120123000,23.682122802734376,9.329017639160156,-1.7437695264816284,5.119443893432617
1751281746138949600,23.70094970703125,9.486943244934082,-1.059422254562378,2.908475875854492
1751281746157776600,23.719776611328125,9.534799575805664,-0.9589236974716187,2.8223342895507812
1751281746176603400,23.738603271484376,9.793225288391113,-1.1216355562210083,2.8414769172668457
1751281746195430100,23.75743017578125,9.443872451782227,-1.2987045049667358,2.788834810256958
1751281746214257000,23.7762568359375,9.759725570678711,-1.638485312461853,2.726621389389038
1751281746233084000,23.795083984375,9.731011390686035,-1.882553219795227,2.3772692680358887
1751281746251910700,23.81391064453125,9.525228500366211,-2.1409780979156494,1.9561325311660767
1751281746270737400,23.8327373046875,9.405587196350098,-2.3611178398132324,1.6163517236709595
1751281746289564400,23.851564453125,9.908080101013184,-2.5429723262786865,0.9798609018325806
1751281746308391200,23.87039111328125,10.02293586730957,-2.7152554988861084,0.5778666734695435
1751281746327218000,23.889218017578123,9.778867721557617,-2.3563320636749268,-0.35054850578308105
1751281746346044700,23.908044677734374,9.448657989501953,-1.3226326704025269,-0.7334001660346985
1751281746364871700,23.92687158203125,10.582856178283691,-0.8632107973098755,-0.7908278703689575
1751281746383698400,23.945698486328126,9.860223770141602,-0.18843477964401245,-0.9056833982467651
1751281746402525200,23.964525146484377,10.113862991333008,0.4815555512905121,-1.3603196144104004
1751281746421352200,23.983352294921875,9.821938514709473,0.5916253924369812,-1.5469598770141602
1751281746440179000,24.002178955078126,10.362716674804688,0.20398813486099243,-1.1306086778640747
1751281746459005700,24.021005615234376,10.152148246765137,0.10348957777023315,-0.7190431952476501
1751281746477832400,24.03983251953125,9.764511108398438,0.3332005441188812,-0.5419743061065674
1751281746496659500,24.058659423828125,10.02293586730957,-0.05922235921025276,-0.16869398951530457
