time,seconds_elapsed,z,y,x
1751448481428517000,0.19951708984375,0,0,0
1751448481475587600,0.246587646484375,0.015753746032714844,-0.0061928629875183105,-0.023547828197479248
1751448481494416000,0.265415771484375,-0.01615142822265625,-0.01444515585899353,0.005437706597149372
1751448481513244000,0.284243896484375,0.011487007141113281,0.005839616060256958,-0.008622843772172928
1751448481532072200,0.303072265625,0.018148422241210938,-0.0045509934425354,0.018555212765932083
1751448481550900500,0.321900390625,-0.03007793426513672,-0.0047210752964019775,-0.004419900011271238
1751448481569728800,0.340728759765625,-0.018686294555664062,-0.0029379278421401978,0.006649584509432316
1751448481588556800,0.359556884765625,0.012970924377441406,0.008560001850128174,0.0011699129827320576
1751448481607385000,0.378385009765625,-0.021528244018554688,0.0018372535705566406,-0.0030857399106025696
1751448481626213400,0.39721337890625,-0.0054836273193359375,-0.01363682746887207,0.00036744261160492897
1751448481645041700,0.416041748046875,0.028476715087890625,0.0010260045528411865,0.011899799108505249
1751448481663869700,0.43486962890625,0.002170562744140625,0.004119992256164551,0.014573591761291027
1751448481682698000,0.453697998046875,-0.027382850646972656,0.01873740553855896,-0.0011438215151429176
1751448481701526300,0.4725263671875,-0.006535530090332031,0.009592205286026001,0.0093452213332057
1751448481720354600,0.4913544921875,0.017162322998046875,0.0009900331497192383,-0.006722257472574711
1751448481739182600,0.5101826171875,-0.014600753784179688,-0.010690808296203613,-0.00187787227332592
1751448481758011000,0.529010986328125,-0.0005254745483398438,0.020873606204986572,-0.008269613608717918
1751448481776839200,0.547839111328125,0.03769683837890625,0.022255539894104004,-0.01023094728589058
1751448481795667500,0.56666748046875,-0.009920120239257812,0.0015826523303985596,0.01285858079791069
1751448481814495500,0.58549560546875,-0.0022106170654296875,0.0074079036712646484,0.010213812813162804
1751448481833323800,0.60432373046875,0.015155792236328125,-0.00002327561378479004,-0.0027644294314086437
1751448481852152000,0.623152099609375,-0.01457977294921875,-0.010427087545394897,0.0054398407228291035
1751448481870980400,0.64198046875,-0.012495994567871094,-0.004421621561050415,0.00641152448952198
1751448481889808400,0.660808349609375,0.014420509338378906,0.0028073787689208984,-0.008157538250088692
1751448481918050800,0.68905078125,-0.010542869567871094,0.0015173554420471191,-0.001324706245213747
1751448481936879000,0.707879150390625,0.012165069580078125,0.011820167303085327,-0.006174732930958271
1751448481955707100,0.72670703125,0.010649681091308594,-0.0069513022899627686,-0.0009080851450562477
1751448481974535400,0.745535400390625,0.0034952163696289062,0.01180809736251831,-0.01376067940145731
1751448481993363700,0.76436376953125,-0.0022630691528320312,0.004546701908111572,0.003287479281425476
1751448482012192000,0.78319189453125,0.021302223205566406,0.004329890012741089,-0.004876849241554737
1751448482031020000,0.80202001953125,0.0030689239501953125,0.006598323583602905,0.018888946622610092
1751448482049848300,0.820848388671875,0.006834983825683594,-0.005354106426239014,0.023221833631396294
1751448482068676600,0.839676513671875,0.010000228881835938,-0.006120532751083374,-0.00400078110396862
1751448482087505000,0.8585048828125,-0.0066242218017578125,-0.010838598012924194,-0.017824256792664528
1751448482106333200,0.877333251953125,-0.0038347244262695312,-0.00009927153587341309,0.008385049179196358
1751448482125161200,0.8961611328125,-0.009569168090820312,0.009289801120758057,-0.004638887010514736
1751448482143989500,0.914989501953125,0.021018028259277344,-0.007454127073287964,0.007215102203190327
1751448482162817800,0.93381787109375,-0.015952110290527344,0.007986485958099365,-0.008069944567978382
1751448482181645800,0.952645751953125,0.021986007690429688,0.0022685229778289795,-0.004383234307169914
1751448482200474000,0.97147412109375,0.01887989044189453,0.007172912359237671,-0.005387506447732449
1751448482219302400,0.990302490234375,0.0080108642578125,0.017885535955429077,-0.006159897893667221
1751448482238130700,1.009130615234375,0.0056400299072265625,0.003773510456085205,0.01180418860167265
1751448482256958700,1.027958740234375,-0.036690711975097656,-0.005124211311340332,0.018855707719922066
1751448482275787000,1.046787109375,-0.017633438110351562,-0.007429629564285278,0.011524653993546963
1751448482294615300,1.065615234375,0.023499488830566406,0.0065577030181884766,-0.004868694581091404
1751448482313443600,1.084443603515625,-0.021729469299316406,0.010096102952957153,-0.003678322769701481
1751448482332271900,1.10327197265625,-0.008345603942871094,-0.004099786281585693,0.0037025315687060356
1751448482351100000,1.122099853515625,-0.004950523376464844,0.005420267581939697,0.005846812389791012
1751448482369928200,1.14092822265625,-0.0013561248779296875,0.005292713642120361,0.0032958807423710823
1751448482388756500,1.159756591796875,-0.02476024627685547,0.0017287731170654297,0.005904575809836388
1751448482407584500,1.17858447265625,-0.004058837890625,-0.0006413459777832031,-0.007077525369822979
1751448482426412800,1.197412841796875,0.010701179504394531,-0.0006301701068878174,0.02014666423201561
1751448482445241000,1.216240966796875,-0.019908905029296875,-0.005365520715713501,0.007056775502860546
1751448482464069400,1.2350693359375,0.0007925033569335938,-0.011501789093017578,-0.010664780624210835
1751448482482897700,1.253897705078125,0.020295143127441406,-0.006630212068557739,0.006174645386636257
1751448482501725700,1.2727255859375,0.0058002471923828125,-0.009872972965240479,-0.005384528078138828
1751448482520554000,1.291553955078125,-0.006960868835449219,0.0023532211780548096,0.001645231619477272
1751448482539382300,1.31038232421875,0.007171630859375,-0.002253502607345581,-0.010012932121753693
1751448482558210600,1.32921044921875,-0.00020313262939453125,-0.006671339273452759,0.009072271175682545
1751448482577038600,1.34803857421875,-0.017806053161621094,0.021471530199050903,0.014616014435887337
1751448482595867000,1.366866943359375,0.009748458862304688,0.012808829545974731,0.001634073443710804
1751448482614695200,1.385695068359375,0.0010356903076171875,-0.007629066705703735,0.012278372421860695
1751448482633523200,1.404523193359375,-0.02933216094970703,-0.008423328399658203,-0.006523960269987583
1751448482652351500,1.4233515625,0.019440650939941406,0.009502887725830078,-0.00036666449159383774
1751448482671179800,1.4421796875,-0.016283035278320312,0.004842102527618408,0.007937666028738022
1751448482699422200,1.470422119140625,-0.018070220947265625,0.01271703839302063,0.00786019116640091
1751448482718250200,1.489250244140625,0.009449005126953125,0.000701218843460083,0.017251722514629364
1751448482746492700,1.51749267578125,-0.0072727203369140625,0.003317207098007202,0.02383175864815712
1751448482765321000,1.536321044921875,-0.006893157958984375,-0.015678897500038147,0.002412199042737484
1751448482784149200,1.555149169921875,0.014277458190917969,0.005792528390884399,0.017651217058300972
1751448482812391400,1.583391357421875,-0.01803112030029297,0.017580658197402954,-0.0038428232073783875
1751448482840633900,1.6116337890625,0.02107524871826172,-0.006562784314155579,-0.004367522895336151
1751448482878290200,1.649290283203125,0.009059906005859375,-0.002720057964324951,0.01910039782524109
1751448482897118500,1.668118408203125,-0.0075511932373046875,-0.009701192378997803,-0.005944373086094856
1751448482915946800,1.68694677734375,0.0067234039306640625,0.010237693786621094,-0.017512138932943344
1751448482934775000,1.705775146484375,-0.015539169311523438,0.01723039150238037,-0.004048665054142475
1751448482953603300,1.724603271484375,-0.009199142456054688,-0.007771492004394531,0.01130549143999815
1751448482972431400,1.743431396484375,0.019266128540039062,0.005168825387954712,-0.006609324365854263
1751448483000673800,1.771673828125,-0.024686813354492188,-0.0006982982158660889,0.014674684964120388
1751448483019502000,1.790502197265625,-0.0019092559814453125,0.0005253255367279053,0.0051181260496377945
1751448483038330400,1.809330322265625,0.007231712341308594,-0.007891431450843811,-0.012661004438996315
1751448483057158400,1.828158447265625,-0.004754066467285156,0.002798110246658325,0.0005107689648866653
1751448483075986700,1.846986572265625,-0.013948440551757812,-0.007682055234909058,0.003029550425708294
1751448483094815000,1.86581494140625,0.012294769287109375,-0.0026100873947143555,0.0003890078514814377
1751448483113643000,1.88464306640625,-0.012778282165527344,-0.00026488304138183594,0.012351786717772484
1751448483132471300,1.90347119140625,0.001800537109375,0.0010156631469726562,0.008599952794611454
1751448483151299600,1.922299560546875,-0.0017671585083007812,-0.005002066493034363,-0.010189603082835674
1751448483170128000,1.9411279296875,0.014428138732910156,0.001054614782333374,0.013605146668851376
1751448483188956000,1.959955810546875,-0.012501716613769531,0.009103894233703613,0.009908456355333328
1751448483207784200,1.9787841796875,-0.004931449890136719,-0.0028036832809448242,-0.010152433067560196
1751448483226612500,1.997612548828125,0.00348663330078125,0.0010432004928588867,-0.0014359168708324432
1751448483245440800,2.016440673828125,0.00003719329833984375,0.00008744001388549805,0.006792563945055008
1751448483264269000,2.03526904296875,0.0037527084350585938,-0.001733332872390747,-0.015957290306687355
1751448483283097000,2.05409716796875,0.049529075622558594,0.00931432843208313,-0.009206200018525124
1751448483301925400,2.07292529296875,-0.0017185211181640625,0.006746441125869751,-0.0027116863057017326
1751448483320753700,2.091753662109375,-0.03308868408203125,0.010066062211990356,0.015437141060829163
1751448483339582000,2.11058203125,0.016139984130859375,0.006215691566467285,0.01684517413377762
1751448483358410000,2.129409912109375,-0.03484535217285156,0.00016391277313232422,-0.0011318689212203026
1751448483377238300,2.14823828125,0.0020170211791992188,-0.010603159666061401,0.01832452043890953
1751448483396066600,2.167066650390625,-0.014403343200683594,-0.006646990776062012,0.006366281770169735
1751448483414894800,2.185894775390625,-0.006023406982421875,-0.006560996174812317,0.013576834462583065
1751448483433723000,2.204722900390625,0.022298812866210938,0.006266683340072632,0.010193705558776855
1751448483452551200,2.22355126953125,0.028820037841796875,0.004981189966201782,-0.015336151234805584
1751448483471379500,2.24237939453125,-0.024764060974121094,-0.009025663137435913,0.0037909531965851784
1751448483490207700,2.261207763671875,0.023981094360351562,-0.0007801055908203125,0.02783437818288803
1751448483509036000,2.2800361328125,-0.004807472229003906,0.017520636320114136,0.002932019531726837
1751448483527864000,2.298864013671875,0.007958412170410156,0.006665170192718506,-0.013378193601965904
1751448483556106500,2.3271064453125,-0.021492958068847656,-0.005275756120681763,0.016198743134737015
1751448483574934800,2.345934814453125,-0.00031566619873046875,0.004542738199234009,0.00896990392357111
1751448483593763000,2.36476318359375,-0.0040149688720703125,-0.008312001824378967,-0.004755568690598011
1751448483612591400,2.38359130859375,0.0031728744506835938,0.009555816650390625,-0.0001353677362203598
1751448483631419400,2.40241943359375,0.0019979476928710938,0.0066773295402526855,0.001870335079729557
1751448483650247700,2.42124755859375,-0.004025459289550781,-0.0029268860816955566,-0.01332282554358244
1751448483669076000,2.440075927734375,-0.007259368896484375,0.005278199911117554,0.013371114619076252
1751448483687904300,2.458904296875,0.02941131591796875,-0.007335305213928223,0.010331488214433193
1751448483706732300,2.477732177734375,-0.028163909912109375,-0.006758153438568115,0.0039542801678180695
1751448483734974700,2.505974609375,-0.012237548828125,0.007549583911895752,-0.0013033738359808922
1751448483753803000,2.524802978515625,-0.0081634521484375,0.0023566484451293945,0.011741778813302517
1751448483772631300,2.54363134765625,-0.03154754638671875,0.005520880222320557,0.011753144674003124
1751448483791459300,2.562459228515625,0.0016164779663085938,-0.0018418729305267334,-0.0007997546344995499
1751448483810287600,2.58128759765625,-0.009374618530273438,-0.004955857992172241,0.0021696090698242188
1751448483829116000,2.600115966796875,-0.010004997253417969,0.002129852771759033,0.008027514442801476
1751448483847944200,2.618944091796875,0.0008230209350585938,-0.003905683755874634,0.0031094904989004135
1751448483866772200,2.637772216796875,-0.001590728759765625,-0.006372392177581787,0.0042173536494374275
1751448483885600500,2.6566005859375,0.0057582855224609375,-0.0026682913303375244,0.003138955682516098
1751448483904428800,2.6754287109375,-0.022322654724121094,-0.005273640155792236,0.005034421570599079
1751448483923257000,2.694257080078125,-0.008833885192871094,0.0033589303493499756,0.006851522251963615
1751448483942085400,2.71308544921875,0.01921367645263672,0.018864035606384277,-0.003639237955212593
1751448483960913400,2.731913330078125,0.008603096008300781,-0.008692741394042969,0.01593237742781639
1751448483979741700,2.75074169921875,0.007317543029785156,-0.004003703594207764,-0.009561453014612198
1751448483998570000,2.769570068359375,-0.0067539215087890625,-0.0036601126194000244,0.014604892581701279
1751448484017398300,2.788398193359375,-0.013794898986816406,-0.006745815277099609,-0.010444477200508118
1751448484036226600,2.8072265625,-0.0005483627319335938,-0.00498509407043457,0.006700022146105766
1751448484055054600,2.8260546875,0.0032558441162109375,-0.003843456506729126,0.0006192661821842194
1751448484073883000,2.8448828125,-0.014138221740722656,-0.0041331946849823,0.01569001004099846
1751448484092711200,2.863711181640625,-0.012903213500976562,-0.16068506240844727,0.6460818648338318
1751448484111539500,2.88253955078125,-0.018833160400390625,-0.25045937299728394,0.6451176404953003
1751448484130367700,2.90136767578125,0.012934684753417969,-0.029471561312675476,0.5572845935821533
1751448484149195800,2.92019580078125,-0.017546653747558594,0.3378472924232483,0.10441909730434418
1751448484168024000,2.939024169921875,0.07366085052490234,0.17616063356399536,-0.2990460693836212
1751448484186852400,2.957852294921875,-0.014767646789550781,-0.07570111751556396,-0.27337193489074707
1751448484205680600,2.9766806640625,0.03952503204345703,-0.14507484436035156,0.17177081108093262
1751448484224508700,2.9955087890625,-0.16648578643798828,0.32624727487564087,-0.18411311507225037
1751448484243337000,3.0143369140625,-0.05183601379394531,0.0011791586875915527,0.20105896890163422
1751448484262165200,3.033165283203125,-0.033087730407714844,0.16530507802963257,0.04899730905890465
1751448484290407700,3.06140771484375,-0.0026502609252929688,-0.17434871196746826,-0.06929413974285126
1751448484309236000,3.080236083984375,0.041515350341796875,-0.16907000541687012,-0.22141802310943604
1751448484337478100,3.10847802734375,-0.013518333435058594,-0.38912713527679443,-0.0035232994705438614
1751448484356306400,3.127306396484375,0.018444061279296875,-0.3864567279815674,0.042936794459819794
1751448484375134700,3.146134765625,0.027831077575683594,-0.07203559577465057,-0.0067483531311154366
1751448484393963000,3.164962890625,0.03307056427001953,-0.14275935292243958,-0.32312771677970886
1751448484412791300,3.183791259765625,0.007844924926757812,0.30708539485931396,-0.3627736568450928
1751448484431619300,3.202619384765625,-0.01689910888671875,0.7335076928138733,-0.9973929524421692
1751448484450447600,3.221447509765625,0.0030546188354492188,0.12079480290412903,0.10066400468349457
1751448484469276000,3.24027587890625,-0.015949249267578125,0.8419902324676514,-1.1747840642929077
1751448484488104200,3.259104248046875,0.039886474609375,0.7033196091651917,-1.8416962623596191
1751448484506932500,3.277932373046875,-0.07355117797851562,0.7850174903869629,-1.8581911325454712
1751448484525760800,3.2967607421875,-0.11893177032470703,0.64180988073349,-0.6407620906829834
1751448484544588800,3.3155888671875,0.4405632019042969,-0.26725858449935913,0.173143669962883
1751448484563417000,3.3344169921875,-0.7060022354125977,-0.4655318558216095,0.3313417434692383
1751448484582245400,3.353245361328125,0.053401947021484375,-0.7826927900314331,1.0336872339248657
1751448484601073700,3.37207373046875,0.5010719299316406,-1.040959358215332,1.4662986993789673
1751448484619902000,3.39090185546875,-0.009665489196777344,-1.1257625818252563,1.372503638267517
1751448484638730000,3.40972998046875,-0.03845691680908203,-1.1030057668685913,1.1453837156295776
1751448484657558300,3.428558349609375,0.011760711669921875,-0.12292724847793579,0.23746776580810547
1751448484676386600,3.447386474609375,0.012905120849609375,-0.0866299569606781,0.061233729124069214
1751448484695214800,3.46621484375,0.00691986083984375,-0.08854332566261292,0.08674882352352142
1751448484714043100,3.485043212890625,-0.007420539855957031,-0.08443352580070496,0.06319686770439148
1751448484732871400,3.503871337890625,0.000965118408203125,-0.09482148289680481,0.06387489289045334
1751448484751699500,3.522699462890625,-0.01814746856689453,-0.9251363277435303,1.1174840927124023
1751448484770527700,3.54152783203125,0.021201133728027344,-0.5531865358352661,1.4650713205337524
1751448484789356000,3.56035595703125,-0.10330867767333984,-0.8583966493606567,1.4581063985824585
1751448484808184300,3.579184326171875,-0.17962169647216797,-1.0455116033554077,1.399721622467041
1751448484827012600,3.5980126953125,0.8886346817016602,-0.9327552914619446,1.3557593822479248
1751448484845841000,3.6168408203125,0.08214473724365234,-0.8872342109680176,0.6331610679626465
1751448484864669000,3.6356689453125,-0.36721324920654297,-0.4856296479701996,-0.3952513337135315
1751448484883497200,3.654497314453125,-0.12912654876708984,-0.03478553891181946,-0.5326123237609863
1751448484902325500,3.673325439453125,-0.2001171112060547,-0.03405222296714783,-0.6233738660812378
1751448484921153800,3.69215380859375,-0.01726818084716797,0.3464730978012085,-0.3475663959980011
1751448484939982000,3.710982177734375,0.30635547637939453,0.3803175389766693,-0.22125403583049774
1751448484958810400,3.729810302734375,-0.04870414733886719,0.9047372341156006,-1.1412571668624878
1751448484977638400,3.748638427734375,0.050647735595703125,1.351817011833191,-2.4787609577178955
1751448484996466700,3.767466796875,0.027901649475097656,0.7507929801940918,-2.633303642272949
1751448485015295000,3.786294921875,-0.08196449279785156,1.044439435005188,-1.2679188251495361
1751448485034123300,3.805123291015625,0.0065460205078125,1.2490109205245972,-1.8827275037765503
1751448485052951600,3.82395166015625,0.2587623596191406,0.8661739826202393,-2.131880760192871
1751448485071779800,3.84277978515625,-0.028490066528320312,0.6544081568717957,-1.9914921522140503
1751448485090608000,3.861608154296875,0.4062328338623047,-0.048390746116638184,-1.1876556873321533
1751448485109436200,3.880436279296875,0.17340087890625,-0.20111635327339172,-0.33825358748435974
1751448485128264400,3.899264404296875,0.42165470123291016,-0.8179712295532227,0.429966002702713
1751448485147092700,3.9180927734375,-0.556736946105957,-0.5189704895019531,0.404144823551178
1751448485165921000,3.936921142578125,-0.07712173461914062,-1.0122861862182617,0.8992490768432617
1751448485184749300,3.955749267578125,-0.020377159118652344,-1.3593239784240723,1.4739776849746704
1751448485203577600,3.97457763671875,0.11506175994873047,-1.4954789876937866,1.54631769657135
1751448485222406000,3.993406005859375,-0.06871891021728516,-1.5415332317352295,1.5323349237442017
1751448485241234000,4.01223388671875,0.03052997589111328,-1.370971918106079,1.6078358888626099
1751448485260062200,4.031062255859375,0.042449951171875,-0.031077802181243896,-0.09911829978227615
1751448485278890500,4.049890380859375,-0.0040950775146484375,-0.09926852583885193,0.06843642890453339
1751448485297718800,4.06871875,0.028145790100097656,-0.3744676411151886,0.5585535168647766
1751448485316547000,4.087547119140625,-0.011452674865722656,-0.33820903301239014,1.5664571523666382
1751448485335375400,4.106375244140625,0.027896881103515625,-0.7672586441040039,1.9743835926055908
1751448485354203600,4.12520361328125,-0.07851791381835938,-1.4962987899780273,2.126636266708374
1751448485373032000,4.144031982421875,-0.08954143524169922,-1.2266898155212402,1.4037069082260132
1751448485391860000,4.16285986328125,0.08951282501220703,-1.1542426347732544,0.7834280729293823
1751448485410688300,4.181688232421875,-0.1596546173095703,-0.8757346868515015,0.3607698380947113
1751448485429516500,4.2005166015625,0.46904563903808594,-0.41068601608276367,0.3855458199977875
1751448485448344800,4.2193447265625,-0.06040477752685547,-0.7307411432266235,0.35531163215637207
1751448485467173000,4.238173095703125,0.26226806640625,-0.5057713985443115,-0.26236245036125183
1751448485486001400,4.25700146484375,0.07686901092529297,0.11368420720100403,-1.337028980255127
1751448485514243800,4.285243896484375,-0.03873252868652344,1.068359136581421,-2.8610446453094482
1751448485533072100,4.304072021484375,0.10719585418701172,1.8636603355407715,-3.848125696182251
1751448485551900400,4.322900390625,0.02829456329345703,1.0005083084106445,-1.8364242315292358
1751448485570728700,4.341728759765625,0.02218914031982422,1.2321245670318604,-1.998170256614685
1751448485589556700,4.360556640625,-0.24254798889160156,1.0542209148406982,-2.7623791694641113
1751448485608385000,4.379385009765625,0.14592647552490234,0.24013659358024597,-2.24886155128479
1751448485627213300,4.39821337890625,0.030936241149902344,0.042303502559661865,-2.026528835296631
1751448485646041600,4.41704150390625,0.37946414947509766,-0.053018659353256226,-1.3891386985778809
1751448485664870000,4.435869873046875,-0.01708221435546875,-0.40109241008758545,-0.2985393702983856
1751448485683698200,4.4546982421875,-0.06054115295410156,-0.9259361624717712,0.3895794153213501
1751448485702526500,4.4735263671875,-0.11017513275146484,-1.1753004789352417,1.2612528800964355
1751448485721354800,4.492354736328125,-0.09350395202636719,-1.3052476644515991,1.3781945705413818
1751448485740182800,4.511182861328125,-0.0540924072265625,-1.4624433517456055,1.4380775690078735
1751448485759011000,4.530010986328125,-0.05637836456298828,-1.3372269868850708,1.651755928993225
1751448485777839400,4.54883935546875,0.034493446350097656,-1.5567009449005127,2.4793732166290283
1751448485796667600,4.567667724609375,-0.03456592559814453,-0.6435915231704712,2.4162943363189697
1751448485815496000,4.586495849609375,0.0024461746215820312,-0.334405779838562,0.3727051615715027
1751448485834324200,4.60532421875,0.038188934326171875,-1.0736247301101685,1.4935730695724487
1751448485853152500,4.624152587890625,-0.0061397552490234375,-1.284254550933838,2.5500235557556152
1751448485871980800,4.642980712890625,0.09981346130371094,-1.5304369926452637,2.5818333625793457
1751448485890809000,4.66180908203125,-0.15010738372802734,-1.7027651071548462,2.148606300354004
1751448485909637400,4.680637451171875,-0.15293025970458984,-1.6188328266143799,1.0748318433761597
1751448485928465700,4.699465576171875,-0.089111328125,-1.5000663995742798,0.6690120697021484
1751448485947294000,4.7182939453125,-0.21618080139160156,-0.8309527635574341,-0.5604356527328491
1751448485966122200,4.737122314453125,-0.08074569702148438,0.1780625432729721,-1.873451828956604
1751448485984950500,4.755950439453125,-0.6448354721069336,1.3583555221557617,-3.0182862281799316
1751448486003778600,4.774778564453125,0.16278743743896484,2.1592228412628174,-4.4410080909729
1751448486022606800,4.79360693359375,-0.059439659118652344,2.2600815296173096,-3.4393484592437744
1751448486041435100,4.81243505859375,0.08168983459472656,2.079629421234131,-2.810926675796509
1751448486060263400,4.831263427734375,0.040947914123535156,1.1051812171936035,-2.8980484008789062
1751448486079091700,4.850091796875,-0.3731269836425781,0.43161144852638245,-2.16352915763855
1751448486097920000,4.868919921875,-0.2365274429321289,-0.2707799971103668,-1.6217478513717651
1751448486116748300,4.887748291015625,0.057880401611328125,0.055393725633621216,-1.0615472793579102
1751448486135576600,4.90657666015625,0.18033695220947266,-0.6601303815841675,-0.3932953476905823
1751448486154404900,4.92540478515625,-0.19581890106201172,-1.2735692262649536,0.9128562211990356
1751448486173233200,4.944233154296875,0.028070449829101562,-1.8976476192474365,1.9316498041152954
1751448486192061400,4.9630615234375,-0.14724254608154297,-1.759171724319458,2.3321003913879395
1751448486210889700,4.9818896484375,0.1257152557373047,-1.7166122198104858,2.2872915267944336
1751448486229718000,5.000718017578125,0.004130363464355469,-1.5451847314834595,2.2616779804229736
1751448486248546300,5.01954638671875,-0.03280067443847656,0.005700618028640747,0.2619509994983673
1751448486267374600,5.03837451171875,0.07344341278076172,-0.41035979986190796,0.5498007535934448
1751448486286202600,5.05720263671875,0.03510475158691406,-1.0133886337280273,2.084242820739746
1751448486305031000,5.076031005859375,0.09818267822265625,-1.5023080110549927,2.7693052291870117
1751448486323859200,5.094859130859375,0.2031536102294922,-1.9752366542816162,2.803799629211426
1751448486342687500,5.1136875,-0.00867462158203125,-1.941213607788086,2.2006676197052
1751448486361515800,5.132515869140625,-0.18091297149658203,-2.1280250549316406,1.3988910913467407
1751448486380344000,5.151343994140625,0.14162540435791016,-1.610744833946228,0.243512824177742
1751448486399172400,5.17017236328125,-0.12899208068847656,-0.4317128658294678,-1.2233471870422363
1751448486418000600,5.189000732421875,-0.7202215194702148,0.179242342710495,-2.3394248485565186
1751448486436829000,5.207828857421875,-0.08634185791015625,0.7828637361526489,-2.9547080993652344
1751448486455657200,5.2266572265625,0.03102588653564453,1.32450270652771,-3.2184042930603027
1751448486474485500,5.245485595703125,-0.09445667266845703,2.008010149002075,-3.096209764480591
1751448486493313800,5.264313720703125,-0.050972938537597656,1.7499421834945679,-1.9206310510635376
1751448486512142000,5.28314208984375,-0.05682563781738281,1.7370164394378662,-2.199303388595581
1751448486530970400,5.301970458984375,-0.04737377166748047,1.2498514652252197,-2.921353340148926
1751448486549798700,5.320798583984375,0.48007869720458984,0.6012641191482544,-2.859264850616455
1751448486568627000,5.339626953125,0.3200712203979492,-0.1414247751235962,-1.8666625022888184
1751448486587455200,5.358455322265625,-0.22792816162109375,-0.5868539810180664,-0.911234438419342
1751448486606283500,5.377283447265625,0.0664682388305664,-1.0313774347305298,0.19277364015579224
1751448486625111800,5.39611181640625,0.27184486389160156,-1.2242852449417114,1.124519944190979
1751448486643940000,5.414940185546875,-0.07788848876953125,-1.1711300611495972,1.6416757106781006
1751448486662768400,5.433768310546875,-0.22687816619873047,-1.335788369178772,1.6665359735488892
1751448486681596700,5.4525966796875,-0.08063793182373047,-1.3659604787826538,1.9517475366592407
1751448486700424700,5.4714248046875,0.07811546325683594,-1.158138394355774,1.7288265228271484
1751448486719253000,5.4902529296875,0.03384685516357422,-0.647221565246582,1.253650188446045
1751448486738081300,5.509081298828125,0.00518035888671875,-0.5491079092025757,0.9260681867599487
1751448486756909600,5.52790966796875,0.003996849060058594,-0.10079485177993774,-0.0491352453827858
1751448486775737900,5.54673779296875,0.013586044311523438,-0.1731448620557785,0.4223131835460663
1751448486794566400,5.56556640625,-0.017589569091796875,-0.9161927700042725,2.1840004920959473
1751448486813394700,5.584394775390625,0.010913848876953125,-1.7493832111358643,3.216992139816284
1751448486832223000,5.603222900390625,-0.0047893524169921875,-2.37249755859375,3.321655750274658
1751448486851051000,5.622051025390625,0.01174163818359375,-2.043919563293457,2.397942543029785
1751448486869879300,5.64087939453125,-0.20981693267822266,-1.9391428232192993,1.0658354759216309
1751448486888707600,5.65970751953125,-0.012420654296875,-1.3427904844284058,-0.3513716459274292
1751448486907536000,5.678535888671875,0.43823719024658203,-0.4006667733192444,-1.7856700420379639
1751448486926364200,5.6973642578125,-0.2894582748413086,0.5240570306777954,-2.9909393787384033
1751448486945192400,5.7161923828125,-0.12171077728271484,1.508707046508789,-4.012235164642334
1751448486964020700,5.735020751953125,0.04555511474609375,2.9162330627441406,-5.6685709953308105
1751448486982849000,5.75384912109375,-0.03457069396972656,1.685868501663208,-2.5949156284332275
1751448487001677300,5.77267724609375,-0.0034742355346679688,1.7265830039978027,-3.0381078720092773
1751448487020505600,5.791505615234375,0.03399181365966797,0.9392204880714417,-3.15598464012146
1751448487039334000,5.810333984375,0.0751953125,0.14612749218940735,-2.390580654144287
1751448487058162200,5.829162109375,-0.17953872680664062,-0.582609236240387,-1.6269035339355469
1751448487076990500,5.847990478515625,-0.37976741790771484,-0.8472052216529846,-0.37544238567352295
1751448487095818800,5.86681884765625,-0.02187824249267578,-1.2630884647369385,0.6236500144004822
1751448487114647000,5.88564697265625,0.38076210021972656,-1.5174728631973267,0.7483006119728088
1751448487133475300,5.904475341796875,0.19598960876464844,-1.1765319108963013,1.0559780597686768
1751448487152303600,5.9233037109375,0.024486541748046875,-1.2932133674621582,1.4818390607833862
1751448487171132000,5.9421318359375,0.0627899169921875,-1.3359837532043457,1.6135555505752563
1751448487189960200,5.960960205078125,-0.039714813232421875,-1.2116302251815796,1.5168198347091675
1751448487208788500,5.97978857421875,-0.12602901458740234,-1.0874433517456055,1.5875117778778076
1751448487227616800,5.99861669921875,-0.02184581756591797,-0.9553773999214172,1.970096468925476
1751448487246445000,6.017445068359375,-0.013492584228515625,-0.29082971811294556,1.3905675411224365
1751448487265273300,6.0362734375,0.056891441345214844,-0.9522547721862793,2.167827606201172
1751448487284101600,6.0551015625,-0.07087993621826172,-2.1794121265411377,4.161075592041016
1751448487302930000,6.073929931640625,-0.07946205139160156,-2.6157586574554443,4.433572769165039
1751448487321758200,6.09275830078125,0.0072574615478515625,-2.8064517974853516,2.7237069606781006
1751448487340586500,6.11158642578125,-0.13409709930419922,-2.5218136310577393,0.7569020390510559
1751448487359414800,6.130414794921875,-0.5370664596557617,-1.84512197971344,-0.5068779587745667
1751448487378243000,6.1492431640625,-0.3437356948852539,-0.8608901500701904,-2.150812864303589
1751448487397071600,6.168071533203125,-0.43797779083251953,0.8400389552116394,-4.005342483520508
1751448487415899600,6.186899658203125,0.1533060073852539,2.347320079803467,-5.959526062011719
1751448487434728000,6.20572802734375,-0.035630226135253906,3.8972418308258057,-7.359302997589111
1751448487453556200,6.22455615234375,0.04553031921386719,2.928990364074707,-4.427695274353027
1751448487472384500,6.243384521484375,-0.14409160614013672,1.6596555709838867,-4.250935077667236
1751448487491213000,6.262213134765625,-0.015979766845703125,0.40086957812309265,-3.177351713180542
1751448487510041300,6.281041259765625,-0.38831615447998047,-0.4411587119102478,-2.0714592933654785
1751448487528869600,6.29986962890625,-0.0355072021484375,-1.1117985248565674,-1.3844503164291382
1751448487547698000,6.318697998046875,0.12389469146728516,-1.3637635707855225,-0.26160839200019836
1751448487566526200,6.337526123046875,0.21178531646728516,-1.159955620765686,0.5567722320556641
1751448487585354500,6.3563544921875,-0.14964771270751953,-0.508505642414093,0.6048188209533691
1751448487604182800,6.375182861328125,0.12467384338378906,-1.4127733707427979,0.48052072525024414
1751448487623011000,6.394010986328125,0.054154396057128906,-2.6120004653930664,1.040637731552124
1751448487641839400,6.41283935546875,0.1373615264892578,-3.115823984146118,1.854100227355957
1751448487660667600,6.431667724609375,0.13713455200195312,-2.679117202758789,2.3656299114227295
1751448487679496000,6.450495849609375,-0.014623641967773438,-1.6975491046905518,2.882237434387207
1751448487698324200,6.46932421875,0.0702962875366211,-0.5414292812347412,2.5878875255584717
1751448487717152500,6.488152587890625,-0.0037984848022460938,-0.06161370873451233,0.31215694546699524
1751448487735980800,6.506980712890625,0.08323192596435547,-1.3917677402496338,2.054004192352295
1751448487754809000,6.52580908203125,-0.0007123947143554688,-2.344836711883545,3.145036458969116
1751448487773637400,6.544637451171875,0.20473670959472656,-2.570714235305786,3.28568172454834
1751448487792465700,6.563465576171875,0.13364791870117188,-2.5076026916503906,2.6814913749694824
1751448487811294000,6.5822939453125,0.2359933853149414,-2.932518482208252,1.8390854597091675
1751448487830122200,6.601122314453125,0.1327533721923828,-2.6166791915893555,1.3904857635498047
1751448487848950500,6.619950439453125,-0.24016189575195312,-2.0010814666748047,-0.041252728551626205
1751448487867778800,6.63877880859375,0.024379730224609375,-1.820189118385315,-1.3264795541763306
1751448487886607000,6.657607177734375,-0.2495279312133789,-1.7262336015701294,-1.990967869758606
1751448487905435400,6.676435302734375,0.038971900939941406,-1.4098511934280396,-2.0832502841949463
1751448487924263700,6.695263671875,-0.44094085693359375,-1.0382153987884521,-2.477524757385254
1751448487943092000,6.714092041015625,-1.0714101791381836,0.2675132155418396,-2.8760592937469482
1751448487961920300,6.732920166015625,-0.1602764129638672,1.457849383354187,-3.5681400299072266
1751448487980748500,6.75174853515625,0.07752609252929688,1.8158453702926636,-3.36130690574646
1751448487999576800,6.770576904296875,0.3141288757324219,2.692704439163208,-6.168277740478516
1751448488018405000,6.789405029296875,-0.08136653900146484,1.4446322917938232,-1.2253378629684448
1751448488037233400,6.8082333984375,-0.05251884460449219,0.8828004598617554,-1.2219069004058838
1751448488056061700,6.827061767578125,-0.04863166809082031,1.1228958368301392,-2.033071756362915
1751448488074890000,6.845889892578125,0.19068145751953125,0.6807961463928223,-2.3372111320495605
1751448488093718300,6.86471826171875,0.05543804168701172,0.5555711984634399,-2.5604088306427
1751448488112546800,6.883546875,-0.2050771713256836,0.4065220057964325,-2.6241226196289062
1751448488131375000,6.902375,0.1689138412475586,0.07717451453208923,-2.3678810596466064
1751448488150203400,6.921203369140625,0.2355499267578125,0.2971867024898529,-1.7389425039291382
1751448488169031700,6.94003173828125,0.024446487426757812,-0.35003048181533813,-1.2538625001907349
1751448488187860000,6.95885986328125,-0.2350311279296875,-1.0586566925048828,-0.7727855443954468
1751448488206688300,6.977688232421875,1.0160722732543945,-1.3102457523345947,0.04593022167682648
1751448488225516500,6.9965166015625,-0.10389137268066406,-1.856837272644043,0.4804997146129608
1751448488244344800,7.0153447265625,-0.6081256866455078,-2.0572562217712402,0.986598551273346
1751448488263173000,7.034173095703125,0.006028175354003906,-2.2220818996429443,1.1924840211868286
1751448488282001400,7.05300146484375,-0.012448310852050781,-2.185973882675171,1.8251897096633911
1751448488300829700,7.07182958984375,-0.17705821990966797,-1.9083763360977173,1.9351987838745117
1751448488319658000,7.090657958984375,0.1291065216064453,-1.3182138204574585,1.569831371307373
1751448488338486300,7.109486328125,0.10293006896972656,-0.7314732074737549,1.4614183902740479
1751448488357314600,7.128314453125,0.007121086120605469,-0.7634248733520508,1.6887840032577515
1751448488376142800,7.147142822265625,0.032172203063964844,-1.5447096824645996,2.112616777420044
1751448488394971100,7.16597119140625,0.004639625549316406,-0.21414269506931305,0.6479949355125427
1751448488413799400,7.18479931640625,0.005706787109375,-1.1215556859970093,2.78391170501709
1751448488432627700,7.203627685546875,-0.03273582458496094,-2.112640142440796,3.456496477127075
1751448488451456000,7.2224560546875,0.0759267807006836,-2.3132784366607666,2.9426965713500977
1751448488470284300,7.2412841796875,-0.03346824645996094,-2.439789295196533,3.0045955181121826
1751448488489112600,7.260112548828125,0.1944408416748047,-2.6516594886779785,2.3304688930511475
1751448488507940900,7.27894091796875,0.46786022186279297,-2.827627182006836,1.520548939704895
1751448488526769200,7.29776904296875,0.795069694519043,-2.5208046436309814,0.3374895453453064
1751448488545597400,7.316597412109375,0.9132719039916992,-2.498781204223633,-0.6776833534240723
1751448488564425700,7.33542578125,-0.5160446166992188,-2.173861265182495,-1.3003206253051758
1751448488583254300,7.354254150390625,0.2515420913696289,-1.6178244352340698,-1.9672935009002686
1751448488602082600,7.37308251953125,0.21060752868652344,-1.1449780464172363,-3.268981695175171
1751448488620910600,7.39191064453125,-0.12406444549560547,-0.06231643259525299,-4.327380180358887
1751448488639739000,7.41073876953125,0.7433938980102539,1.3377634286880493,-8.382905006408691
1751448488658567400,7.4295673828125,0.0671243667602539,3.892505407333374,-5.7085065841674805
1751448488677395700,7.448395751953125,0.0881357192993164,1.8664542436599731,-1.8836169242858887
1751448488696224000,7.46722412109375,-0.2089710235595703,1.3790785074234009,-2.2937800884246826
1751448488715052300,7.48605224609375,0.34612560272216797,0.38139253854751587,-1.755224347114563
1751448488733880600,7.504880615234375,0.026071548461914062,-0.14409969747066498,-2.0112264156341553
1751448488752708900,7.523708984375,0.46555042266845703,0.17010840773582458,-2.2041234970092773
1751448488771537200,7.542537109375,0.3654022216796875,-0.007761448621749878,-2.005549907684326
1751448488790365400,7.561365478515625,0.4472513198852539,-0.25065526366233826,-1.5350431203842163
1751448488809193700,7.58019384765625,0.11397552490234375,-0.9448766708374023,-1.1552258729934692
1751448488828022000,7.59902197265625,-0.06212806701660156,-0.8870675563812256,-0.8603315949440002
1751448488846850300,7.617850341796875,-0.09281539916992188,-0.8735191822052002,-0.7915185689926147
1751448488865678600,7.6366787109375,0.19554519653320312,-1.5857040882110596,-0.12436683475971222
1751448488884507000,7.6555068359375,0.4216337203979492,-1.7427258491516113,0.15649518370628357
1751448488903335200,7.674335205078125,0.0324249267578125,-1.9649683237075806,0.2362310141324997
1751448488922163500,7.69316357421875,-0.1720409393310547,-1.7300688028335571,0.34424087405204773
1751448488940991700,7.71199169921875,1.7301664352416992,-1.822330355644226,0.8555114269256592
1751448488959820000,7.730820068359375,-0.7180643081665039,-1.6470134258270264,1.4510115385055542
1751448488978648300,7.7496484375,0.16022491455078125,-1.4464589357376099,1.5042171478271484
1751448488997476600,7.7684765625,0.10181808471679688,-1.0907113552093506,1.6980267763137817
1751448489016305000,7.787304931640625,-0.02612018585205078,-0.6766442060470581,2.0800178050994873
1751448489035133200,7.80613330078125,0.010010719299316406,-0.8549320697784424,2.5368058681488037
1751448489053961500,7.82496142578125,-0.013899803161621094,-1.0637260675430298,2.8086612224578857
1751448489072789800,7.843789794921875,0.05157279968261719,-0.7310646176338196,1.734148383140564
1751448489091618000,7.8626181640625,0.0181121826171875,-0.6738128662109375,2.906930685043335
1751448489110446300,7.8814462890625,-0.017679214477539062,-2.3481996059417725,3.690837860107422
1751448489129274600,7.900274658203125,-0.05502033233642578,-2.3652162551879883,3.280888080596924
1751448489148103000,7.91910302734375,0.4136219024658203,-2.4084129333496094,2.273214340209961
1751448489166931200,7.93793115234375,-0.02980804443359375,-1.8907597064971924,1.328354835510254
1751448489185759500,7.956759521484375,0.9501113891601562,-2.859274387359619,1.1195257902145386
1751448489204587800,7.975587890625,0.5799598693847656,-3.6276681423187256,0.7823582291603088
1751448489223416000,7.994416015625,-1.2966766357421875,-3.7601659297943115,0.21139025688171387
1751448489242244400,8.013244384765626,-0.1398763656616211,-2.7016243934631348,-0.9330998659133911
1751448489261072600,8.03207275390625,0.13935375213623047,-1.7222955226898193,-1.9171736240386963
1751448489279901000,8.05090087890625,-0.29264354705810547,-0.882885217666626,-2.5538649559020996
1751448489298729500,8.0697294921875,0.11910438537597656,-0.09297165274620056,-2.912855386734009
1751448489317557800,8.088557861328125,0.7106618881225586,0.21538476645946503,-3.6269967555999756
1751448489336386000,8.107385986328126,-0.4350318908691406,1.663909912109375,-8.829991340637207
1751448489355214300,8.12621435546875,0.2099294662475586,2.9354054927825928,-5.176079273223877
1751448489374042600,8.145042724609375,-0.05882549285888672,1.5454050302505493,-2.3226876258850098
1751448489392871000,8.163870849609374,0.044228553771972656,0.7422382831573486,-1.8514634370803833
1751448489411699200,8.18269921875,0.07767581939697266,0.27362456917762756,-1.8950849771499634
1751448489430527500,8.201527587890626,-0.08620929718017578,0.41742926836013794,-1.8391057252883911
1751448489449355800,8.220355712890624,-0.301849365234375,0.3582955002784729,-1.3486948013305664
1751448489468184000,8.23918408203125,-0.04559040069580078,0.11455473303794861,-1.5571656227111816
1751448489487012400,8.258012451171876,-0.1766223907470703,0.02558670938014984,-1.5619678497314453
1751448489505840600,8.276840576171875,-0.23604488372802734,-0.0960068553686142,-1.242701530456543
1751448489524669000,8.2956689453125,0.010534286499023438,-0.2763134837150574,-1.2151634693145752
1751448489543497200,8.314497314453124,0.43799781799316406,-0.3104179799556732,-1.3970718383789062
1751448489562325500,8.333325439453125,-0.1632823944091797,-0.3865794539451599,-1.2002102136611938
1751448489581153800,8.35215380859375,0.27178955078125,-0.9590805768966675,-0.6277640461921692
1751448489599982000,8.370982177734374,0.5194587707519531,-1.1143083572387695,-0.872175931930542
1751448489618810400,8.389810302734375,0.44580554962158203,-1.5138741731643677,-0.6440222263336182
1751448489637638700,8.408638671875,0.16776275634765625,-2.282520294189453,-0.5607857704162598
1751448489656467000,8.427467041015625,0.552027702331543,-1.532507061958313,0.2506999373435974
1751448489675295200,8.446295166015625,-0.2118682861328125,-1.6731984615325928,0.22956979274749756
1751448489694123500,8.46512353515625,0.15491008758544922,-2.028815746307373,0.6993445158004761
1751448489712951800,8.483951904296875,0.06656265258789062,-1.767849087715149,1.2969396114349365
1751448489731780000,8.502780029296876,0.024634361267089844,-1.5123547315597534,1.8298217058181763
1751448489750608400,8.5216083984375,-0.14907169342041016,-1.2422654628753662,2.0482778549194336
1751448489769436700,8.540436767578125,0.12997722625732422,-1.214356541633606,2.137739658355713
1751448489788265000,8.559264892578126,0.023634910583496094,-1.1410681009292603,2.0955569744110107
1751448489807093200,8.57809326171875,-0.011034965515136719,-0.5822590589523315,2.030691146850586
1751448489825921500,8.596921630859375,0.006873130798339844,-0.4283362627029419,0.46283218264579773
1751448489844749800,8.615749755859374,0.03545093536376953,-1.504041075706482,2.680882215499878
1751448489863578000,8.634578125,-0.03157329559326172,-1.236060619354248,3.339848279953003
1751448489882406400,8.653406494140626,0.051896095275878906,-2.248748302459717,3.6765496730804443
1751448489901234700,8.672234619140625,-0.010572433471679688,-2.053415060043335,2.7811014652252197
1751448489920063000,8.69106298828125,0.27882957458496094,-2.5089306831359863,2.255655527114868
1751448489938891300,8.709891357421874,-0.153656005859375,-2.5175867080688477,1.4113715887069702
1751448489957719600,8.728719482421875,-1.251093864440918,-3.2573113441467285,1.049639105796814
1751448489976547800,8.7475478515625,-0.7893886566162109,-3.2643542289733887,0.43974435329437256
1751448489995376000,8.766376220703124,0.18895816802978516,-2.9016857147216797,-0.043953947722911835
1751448490014204400,8.785204345703125,0.5175199508666992,-2.6356420516967773,-1.0547621250152588
1751448490033032700,8.80403271484375,-0.11476612091064453,-1.8101645708084106,-2.3064842224121094
1751448490051861000,8.822861083984375,-0.17531108856201172,-0.9538256525993347,-3.3494482040405273
1751448490070689300,8.841689208984375,0.548828125,0.10427819192409515,-4.597812175750732
1751448490089517600,8.860517578125,0.3911752700805664,1.3131263256072998,-5.431557655334473
1751448490108345900,8.879345947265625,0.6460094451904297,1.8927855491638184,-9.061324119567871
1751448490127174100,8.898174072265626,-0.05946159362792969,1.8489470481872559,-3.4418840408325195
1751448490146002400,8.91700244140625,-0.08677864074707031,1.5509992837905884,-1.3246408700942993
1751448490164830700,8.935830810546875,-0.0330810546875,1.2260535955429077,-2.0892834663391113
1751448490183659000,8.954658935546876,0.06762027740478516,0.5064143538475037,-1.898899793624878
1751448490202487300,8.9734873046875,0.31392955780029297,0.09848754107952118,-2.28318190574646
1751448490221315600,8.992315673828125,0.18492507934570312,0.06358429789543152,-2.401670455932617
1751448490240144000,9.011143798828124,0.3187379837036133,0.5178537368774414,-2.7527194023132324
1751448490258972200,9.02997216796875,-0.3909778594970703,-0.45064759254455566,-2.2745673656463623
1751448490277800400,9.048800537109376,-0.1333913803100586,-1.0075308084487915,-1.539444923400879
1751448490296628700,9.067628662109374,-0.21337890625,-0.31187644600868225,-1.048426628112793
1751448490315457000,9.08645703125,0.09084510803222656,-0.7907128930091858,-1.3480478525161743
1751448490334285300,9.105285400390626,0.43193626403808594,-1.5815043449401855,-0.9131593704223633
1751448490353113600,9.124113525390625,-0.8192510604858398,-2.1959595680236816,-0.38786378502845764
1751448490371941600,9.142941650390625,0.6122245788574219,-2.05253267288208,0.1558094322681427
1751448490390770000,9.16177001953125,-0.446624755859375,-2.3748703002929688,0.057023003697395325
1751448490409598200,9.18059814453125,-0.16424560546875,-2.332949161529541,1.081161379814148
1751448490428426500,9.199426513671876,0.2617034912109375,-2.2831883430480957,1.4886585474014282
1751448490447254800,9.2182548828125,-0.25168609619140625,-1.2331538200378418,1.9866764545440674
1751448490466083000,9.2370830078125,0.05620098114013672,-1.097347617149353,1.9762976169586182
1751448490484911400,9.255911376953126,-0.05695629119873047,-0.8481786251068115,2.1404454708099365
1751448490503739600,9.27473974609375,0.030300140380859375,-1.1451196670532227,2.1372830867767334
1751448490522568000,9.29356787109375,0.030254364013671875,-1.8553555011749268,2.3556487560272217
1751448490541396200,9.312396240234374,0.08517074584960938,-0.8108597993850708,1.2709896564483643
1751448490560224500,9.331224609375,0.03588294982910156,-0.7659868001937866,0.8503549098968506
1751448490579052800,9.350052734375,0.002349853515625,-1.2710975408554077,2.516822576522827
1751448490597881000,9.368881103515625,0.1779499053955078,-1.6637099981307983,3.4470319747924805
1751448490616709400,9.38770947265625,0.11199665069580078,-1.96558678150177,3.3868489265441895
1751448490635537700,9.40653759765625,-0.5701589584350586,-2.348517656326294,2.5274431705474854
1751448490654366000,9.425365966796875,0.14171123504638672,-2.630648612976074,1.5772840976715088
1751448490673194200,9.4441943359375,0.1564788818359375,-2.9479141235351562,1.2750648260116577
1751448490692022500,9.4630224609375,-0.30759716033935547,-3.144127368927002,1.0684868097305298
1751448490710850800,9.481850830078125,-0.012882232666015625,-2.955347776412964,0.517392098903656
1751448490729679000,9.50067919921875,0.8112068176269531,-2.5526750087738037,-0.579776406288147
1751448490748507400,9.51950732421875,0.3172798156738281,-1.8805475234985352,-1.338550329208374
1751448490767335700,9.538335693359375,-0.48874473571777344,-1.4474232196807861,-2.2140626907348633
1751448490786164000,9.5571640625,0.8148641586303711,-0.5268758535385132,-3.701803684234619
1751448490804992300,9.5759921875,0.3059349060058594,0.9276524782180786,-4.7109222412109375
1751448490823820500,9.594820556640625,0.6025104522705078,2.52463960647583,-5.999512672424316
1751448490842648800,9.61364892578125,0.04128456115722656,2.623136281967163,-5.911293983459473
1751448490861477000,9.63247705078125,0.15093231201171875,0.8892126679420471,-3.514899730682373
1751448490880305400,9.651305419921876,-0.030882835388183594,-0.24488404393196106,-1.6569339036941528
1751448490899133700,9.6701337890625,0.10170841217041016,0.7798182368278503,-1.5324808359146118
1751448490917962000,9.6889619140625,0.1431722640991211,0.5954108238220215,-1.832423448562622
1751448490936790000,9.7077900390625,-0.23273468017578125,0.6242737770080566,-1.878342866897583
1751448490955618300,9.726618408203125,-0.14643383026123047,0.3256385326385498,-2.08601450920105
1751448490974446600,9.745446533203125,-0.34830760955810547,0.05760723352432251,-2.338505506515503
1751448490993275000,9.76427490234375,-0.3817138671875,-0.39760148525238037,-1.9156091213226318
1751448491012103200,9.783103271484375,0.1580810546875,-0.5007684826850891,-2.0213816165924072
1751448491030931500,9.801931396484376,-0.12195968627929688,-0.39566755294799805,-1.440372347831726
1751448491049759700,9.820759765625,-0.4238767623901367,-0.946100115776062,-1.0667845010757446
1751448491068588000,9.839588134765625,-0.004718780517578125,-1.679451823234558,-0.6002194285392761
1751448491087416300,9.858416259765624,0.16941356658935547,-1.9893617630004883,-0.3633061349391937
1751448491106244600,9.87724462890625,0.18143653869628906,-1.5917086601257324,0.06869620084762573
1751448491125073000,9.896072998046876,0.044129371643066406,-1.5822592973709106,0.4213255047798157
1751448491143901200,9.914901123046874,0.3917055130004883,-1.8564648628234863,0.8426669836044312
1751448491162729500,9.9337294921875,-0.5026464462280273,-1.5473343133926392,1.4920029640197754
1751448491181557800,9.952557861328126,1.575033187866211,-1.230231761932373,2.2807860374450684
1751448491200386000,9.971385986328125,0.18158531188964844,-1.495732307434082,2.2701051235198975
1751448491219214300,9.99021435546875,-0.010282516479492188,-1.0367255210876465,2.550145387649536
1751448491238042400,10.00904248046875,0.04975414276123047,-1.1539887189865112,1.7217274904251099
1751448491256870700,10.02787060546875,0.025821685791015625,-1.1663910150527954,1.5602214336395264
1751448491275699000,10.046698974609376,0.00897979736328125,-0.6086610555648804,1.217305064201355
1751448491294527200,10.06552734375,0.007727622985839844,-0.10097648203372955,-0.016642844304442406
1751448491313355500,10.08435546875,0.03983783721923828,-0.701082706451416,0.877240002155304
1751448491332183800,10.103183837890626,-0.02837371826171875,-0.8791607618331909,2.5275378227233887
1751448491351012000,10.12201220703125,0.0027780532836914062,-1.346783995628357,3.692370653152466
1751448491369840400,10.14084033203125,0.18656253814697266,-1.9352322816848755,3.720761775970459
1751448491388668700,10.159668701171874,0.3840341567993164,-2.3487420082092285,3.1223673820495605
1751448491407497000,10.1784970703125,-0.1315011978149414,-2.4388511180877686,2.1190154552459717
1751448491426325200,10.1973251953125,-0.20028209686279297,-2.521066904067993,1.491525411605835
1751448491445153500,10.216153564453125,-0.2724647521972656,-2.3758881092071533,0.7831367254257202
1751448491463981800,10.23498193359375,-0.7893962860107422,-2.7639706134796143,-0.24185067415237427
1751448491482810000,10.25381005859375,0.06865406036376953,-2.4957571029663086,-1.1406089067459106
1751448491501638100,10.27263818359375,0.47315216064453125,-1.9009135961532593,-1.8855210542678833
1751448491520466400,10.291466552734375,0.01774120330810547,-1.1140553951263428,-2.2187812328338623
1751448491539294700,10.310294677734374,-0.12732601165771484,0.16329728066921234,-2.8515195846557617
1751448491558123000,10.329123046875,-0.29560375213623047,0.7091119885444641,-3.2127397060394287
1751448491576951300,10.347951416015626,-0.40276145935058594,1.4589924812316895,-3.9498143196105957
1751448491595779600,10.366779541015624,-0.6123800277709961,1.7144014835357666,-5.119174957275391
1751448491614608000,10.38560791015625,0.15712356567382812,0.2645219564437866,-5.111198425292969
1751448491633436200,10.404436279296876,0.0830068588256836,0.39869123697280884,-1.9538556337356567
1751448491652264400,10.423264404296875,0.3676576614379883,0.15755178034305573,-0.9861981272697449
1751448491671092700,10.4420927734375,0.5926532745361328,0.12902991473674774,-1.4947782754898071
1751448491689921000,10.460921142578124,0.5662603378295898,-0.23843182623386383,-1.8506031036376953
1751448491708749000,10.4797490234375,-0.058536529541015625,-0.12758320569992065,-1.6573400497436523
1751448491727577300,10.498577392578126,0.33574390411376953,-0.10894284397363663,-1.2070627212524414
1751448491746405600,10.517405517578124,0.5244770050048828,-0.02449190616607666,-0.9502307772636414
1751448491765234000,10.53623388671875,-0.0217437744140625,-0.07568234205245972,-1.3894498348236084
1751448491784062200,10.555062255859376,0.2058420181274414,-0.05068354308605194,-1.6687418222427368
1751448491802890500,10.573890380859375,0.1635150909423828,-0.6082006096839905,-1.4070442914962769
1751448491821718800,10.59271875,-0.5782108306884766,-0.6563069820404053,-0.7696397304534912
1751448491840547000,10.611547119140624,0.8720293045043945,-0.9051831364631653,-0.4683458209037781
1751448491859375400,10.630375244140625,0.07649517059326172,-0.4792543947696686,-0.294170081615448
1751448491878203600,10.64920361328125,0.17362403869628906,-0.45550572872161865,-0.15346747636795044
1751448491897031700,10.66803173828125,0.3007221221923828,-1.3705114126205444,0.5941715836524963
1751448491915860000,10.68685986328125,0.07629585266113281,-1.972993016242981,1.4462785720825195
1751448491934688300,10.705688232421876,0.22344017028808594,-1.819819450378418,1.3498151302337646
1751448491953516500,10.7245166015625,-0.18144702911376953,-1.3827093839645386,1.3695896863937378
1751448491972344800,10.7433447265625,-0.40157222747802734,-1.2823169231414795,1.5200611352920532
1751448491991173000,10.762173095703124,-0.37654590606689453,-1.3254640102386475,1.993581771850586
1751448492010001400,10.78100146484375,0.03887462615966797,-1.3683936595916748,2.200249671936035
1751448492028829700,10.79982958984375,0.23848533630371094,-0.9025334119796753,2.194183349609375
1751448492047657700,10.81865771484375,0.05669403076171875,-0.9654456377029419,1.9515223503112793
1751448492066486000,10.837486083984375,0.04343891143798828,-0.23201730847358704,0.244317889213562
1751448492085314300,10.856314208984376,-0.015186309814453125,-1.1459274291992188,1.7801167964935303
1751448492104142600,10.875142578125,-0.05351543426513672,-1.7638633251190186,2.8111801147460938
1751448492122971000,10.893970947265625,0.09937667846679688,-1.6597200632095337,3.0453522205352783
1751448492141799200,10.912799072265624,0.2976102828979492,-1.6270864009857178,2.5965306758880615
1751448492160627500,10.93162744140625,0.8983783721923828,-1.5920417308807373,1.9674770832061768
1751448492179455700,10.950455810546876,0.41452884674072266,-1.9292477369308472,1.5201425552368164
1751448492198283800,10.96928369140625,0.1551523208618164,-2.020656108856201,0.9060472249984741
1751448492217112000,10.988112060546875,-1.0679254531860352,-2.1261918544769287,0.6943647861480713
1751448492235940400,11.0069404296875,-1.0296688079833984,-2.222003936767578,0.050493769347667694
1751448492254768600,11.0257685546875,-0.7996606826782227,-1.961570143699646,-0.6067849397659302
1751448492273597000,11.044596923828125,0.1675405502319336,-1.4235824346542358,-1.3141531944274902
1751448492292425200,11.06342529296875,-0.3377208709716797,-0.8031188249588013,-1.9392915964126587
1751448492311253500,11.08225341796875,-0.1867818832397461,-0.265295147895813,-2.7819113731384277
1751448492339496000,11.110495849609375,-0.1202230453491211,1.1980797052383423,-3.9840569496154785
1751448492358324000,11.129323974609376,-0.3232898712158203,1.3213849067687988,-4.103963375091553
1751448492377152300,11.14815234375,0.6378269195556641,1.1247456073760986,-4.10807991027832
1751448492395980500,11.16698046875,-0.19912242889404297,0.9138191938400269,-3.238309383392334
1751448492414808800,11.185808837890624,0.04193115234375,1.59636652469635,-1.7633655071258545
1751448492433637000,11.20463720703125,0.12305545806884766,0.738196074962616,-1.8535070419311523
1751448492452465400,11.22346533203125,-0.2401742935180664,0.1185402125120163,-1.6418464183807373
1751448492471293700,11.242293701171874,0.14327144622802734,0.20384788513183594,-1.7038861513137817
1751448492490121700,11.261121826171875,-0.07151603698730469,0.1989637315273285,-1.6264498233795166
1751448492508950000,11.279949951171876,0.022005081176757812,0.006555497646331787,-1.7167843580245972
1751448492527778300,11.2987783203125,-0.2279815673828125,-0.25111258029937744,-0.8792294859886169
1751448492546606600,11.317606689453125,0.1690349578857422,-0.5614254474639893,-0.18966048955917358
1751448492565435000,11.336434814453124,-0.056466102600097656,-0.36772194504737854,-0.5149416327476501
1751448492584263200,11.35526318359375,0.1883678436279297,-0.279381662607193,-0.3099314570426941
1751448492603091200,11.37409130859375,-0.03948211669921875,-0.24679404497146606,-0.4935535192489624
1751448492621919500,11.39291943359375,0.09813976287841797,-0.11641830205917358,-0.4987846612930298
1751448492640747800,11.411747802734375,0.07880210876464844,-1.1430237293243408,-0.22616669535636902
1751448492659576000,11.430576171875,-0.05026531219482422,-1.03089439868927,-0.14802400767803192
1751448492678404400,11.449404296875,-0.02035236358642578,-1.0455451011657715,0.13924281299114227
1751448492697232600,11.468232666015625,-0.7915058135986328,-0.9301960468292236,0.5289231538772583
1751448492716061000,11.48706103515625,0.40308475494384766,-1.4079585075378418,0.9359154105186462
1751448492734889000,11.505888916015625,-0.07027816772460938,-1.5978728532791138,1.5578092336654663
1751448492753717200,11.52471728515625,-0.03196430206298828,-0.5431340336799622,0.9706658720970154
1751448492772545500,11.543545654296874,-0.01946735382080078,-0.23169264197349548,0.6277976036071777
1751448492791373800,11.562373779296875,0.09617805480957031,-0.6103309392929077,0.6735813617706299
1751448492810202000,11.5812021484375,0.006664276123046875,-0.8884143829345703,1.3105134963989258
1751448492829030100,11.600030029296875,0.09984016418457031,-1.5937016010284424,1.7730543613433838
1751448492847858400,11.6188583984375,-0.004283905029296875,-1.4248491525650024,2.0085458755493164
1751448492866686700,11.637686767578124,0.020763397216796875,-0.3606013059616089,0.3140000104904175
1751448492885515000,11.656514892578125,0.033751487731933594,-0.614601731300354,1.804524302482605
1751448492904343300,11.67534326171875,-0.033288002014160156,-0.333213210105896,2.545159101486206
1751448492923171600,11.694171630859374,-0.1178750991821289,-0.9931180477142334,2.834322929382324
1751448492941999600,11.71299951171875,0.02622509002685547,-1.5747401714324951,2.842205286026001
1751448492960828000,11.731827880859376,0.044449806213378906,-2.3693504333496094,2.575805187225342
1751448492979656200,11.75065625,-0.08869361877441406,-2.5226800441741943,1.9883476495742798
1751448492998484500,11.769484375,-0.41080570220947266,-1.9838098287582397,1.1378448009490967
1751448493017312800,11.788312744140624,0.19567203521728516,-1.8982243537902832,0.7541170716285706
1751448493036140800,11.807140869140625,0.14722156524658203,-1.9207764863967896,-0.19886437058448792
1751448493054969000,11.825968994140625,-0.49102210998535156,-1.9417039155960083,-0.9494737982749939
1751448493073797400,11.84479736328125,0.3909273147583008,-1.5243241786956787,-1.831325650215149
1751448493092625700,11.863625732421875,0.08750247955322266,-0.7404965162277222,-2.373927116394043
1751448493111454000,11.882453857421876,0.21437644958496094,-0.04737124592065811,-2.584890842437744
1751448493130282200,11.9012822265625,0.2502164840698242,0.7791932225227356,-2.8300869464874268
1751448493149110300,11.9201103515625,-0.12366485595703125,1.3724766969680786,-3.5560264587402344
1751448493167938600,11.9389384765625,0.2857522964477539,1.903397560119629,-4.372437000274658
1751448493186766800,11.957766845703125,-0.08361530303955078,1.5094681978225708,-4.268906593322754
1751448493205595100,11.97659521484375,-0.06453418731689453,0.7491784691810608,-1.7373144626617432
1751448493224423400,11.99542333984375,0.22587966918945312,0.851653516292572,-1.9420149326324463
1751448493243251500,12.01425146484375,-0.05262470245361328,0.34275388717651367,-2.2105202674865723
1751448493262079700,12.033079833984376,-0.09311103820800781,0.34950971603393555,-2.186314821243286
1751448493280908000,12.051907958984375,0.19762516021728516,0.1409488469362259,-2.144261598587036
1751448493299736300,12.070736328125,0.09480953216552734,0.17071649432182312,-1.8834679126739502
1751448493318564400,12.089564453125,-0.075103759765625,0.22350665926933289,-1.7108917236328125
1751448493337392600,12.108392578125,0.03841590881347656,-0.060617417097091675,-1.8353077173233032
1751448493356221000,12.127220947265625,-0.37457752227783203,-0.16536149382591248,-1.9522687196731567
1751448493375049200,12.14604931640625,0.13445663452148438,-0.5942983627319336,-1.4963130950927734
1751448493393877500,12.16487744140625,-0.04492664337158203,-1.022289514541626,-1.175731897354126
1751448493412705500,12.18370556640625,0.0774545669555664,-1.3062493801116943,-0.7245010733604431
1751448493431533800,12.202533935546874,-0.536956787109375,-2.2152180671691895,0.03015083447098732
1751448493450362000,12.221362060546875,-0.6329345703125,-2.410046100616455,0.8942830562591553
1751448493469190400,12.2401904296875,-0.09485816955566406,-2.1560263633728027,1.0676295757293701
1751448493488018700,12.259018798828125,0.3178424835205078,-2.1490283012390137,1.959267497062683
1751448493506846700,12.2778466796875,-0.3759727478027344,-1.3875120878219604,1.9891505241394043
1751448493525675000,12.296675048828124,0.08222198486328125,-1.4998780488967896,2.2791850566864014
1751448493544503300,12.31550341796875,0.10389518737792969,-1.3052611351013184,2.3741660118103027
1751448493563331600,12.33433154296875,-0.11601543426513672,-1.511435627937317,2.538681983947754
1751448493582159600,12.35315966796875,-0.008481979370117188,-0.9442753791809082,2.0963058471679688
1751448493600988000,12.37198779296875,0.031996726989746094,-0.11790744960308075,-0.13015323877334595
1751448493619816200,12.390816162109376,0.030480384826660156,-0.5993307828903198,0.6701195240020752
1751448493638644500,12.40964453125,-0.10329818725585938,-0.4600718915462494,1.5028926134109497
1751448493657472800,12.42847265625,0.03525829315185547,-1.1256533861160278,2.3101346492767334
1751448493676300800,12.44730078125,0.12105274200439453,-1.6688064336776733,2.7822017669677734
1751448493695129000,12.466129150390625,0.044287681579589844,-2.016683340072632,2.8938095569610596
1751448493713957400,12.484957275390625,-0.019028663635253906,-1.7783305644989014,2.677445888519287
1751448493732785400,12.503785400390624,0.40921783447265625,-1.53902268409729,2.0900681018829346
1751448493751613700,12.52261376953125,-0.2955970764160156,-2.0471503734588623,1.4853847026824951
1751448493770442000,12.54144189453125,-0.0012235641479492188,-2.209421157836914,0.9517441987991333
1751448493789270300,12.560270263671875,0.26140594482421875,-2.4061970710754395,0.6042309403419495
1751448493808098300,12.579098388671875,0.20725059509277344,-2.2779784202575684,-0.29860004782676697
1751448493826926600,12.597926513671876,-0.5835304260253906,-1.7435814142227173,-1.3146369457244873
1751448493845755000,12.6167548828125,-0.5384883880615234,-0.9207978248596191,-1.9967821836471558
1751448493864583200,12.635583251953125,-0.26390743255615234,-0.33775314688682556,-2.396486282348633
1751448493883411200,12.6544111328125,0.06485843658447266,0.11382818222045898,-2.313948631286621
1751448493902239500,12.673239501953125,0.2959022521972656,0.2302263230085373,-2.9682884216308594
1751448493921067800,12.69206787109375,0.8539648056030273,0.668035626411438,-3.425358533859253
1751448493939896000,12.71089599609375,-0.11075592041015625,1.0517579317092896,-6.110946178436279
1751448493958724000,12.72972412109375,-0.0047092437744140625,1.218353271484375,-4.814583778381348
1751448493977552400,12.748552490234376,0.040660858154296875,0.442961186170578,-1.027312159538269
1751448493996380700,12.767380615234375,-0.11582374572753906,0.6977644562721252,-0.6698291301727295
1751448494015209000,12.786208984375,-0.011713981628417969,0.5440335869789124,-1.3321189880371094
1751448494034037000,12.805037109375,0.20920372009277344,0.4985382556915283,-1.8959877490997314
1751448494052865300,12.823865234375,0.31637001037597656,0.11711885035037994,-2.1786112785339355
1751448494071693600,12.842693603515626,-0.12961673736572266,0.3410886526107788,-2.5884063243865967
1751448494090521600,12.861521484375,-0.06435775756835938,0.43284428119659424,-2.8071439266204834
1751448494109350000,12.880349853515625,0.6660966873168945,0.03283074498176575,-2.322641134262085
1751448494128178200,12.89917822265625,-0.11527061462402344,-0.2590136229991913,-1.8867262601852417
1751448494147006500,12.91800634765625,0.057708740234375,-0.504009485244751,-1.6121318340301514
1751448494165834500,12.93683447265625,0.9000387191772461,-0.935215950012207,-1.1834007501602173
1751448494184662800,12.955662841796874,0.68475341796875,-1.5427143573760986,-0.6747949123382568
1751448494203491000,12.974490966796875,0.0992279052734375,-2.034374952316284,-0.10844917595386505
1751448494222319400,12.9933193359375,-0.27277183532714844,-2.2308545112609863,0.8258641958236694
1751448494241147400,13.0121474609375,0.012366294860839844,-2.1234395503997803,1.6372298002243042
1751448494259975700,13.0309755859375,-0.41095829010009766,-2.0497548580169678,2.010986328125
1751448494278804000,13.049803955078126,0.7894906997680664,-1.9542948007583618,1.9906076192855835
1751448494297632000,13.068632080078125,0.1435995101928711,-1.6793296337127686,2.1405389308929443
1751448494316460300,13.087460205078125,-0.20914649963378906,-1.4035210609436035,2.2521088123321533
1751448494335288600,13.10628857421875,0.24009990692138672,-1.2030375003814697,2.180683135986328
1751448494354116600,13.12511669921875,-0.02274799346923828,-0.5956875085830688,2.2308664321899414
1751448494372945000,13.14394482421875,0.027510643005371094,-0.2368534803390503,1.4968161582946777
1751448494391773200,13.162773193359374,0.032120704650878906,-0.8931546807289124,1.245126724243164
1751448494410601200,13.181601318359375,0.0020895004272460938,-1.444343090057373,2.1699209213256836
1751448494429429500,13.200429443359376,-0.0051116943359375,-1.7842111587524414,2.9668898582458496
1751448494448257800,13.2192578125,-0.14635944366455078,-1.7908574342727661,3.03497314453125
1751448494467086000,13.238086181640625,0.1508646011352539,-2.0133862495422363,3.1216342449188232
1751448494485914000,13.2569140625,-0.16594314575195312,-1.963160514831543,2.6578032970428467
1751448494514156500,13.285156494140624,-0.022928237915039062,-1.9848201274871826,1.1756888628005981
1751448494532984800,13.30398486328125,0.39983654022216797,-1.8607122898101807,0.26714977622032166
1751448494551812900,13.322812744140625,0.38901615142822266,-1.721207618713379,-0.4408015012741089
1751448494570641200,13.34164111328125,-0.5322904586791992,-1.4803931713104248,-1.2321776151657104
1751448494589469200,13.36046923828125,-0.1985940933227539,-1.0640860795974731,-1.7353147268295288
1751448494608297500,13.37929736328125,-0.2109546661376953,-1.0375615358352661,-2.1717686653137207
1751448494627125800,13.398125732421875,-0.2674846649169922,-0.9167988300323486,-2.393113851547241
1751448494645954000,13.4169541015625,0.5600376129150391,-0.40051621198654175,-3.0959768295288086
1751448494664782000,13.435781982421876,-0.0719766616821289,0.3833235800266266,-3.229006052017212
1751448494683610400,13.4546103515625,-0.30055713653564453,1.5365405082702637,-3.943776845932007
1751448494702438700,13.473438720703125,0.0991525650024414,1.877376675605774,-5.4436211585998535
1751448494721266700,13.4922666015625,-0.07825946807861328,0.6470389366149902,-2.4956250190734863
1751448494740095000,13.511094970703125,0.03984832763671875,0.7710870504379272,-1.7759764194488525
1751448494758923300,13.52992333984375,-0.06517791748046875,0.5452015995979309,-2.478099822998047
1751448494777751300,13.548751220703124,0.1418466567993164,0.25309568643569946,-2.5627074241638184
1751448494796579600,13.56757958984375,-0.2744464874267578,0.24304860830307007,-2.325554370880127
1751448494815407900,13.586407958984376,-0.8941822052001953,-0.09698238968849182,-2.3051795959472656
1751448494834236000,13.60523583984375,-0.24261760711669922,-0.008738070726394653,-2.277496099472046
1751448494853064200,13.624064208984375,0.27112293243408203,-0.10022611916065216,-2.188567876815796
1751448494871892500,13.642892578125,0.5140895843505859,-0.516529381275177,-1.5784746408462524
1751448494890720500,13.661720458984375,1.110762596130371,-0.474107563495636,-1.1374995708465576
1751448494909548800,13.680548828125,0.1991415023803711,-0.7623645663261414,-0.9177303910255432
1751448494928377000,13.699377197265624,0.3701448440551758,-1.5409765243530273,-0.328572154045105
1751448494947205000,13.718205078125,0.15140247344970703,-1.6038447618484497,0.12187163531780243
1751448494966033400,13.737033447265626,0.6981925964355469,-2.114501714706421,0.9749408960342407
1751448494984861700,13.75586181640625,0.5519618988037109,-2.024230480194092,1.7479276657104492
1751448495003689700,13.774689697265625,-0.40471839904785156,-1.9931182861328125,2.088592767715454
1751448495022518000,13.79351806640625,0.42922210693359375,-1.8876535892486572,2.3955864906311035
1751448495041346300,13.81234619140625,0.11941719055175781,-1.7720918655395508,2.1701953411102295
1751448495060174300,13.83117431640625,-0.03440380096435547,-1.6632806062698364,2.4597086906433105
1751448495079002600,13.850002685546874,0.004425048828125,-1.310819149017334,2.333993911743164
1751448495097830700,13.86883056640625,0.054351806640625,-0.8371410965919495,2.177070140838623
1751448495116659000,13.887658935546876,0.03760528564453125,-0.05469605326652527,-0.08645118027925491
1751448495135487200,13.9064873046875,0.017093658447265625,-0.17688877880573273,1.1827752590179443
1751448495154315300,13.925315185546875,-0.0140380859375,-0.9936764240264893,2.454155921936035
1751448495173143600,13.9441435546875,0.012197494506835938,-1.486760139465332,3.090822219848633
1751448495191971800,13.962971923828125,-0.11567211151123047,-1.2363886833190918,2.669369697570801
1751448495210799900,13.9817998046875,0.10949993133544922,-2.0770716667175293,2.7511799335479736
1751448495229628200,14.000628173828124,-0.019998550415039062,-1.793891429901123,2.1653194427490234
1751448495267284500,14.038284423828125,-0.27996826171875,-1.1828498840332031,0.8896304368972778
1751448495286112800,14.05711279296875,-0.4807119369506836,-1.5325082540512085,0.10025466233491898
1751448495304940800,14.07594091796875,0.33303165435791016,-1.4167547225952148,-0.3078441619873047
1751448495323769000,14.09476904296875,0.23891735076904297,-1.073571801185608,-0.775413453578949
1751448495342597400,14.113597412109375,-0.1741180419921875,-1.0906405448913574,-1.2286229133605957
1751448495361425400,14.13242529296875,0.15898513793945312,-0.4175747036933899,-1.7100355625152588
1751448495380253700,14.151253662109376,-0.036742210388183594,-0.1828484833240509,-2.1974434852600098
1751448495399082000,14.17008203125,0.9989681243896484,0.5597808361053467,-3.3449831008911133
1751448495417910000,14.188909912109375,-0.6131496429443359,0.8327863812446594,-4.148809432983398
1751448495436738300,14.20773828125,0.9337892532348633,0.3927149474620819,-4.050455570220947
1751448495455566300,14.22656640625,0.20250320434570312,0.19583646953105927,-3.3557212352752686
1751448495474394600,14.24539453125,-0.09792041778564453,-0.9176948070526123,-0.8440641760826111
1751448495493223000,14.264222900390624,0.046723365783691406,0.10587809979915619,0.022098969668149948
1751448495512051000,14.283051025390625,0.000118255615234375,0.7544787526130676,-0.9655298590660095
1751448495530879200,14.301879150390626,0.043097496032714844,1.4680343866348267,-2.5301754474639893
1751448495549707300,14.320707275390625,-0.05237388610839844,0.9533857107162476,-3.0926334857940674
1751448495568535600,14.33953564453125,0.0566253662109375,-0.2889308035373688,-2.614647626876831
1751448495587363800,14.35836376953125,-0.43967151641845703,-0.24101825058460236,-2.3696486949920654
1751448495606191900,14.37719189453125,0.12746810913085938,-0.66002357006073,-1.5793834924697876
1751448495625020200,14.396020263671875,-0.23968029022216797,-0.23068273067474365,-1.8298637866973877
1751448495643848200,14.41484814453125,0.05962181091308594,-0.6530502438545227,-1.3947139978408813
1751448495662676500,14.433676513671875,-0.20287322998046875,-0.9956315755844116,-0.7818704843521118
1751448495681504800,14.4525048828125,-0.48978233337402344,-1.2457329034805298,-0.14903061091899872
1751448495700332800,14.471332763671874,0.22735023498535156,-1.0428622961044312,0.11114678531885147
1751448495719161000,14.4901611328125,-0.1391000747680664,-1.1323479413986206,0.5420089960098267
1751448495737989000,14.508989013671876,0.07854557037353516,-1.3806941509246826,1.5717555284500122
1751448495756817400,14.5278173828125,-0.16023921966552734,-1.3564358949661255,2.212440252304077
1751448495775645400,14.5466455078125,-0.3367795944213867,-1.7682888507843018,2.438072681427002
1751448495794473700,14.5654736328125,-0.0783538818359375,-1.666458010673523,3.4655282497406006
1751448495813302000,14.584302001953125,-0.32654857635498047,-1.757031798362732,4.2742486000061035
1751448495832130000,14.603130126953126,-0.17743206024169922,-0.8153313398361206,1.9299088716506958
1751448495850958300,14.621958251953124,-0.017975807189941406,-0.4857466220855713,2.084529161453247
1751448495869786400,14.640786376953125,-0.06484508514404297,-0.889599084854126,2.814413070678711
1751448495888614700,14.65961474609375,-0.1581878662109375,-1.7228223085403442,2.8009305000305176
1751448495907443000,14.67844287109375,0.15233993530273438,-2.115161657333374,2.5878641605377197
1751448495926271000,14.69727099609375,0.0015516281127929688,-2.3353843688964844,2.000568389892578
1751448495945099300,14.716099365234374,0.1492919921875,-2.3320672512054443,1.2809561491012573
1751448495963927300,14.73492724609375,-0.19951152801513672,-2.1901047229766846,0.7760254144668579
1751448495982755600,14.753755615234375,-0.572052001953125,-1.8412402868270874,0.14746923744678497
1751448496001583600,14.77258349609375,-0.16327476501464844,-1.4361854791641235,-0.6289755702018738
1751448496020412000,14.791411865234375,-1.0309934616088867,-1.0690083503723145,-1.173058271408081
1751448496039240200,14.810240234375,-0.7332191467285156,-0.3880809545516968,-2.1325554847717285
1751448496058068200,14.829068115234374,0.03954029083251953,0.2609945237636566,-2.4205234050750732
1751448496076896500,14.847896484375,-0.13387775421142578,0.5485482215881348,-2.5943219661712646
1751448496095724500,14.866724609375,1.2863197326660156,1.1407057046890259,-3.380474805831909
1751448496114552800,14.885552734375,0.10010051727294922,0.9865511655807495,-8.87099552154541
1751448496133380900,14.904380859375,0.03427886962890625,0.8988491296768188,-2.1215033531188965
1751448496152209200,14.923209228515624,0.14526081085205078,0.49951091408729553,-1.5359948873519897
1751448496171037200,14.942037109375,-0.035744667053222656,0.46910005807876587,-0.5384136438369751
1751448496189865500,14.960865478515625,0.08126544952392578,0.39456087350845337,-0.9422417283058167
1751448496208693500,14.979693603515624,-0.12903976440429688,0.6855021119117737,-1.6890250444412231
1751448496227521800,14.998521728515625,-0.017511367797851562,0.5717796087265015,-1.9970743656158447
1751448496246350000,15.01735009765625,0.6642770767211914,0.46425843238830566,-2.0240120887756348
1751448496265178000,15.03617822265625,-0.04109382629394531,0.17046082019805908,-1.8483806848526
1751448496284006400,15.05500634765625,0.22417163848876953,0.08358849585056305,-1.5940057039260864
1751448496302834400,15.07383447265625,0.21445083618164062,-0.2912949323654175,-1.146996021270752
1751448496321662700,15.092662841796875,1.0884675979614258,-0.7891298532485962,-0.7968568801879883
1751448496340490800,15.11149072265625,0.5679311752319336,-1.132367730140686,-0.40177011489868164
1751448496359319000,15.130319091796874,0.34479713439941406,-0.9870473146438599,-0.11794447898864746
1751448496378147000,15.14914697265625,-0.016076087951660156,-1.283432126045227,-0.04569125175476074
1751448496396975400,15.167975341796875,-0.3287973403930664,-1.7604389190673828,0.4737069606781006
1751448496415803600,15.1868037109375,-0.30285167694091797,-2.0393354892730713,0.9070473313331604
1751448496434631700,15.205631591796875,0.20772552490234375,-1.773712396621704,1.5478371381759644
1751448496453459700,15.224459716796876,-0.19692230224609375,-1.1436901092529297,1.723227620124817
1751448496472288000,15.2432880859375,-0.011793136596679688,-0.6083594560623169,1.5184674263000488
1751448496491116300,15.2621162109375,-0.33025646209716797,-0.3249450922012329,1.504786729812622
1751448496509944300,15.2809443359375,-0.16825389862060547,-0.32686448097229004,1.4556081295013428
1751448496528772600,15.299772705078125,0.2146596908569336,-0.4196769595146179,1.638466238975525
1751448496547600600,15.3186005859375,-0.11556625366210938,-0.24522218108177185,1.5527303218841553
1751448496566429000,15.337428955078124,-0.01982593536376953,-0.3670295476913452,1.7775979042053223
1751448496585257000,15.356257080078125,-0.032894134521484375,0.5289247035980225,0.6123510599136353
1751448496604085200,15.375085205078125,-0.36261940002441406,1.0385057926177979,1.3131040334701538
1751448496622913300,15.393913330078124,0.010287284851074219,0.7546061277389526,0.9749382734298706
1751448496641741600,15.412741455078125,-0.4923582077026367,0.4482378363609314,1.1770944595336914
1751448496660569600,15.431569580078126,0.6621160507202148,-0.5363913774490356,0.8008745312690735
1751448496679398000,15.45039794921875,0.5173540115356445,-1.2373669147491455,0.9455034732818604
1751448496698226000,15.469225830078125,-0.015474319458007812,-0.9085683226585388,1.6750195026397705
1751448496717054200,15.48805419921875,-0.1476879119873047,-1.5943360328674316,2.198908805847168
1751448496735882200,15.50688232421875,-0.2025775909423828,-2.057361364364624,2.1418721675872803
1751448496754710500,15.52571044921875,0.4175443649291992,-2.1258645057678223,2.1314642429351807
1751448496773538600,15.54453857421875,-0.16151809692382812,-2.1319801807403564,1.4786275625228882
1751448496792366800,15.563366943359375,-0.4290475845336914,-2.4703783988952637,0.0014514029026031494
1751448496811195000,15.58219482421875,-0.26546669006347656,-2.299351215362549,-1.2086011171340942
1751448496830023200,15.601023193359374,0.11050701141357422,-1.7125829458236694,-1.4271395206451416
1751448496848851200,15.619851318359375,-0.3605661392211914,-1.373195767402649,-1.084709882736206
1751448496867679200,15.63867919921875,0.1270465850830078,-0.6550711393356323,-1.5985397100448608
1751448496886507500,15.657507568359375,0.2700519561767578,0.6443626880645752,-2.4409289360046387
1751448496905335600,15.67633544921875,-0.054146766662597656,1.9574507474899292,-3.2197141647338867
1751448496924163800,15.695163818359376,-0.13189220428466797,1.8220510482788086,-4.023746967315674
1751448496942992000,15.713991943359375,-0.042942047119140625,1.7125691175460815,-3.6526873111724854
1751448496961820200,15.732820068359375,-0.09433460235595703,0.5386810302734375,-1.4840141534805298
1751448496980648200,15.751648193359374,0.039386749267578125,0.635644257068634,-1.5921307802200317
1751448496999476500,15.7704765625,0.017833709716796875,0.7175483703613281,-2.1298599243164062
1751448497018304500,15.789304443359375,0.10988807678222656,0.3718997538089752,-1.9783015251159668
1751448497037132800,15.8081328125,-0.0895853042602539,0.4278647005558014,-1.9427790641784668
1751448497055960800,15.8269609375,0.3300771713256836,0.2728370428085327,-2.3199541568756104
1751448497074789000,15.8457890625,0.39301490783691406,0.006183981895446777,-2.1686339378356934
1751448497093617200,15.8646171875,0.14386272430419922,-0.3732643127441406,-1.882248878479004
1751448497112445400,15.883445556640625,0.3890657424926758,-1.2113398313522339,-1.2475597858428955
1751448497131273500,15.9022734375,-0.3444547653198242,-1.7167010307312012,-0.5240907669067383
1751448497150101800,15.921101806640625,0.14245223999023438,-1.7380077838897705,-0.26087579131126404
1751448497168929800,15.9399296875,-0.8718032836914062,-2.0371549129486084,0.1979925036430359
1751448497187758000,15.958758056640624,0.6129665374755859,-1.8506728410720825,0.7524140477180481
1751448497206586000,15.977586181640625,0.25516510009765625,-1.9425159692764282,0.9150624871253967
1751448497225414100,15.9964140625,-0.19105911254882812,-1.6852055788040161,1.1003034114837646
1751448497244242400,16.015242431640626,-0.16092681884765625,-1.281675100326538,1.2349820137023926
1751448497263070500,16.034070556640625,0.15436267852783203,-0.5076985359191895,0.9657000303268433
1751448497281898800,16.052898681640624,-0.009175300598144531,-0.24871623516082764,1.2074726819992065
1751448497300726800,16.071726806640626,0.09451580047607422,-0.33695369958877563,1.350072979927063
1751448497319554800,16.090554931640625,0.04875755310058594,-0.33078232407569885,1.8244166374206543
1751448497338383000,16.109383056640624,0.028649330139160156,-1.4130868911743164,2.6136586666107178
1751448497357211100,16.128211181640626,0.023771286010742188,-0.38800379633903503,0.8699378371238708
1751448497376039400,16.147039306640625,-0.022948265075683594,-1.3887653350830078,2.3701751232147217
1751448497394867500,16.165867431640624,-0.16175270080566406,-1.9899433851242065,3.1903185844421387
1751448497413695700,16.18469580078125,0.28855037689208984,-2.172170639038086,2.9009413719177246
1751448497432523800,16.203523681640625,0.3784980773925781,-1.7876949310302734,1.620723009109497
1751448497451352000,16.22235205078125,-0.00113677978515625,-1.9598243236541748,1.3068057298660278
1751448497470180000,16.24118017578125,0.021155357360839844,-2.3655319213867188,1.2102982997894287
1751448497489008000,16.260008056640626,0.17119789123535156,-2.2697370052337646,0.43779492378234863
1751448497507836400,16.27883642578125,0.5364704132080078,-2.2369132041931152,-0.3127865493297577
1751448497526664400,16.29766455078125,0.0923910140991211,-1.800182819366455,-1.5418157577514648
1751448497545492700,16.31649267578125,0.526397705078125,-1.223902940750122,-2.0323657989501953
1751448497564320800,16.33532080078125,0.07466888427734375,-0.7282651662826538,-2.2465569972991943
1751448497583149000,16.354149169921875,-0.2843151092529297,-0.15669725835323334,-2.8394339084625244
1751448497601977000,16.37297705078125,-0.10590934753417969,0.28935718536376953,-2.9281249046325684
1751448497620805000,16.39180517578125,0.5154829025268555,0.7156381607055664,-3.006347894668579
1751448497639633400,16.41063330078125,-0.11175251007080078,1.5981435775756836,-2.8514227867126465
1751448497658461400,16.42946142578125,-0.09257698059082031,1.6136723756790161,-2.5239295959472656
1751448497677289700,16.448289794921877,0.09413623809814453,1.147103190422058,-1.7984918355941772
1751448497696117800,16.46711767578125,0.0007619857788085938,0.1441422402858734,-0.5540003180503845
1751448497714945800,16.48594580078125,-0.0004405975341796875,-0.06424099951982498,-0.9489166736602783
1751448497733774000,16.504774169921873,-0.010104179382324219,-0.18977777659893036,-0.8231260180473328
1751448497752602000,16.52360205078125,0.10343265533447266,0.17451682686805725,-1.782080888748169
1751448497771430100,16.54243017578125,-0.04473876953125,0.721316933631897,-2.7017998695373535
1751448497790258400,16.561258544921873,-0.43537139892578125,1.061108112335205,-2.8535585403442383
1751448497809086500,16.58008642578125,-0.012755393981933594,0.7993289828300476,-2.797574281692505
1751448497827914800,16.598914794921875,0.35626888275146484,-0.19495579600334167,-2.545607328414917
1751448497846742800,16.61774267578125,0.19260883331298828,-0.27006033062934875,-1.6196333169937134
1751448497865570800,16.63657080078125,1.0526723861694336,-0.5264618396759033,-1.3140841722488403
1751448497884399000,16.655399169921875,-0.10892772674560547,-0.4656527638435364,-1.567345142364502
1751448497903227100,16.67422705078125,0.7483654022216797,-1.2540827989578247,-0.939569354057312
1751448497922055400,16.693055419921876,0.7675809860229492,-1.692851185798645,-0.09585598111152649
1751448497940883500,16.711883544921875,0.21428966522216797,-2.1272761821746826,0.4208001494407654
1751448497959711500,16.73071142578125,-0.5150518417358398,-2.058522939682007,0.6050798892974854
1751448497978539800,16.749539794921876,-0.9764785766601562,-1.9535417556762695,1.3853018283843994
1751448497997367800,16.768367919921875,0.45641422271728516,-1.951492428779602,1.707790732383728
1751448498016195800,16.78719580078125,-0.11788463592529297,-2.1766834259033203,1.7293118238449097
1751448498035024100,16.806024169921876,-0.019542694091796875,-1.3974053859710693,1.5070509910583496
1751448498053852200,16.82485205078125,-0.7001504898071289,-0.9828381538391113,1.2398933172225952
1751448498072680200,16.84368017578125,-0.020429611206054688,-0.8923687934875488,1.5961339473724365
1751448498091508500,16.862508544921877,-0.12549781799316406,-0.7988815307617188,1.915831208229065
1751448498110336500,16.88133642578125,-0.01648998260498047,-1.2336689233779907,2.869680881500244
1751448498129164800,16.900164794921874,0.013356208801269531,-0.12069177627563477,0.49169906973838806
1751448498147992800,16.918992919921877,-0.013054847717285156,-1.059987187385559,2.5221593379974365
1751448498166820900,16.93782080078125,0.07082939147949219,-1.1122503280639648,3.4151055812835693
1751448498185649200,16.956649169921874,-0.009325027465820312,-1.6668002605438232,3.739863157272339
1751448498204477200,16.975477294921873,-0.41199398040771484,-1.5033091306686401,2.6472702026367188
1751448498223305200,16.99430517578125,-0.3359241485595703,-2.6005775928497314,2.042114019393921
1751448498242133500,17.013133544921875,-0.7607316970825195,-3.3608813285827637,1.278559684753418
1751448498260961500,17.03196142578125,0.46081066131591797,-3.396519184112549,0.765995979309082
1751448498279789600,17.05078955078125,-0.07443904876708984,-3.196078062057495,0.38644006848335266
1751448498298617900,17.069617919921875,0.21573352813720703,-3.1382904052734375,-0.22738996148109436
1751448498317446000,17.08844580078125,-0.6679773330688477,-2.592716693878174,-1.104321002960205
1751448498336274000,17.10727392578125,0.7091760635375977,-1.510336995124817,-2.34924578666687
1751448498355102200,17.126102294921875,-0.9871397018432617,-0.7312723994255066,-3.094460964202881
1751448498373930200,17.14493017578125,0.16722869873046875,-0.1162603348493576,-4.091958522796631
1751448498392758300,17.16375830078125,-0.5144729614257812,0.43261414766311646,-4.214147090911865
1751448498411586600,17.182586669921875,0.26869678497314453,1.066709280014038,-4.008500576019287
1751448498430414600,17.20141455078125,0.03026866912841797,1.382265567779541,-3.5103068351745605
1751448498449242600,17.22024267578125,-0.01513671875,0.719923734664917,-3.1894490718841553
1751448498468071000,17.23907080078125,0.01589488983154297,0.21483439207077026,0.1102818101644516
1751448498486899000,17.25789892578125,-0.0020818710327148438,0.10532528162002563,-0.037108857184648514
1751448498505727000,17.27672705078125,0.0015010833740234375,0.08926132321357727,-0.0321119949221611
1751448498524555300,17.29555517578125,0.0026216506958007812,0.28819793462753296,-0.775722086429596
1751448498543383300,17.31438330078125,0.02646636962890625,1.055324912071228,-1.7765886783599854
1751448498562211300,17.33321142578125,-0.057127952575683594,1.209807276725769,-2.6838572025299072
1751448498581039600,17.35203955078125,0.2975454330444336,1.6021002531051636,-3.1732003688812256
1751448498599867600,17.37086767578125,-0.16936492919921875,0.8308203816413879,-3.4876158237457275
1751448498618695700,17.38969580078125,-0.10274600982666016,0.0711764395236969,-2.9599127769470215
1751448498637523700,17.408523681640624,-0.26717567443847656,-0.5574841499328613,-2.50920033454895
1751448498656352000,17.42735205078125,0.5395565032958984,-1.4500417709350586,-1.8718655109405518
1751448498675180000,17.446179931640625,-0.04665184020996094,-1.2323633432388306,-0.7432872653007507
1751448498694008000,17.465008056640624,-0.6674957275390625,-1.254898190498352,-0.1910140961408615
1751448498712836400,17.48383642578125,0.31313419342041016,-2.0630388259887695,0.9185247421264648
1751448498731664400,17.502664306640625,0.01752185821533203,-2.8302838802337646,2.1076457500457764
1751448498750492400,17.521492431640624,-0.24091720581054688,-2.091259479522705,2.1732125282287598
1751448498769320700,17.54032080078125,0.16312694549560547,-0.9058773517608643,1.0523931980133057
1751448498788148700,17.559148681640625,0.6212615966796875,-0.6770831346511841,0.6100831627845764
1751448498806976800,17.577976806640624,0.023782730102539062,-1.259286642074585,0.47433385252952576
1751448498825805000,17.59680517578125,-0.08258247375488281,-1.3208520412445068,0.730513870716095
1751448498844633000,17.615633056640625,-0.008597373962402344,-0.4988807141780853,0.7835497856140137
1751448498863461000,17.634461181640624,-0.011194229125976562,-0.8718545436859131,1.1841046810150146
1751448498882289200,17.6532890625,0.09542655944824219,-1.531211495399475,2.3796334266662598
1751448498901117400,17.672117431640626,-0.05858612060546875,-1.7867826223373413,2.297602653503418
1751448498919945500,17.690945556640624,0.04291343688964844,-0.7907445430755615,1.7586848735809326
1751448498938773500,17.7097734375,0.03917121887207031,-1.5725069046020508,2.765078544616699
1751448498957601800,17.728601806640626,0.21224212646484375,-1.77549147605896,3.1528260707855225
1751448498976429800,17.747429931640625,0.4940204620361328,-2.1220860481262207,2.8589131832122803
1751448498995257900,17.7662578125,0.5041961669921875,-2.780519485473633,2.6592390537261963
1751448499014086000,17.7850859375,-0.19350624084472656,-2.983423948287964,1.82938551902771
1751448499032914200,17.8039140625,0.3643913269042969,-2.9163978099823,1.0990499258041382
1751448499051742200,17.8227421875,-0.4082307815551758,-3.3171401023864746,0.8832070827484131
1751448499070570200,17.8415703125,-0.07561969757080078,-3.3423640727996826,-0.03521210700273514
1751448499089398500,17.8603984375,-0.4349079132080078,-3.1243233680725098,-1.1244741678237915
1751448499108226600,17.8792265625,0.16007328033447266,-1.8011789321899414,-2.1167075634002686
1751448499127054600,17.8980546875,-0.3485689163208008,-0.7790301442146301,-3.1979968547821045
1751448499145882600,17.916882568359377,0.0768575668334961,0.19739174842834473,-4.33015251159668
1751448499164711000,17.9357109375,-0.9168577194213867,0.40295374393463135,-7.052993297576904
1751448499183539000,17.9545390625,2.6958703994750977,1.9523056745529175,-8.595986366271973
1751448499202367000,17.973366943359373,-0.09298515319824219,2.4719972610473633,-1.944449782371521
1751448499221195000,17.992195068359376,-0.17130565643310547,1.2351609468460083,-1.764593482017517
1751448499240023300,18.011023193359375,-0.011309623718261719,1.0132862329483032,-1.3243708610534668
1751448499258851300,18.029851318359373,0.0259552001953125,0.40461763739585876,-1.2009336948394775
1751448499277679400,18.048679443359376,-0.21481800079345703,-0.15678070485591888,-1.1864924430847168
1751448499296507400,18.06750732421875,0.34420204162597656,-0.29927051067352295,-0.7963084578514099
1751448499315335700,18.086335693359374,0.11274147033691406,0.06346258521080017,-1.8428479433059692
1751448499334163700,18.105163818359376,0.23686790466308594,-0.5135462880134583,-1.6953980922698975
1751448499352991700,18.12399169921875,0.25856781005859375,-0.586215615272522,-1.5850821733474731
1751448499371819800,18.14281982421875,0.3296937942504883,0.08819657564163208,-1.8346019983291626
1751448499390648000,18.16164794921875,0.20403099060058594,0.09508848190307617,-1.904250979423523
1751448499409476000,18.18047607421875,-0.009984016418457031,-0.7919533252716064,-1.4864591360092163
1751448499428304100,18.19930419921875,0.49002742767333984,-1.043093204498291,-0.8797599673271179
1751448499447132200,18.218132080078124,0.09315013885498047,-1.9091248512268066,-0.34269893169403076
1751448499465960400,18.23696044921875,-0.05914115905761719,-2.606236457824707,0.4168458580970764
1751448499484788500,18.25578857421875,0.3994169235229492,-2.3849105834960938,1.5049854516983032
1751448499503616500,18.274616455078124,-0.21496868133544922,-2.164672374725342,2.3893325328826904
1751448499522444500,18.293444580078123,0.08901500701904297,-0.7483945488929749,2.7225823402404785
1751448499541272800,18.31227294921875,-0.12338638305664062,-0.3798902928829193,2.0664634704589844
1751448499560100900,18.331100830078125,-0.06968212127685547,-0.7346596121788025,1.5665754079818726
1751448499578929000,18.349928955078123,0.1178579330444336,-1.4835537672042847,1.5265753269195557
1751448499597757000,18.3687568359375,-0.036388397216796875,-1.348365068435669,1.5149941444396973
1751448499616585200,18.387585205078125,0.038959503173828125,-0.2436760663986206,0.18384528160095215
1751448499635413200,18.406413330078124,-0.048340797424316406,-0.5992114543914795,1.9279842376708984
1751448499654241300,18.4252412109375,-0.06282424926757812,-1.805422306060791,3.406790256500244
1751448499673069300,18.4440693359375,0.07680797576904297,-2.1416449546813965,3.6567938327789307
1751448499691897600,18.462897705078124,-0.043999671936035156,-2.471503257751465,3.2710776329040527
1751448499710725600,18.4817255859375,0.5265684127807617,-2.921135425567627,2.4879791736602783
1751448499729553700,18.5005537109375,0.3068571090698242,-3.2592310905456543,1.7377889156341553
1751448499748381700,18.519381591796876,-0.25716114044189453,-3.350818157196045,0.6402982473373413
1751448499767209700,18.538209716796874,-0.27190685272216797,-3.6050212383270264,-0.5641595721244812
1751448499786038000,18.5570380859375,-0.2589759826660156,-2.5712685585021973,-1.1213525533676147
1751448499804866000,18.575865966796876,-0.971684455871582,-1.9377590417861938,-2.1965529918670654
1751448499823694000,18.594694091796875,-0.2912454605102539,-1.4777876138687134,-3.0603365898132324
1751448499842522000,18.613522216796873,0.3873443603515625,-0.7512735724449158,-3.4706335067749023
1751448499861350100,18.63235009765625,0.28370189666748047,-0.2090238630771637,-3.701662540435791
1751448499880178400,18.651178466796875,0.27428436279296875,0.25382405519485474,-3.9133412837982178
1751448499899006500,18.67000634765625,-0.2784423828125,1.121533751487732,-4.0941877365112305
1751448499917834500,18.68883447265625,0.27796268463134766,1.9690619707107544,-3.9670276641845703
1751448499936662500,18.70766259765625,-0.036594390869140625,2.429478883743286,-2.559734582901001
1751448499955490600,18.726490478515625,-0.1220703125,0.8045367002487183,-1.1312406063079834
1751448499974318800,18.74531884765625,-0.04819679260253906,0.5917071104049683,-1.3869004249572754
1751448499993147000,18.76414697265625,0.004436492919921875,0.4561620354652405,-1.5284626483917236
1751448500011975000,18.782974853515626,0.2741680145263672,0.6263046264648438,-1.7949773073196411
1751448500030803000,18.801802978515624,-0.34519004821777344,0.8046821355819702,-2.7883639335632324
1751448500049631000,18.820630859375,-0.30902767181396484,0.5492313504219055,-2.5425853729248047
1751448500068459300,18.839459228515626,-0.07781791687011719,0.009723976254463196,-1.901146411895752
1751448500087287300,18.858287353515625,-0.041290283203125,-0.4993141293525696,-1.5812876224517822
1751448500106115300,18.877115234375,0.3504962921142578,-0.8216027617454529,-1.4118558168411255
1751448500124943400,18.895943359375,0.8824348449707031,-0.7412890195846558,-1.65037202835083
1751448500143771400,18.914771484375,0.9746866226196289,-1.105784296989441,-1.0402511358261108
1751448500162599700,18.933599609375,0.5671415328979492,-1.113018274307251,-0.9832398295402527
1751448500181427700,18.952427734375,-0.6642675399780273,-1.2601006031036377,-0.5168267488479614
1751448500200255700,18.971255859375,-0.41104602813720703,-1.488039255142212,-0.44918519258499146
1751448500219083800,18.990083740234375,-0.2772703170776367,-1.9079320430755615,0.13566482067108154
1751448500237911800,19.008911865234374,-0.29579639434814453,-2.8937625885009766,0.686995804309845
1751448500256740000,19.027739990234377,-0.43990421295166016,-2.8611741065979004,2.0297937393188477
1751448500275568000,19.046568115234376,0.1318950653076172,-2.1445236206054688,2.9225785732269287
1751448500294396200,19.065396240234374,-0.5231256484985352,-1.866050362586975,2.927191972732544
1751448500313224200,19.08422412109375,0.17018985748291016,-1.0737593173980713,2.1516685485839844
1751448500332052200,19.10305224609375,-0.11050796508789062,-0.6223572492599487,1.6888433694839478
1751448500350880500,19.121880615234375,0.05921745300292969,-0.6402089595794678,1.4847123622894287
1751448500369708500,19.14070849609375,-0.0055217742919921875,-0.10306823253631592,0.5825114846229553
1751448500388536600,19.15953662109375,-0.044938087463378906,-0.6870389580726624,2.1587941646575928
1751448500407364600,19.178364501953126,-0.012564659118652344,-1.3815999031066895,3.609006881713867
1751448500426192600,19.197192626953125,-0.14164352416992188,-1.8886220455169678,3.318197250366211
1751448500445020700,19.216020751953124,0.37162208557128906,-2.10341739654541,2.62459135055542
1751448500463849000,19.234848876953127,-0.1514120101928711,-1.9430254697799683,1.828523874282837
1751448500482677000,19.253677001953125,0.15234851837158203,-2.29114031791687,1.2026845216751099
1751448500501505000,19.272505126953124,0.0028200149536132812,-2.5487327575683594,0.6062486171722412
1751448500520333000,19.2913330078125,0.4342184066772461,-2.754683017730713,0.3586214780807495
1751448500539161000,19.3101611328125,0.030504226684570312,-2.654876708984375,-0.04217889532446861
1751448500557989000,19.328989013671876,0.153228759765625,-2.314606189727783,-0.8237528204917908
1751448500576817200,19.347817138671875,0.5392255783081055,-1.8952631950378418,-1.8619873523712158
1751448500595645400,19.3666455078125,-0.2665109634399414,-1.53877854347229,-2.5488717555999756
1751448500614473500,19.385473388671876,0.08231067657470703,-0.8933629989624023,-3.302025079727173
1751448500633301500,19.404301513671875,-0.7327842712402344,-0.13538587093353271,-3.8051531314849854
1751448500652129500,19.423129638671874,0.4512748718261719,0.7157330513000488,-3.693417549133301
1751448500670957600,19.44195751953125,-0.33362674713134766,1.5395991802215576,-3.3694937229156494
1751448500689785600,19.46078564453125,-0.029074668884277344,1.8076740503311157,-3.804572582244873
1751448500708614000,19.47961376953125,-0.04125690460205078,1.089982032775879,-2.472208023071289
1751448500727442000,19.49844189453125,0.03915214538574219,0.9740691781044006,-1.110059142112732
1751448500746270000,19.51727001953125,-0.15468788146972656,0.7874571084976196,-1.57240629196167
1751448500765098000,19.536097900390626,-0.1246194839477539,0.7288756370544434,-2.212400197982788
1751448500783926000,19.554926025390625,-0.1267871856689453,0.24212199449539185,-2.1795384883880615
1751448500802754000,19.573754150390624,-0.014563560485839844,-0.1198723241686821,-1.9829068183898926
1751448500821582300,19.592582275390626,-0.18682479858398438,0.2728743851184845,-2.0450031757354736
1751448500840410400,19.611410400390625,0.9319734573364258,0.4365793466567993,-1.9900684356689453
1751448500859238400,19.63023828125,0.3497943878173828,0.17615753412246704,-2.2143309116363525
1751448500878066400,19.64906640625,-0.026569366455078125,-0.2743522524833679,-2.192559242248535
1751448500896894500,19.66789453125,0.10811901092529297,-0.6210065484046936,-2.0531463623046875
1751448500915722500,19.686722412109376,-0.6691932678222656,-0.9461170434951782,-1.5788557529449463
1751448500934550500,19.705550537109374,-0.6778707504272461,-1.2709956169128418,-0.7120418548583984
1751448500953378600,19.724378662109373,0.4090871810913086,-2.5221407413482666,0.18048736453056335
1751448500972206800,19.743206787109376,-0.05862903594970703,-2.8579609394073486,1.0761334896087646
1751448500991035000,19.762034912109375,-0.3254585266113281,-2.2699055671691895,1.1091787815093994
1751448501009863000,19.78086279296875,0.13485240936279297,-1.93467116355896,0.710229218006134
1751448501028691000,19.79969091796875,0.17670536041259766,-2.0301740169525146,1.2856872081756592
1751448501056933000,19.82793310546875,-0.2300701141357422,-1.7894814014434814,2.160809278488159
1751448501075761200,19.84676123046875,0.3875446319580078,-1.4146323204040527,2.280803918838501
1751448501094589200,19.865589111328124,-0.006786346435546875,-1.1980279684066772,2.528557777404785
1751448501113417200,19.884417236328126,-0.05811309814453125,-0.7457890510559082,2.4092321395874023
1751448501132245200,19.903245361328125,0.011225700378417969,-0.1601477712392807,0.18875724077224731
1751448501151073300,19.9220732421875,-0.011516571044921875,-0.9204062223434448,1.8039125204086304
1751448501169901600,19.940901611328126,-0.024625778198242188,-1.3315832614898682,2.755898952484131
1751448501188729600,19.9597294921875,0.0038671493530273438,-1.5669562816619873,2.997548818588257
1751448501207557600,19.9785576171875,0.0742044448852539,-2.0402753353118896,3.0277650356292725
1751448501226385700,19.9973857421875,0.052071571350097656,-2.66361141204834,2.6632771492004395
1751448501245213700,20.016213623046873,-0.45448780059814453,-2.5605385303497314,1.441442608833313
1751448501264041700,20.035041748046876,-0.11182880401611328,-2.559785842895508,0.8631392121315002
1751448501282869800,20.053869873046875,-0.31142234802246094,-2.155531883239746,0.18504266440868378
1751448501301697800,20.07269775390625,0.24413394927978516,-2.574510335922241,-0.03855745866894722
1751448501320525800,20.09152587890625,0.3123292922973633,-2.1122374534606934,-0.743014931678772
1751448501339354000,20.11035400390625,0.6529674530029297,-1.8620012998580933,-1.3701107501983643
1751448501358182100,20.12918212890625,0.3690481185913086,-1.2684348821640015,-1.9988669157028198
1751448501377010200,20.14801025390625,-0.4594764709472656,-0.6369386911392212,-2.739739179611206
1751448501395838200,20.166838134765626,0.5051078796386719,0.11353203654289246,-3.778083324432373
1751448501414666200,20.185666259765625,-0.018357276916503906,-0.003986433148384094,-7.110714435577393
1751448501433494300,20.204494384765624,0.2129383087158203,1.5233973264694214,-6.020644664764404
1751448501452322300,20.223322265625,-0.006180763244628906,1.890830159187317,-2.9647960662841797
1751448501471150300,20.242150390625,-0.14406871795654297,0.8820056915283203,-0.1664597988128662
1751448501489978400,20.260978271484376,-0.03186321258544922,0.4975685477256775,0.5591918230056763
1751448501508806700,20.279806640625,-0.09618854522705078,0.6556972861289978,-0.06756098568439484
1751448501527634700,20.298634765625,-0.05423259735107422,0.5401122570037842,-0.9650630950927734
1751448501546462700,20.317462646484376,0.03561687469482422,0.4469991624355316,-1.7088137865066528
1751448501565290800,20.336290771484375,-0.11185741424560547,0.1729966551065445,-2.4126408100128174
1751448501584118800,20.355118896484374,-0.1520223617553711,0.24291756749153137,-2.786653757095337
1751448501602946800,20.37394677734375,-0.4148578643798828,0.6598156690597534,-3.324475049972534
1751448501621774800,20.39277490234375,-0.7425737380981445,0.42912957072257996,-3.435100555419922
1751448501640603000,20.411602783203126,-0.5771293640136719,-0.12066978216171265,-3.5001399517059326
1751448501659431000,20.430430908203125,-0.34836387634277344,-0.7133862972259521,-2.6400513648986816
1751448501678259000,20.449259033203123,-0.13790225982666016,-1.2334791421890259,-1.8893638849258423
1751448501697087200,20.468087158203126,0.279754638671875,-1.6516053676605225,-1.0976274013519287
1751448501715915300,20.486915283203125,-0.07061576843261719,-2.033769130706787,-0.16300877928733826
1751448501734743300,20.505743408203124,-0.022363662719726562,-2.7390828132629395,0.847559928894043
1751448501753571300,20.5245712890625,-1.1247100830078125,-3.1287171840667725,1.4217218160629272
1751448501772399400,20.5433994140625,-0.05769634246826172,-2.7215192317962646,1.9726191759109497
1751448501791227400,20.562227294921875,0.6254415512084961,-2.4348981380462646,1.7760647535324097
1751448501810055400,20.581055419921874,-0.27478694915771484,-1.357177972793579,2.035374402999878
1751448501828883500,20.599883544921877,-0.024242401123046875,-0.7193260192871094,1.7653928995132446
1751448501847711500,20.61871142578125,0.21190261840820312,-1.0355122089385986,1.7159373760223389
1751448501866539500,20.63753955078125,0.3376197814941406,-1.4443676471710205,2.5301826000213623
1751448501885367600,20.656367431640625,-0.04839515686035156,-2.0581777095794678,2.821491003036499
1751448501904195800,20.67519580078125,0.049551963806152344,-0.6585417985916138,1.070029854774475
1751448501923023600,20.694023681640626,0.05406761169433594,-1.2094594240188599,2.5358381271362305
1751448501941852000,20.712851806640625,-0.04528617858886719,-1.5389561653137207,3.1416656970977783
1751448501960680000,20.731679931640624,0.037171363830566406,-2.1044747829437256,3.03434681892395
1751448501979508000,20.750508056640626,0.40399646759033203,-2.5349135398864746,2.6373934745788574
1751448501998336000,20.7693359375,-0.1899576187133789,-2.2452454566955566,2.2424237728118896
1751448502017164000,20.7881640625,-0.01804351806640625,-2.330860137939453,1.3552783727645874
1751448502035992000,20.806991943359375,0.7934331893920898,-2.37857985496521,0.6556370258331299
1751448502054820000,20.825820068359373,0.6529951095581055,-2.609503746032715,-0.14468389749526978
1751448502073648000,20.844648193359376,0.0993795394897461,-1.867606282234192,-0.5789210796356201
1751448502092476200,20.86347607421875,-0.11846542358398438,-1.6266940832138062,-1.0680010318756104
1751448502111304200,20.88230419921875,0.024827957153320312,-1.3453669548034668,-1.4844317436218262
1751448502130132200,20.90113232421875,-0.2960681915283203,-0.8296913504600525,-2.702958583831787
1751448502148960300,20.919960205078127,0.5241413116455078,0.12717658281326294,-3.851087808609009
1751448502167788500,20.93878857421875,0.024385452270507812,0.3591883182525635,-4.271689414978027
1751448502186616300,20.9576162109375,-0.24930477142333984,0.545717716217041,-4.585870742797852
1751448502205444600,20.976444580078127,0.028028488159179688,0.9996365308761597,-4.78463077545166
1751448502224272600,20.995272705078126,0.12791728973388672,0.9047876596450806,-2.5834548473358154
1751448502243100700,21.0141005859375,-0.06662940979003906,0.4188322424888611,-0.9389098882675171
1751448502280756700,21.0517568359375,0.27117919921875,0.5000241994857788,-1.5126203298568726
1751448502299584800,21.070584716796876,-0.024410247802734375,-0.0354393869638443,-2.067312240600586
1751448502318412800,21.089412841796875,0.15928077697753906,-0.22347602248191833,-2.6048026084899902
1751448502337240800,21.10824072265625,0.12469482421875,-0.18153946101665497,-2.8664166927337646
1751448502356068900,21.12706884765625,-0.013704299926757812,-0.195715993642807,-2.9275460243225098
1751448502374897000,21.14589697265625,0.4740781784057617,-0.38676756620407104,-2.1977310180664062
1751448502393725000,21.164724853515626,0.27908992767333984,-0.1350911557674408,-1.7483149766921997
1751448502412553000,21.183552978515625,-0.8370828628540039,-0.34647613763809204,-1.4328975677490234
1751448502431381000,21.202381103515624,1.1051902770996094,-0.6360098123550415,-0.7733361124992371
1751448502450209000,21.221208984375,-0.7701444625854492,-0.9157993197441101,-0.6606360673904419
1751448502469037000,21.240037109375,-0.2733650207519531,-1.3865519762039185,-0.015574254095554352
1751448502487865000,21.258864990234375,-0.013407707214355469,-1.7874596118927002,0.6093405485153198
1751448502506693000,21.277693115234374,0.3741283416748047,-2.0144145488739014,1.2001488208770752
1751448502525521400,21.296521484375,0.2819976806640625,-2.104543685913086,1.0191465616226196
1751448502544349200,21.31534912109375,-0.42011451721191406,-2.1886253356933594,1.3603764772415161
1751448502563177500,21.334177490234374,0.4575796127319336,-1.586259365081787,1.969439148902893
1751448502582005500,21.353005615234373,-0.18675708770751953,-1.17466402053833,1.7705057859420776
1751448502600833500,21.37183349609375,-0.043442726135253906,-1.1750438213348389,1.6825398206710815
1751448502619661600,21.39066162109375,-0.01244354248046875,-1.3479270935058594,1.9916273355484009
1751448502638489600,21.409489501953125,-0.07724189758300781,-1.3369646072387695,2.5516514778137207
1751448502657317600,21.428317626953124,-0.02092456817626953,-0.7928409576416016,2.9349589347839355
1751448502676145700,21.447145751953126,-0.00661468505859375,-0.5170598030090332,1.1582154035568237
1751448502694973700,21.4659736328125,-0.04483604431152344,-0.8874534964561462,2.250941753387451
1751448502713801700,21.4848017578125,-0.02819538116455078,-0.9603704810142517,2.6564559936523438
1751448502732629800,21.503629638671875,0.13658714294433594,-1.8496042490005493,3.151370048522949
1751448502751457800,21.522457763671873,-0.09168243408203125,-2.4493162631988525,3.2859020233154297
1751448502770285800,21.541285888671876,-0.18352985382080078,-3.1270577907562256,3.2463865280151367
1751448502789113900,21.56011376953125,-0.10132408142089844,-3.4755125045776367,2.7957847118377686
1751448502807942000,21.57894189453125,0.5264835357666016,-3.5708155632019043,1.420237421989441
1751448502826770000,21.59777001953125,0.5264129638671875,-3.1515746116638184,-0.20539602637290955
1751448502845598000,21.616597900390627,0.7086086273193359,-2.5387871265411377,-1.463340163230896
1751448502864426000,21.635426025390625,-1.1194543838500977,-2.417285442352295,-1.8419386148452759
1751448502883254000,21.65425390625,0.1651477813720703,-1.6725407838821411,-2.278195858001709
1751448502902082000,21.67308203125,0.6273889541625977,-1.3302547931671143,-3.061004638671875
1751448502920910000,21.69191015625,-0.236572265625,-0.42268869280815125,-4.113610744476318
1751448502939738000,21.710738037109376,-1.2642803192138672,-0.006532482802867889,-4.377031326293945
1751448502958566100,21.729566162109375,0.5929489135742188,0.8067837953567505,-4.717559337615967
1751448502977394200,21.748394287109374,0.4174165725708008,0.9332931041717529,-4.805807590484619
1751448502996222200,21.76722216796875,0.24057388305664062,1.7956867218017578,-4.071623802185059
1751448503015050200,21.78605029296875,-0.13281536102294922,1.0942234992980957,-1.7373225688934326
1751448503033878300,21.804878173828126,0.16925048828125,1.1145731210708618,-2.34488582611084
1751448503052706300,21.823706298828125,0.1294384002685547,0.7829641103744507,-2.5883917808532715
1751448503071534300,21.842534423828123,0.2119140625,0.35410192608833313,-2.355836868286133
1751448503090362400,21.8613623046875,0.027106285095214844,0.14159198105335236,-1.939173936843872
1751448503109190400,21.8801904296875,0.5808620452880859,-0.13852791488170624,-1.4850445985794067
1751448503128018400,21.899018310546875,0.44679832458496094,-0.6429637670516968,-1.4945099353790283
1751448503146846500,21.917846435546874,-0.1962747573852539,-0.5763092041015625,-0.9776951670646667
1751448503165674500,21.936674560546876,0.10060501098632812,-0.6201447248458862,-1.0245864391326904
1751448503184502500,21.95550244140625,1.2774229049682617,-0.5941025018692017,-1.1258041858673096
1751448503203330600,21.97433056640625,0.6989116668701172,-1.0489192008972168,-1.0005642175674438
1751448503222158600,21.99315869140625,0.06034374237060547,-1.3621826171875,-0.1599126160144806
1751448503240986600,22.011986572265624,0.4564018249511719,-1.810485601425171,0.7952056527137756
1751448503259814700,22.030814697265626,0.20025062561035156,-1.7024400234222412,0.6805346012115479
1751448503278642700,22.049642578125,0.20958614349365234,-1.629686951637268,1.1111682653427124
1751448503297470700,22.068470703125,-0.1418895721435547,-1.8211860656738281,1.7834010124206543
1751448503316298800,22.087298828125,-0.3643035888671875,-1.6628456115722656,2.3059933185577393
1751448503335126800,22.106126708984377,-0.11297035217285156,-1.2226077318191528,2.5161120891571045
1751448503353954800,22.124954833984376,-0.06566524505615234,-0.7683907747268677,1.9902620315551758
1751448503372782800,22.143782958984374,0.026073455810546875,-0.8553030490875244,1.8064178228378296
1751448503391611000,22.16261083984375,-0.041683197021484375,-1.0186384916305542,1.6231627464294434
1751448503410439000,22.18143896484375,0.0740203857421875,-0.3704625964164734,0.7362527847290039
1751448503429267000,22.200266845703126,-0.0861663818359375,-1.160823106765747,2.2087037563323975
1751448503448095000,22.219094970703125,-0.1026754379272461,-2.06620454788208,3.6983225345611572
1751448503466923000,22.237923095703124,-0.05901336669921875,-2.6446988582611084,4.25420618057251
1751448503485751000,22.2567509765625,-0.1360797882080078,-2.8942315578460693,3.7197799682617188
1751448503504579000,22.2755791015625,0.534785270690918,-2.881753921508789,3.1697568893432617
1751448503523407000,22.294406982421876,-1.1042709350585938,-3.5393409729003906,1.6823711395263672
1751448503542235100,22.313235107421875,0.7638702392578125,-3.3738961219787598,0.15060117840766907
1751448503561063200,22.332063232421874,-0.5520153045654297,-3.0096192359924316,-0.9527535438537598
1751448503579891200,22.35089111328125,0.6197271347045898,-2.3388843536376953,-2.238673210144043
1751448503598719200,22.36971923828125,0.1630706787109375,-1.8058152198791504,-2.3941490650177
1751448503617547300,22.38854736328125,0.8363714218139648,-0.979356586933136,-3.125424385070801
1751448503636375300,22.407375244140624,0.26137447357177734,-0.6036101579666138,-3.5877835750579834
1751448503655203300,22.426203369140627,-0.2363147735595703,0.04886414110660553,-3.994767189025879
1751448503674031400,22.44503125,0.6501073837280273,1.0156391859054565,-4.595841407775879
1751448503692859400,22.463859375,-0.23044681549072266,1.5386008024215698,-4.818842887878418
1751448503711687400,22.4826875,0.15119457244873047,1.2899982929229736,-4.2132887840271
1751448503730515500,22.501515380859374,-0.05193614959716797,1.1549737453460693,-2.069460868835449
1751448503749343500,22.520343505859376,0.39846134185791016,1.0190098285675049,-2.2669060230255127
1751448503768171500,22.539171630859375,-0.029288291931152344,0.060551464557647705,-1.9625744819641113
1751448503786999600,22.55799951171875,0.15056133270263672,0.025512248277664185,-2.266319513320923
1751448503805827600,22.57682763671875,-0.2795877456665039,0.530580997467041,-2.331777811050415
1751448503824655600,22.595655517578123,-0.29976654052734375,0.6378160119056702,-2.2912957668304443
1751448503843483600,22.614483642578126,0.09156036376953125,-0.009626224637031555,-1.2826162576675415
1751448503862311400,22.6333115234375,-0.018604278564453125,-0.10151395201683044,-1.2510684728622437
1751448503881139500,22.652139404296875,0.26983642578125,-0.5702870488166809,-1.3103623390197754
1751448503899967500,22.670967529296874,-0.08704376220703125,-0.6614885330200195,-1.1756951808929443
1751448503918795500,22.68979541015625,0.3138284683227539,-0.6630562543869019,-1.2723922729492188
1751448503937623600,22.70862353515625,0.2901487350463867,-1.0005433559417725,-0.7383900880813599
1751448503956451600,22.72745166015625,-0.9749679565429688,-1.0018184185028076,-0.12112448364496231
1751448503975279600,22.746279541015625,0.18037891387939453,-1.0201547145843506,0.37140798568725586
1751448503994107600,22.765107666015624,1.2315845489501953,-1.2494335174560547,0.34198546409606934
1751448504012935700,22.783935791015626,-0.04883766174316406,-1.5970016717910767,0.53608238697052
1751448504031763700,22.802763671875,0.3185863494873047,-2.2015421390533447,1.239235758781433
1751448504050591700,22.821591796875,0.1433887481689453,-1.7173274755477905,1.7897472381591797
1751448504069419800,22.840419677734374,0.3404264450073242,-1.5918817520141602,2.135817766189575
1751448504088247800,22.859247802734377,-0.011912345886230469,-1.5924192667007446,2.551038980484009
1751448504107075800,22.878075927734375,-0.07429885864257812,-1.4504529237747192,3.157792329788208
1751448504125904000,22.89690380859375,-0.0682525634765625,-2.1011078357696533,2.986158847808838
1751448504144732000,22.91573193359375,0.08204269409179688,-0.8069205284118652,1.5242631435394287
1751448504163560000,22.934559814453124,0.22400474548339844,-1.4302341938018799,3.1981284618377686
1751448504182388000,22.953387939453126,0.03042125701904297,-1.7754902839660645,3.3698465824127197
1751448504201215700,22.9722158203125,0.31984996795654297,-2.111180067062378,3.3727307319641113
1751448504220043800,22.991043701171876,-0.35680294036865234,-2.1164088249206543,3.169151544570923
1751448504238871800,23.009871826171874,-0.16305160522460938,-2.5787241458892822,2.023761749267578
1751448504257699800,23.028699951171873,0.17270278930664062,-2.826022148132324,0.9825997352600098
1751448504276527900,23.04752783203125,0.6550540924072266,-2.9085659980773926,0.23925422132015228
1751448504295356000,23.06635595703125,-0.4085979461669922,-2.652768850326538,-0.24448391795158386
1751448504314184000,23.085183837890625,-0.6164884567260742,-2.1980364322662354,-0.8995568156242371
1751448504333012000,23.104011962890624,0.11000728607177734,-1.717990517616272,-1.888213872909546
1751448504351840000,23.122840087890626,0.25620365142822266,-1.0625009536743164,-3.1054961681365967
1751448504370668000,23.14166796875,0.2900981903076172,-0.40641218423843384,-3.5819711685180664
1751448504389496000,23.16049609375,0.40857601165771484,0.3959904909133911,-3.836395502090454
1751448504408324000,23.179323974609375,-0.9367437362670898,0.9247744083404541,-3.511913537979126
1751448504427152000,23.19815185546875,0.026803970336914062,0.9741048812866211,-3.6666462421417236
1751448504445980000,23.21697998046875,0.30951786041259766,1.372964859008789,-3.941136121749878
1751448504464808000,23.235807861328126,-0.09147834777832031,1.6133124828338623,-3.3467442989349365
1751448504483636000,23.254635986328125,0.029335975646972656,0.6595524549484253,-1.4383741617202759
1751448504502464000,23.273464111328124,-0.04340362548828125,0.7290237545967102,-1.9654488563537598
1751448504521292000,23.2922919921875,-0.048508644104003906,0.7633480429649353,-2.8935341835021973
1751448504540120000,23.3111201171875,-0.02542400360107422,0.469066321849823,-2.307781219482422
1751448504558948000,23.329947998046876,-0.6589984893798828,0.34520477056503296,-2.499220371246338
1751448504577776000,23.348776123046875,0.20677566528320312,0.1958390772342682,-2.6948740482330322
1751448504596604200,23.367604248046874,-0.2073078155517578,-0.29261085391044617,-2.3464443683624268
1751448504615432200,23.38643212890625,0.042983055114746094,-0.8112255930900574,-1.6504771709442139
1751448504634260000,23.405260009765627,-0.041835784912109375,-0.6107835173606873,-1.6132525205612183
1751448504653088000,23.424087890625,-0.9183511734008789,-0.7758651375770569,-1.542919397354126
1751448504671916000,23.442916015625,0.30542564392089844,-0.7401441335678101,-1.2604469060897827
1751448504690744000,23.461744140625,-0.11911582946777344,-1.3108606338500977,-0.6997435092926025
1751448504718986000,23.489986083984373,0.4349346160888672,-2.0358543395996094,0.41435864567756653
1751448504737814000,23.50881396484375,0.04802227020263672,-2.443805456161499,0.8196069002151489
1751448504756642000,23.52764208984375,0.6365747451782227,-2.0110158920288086,1.2398979663848877
1751448504775470000,23.546469970703125,-0.3582887649536133,-2.1816458702087402,1.5043613910675049
1751448504794298000,23.565298095703124,0.09834861755371094,-2.338439702987671,1.8753657341003418
1751448504813126100,23.584126220703126,1.2130489349365234,-2.476579427719116,2.333500385284424
