time,seconds_elapsed,z,y,x
1751448481443890400,0.214890380859375,-0.001832594396546483,0.00045814859913662076,0.0007635809597559273
1751448481483900400,0.254900390625,-0.000610864779446274,0.00045814859913662076,-0.001679878099821508
1751448481498021600,0.269021728515625,0.000610864779446274,0.00045814859913662076,-0.00045814859913662076
1751448481516849700,0.287849609375,-0.001832594396546483,0.00045814859913662076,0.0007635809597559273
1751448481538031600,0.309031494140625,-0.0030543238390237093,0.00045814859913662076,0.0007635809597559273
1751448481552152600,0.323152587890625,-0.001832594396546483,0.00045814859913662076,0.0007635809597559273
1751448481570980900,0.34198095703125,-0.000610864779446274,0.00045814859913662076,0.0007635809597559273
1751448481587455500,0.35845556640625,-0.0030543238390237093,0.00045814859913662076,0.0007635809597559273
1751448481599223300,0.370223388671875,-0.000610864779446274,0.00045814859913662076,-0.00045814859913662076
1751448481615698000,0.386697998046875,-0.000610864779446274,-0.0007635809597559273,-0.00045814859913662076
1751448481629819100,0.400819091796875,0.000610864779446274,0.00045814859913662076,0.0007635809597559273
1751448481641586700,0.412586669921875,-0.000610864779446274,0.001679878099821508,0.0007635809597559273
1751448481660415000,0.4314150390625,0.000610864779446274,0.00045814859913662076,-0.00045814859913662076
1751448481672182500,0.4431826171875,-0.001832594396546483,-0.0019853105768561363,-0.00045814859913662076
1751448481686303700,0.4573037109375,-0.001832594396546483,-0.0019853105768561363,-0.00045814859913662076
1751448481698071300,0.4690712890625,-0.000610864779446274,-0.0007635809597559273,0.0007635809597559273
1751448481709839000,0.480839111328125,-0.001832594396546483,-0.0019853105768561363,0.0007635809597559273
1751448481721606700,0.492606689453125,-0.000610864779446274,-0.0019853105768561363,-0.001679878099821508
1751448481733374200,0.504374267578125,-0.001832594396546483,-0.0007635809597559273,-0.00045814859913662076
1751448481747495400,0.518495361328125,-0.000610864779446274,0.00045814859913662076,-0.00045814859913662076
1751448481759263200,0.53026318359375,-0.000610864779446274,0.00045814859913662076,0.0007635809597559273
1751448481771030800,0.54203076171875,0.000610864779446274,0.00045814859913662076,0.0007635809597559273
1751448481787505400,0.55850537109375,-0.001832594396546483,0.001679878099821508,0.0007635809597559273
1751448481799273000,0.57027294921875,-0.001832594396546483,0.00045814859913662076,-0.00045814859913662076
1751448481811040800,0.582040771484375,-0.000610864779446274,-0.0007635809597559273,-0.00045814859913662076
1751448481825162000,0.596161865234375,-0.000610864779446274,0.001679878099821508,-0.00045814859913662076
1751448481841636600,0.61263671875,-0.000610864779446274,0.00045814859913662076,0.0007635809597559273
1751448481858111200,0.629111328125,-0.000610864779446274,-0.0007635809597559273,0.0007635809597559273
1751448481872232400,0.643232421875,-0.001832594396546483,0.00045814859913662076,0.0019853105768561363
1751448481888707000,0.65970703125,-0.001832594396546483,-0.0007635809597559273,-0.00045814859913662076
1751448481902828300,0.673828369140625,-0.000610864779446274,0.00045814859913662076,0.0007635809597559273
1751448481921656600,0.692656494140625,-0.001832594396546483,0.005345067009329796,-0.00045814859913662076
1751448481935777800,0.70677783203125,-0.000610864779446274,0.002901607658714056,-0.00045814859913662076
1751448481949898800,0.720898681640625,-0.001832594396546483,0.002901607658714056,0.0007635809597559273
1751448481961666600,0.73266650390625,-0.000610864779446274,0.001679878099821508,0.0007635809597559273
1751448481973434000,0.74443408203125,-0.0030543238390237093,-0.0007635809597559273,-0.00045814859913662076
1751448481987555300,0.758555419921875,-0.001832594396546483,0.00045814859913662076,0.0007635809597559273
1751448482001676500,0.772676513671875,-0.001832594396546483,0.001679878099821508,-0.00045814859913662076
1751448482013444000,0.784444091796875,-0.000610864779446274,0.00045814859913662076,0.0007635809597559273
1751448482025211600,0.796211669921875,-0.000610864779446274,0.00045814859913662076,-0.00045814859913662076
1751448482036979500,0.8079794921875,-0.000610864779446274,0.001679878099821508,0.0007635809597559273
1751448482058161200,0.8291611328125,-0.0030543238390237093,0.001679878099821508,-0.00045814859913662076
1751448482069928700,0.8409287109375,-0.001832594396546483,0.001679878099821508,-0.00045814859913662076
1751448482081696500,0.852696533203125,-0.001832594396546483,0.001679878099821508,0.0007635809597559273
1751448482093464000,0.864464111328125,-0.0030543238390237093,0.001679878099821508,0.0019853105768561363
1751448482109938700,0.880938720703125,-0.0030543238390237093,0.00045814859913662076,0.0007635809597559273
1751448482126413600,0.89741357421875,0.000610864779446274,0.001679878099821508,-0.00045814859913662076
1751448482138181000,0.90918115234375,-0.001832594396546483,0.00045814859913662076,-0.00045814859913662076
1751448482152302300,0.92330224609375,-0.000610864779446274,0.001679878099821508,-0.00045814859913662076
1751448482164070000,0.93506982421875,-0.000610864779446274,-0.0007635809597559273,-0.00045814859913662076
1751448482178191000,0.949191162109375,-0.001832594396546483,0.00045814859913662076,-0.00045814859913662076
1751448482189958700,0.960958740234375,-0.000610864779446274,0.00045814859913662076,-0.00045814859913662076
1751448482204079900,0.975079833984375,-0.001832594396546483,0.00045814859913662076,-0.001679878099821508
1751448482215847400,0.986847412109375,-0.001832594396546483,0.00045814859913662076,-0.001679878099821508
1751448482229968600,1.00096875,-0.000610864779446274,0.00045814859913662076,-0.001679878099821508
1751448482241736400,1.012736328125,-0.0030543238390237093,0.002901607658714056,-0.001679878099821508
1751448482258211000,1.029211181640625,-0.000610864779446274,0.00045814859913662076,-0.001679878099821508
1751448482269978600,1.040978515625,-0.001832594396546483,0.00045814859913662076,0.0007635809597559273
1751448482281746200,1.05274609375,-0.000610864779446274,0.00045814859913662076,0.0019853105768561363
1751448482300574500,1.071574462890625,-0.001832594396546483,-0.0007635809597559273,0.0007635809597559273
1751448482312342300,1.08334228515625,-0.001832594396546483,0.00045814859913662076,-0.00045814859913662076
1751448482326463500,1.09746337890625,-0.001832594396546483,0.00045814859913662076,-0.00045814859913662076
1751448482338231000,1.10923095703125,-0.001832594396546483,0.00045814859913662076,-0.00045814859913662076
1751448482349998600,1.12099853515625,-0.001832594396546483,0.00045814859913662076,0.0019853105768561363
1751448482366473200,1.13747314453125,-0.001832594396546483,0.00045814859913662076,-0.00045814859913662076
1751448482380594400,1.151594482421875,-0.001832594396546483,0.001679878099821508,-0.00045814859913662076
1751448482399422700,1.170422607421875,-0.000610864779446274,0.00045814859913662076,-0.00045814859913662076
1751448482411190300,1.182190185546875,-0.000610864779446274,0.00045814859913662076,0.0007635809597559273
1751448482427665200,1.1986650390625,-0.000610864779446274,0.00045814859913662076,-0.00045814859913662076
1751448482439432700,1.2104326171875,-0.001832594396546483,0.00045814859913662076,-0.00045814859913662076
1751448482451200300,1.2222001953125,-0.000610864779446274,0.001679878099821508,0.0007635809597559273
1751448482462968000,1.233968017578125,-0.000610864779446274,0.00045814859913662076,0.0007635809597559273
1751448482479442700,1.250442626953125,-0.000610864779446274,0.001679878099821508,-0.00045814859913662076
1751448482491210200,1.262210205078125,-0.001832594396546483,0.00045814859913662076,-0.00045814859913662076
1751448482507685000,1.27868505859375,-0.001832594396546483,0.001679878099821508,-0.00045814859913662076
1751448482524159700,1.29515966796875,-0.000610864779446274,0.00045814859913662076,-0.00045814859913662076
1751448482538281000,1.309281005859375,-0.001832594396546483,0.00045814859913662076,0.0007635809597559273
1751448482554755600,1.325755615234375,-0.001832594396546483,0.00045814859913662076,-0.00045814859913662076
1751448482568876800,1.339876708984375,-0.001832594396546483,-0.0007635809597559273,0.0007635809597559273
1751448482582998000,1.353998046875,-0.001832594396546483,0.00045814859913662076,0.0007635809597559273
1751448482599472600,1.37047265625,-0.001832594396546483,0.00045814859913662076,0.0007635809597559273
1751448482611240200,1.382240234375,-0.0030543238390237093,-0.0007635809597559273,-0.00045814859913662076
1751448482627715000,1.398715087890625,-0.001832594396546483,0.00045814859913662076,0.0007635809597559273
1751448482639482600,1.410482666015625,-0.001832594396546483,0.00045814859913662076,-0.00045814859913662076
1751448482658311000,1.429310791015625,-0.001832594396546483,0.00045814859913662076,0.0007635809597559273
1751448482679492600,1.45049267578125,-0.000610864779446274,0.001679878099821508,-0.00045814859913662076
1751448482700674300,1.47167431640625,-0.000610864779446274,0.00045814859913662076,-0.00045814859913662076
1751448482717149000,1.48814892578125,-0.000610864779446274,0.001679878099821508,0.0007635809597559273
1751448482738331000,1.509330810546875,-0.001832594396546483,-0.0007635809597559273,0.0007635809597559273
1751448482750098400,1.521098388671875,-0.000610864779446274,0.001679878099821508,-0.00045814859913662076
1751448482761866000,1.532865966796875,-0.001832594396546483,0.00045814859913662076,0.0007635809597559273
1751448482778340900,1.5493408203125,-0.000610864779446274,-0.0007635809597559273,-0.00045814859913662076
1751448482792462000,1.563462158203125,-0.000610864779446274,0.00045814859913662076,0.0007635809597559273
1751448482813643800,1.584643798828125,-0.0030543238390237093,0.00045814859913662076,0.0007635809597559273
1751448482848946700,1.61994677734375,-0.000610864779446274,0.002901607658714056,-0.00045814859913662076
1751448482881896000,1.65289599609375,-0.000610864779446274,0.00045814859913662076,-0.00045814859913662076
1751448482896017200,1.66701708984375,-0.000610864779446274,0.00045814859913662076,0.0007635809597559273
1751448482907784700,1.67878466796875,-0.000610864779446274,0.00045814859913662076,0.0007635809597559273
1751448482924259600,1.695259521484375,-0.001832594396546483,0.001679878099821508,-0.00045814859913662076
1751448482945441300,1.716441162109375,-0.000610864779446274,-0.0007635809597559273,0.0007635809597559273
1751448482957208800,1.728208740234375,-0.000610864779446274,0.00045814859913662076,0.0007635809597559273
1751448482968976600,1.7399765625,-0.000610864779446274,-0.0007635809597559273,0.0007635809597559273
1751448482980744200,1.751744140625,-0.000610864779446274,0.00045814859913662076,-0.00045814859913662076
1751448483011340000,1.782340087890625,-0.000610864779446274,0.00045814859913662076,0.0007635809597559273
1751448483025461200,1.796461181640625,-0.000610864779446274,0.00045814859913662076,0.0007635809597559273
1751448483044289500,1.81528955078125,-0.000610864779446274,0.00045814859913662076,-0.001679878099821508
1751448483058410800,1.82941064453125,-0.001832594396546483,0.001679878099821508,-0.00045814859913662076
1751448483072531700,1.84353173828125,-0.001832594396546483,0.00045814859913662076,0.0007635809597559273
1751448483086653000,1.85765283203125,-0.001832594396546483,0.00045814859913662076,0.0007635809597559273
1751448483100774100,1.871774169921875,-0.001832594396546483,0.001679878099821508,0.0007635809597559273
1751448483112541700,1.883541748046875,-0.001832594396546483,0.001679878099821508,0.0007635809597559273
1751448483140784000,1.9117841796875,-0.000610864779446274,0.001679878099821508,0.0007635809597559273
1751448483154905300,1.9259052734375,-0.001832594396546483,0.001679878099821508,0.0007635809597559273
1751448483169026600,1.940026611328125,-0.000610864779446274,0.00045814859913662076,0.0007635809597559273
1751448483180794000,1.951794189453125,-0.000610864779446274,0.00045814859913662076,-0.00045814859913662076
1751448483192561700,1.963561767578125,-0.001832594396546483,0.00045814859913662076,-0.00045814859913662076
1751448483206683000,1.977682861328125,-0.001832594396546483,0.00045814859913662076,0.0007635809597559273
1751448483220804000,1.99180419921875,-0.001832594396546483,-0.0007635809597559273,0.0007635809597559273
1751448483237278700,2.00827880859375,-0.000610864779446274,0.00045814859913662076,-0.00045814859913662076
1751448483249046500,2.020046630859375,-0.001832594396546483,0.001679878099821508,0.0007635809597559273
1751448483260814000,2.03181396484375,-0.001832594396546483,-0.005650499369949102,-0.00045814859913662076
1751448483272581600,2.04358154296875,-0.000610864779446274,-0.0007635809597559273,-0.00045814859913662076
1751448483284349400,2.055349365234375,-0.001832594396546483,-0.008093958720564842,-0.001679878099821508
1751448483303177700,2.074177734375,-0.000610864779446274,-0.004428769461810589,-0.001679878099821508
1751448483322005800,2.093005859375,-0.000610864779446274,-0.0019853105768561363,-0.002901607658714056
1751448483343187700,2.114187744140625,-0.000610864779446274,-0.0032070400193333626,-0.00045814859913662076
1751448483366722800,2.137722900390625,-0.001832594396546483,0.005345067009329796,0.0019853105768561363
1751448483383197700,2.15419775390625,-0.001832594396546483,0.002901607658714056,0.0007635809597559273
1751448483397319000,2.16831884765625,-0.000610864779446274,0.00045814859913662076,0.0007635809597559273
1751448483409086500,2.18008642578125,-0.000610864779446274,0.001679878099821508,0.0007635809597559273
1751448483420854000,2.19185400390625,-0.000610864779446274,0.001679878099821508,-0.00045814859913662076
1751448483432621800,2.203621826171875,-0.001832594396546483,0.004123337101191282,0.0007635809597559273
1751448483444389400,2.215389404296875,-0.001832594396546483,0.005345067009329796,0.0007635809597559273
1751448483456157000,2.227156982421875,-0.001832594396546483,-0.0032070400193333626,-0.00045814859913662076
1751448483467924700,2.2389248046875,-0.0030543238390237093,-0.0019853105768561363,-0.001679878099821508
1751448483479692300,2.2506923828125,-0.001832594396546483,-0.0019853105768561363,-0.001679878099821508
1751448483496167000,2.2671669921875,-0.0030543238390237093,0.0102319847792387,0.0019853105768561363
1751448483517348600,2.2883486328125,-0.000610864779446274,0.004123337101191282,0.0007635809597559273
1751448483529116400,2.300116455078125,-0.001832594396546483,-0.0007635809597559273,-0.00045814859913662076
1751448483540884000,2.311884033203125,-0.0030543238390237093,0.00045814859913662076,-0.00045814859913662076
1751448483559712300,2.330712158203125,-0.001832594396546483,0.013897174037992954,0.004428769461810589
1751448483571479800,2.342479736328125,-0.001832594396546483,0.00045814859913662076,-0.001679878099821508
1751448483585601000,2.35660107421875,-0.000610864779446274,-0.005650499369949102,-0.00045814859913662076
1751448483602075600,2.37307568359375,-0.000610864779446274,-0.0032070400193333626,-0.00045814859913662076
1751448483613843500,2.384843505859375,-0.001832594396546483,0.00045814859913662076,0.0007635809597559273
1751448483627964700,2.398964599609375,-0.001832594396546483,0.007788525894284248,0.0019853105768561363
1751448483644439300,2.415439208984375,-0.0030543238390237093,-0.0007635809597559273,0.0007635809597559273
1751448483660914000,2.431913818359375,-0.000610864779446274,0.002901607658714056,-0.00045814859913662076
1751448483675035100,2.44603515625,-0.000610864779446274,0.009010255336761475,0.0032070400193333626
1751448483691509800,2.462509765625,-0.001832594396546483,0.004123337101191282,0.0032070400193333626
1751448483705631000,2.476630859375,-0.001832594396546483,-0.004428769461810589,-0.002901607658714056
1751448483717398800,2.488398681640625,-0.000610864779446274,-0.012980876490473747,-0.002901607658714056
1751448483733873400,2.504873291015625,-0.000610864779446274,-0.009315688163042068,-0.001679878099821508
1751448483750348000,2.52134814453125,-0.001832594396546483,0.00045814859913662076,0.0019853105768561363
1751448483762115800,2.53311572265625,-0.000610864779446274,0.005345067009329796,0.0007635809597559273
1751448483773883400,2.54488330078125,-0.001832594396546483,0.012675444595515728,0.004428769461810589
1751448483785651000,2.55665087890625,-0.001832594396546483,0.002901607658714056,0.0007635809597559273
1751448483809186300,2.580186279296875,-0.001832594396546483,-0.0154243353754282,-0.002901607658714056
1751448483823307500,2.5943076171875,-0.001832594396546483,0.00045814859913662076,-0.00045814859913662076
1751448483842135800,2.6131357421875,-0.000610864779446274,0.007788525894284248,0.0019853105768561363
1751448483856257000,2.627257080078125,-0.001832594396546483,0.005345067009329796,0.0019853105768561363
1751448483868024600,2.639024658203125,-0.0030543238390237093,0.007788525894284248,0.0007635809597559273
1751448483879792000,2.650792236328125,-0.000610864779446274,0.005345067009329796,0.0019853105768561363
1751448483891560000,2.662559814453125,-0.001832594396546483,-0.0007635809597559273,0.0007635809597559273
1751448483905681200,2.67668115234375,-0.001832594396546483,0.012675444595515728,0.0032070400193333626
1751448483917448700,2.68844873046875,-0.000610864779446274,0.012675444595515728,0.0032070400193333626
1751448483929216300,2.70021630859375,-0.001832594396546483,0.034666575491428375,0.006872228812426329
1751448483940984000,2.711984130859375,-0.001832594396546483,0.017562363296747208,0.0019853105768561363
1751448483957458700,2.728458740234375,-0.000610864779446274,0.009010255336761475,0.0007635809597559273
1751448483969226200,2.740226318359375,0.000610864779446274,-0.0032070400193333626,0.0007635809597559273
1751448483980994000,2.751994140625,-0.000610864779446274,-0.0007635809597559273,-0.00045814859913662076
1751448483997468700,2.76846875,-0.001832594396546483,-0.0019853105768561363,-0.00045814859913662076
1751448484009236200,2.780236328125,-0.001832594396546483,-0.0019853105768561363,0.0007635809597559273
1751448484021004000,2.792004150390625,-0.000610864779446274,-0.012980876490473747,-0.002901607658714056
1751448484032771600,2.803771484375,-0.000610864779446274,-0.008093958720564842,-0.002901607658714056
1751448484049246200,2.82024609375,-0.001832594396546483,0.005345067009329796,0.0007635809597559273
1751448484063367400,2.834367431640625,-0.001832594396546483,0.002901607658714056,0.0019853105768561363
1751448484079842000,2.850842041015625,-0.0030543238390237093,0.005345067009329796,0.0019853105768561363
1751448484091609900,2.86260986328125,-0.04581485688686371,0.005345067009329796,0.0007635809597559273
1751448484105731000,2.87673095703125,-0.15821397304534912,-0.020311253145337105,-0.007788525894284248
1751448484122205700,2.893205810546875,-0.3072649836540222,-0.0154243353754282,-0.004123337101191282
1751448484133973200,2.90497314453125,-0.40378162264823914,-0.028863361105322838,-0.006566796451807022
1751448484145741000,2.916740966796875,-0.4783071279525757,-0.0154243353754282,-0.002901607658714056
1751448484157508600,2.928508544921875,-0.5161807537078857,-0.0032070400193333626,-0.001679878099821508
1751448484169276200,2.940276123046875,-0.5259546041488647,-0.02764163166284561,-0.0102319847792387
1751448484181044000,2.9520439453125,-0.5283980369567871,-0.030085090547800064,-0.011453714221715927
1751448484195165200,2.966165283203125,-0.5088503360748291,0.02977965772151947,0.005650499369949102
1751448484221054000,2.992053955078125,-0.5076286196708679,-0.03741546720266342,-0.009010255336761475
1751448484239882200,3.01088232421875,-0.56382817029953,0.02611446939408779,0.005650499369949102
1751448484256356900,3.02735693359375,-0.6554579138755798,0.006566796451807022,0.0007635809597559273
1751448484270478000,3.04147802734375,-0.6652317643165588,0.002901607658714056,-0.006566796451807022
1751448484282245600,3.05324560546875,-0.6603448390960693,-0.014202605932950974,-0.005345067009329796
1751448484296366800,3.067366943359375,-0.6249146461486816,-0.045967575162649155,-0.007788525894284248
1751448484308134700,3.079134765625,-0.5418370366096497,-0.008093958720564842,-0.005345067009329796
1751448484319902200,3.090902099609375,-0.4990765154361725,-0.03497200831770897,-0.012675444595515728
1751448484343437600,3.1144375,-0.4428769648075104,-0.02153298258781433,-0.009010255336761475
1751448484366972700,3.13797265625,-0.3903425931930542,0.0102319847792387,-0.00045814859913662076
1751448484385801000,3.156801025390625,-0.40866854786872864,-0.008093958720564842,-0.005345067009329796
1751448484402275800,3.17327587890625,-0.43310311436653137,0.001679878099821508,-0.001679878099821508
1751448484421103900,3.192103759765625,-0.3084867000579834,-0.039858926087617874,-0.011453714221715927
1751448484435225000,3.20622509765625,-0.0665842592716217,0.001679878099821508,-0.001679878099821508
1751448484451700000,3.222699951171875,0.17287473380565643,-0.01908952370285988,-0.002901607658714056
1751448484465821200,3.2368212890625,0.5381718873977661,-0.04230238497257233,-0.009010255336761475
1751448484479942100,3.250942138671875,1.065959095954895,-0.023976443335413933,-0.001679878099821508
1751448484491710000,3.2627099609375,1.4960078001022339,-0.0032070400193333626,0.011759147047996521
1751448484508184600,3.2791845703125,1.8649702072143555,-0.052076224237680435,-0.017562363296747208
1751448484519952400,3.290952392578125,1.9663736820220947,0.04810560122132301,0.02764163166284561
1751448484536427000,3.307427001953125,1.924834966659546,0.17883066833019257,0.05451968312263489
1751448484550548200,3.32154833984375,1.852752923965454,-0.07651081681251526,0.0019853105768561363
1751448484562315800,3.333315673828125,1.747684121131897,0.02367101050913334,0.03130681812763214
1751448484574083600,3.34508349609375,1.6169590950012207,0.0639880821108818,0.03497200831770897
1751448484590558200,3.36155810546875,1.3420698642730713,-0.008093958720564842,0.0007635809597559273
1751448484602325800,3.37332568359375,1.0818414688110352,0.018784092739224434,0.026419902220368385
1751448484616447000,3.387447021484375,0.7385355234146118,0.018784092739224434,0.006872228812426329
1751448484628214800,3.39921484375,0.4612029194831848,0.02367101050913334,0.010537417605519295
1751448484644689400,3.415689453125,0.11667517572641373,0.005345067009329796,0.0019853105768561363
1751448484656457000,3.42745703125,-0.000610864779446274,0.009010255336761475,0.0032070400193333626
1751448484668224800,3.439224853515625,-0.001832594396546483,0.004123337101191282,0.0007635809597559273
1751448484679992300,3.450992431640625,-0.000610864779446274,-0.0032070400193333626,-0.00045814859913662076
1751448484696467000,3.467467041015625,-0.0030543238390237093,-0.0032070400193333626,0.0007635809597559273
1751448484710588200,3.481588134765625,-0.001832594396546483,-0.0032070400193333626,-0.00045814859913662076
1751448484722356000,3.49335595703125,-0.001832594396546483,-0.0007635809597559273,0.0007635809597559273
1751448484738830600,3.50983056640625,-0.004276053514331579,-0.0007635809597559273,0.0007635809597559273
1751448484755305200,3.52630517578125,-0.24373504519462585,-0.005650499369949102,-0.004123337101191282
1751448484769426400,3.540426513671875,-0.6163625717163086,-0.0154243353754282,-0.007788525894284248
1751448484781194200,3.5521943359375,-0.9999856352806091,-0.052076224237680435,-0.011453714221715927
1751448484792961800,3.5639619140625,-1.360395908355713,-0.022754713892936707,-0.011453714221715927
1751448484804729300,3.575729248046875,-1.6658282279968262,-0.022754713892936707,-0.013897174037992954
1751448484816497200,3.5874970703125,-1.8478659391403198,-0.01908952370285988,-0.012675444595515728
1751448484828264700,3.5992646484375,-2.065333843231201,0.03222311660647392,-0.002901607658714056
1751448484840032500,3.611032470703125,-2.224158763885498,0.06887500733137131,-0.013897174037992954
1751448484856507100,3.627507080078125,-2.3964226245880127,-0.09361502528190613,-0.02611446939408779
1751448484868274700,3.639274658203125,-2.397644281387329,-0.03741546720266342,-0.02000582218170166
1751448484880042500,3.65104248046875,-2.3292274475097656,0.012675444595515728,-0.028557928279042244
1751448484894163700,3.665163818359375,-2.176511287689209,-0.07406735420227051,-0.028557928279042244
1751448484908284700,3.67928466796875,-1.988364815711975,-0.02519817277789116,-0.007788525894284248
1751448484922406000,3.693406005859375,-1.8173227310180664,-0.03375028073787689,-0.02000582218170166
1751448484938880800,3.709880859375,-1.777005672454834,-0.030085090547800064,-0.027336198836565018
1751448484950648300,3.7216484375,-1.6646065711975098,-0.05451968312263489,-0.02000582218170166
1751448484964769500,3.73576953125,-1.3408482074737549,-0.004428769461810589,-0.0102319847792387
1751448484976537300,3.747537353515625,-0.8558215498924255,-0.004428769461810589,-0.01511890348047018
1751448484988305000,3.759304931640625,-0.2412915825843811,0.00045814859913662076,-0.002901607658714056
1751448485000072400,3.771072509765625,0.2205221801996231,-0.004428769461810589,0.0032070400193333626
1751448485016547300,3.78754736328125,0.7177661061286926,-0.005650499369949102,-0.005345067009329796
1751448485030668500,3.80166845703125,1.2651009559631348,0.016340631991624832,0.0032070400193333626
1751448485044789500,3.81578955078125,1.813657522201538,0.024892739951610565,0.010537417605519295
1751448485056557300,3.827557373046875,2.178954601287842,0.022449281066656113,0.026419902220368385
1751448485068324900,3.839324951171875,2.5271475315093994,0.028557928279042244,0.012980876490473747
1751448485080092700,3.8510927734375,2.799593210220337,0.002901607658714056,0.014202605932950974
1751448485091860200,3.862860107421875,2.9571964740753174,-0.0007635809597559273,0.02519817277789116
1751448485108335000,3.879335205078125,3.0549347400665283,0.028557928279042244,0.012980876490473747
1751448485120102700,3.8911025390625,3.003622055053711,0.056657709181308746,0.03130681812763214
1751448485131870200,3.9028701171875,2.855792760848999,0.03222311660647392,0.030085090547800064
1751448485145991400,3.916991455078125,2.637103319168091,0.022449281066656113,0.0019853105768561363
1751448485162466300,3.93346630859375,2.3927574157714844,-0.0032070400193333626,0.0019853105768561363
1751448485174233900,3.94523388671875,2.18261981010437,0.1104138121008873,0.03130681812763214
1751448485188355000,3.95935498046875,1.9028438329696655,0.040775224566459656,0.016646064817905426
1751448485200122600,3.97112255859375,1.6120721101760864,0.10919208079576492,0.02519817277789116
1751448485214243800,3.985243896484375,1.239444613456726,0.08109229803085327,0.026419902220368385
1751448485228365000,3.999364990234375,0.8032872080802917,0.02367101050913334,0.012980876490473747
1751448485242486300,4.013486328125,0.3549124300479889,0.005345067009329796,0.004428769461810589
1751448485256607500,4.027607421875,0.02260199747979641,0.021227551624178886,0.004428769461810589
1751448485268375000,4.039375,-0.000610864779446274,0.01511890348047018,0.004428769461810589
1751448485280142800,4.051142822265625,-0.001832594396546483,0.009010255336761475,0.0019853105768561363
1751448485296617500,4.067617431640625,-0.049480047076940536,0.00045814859913662076,0.0007635809597559273
1751448485310738700,4.08173876953125,-0.30970844626426697,-0.030085090547800064,-0.009010255336761475
1751448485327213300,4.09821337890625,-0.8191696405410767,-0.03375028073787689,-0.0102319847792387
1751448485341334500,4.11233447265625,-1.386052131652832,-0.0899498388171196,-0.017562363296747208
1751448485353102300,4.124102294921875,-1.8649702072143555,-0.039858926087617874,-0.017562363296747208
1751448485369577000,4.140576904296875,-2.389092206954956,-0.05451968312263489,-0.02367101050913334
1751448485381344500,4.152344482421875,-2.6761984825134277,-0.04230238497257233,-0.03955349326133728
1751448485393112300,4.1641123046875,-2.8716752529144287,-0.11682789027690887,-0.0334448479115963
1751448485407233500,4.178233642578125,-2.933983564376831,-0.05818486958742142,-0.040775224566459656
1751448485419001000,4.1900009765625,-2.9132142066955566,-0.11927134543657303,-0.03588830679655075
1751448485430769000,4.201768798828125,-2.897331714630127,-0.010537417605519295,-0.012675444595515728
1751448485442536400,4.213536376953125,-2.944979190826416,-0.0691804364323616,-0.034666575491428375
1751448485456657700,4.22765771484375,-3.0048439502716064,-0.04841103404760361,-0.017562363296747208
1751448485468425500,4.239425537109375,-2.995069980621338,-0.16569706797599792,-0.0102319847792387
1751448485480193000,4.251193115234375,-2.791041135787964,-0.01908952370285988,-0.03711003437638283
1751448485491960600,4.262960693359375,-2.4795000553131104,-0.09605848789215088,-0.02611446939408779
1751448485524910000,4.29591015625,-1.028085470199585,-0.020311253145337105,-0.013897174037992954
1751448485541384700,4.312384765625,-0.10079269111156464,0.007788525894284248,-0.001679878099821508
1751448485553152500,4.324152587890625,0.42332929372787476,0.006566796451807022,0.004428769461810589
1751448485567273700,4.338273681640625,1.0158681869506836,0.02611446939408779,0.016646064817905426
1751448485581395000,4.35239501953125,1.71836256980896,0.005345067009329796,0.011759147047996521
1751448485597869600,4.36886962890625,2.3903138637542725,0.0383317656815052,0.02153298258781433
1751448485614344400,4.385344482421875,2.7922627925872803,0.04932733252644539,0.023976443335413933
1751448485626112000,4.397112060546875,2.9828526973724365,0.04321868345141411,0.04474584385752678
1751448485640233200,4.411233154296875,3.2027640342712402,0.05177079141139984,0.028863361105322838
1751448485656707800,4.427707763671875,3.381136655807495,-0.009315688163042068,0.010537417605519295
1751448485668475600,4.4394755859375,3.398240804672241,0.040775224566459656,0.03375028073787689
1751448485680243200,4.4512431640625,3.357923746109009,0.018784092739224434,0.028863361105322838
1751448485694364400,4.465364501953125,3.1331255435943604,0.15928299725055695,0.05940660089254379
1751448485710839300,4.48183935546875,2.7287330627441406,0.09208786487579346,0.03741546720266342
1751448485724960500,4.49596044921875,2.3035709857940674,0.11774418503046036,0.052076224237680435
1751448485741435100,4.51243505859375,1.8319834470748901,0.0798705667257309,0.02764163166284561
1751448485753202700,4.52420263671875,1.5033382177352905,0.05299251899123192,0.01908952370285988
1751448485764970500,4.535970458984375,1.1502584218978882,0.034666575491428375,0.017867794260382652
1751448485779091700,4.550091796875,0.656679630279541,0.028557928279042244,0.009315688163042068
1751448485790859300,4.561859375,0.18387030065059662,0.01511890348047018,0.005650499369949102
1751448485802627000,4.573626953125,-0.014049889519810677,0.02000582218170166,0.0032070400193333626
1751448485819101700,4.590101806640625,-0.05925388261675835,0.001679878099821508,0.0007635809597559273
1751448485830869200,4.601869140625,-0.22785256803035736,-0.0007635809597559273,-0.001679878099821508
1751448485842637000,4.613636962890625,-0.6065887212753296,-0.017867794260382652,-0.009010255336761475
1751448485859112000,4.63011181640625,-1.454469084739685,-0.04230238497257233,-0.016340631991624832
1751448485870879500,4.64187939453125,-2.1276419162750244,-0.10094540566205978,-0.027336198836565018
1751448485885000700,4.656000732421875,-2.802036762237549,-0.07651081681251526,-0.031001387163996696
1751448485899122000,4.670121826171875,-3.2907285690307617,-0.12415826320648193,-0.03588830679655075
1751448485910889500,4.681889404296875,-3.500865936279297,-0.24633121490478516,-0.08231402933597565
1751448485922657300,4.6936572265625,-3.5717263221740723,0.1055268943309784,-0.016340631991624832
1751448485939132000,4.7101318359375,-3.5448482036590576,-0.16569706797599792,-0.040775224566459656
1751448485950899500,4.7218994140625,-3.4446663856506348,-0.2023489624261856,-0.08597921580076218
1751448485962667300,4.733667236328125,-3.1673338413238525,-0.28298309445381165,-0.0639880821108818
1751448485974434800,4.745434814453125,-2.6700899600982666,-0.13271036744117737,-0.00045814859913662076
1751448485993263000,4.76426318359375,-1.5118902921676636,0.05177079141139984,-0.02367101050913334
1751448486005031000,4.776031005859375,-0.7690787315368652,0.12018764764070511,0.04108065739274025
1751448486019152100,4.790152099609375,0.011606430634856224,0.06276635825634003,0.022754713892936707
1751448486030919700,4.801919677734375,0.4880809485912323,0.0896444097161293,0.03252854943275452
1751448486042687500,4.8136875,1.153923511505127,0.01511890348047018,0.008093958720564842
1751448486054455000,4.825455078125,1.8967351913452148,0.054214250296354294,0.023976443335413933
1751448486066222800,4.837222900390625,2.576016664505005,0.054214250296354294,0.02519817277789116
1751448486077990400,4.848990478515625,3.006065607070923,0.0383317656815052,0.028863361105322838
1751448486089758000,4.860758056640625,3.2516331672668457,0.12996147572994232,0.05329795181751251
1751448486101525800,4.87252587890625,3.3286020755767822,0.21426081657409668,0.08139773458242416
1751448486115647000,4.88664697265625,3.3799147605895996,0.1104138121008873,0.036193739622831345
1751448486127414500,4.89841455078125,3.4263405799865723,0.10797034949064255,-0.005345067009329796
1751448486139182300,4.910182373046875,3.375027894973755,0.08353576064109802,0.028863361105322838
1751448486155657000,4.926656982421875,3.116021156311035,0.02367101050913334,0.02153298258781433
1751448486174485200,4.9454853515625,2.6077816486358643,-0.05940660089254379,-0.009010255336761475
1751448486188606500,4.9596064453125,2.0824379920959473,0.0383317656815052,0.03497200831770897
1751448486200374300,4.971374267578125,1.6462805271148682,0.1055268943309784,0.0435241162776947
1751448486212141800,4.983141845703125,1.1380411386489868,0.07620538026094437,0.03252854943275452
1751448486228616700,4.99961669921875,0.4416552484035492,0.09575305134057999,0.022754713892936707
1751448486256859000,5.02785888671875,-0.01893680728971958,0.08109229803085327,0.0154243353754282
1751448486268626700,5.039626708984375,-0.08979712426662445,-0.004428769461810589,0.0019853105768561363
1751448486280394200,5.051394287109375,-0.30482152104377747,-0.0019853105768561363,-0.00045814859913662076
1751448486292162000,5.063162109375,-0.7617483735084534,-0.004428769461810589,-0.005345067009329796
1751448486308636700,5.07963671875,-1.6988149881362915,-0.030085090547800064,-0.01511890348047018
1751448486325111600,5.096111572265625,-2.6761984825134277,-0.17058399319648743,-0.03711003437638283
1751448486339232800,5.110232666015625,-3.3188283443450928,-0.05818486958742142,-0.031001387163996696
1751448486351000300,5.122000244140625,-3.757429361343384,-0.20112723112106323,-0.05299251899123192
1751448486362768100,5.13376806640625,-4.062861442565918,-0.10216713696718216,-0.05543597787618637
1751448486379242800,5.15024267578125,-4.254673004150391,-0.3367392122745514,-0.10674861818552017
1751448486391010600,5.162010498046875,-4.148382663726807,-0.0435241162776947,-0.02367101050913334
1751448486405131800,5.1761318359375,-3.800189733505249,-0.055741410702466965,-0.08353576064109802
1751448486416899300,5.1878994140625,-3.381136655807495,-0.07162389904260635,-0.03222311660647392
1751448486428667100,5.199667236328125,-2.916879415512085,-0.18524473905563354,-0.07009673118591309
1751448486440434700,5.2114345703125,-2.393979072570801,-0.09117157012224197,-0.050549060106277466
1751448486454556000,5.225555908203125,-1.814879298210144,-0.009315688163042068,-0.012675444595515728
1751448486466323500,5.237323486328125,-1.3359612226486206,0.022449281066656113,-0.001679878099821508
1751448486482798300,5.25379833984375,-0.4355465769767761,0.08353576064109802,0.022754713892936707
1751448486496919600,5.26791943359375,0.20463970303535461,0.02611446939408779,0.010537417605519295
1751448486508687000,5.27968701171875,0.6811142563819885,0.05299251899123192,0.017867794260382652
1751448486522808300,5.293808349609375,1.4666863679885864,0.050549060106277466,0.02519817277789116
1751448486536929500,5.307929443359375,2.2705843448638916,0.0591011680662632,0.023976443335413933
1751448486548697300,5.319697265625,2.833801746368408,0.04932733252644539,0.006872228812426329
1751448486565172000,5.336171875,3.307832717895508,0.04932733252644539,0.04108065739274025
1751448486579293200,5.350293212890625,3.5081963539123535,0.0639880821108818,0.03130681812763214
1751448486591061000,5.36206103515625,3.5534005165100098,0.19104796648025513,0.06062832847237587
1751448486607535600,5.37853564453125,3.5521786212921143,0.18616104125976562,0.061850059777498245
1751448486621656800,5.39265673828125,3.29439377784729,0.07742711156606674,0.014202605932950974
1751448486640485000,5.411485107421875,2.7592761516571045,0.07742711156606674,0.03741546720266342
1751448486652252700,5.423252685546875,2.3768749237060547,0.07742711156606674,0.049632761627435684
1751448486668727600,5.4397275390625,1.8124357461929321,0.034666575491428375,0.01908952370285988
1751448486680495400,5.451495361328125,1.3750566244125366,0.0383317656815052,0.008093958720564842
1751448486692263000,5.463262939453125,0.9841031432151794,0.02000582218170166,0.010537417605519295
1751448486708737500,5.479737548828125,0.535728394985199,0.006566796451807022,0.0019853105768561363
1751448486720505300,5.49150537109375,0.3133736252784729,0.009010255336761475,0.0032070400193333626
1751448486734626600,5.50562646484375,0.1545487940311432,0.004123337101191282,-0.00045814859913662076
1751448486746394000,5.51739404296875,0.053145237267017365,0.006566796451807022,0.0032070400193333626
1751448486758162000,5.529161865234375,0.010384701192378998,0.004123337101191282,0.0007635809597559273
1751448486769929500,5.540929443359375,-0.0030543238390237093,0.004123337101191282,0.0007635809597559273
1751448486784050700,5.55505078125,-0.164322629570961,-0.009315688163042068,-0.00045814859913662076
1751448486798172000,5.569171875,-0.7104357481002808,-0.03130681812763214,-0.007788525894284248
1751448486812293000,5.583293212890625,-1.564424753189087,-0.052076224237680435,-0.018784092739224434
1751448486824061000,5.59506103515625,-2.3487751483917236,-0.14737112820148468,-0.04566214233636856
1751448486835828500,5.606828369140625,-3.040273904800415,-0.07040216773748398,-0.02977965772151947
1751448486847596300,5.61859619140625,-3.5888304710388184,-0.10094540566205978,-0.03588830679655075
1751448486864071000,5.63507080078125,-4.164265155792236,-0.28298309445381165,-0.10186170041561127
1751448486875838700,5.646838623046875,-4.373180866241455,-0.11194097250699997,-0.034666575491428375
1751448486887606300,5.658606201171875,-4.463588714599609,-0.19868376851081848,-0.060322895646095276
1751448486901727500,5.6727275390625,-4.32431173324585,0.03955349326133728,-0.02367101050913334
1751448486913495300,5.684495361328125,-3.9663450717926025,-0.0435241162776947,-0.03711003437638283
1751448486925262800,5.696262939453125,-3.372584342956543,-0.07284562289714813,-0.028557928279042244
1751448486941737700,5.71273779296875,-2.339001178741455,-0.07651081681251526,-0.02611446939408779
1751448486965273000,5.736273193359375,-0.3915643095970154,0.00045814859913662076,-0.004123337101191282
1751448486981747700,5.752747802734375,0.646905779838562,0.001679878099821508,0.0032070400193333626
1751448487000576000,5.771575927734375,1.7635666131973267,0.021227551624178886,0.020311253145337105
1751448487012343800,5.78334375,2.461174249649048,0.018784092739224434,0.011759147047996521
1751448487024111400,5.795111328125,3.048826217651367,0.0896444097161293,0.026419902220368385
1751448487038232600,5.809232666015625,3.5827219486236572,0.10430516302585602,0.0435241162776947
1751448487050000400,5.82100048828125,3.8148505687713623,0.228921577334404,0.07651081681251526
1751448487064121600,5.83512158203125,3.8576111793518066,0.125074565410614,0.039858926087617874
1751448487082950000,5.853949951171875,3.7366597652435303,0.14217877388000488,0.03252854943275452
1751448487097071000,5.868071044921875,3.506974697113037,0.09086613357067108,0.030085090547800064
1751448487108838700,5.879838623046875,3.2406375408172607,0.0591011680662632,0.039858926087617874
1751448487122960000,5.8939599609375,2.9828526973724365,0.02611446939408779,0.016646064817905426
1751448487137081000,5.9080810546875,2.7531676292419434,-0.017867794260382652,0.011759147047996521
1751448487148849000,5.919848876953125,2.5308127403259277,0.07376192510128021,0.02519817277789116
1751448487162970000,5.93397021484375,2.226602077484131,0.07742711156606674,0.028863361105322838
1751448487174737700,5.945737548828125,1.924834966659546,0.0383317656815052,0.023976443335413933
1751448487186505500,5.95750537109375,1.581528902053833,0.0591011680662632,0.02153298258781433
1751448487198273000,5.96927294921875,1.2712095975875854,0.06154462695121765,0.022754713892936707
1751448487210040800,5.981040771484375,0.9413426518440247,0.0334448479115963,0.010537417605519295
1751448487226515500,5.997515380859375,0.4612029194831848,0.031001387163996696,0.009315688163042068
1751448487254758000,6.0257578125,-0.053145237267017365,0.00045814859913662076,-0.00045814859913662076
1751448487271232800,6.042232666015625,-0.42455101013183594,-0.004428769461810589,-0.002901607658714056
1751448487287707400,6.058707275390625,-1.4605777263641357,-0.02764163166284561,-0.009010255336761475
1751448487299475200,6.07047509765625,-2.4856088161468506,-0.05451968312263489,-0.02367101050913334
1751448487311242800,6.08224267578125,-3.500865936279297,-0.07162389904260635,-0.028557928279042244
1751448487323010600,6.094010498046875,-4.345081329345703,-0.16447533667087555,-0.04932733252644539
1751448487339485200,6.110485107421875,-5.115992546081543,-0.09117157012224197,-0.03588830679655075
1751448487351253000,6.1222529296875,-5.393325328826904,-0.263435423374176,-0.05543597787618637
1751448487363020500,6.1340205078125,-5.428755283355713,-0.09361502528190613,-0.06520981341600418
1751448487374788400,6.145788330078125,-5.260156631469727,-0.2854265570640564,-0.07009673118591309
1751448487391263000,6.162262939453125,-4.4134979248046875,-0.2231183648109436,-0.09697478264570236
1751448487407737900,6.17873779296875,-2.9767441749572754,-0.045967575162649155,-0.02611446939408779
1751448487421859000,6.192859130859375,-1.5045599937438965,0.006566796451807022,-0.005345067009329796
1751448487438333700,6.209333740234375,0.36224281787872314,-0.02764163166284561,-0.002901607658714056
1751448487450101500,6.2211015625,1.1991275548934937,0.0383317656815052,0.010537417605519295
1751448487461869000,6.232869140625,2.026238441467285,0.06887500733137131,0.023976443335413933
1751448487473636900,6.244636962890625,2.8044803142547607,0.07620538026094437,0.030085090547800064
1751448487487758000,6.258758056640625,3.5802783966064453,0.13851359486579895,0.05329795181751251
1751448487501879300,6.27287939453125,4.093404769897461,0.12385283410549164,0.04841103404760361
1751448487516000500,6.28700048828125,4.367072105407715,0.16539163887500763,0.028863361105322838
1751448487530121700,6.301121826171875,4.4525933265686035,-0.010537417605519295,0.04474584385752678
1751448487546596600,6.3175966796875,4.45381498336792,0.15561780333518982,0.0386371985077858
1751448487563071200,6.3340712890625,4.30842924118042,-0.0007635809597559273,0.02519817277789116
1751448487577192400,6.3481923828125,4.194808483123779,0.10674861818552017,0.05329795181751251
1751448487588960300,6.359960205078125,4.130056858062744,0.15439607203006744,0.05085449293255806
1751448487600727800,6.371727783203125,3.989557981491089,0.018784092739224434,0.02519817277789116
1751448487617202700,6.38820263671875,3.563174247741699,0.07009673118591309,0.04474584385752678
1751448487631324000,6.402323974609375,3.0109524726867676,0.13240493834018707,0.039858926087617874
1751448487643091500,6.414091552734375,2.4465134143829346,0.0383317656815052,0.023976443335413933
1751448487654859300,6.425859375,1.8771874904632568,0.054214250296354294,0.011759147047996521
1751448487671334000,6.442333984375,1.0769546031951904,0.03711003437638283,0.026419902220368385
1751448487690162200,6.461162109375,0.2926042377948761,0.017562363296747208,0.004428769461810589
1751448487701930000,6.472929931640625,-0.01282816007733345,0.02000582218170166,0.0019853105768561363
1751448487716051200,6.48705126953125,-0.1081230640411377,-0.009315688163042068,-0.001679878099821508
1751448487732525800,6.50352587890625,-0.39889469742774963,-0.023976443335413933,-0.004123337101191282
1751448487744293600,6.515293701171875,-0.9303470849990845,-0.0386371985077858,-0.0102319847792387
1751448487756061200,6.527061279296875,-1.6413936614990234,-0.07040216773748398,-0.017562363296747208
1751448487770182400,6.541182373046875,-2.5613560676574707,-0.052076224237680435,-0.024892739951610565
1751448487781950200,6.5529501953125,-3.3518149852752686,-0.09239330142736435,-0.050549060106277466
1751448487793717800,6.5647177734375,-3.9944448471069336,-0.07406735420227051,-0.028557928279042244
1751448487805485600,6.576485595703125,-4.480693340301514,-0.13881902396678925,-0.044440411031246185
1751448487817253000,6.588253173828125,-4.910741806030273,-0.0948367565870285,-0.04932733252644539
1751448487831374300,6.602374267578125,-5.317577838897705,-0.25732678174972534,-0.07620538026094437
1751448487845495600,6.61649560546875,-5.502058982849121,-0.12660172581672668,-0.050549060106277466
1751448487857263400,6.628263427734375,-5.495950222015381,-0.25732678174972534,-0.08597921580076218
1751448487869031000,6.640031005859375,-5.471515655517578,-0.5138899683952332,-0.16539163887500763
1751448487880798700,6.651798828125,-5.439750671386719,-0.07406735420227051,-0.07131846249103546
1751448487894920000,6.665919921875,-5.403099060058594,-0.04474584385752678,-0.07620538026094437
1751448487911394600,6.68239453125,-5.245495796203613,-0.16447533667087555,-0.09575305134057999
1751448487930223000,6.70122314453125,-4.748251914978027,-0.1718057245016098,-0.07498364895582199
1751448487944344300,6.71534423828125,-4.109287261962891,0.03588830679655075,-0.04566214233636856
1751448487958465500,6.729465576171875,-3.2809548377990723,0.06154462695121765,0.0007635809597559273
1751448487977293800,6.7482939453125,-2.089768409729004,0.011453714221715927,-0.04199695214629173
1751448487989061400,6.760061279296875,-1.3640609979629517,-0.07895427197217941,0.005650499369949102
1751448488000829200,6.7718291015625,-0.36712974309921265,0.05787943676114082,0.02153298258781433
1751448488012596700,6.7835966796875,0.3194822669029236,0.04199695214629173,0.009315688163042068
1751448488026718000,6.797718017578125,0.5283980369567871,0.07620538026094437,0.012980876490473747
1751448488040839200,6.811839111328125,0.813060998916626,0.04566214233636856,0.014202605932950974
1751448488052607000,6.82360693359375,1.211344838142395,0.10308343172073364,0.011759147047996521
1751448488066728200,6.837728271484375,1.8368704319000244,0.08842267841100693,0.014202605932950974
1751448488083202800,6.854202880859375,2.590677499771118,-0.10827577859163284,0.014202605932950974
1751448488094970600,6.865970703125,3.07326078414917,0.05787943676114082,0.01908952370285988
1751448488106738200,6.87773828125,3.5643959045410156,0.06643154472112656,0.04474584385752678
1751448488118506000,6.889506103515625,4.026209831237793,0.14340050518512726,0.049632761627435684
1751448488132627200,6.903627197265625,4.507571220397949,0.05177079141139984,0.04474584385752678
1751448488144394800,6.915394775390625,4.725039005279541,0.14828743040561676,0.017867794260382652
1751448488158516000,6.929515869140625,4.9608330726623535,0.022449281066656113,0.04474584385752678
1751448488170283800,6.94128369140625,5.051240921020508,0.05543597787618637,0.03375028073787689
1751448488186758400,6.95775830078125,5.018254280090332,0.08842267841100693,0.05940660089254379
1751448488198526200,6.969526123046875,4.908298492431641,0.06520981341600418,-0.001679878099821508
1751448488210294000,6.9812939453125,4.722595691680908,0.1409570425748825,0.07406735420227051
1751448488224415200,6.995415283203125,4.424493789672852,0.1104138121008873,0.05329795181751251
1751448488238536400,7.009536376953125,4.087296009063721,0.08842267841100693,0.07773254066705704
1751448488255011000,7.026010986328125,3.5729479789733887,0.02000582218170166,-0.02367101050913334
1751448488266779000,7.03777880859375,3.2455246448516846,0.21181736886501312,0.0850629210472107
1751448488278546400,7.04954638671875,2.8704535961151123,0.03588830679655075,0.02153298258781433
1751448488290314200,7.061314208984375,2.428187608718872,0.11407899856567383,0.0386371985077858
1751448488304435500,7.075435546875,1.924834966659546,0.10430516302585602,0.03741546720266342
1751448488316203000,7.087203125,1.5106686353683472,0.16661337018013,0.03497200831770897
1751448488330324200,7.10132421875,1.084285020828247,0.004123337101191282,0.006872228812426329
1751448488346799000,7.117799072265625,0.7238747477531433,0.02611446939408779,0.008093958720564842
1751448488358566700,7.129566650390625,0.5296197533607483,0.02367101050913334,0.0032070400193333626
1751448488370334500,7.14133447265625,0.2632827162742615,0.013897174037992954,0.0032070400193333626
1751448488386809000,7.15780908203125,-0.017715077847242355,-0.0007635809597559273,0.0019853105768561363
1751448488405637400,7.176637451171875,-0.33169957995414734,-0.010537417605519295,-0.002901607658714056
1751448488417405200,7.1884052734375,-0.9645555019378662,-0.028863361105322838,-0.009010255336761475
1751448488429172700,7.2001728515625,-1.7452406883239746,-0.03252854943275452,-0.011453714221715927
1751448488440940500,7.2119404296875,-2.547916889190674,-0.07773254066705704,-0.013897174037992954
1751448488452708000,7.2237080078125,-3.2870633602142334,-0.03741546720266342,-0.017562363296747208
1751448488464476000,7.235475830078125,-3.9712319374084473,-0.012980876490473747,-0.03711003437638283
1751448488478597000,7.24959716796875,-4.721374034881592,-0.06673697382211685,-0.018784092739224434
1751448488490365000,7.261364990234375,-5.2308349609375,-0.06673697382211685,-0.04810560122132301
1751448488504486100,7.275486083984375,-5.73907470703125,-0.19379685819149017,-0.05543597787618637
1751448488518607400,7.289607421875,-6.060389518737793,-0.14492766559123993,-0.05177079141139984
1751448488535082000,7.30608203125,-6.158127784729004,-0.18890993297100067,-0.07620538026094437
1751448488551556900,7.322556884765625,-6.0420637130737305,-0.2328922003507614,-0.1104138121008873
1751448488565678000,7.336677978515625,-5.918668746948242,0.00045814859913662076,-0.04566214233636856
1751448488579799300,7.35079931640625,-5.852695465087891,0.04810560122132301,-0.034666575491428375
1751448488591566800,7.36256689453125,-5.673101425170898,-0.21456626057624817,-0.0591011680662632
1751448488608041700,7.379041748046875,-5.115992546081543,0.001679878099821508,-0.06887500733137131
1751448488624516400,7.395516357421875,-4.174038887023926,-0.036193739622831345,-0.021227551624178886
1751448488640991200,7.4119912109375,-2.6969680786132812,-0.1156061589717865,0.0019853105768561363
1751448488652758800,7.4237587890625,-0.9315688014030457,0.12996147572994232,0.028863361105322838
1751448488664526600,7.435526611328125,0.16310089826583862,-0.04108065739274025,-0.005345067009329796
1751448488681001200,7.452001220703125,0.9205732345581055,0.02611446939408779,0.010537417605519295
1751448488692769000,7.46376904296875,1.4312561750411987,0.0334448479115963,0.012980876490473747
1751448488706890200,7.47789013671875,2.0103559494018555,0.1104138121008873,0.014202605932950974
1751448488723364900,7.49436474609375,2.5185954570770264,0.08720094710588455,0.02519817277789116
1751448488739839700,7.51083984375,2.9633049964904785,0.001679878099821508,0.014202605932950974
1751448488753961000,7.5249609375,3.400684118270874,0.04566214233636856,0.052076224237680435
1751448488768082200,7.539082275390625,3.819737434387207,0.04321868345141411,0.03741546720266342
1751448488782203400,7.553203369140625,4.126391410827637,0.10186170041561127,0.03130681812763214
1751448488801031700,7.57203173828125,4.4440412521362305,0.034666575491428375,0.028863361105322838
1751448488812799500,7.583799560546875,4.528340816497803,0.10430516302585602,0.05451968312263489
1751448488824567000,7.595567138671875,4.586983680725098,0.15073087811470032,0.07284562289714813
1751448488841042000,7.6120419921875,4.654178619384766,0.10430516302585602,0.036193739622831345
1751448488855163100,7.6261630859375,4.607752799987793,0.03955349326133728,0.07528908550739288
1751448488866930700,7.6379306640625,4.540557861328125,0.02977965772151947,0.01908952370285988
1751448488881052000,7.652052001953125,4.35241174697876,-0.052076224237680435,-0.01511890348047018
1751448488899880200,7.670880126953125,3.959014654159546,0.044440411031246185,0.07406735420227051
1751448488914001400,7.68500146484375,3.6413650512695312,0.0896444097161293,0.06551524996757507
1751448488925769200,7.696769287109375,3.4373362064361572,0.228921577334404,0.07528908550739288
1751448488939890400,7.710890380859375,3.2064292430877686,0.3474293351173401,0.0691804364323616
1751448488951658000,7.722657958984375,3.0219480991363525,-0.1669187992811203,-0.016340631991624832
1751448488965779200,7.736779296875,2.6786420345306396,0.3572031855583191,0.10094540566205978
1751448488979900700,7.750900634765625,2.367100954055786,0.02000582218170166,0.01908952370285988
1751448488991668200,7.762668212890625,2.065333843231201,0.18982623517513275,0.05818486958742142
1751448489008143000,7.77914306640625,1.5851941108703613,0.012675444595515728,0.022754713892936707
1751448489019910700,7.79091064453125,1.1307107210159302,0.01511890348047018,0.014202605932950974
1751448489034031900,7.805031982421875,0.5100721120834351,0.03955349326133728,0.008093958720564842
1751448489045799700,7.816799560546875,0.16676609218120575,0.017562363296747208,0.004428769461810589
1751448489059920600,7.830920654296875,-0.28405213356018066,0.009010255336761475,-0.00045814859913662076
1751448489076395500,7.8473955078125,-0.6774490475654602,-0.020311253145337105,-0.009010255336761475
1751448489088163300,7.859163330078125,-1.125823736190796,-0.03375028073787689,-0.009010255336761475
1751448489102284500,7.873284423828125,-1.9199479818344116,-0.04718930274248123,-0.02367101050913334
1751448489116405800,7.88740576171875,-2.838688611984253,-0.0850629210472107,-0.024892739951610565
1751448489130527000,7.90152685546875,-3.6230390071868896,-0.08872810751199722,-0.02977965772151947
1751448489142294500,7.91329443359375,-4.099513530731201,-0.08872810751199722,-0.03711003437638283
1751448489156415700,7.927415771484375,-4.575988292694092,-0.11316270381212234,-0.02611446939408779
1751448489168183600,7.93918359375,-4.869203090667725,-0.28176137804985046,-0.040775224566459656
1751448489182304800,7.9533046875,-5.23694372177124,-0.29153522849082947,-0.04321868345141411
1751448489194072300,7.965072265625,-5.596132278442383,-0.2707658112049103,-0.07131846249103546
1751448489208193500,7.979193603515625,-5.982198715209961,-0.2964221239089966,-0.09941824525594711
1751448489219961300,7.99096142578125,-6.227766513824463,0.018784092739224434,-0.06154462695121765
1751448489234082600,8.00508251953125,-6.294961452484131,-0.10949750989675522,-0.04566214233636856
1751448489264678400,8.035678466796876,-5.927220821380615,-0.32940882444381714,-0.125074565410614
1751448489276446200,8.0474462890625,-5.653553485870361,-0.3672824501991272,-0.17516547441482544
1751448489288213800,8.0592138671875,-5.350564479827881,0.03711003437638283,-0.08109229803085327
1751448489299981600,8.070981689453125,-5.012145519256592,0.16661337018013,0.026419902220368385
1751448489316456200,8.087456298828124,-4.419606685638428,0.25702136754989624,0.06795870512723923
1751448489328224000,8.09922412109375,-3.632812738418579,-0.18646647036075592,-0.07620538026094437
1751448489339991600,8.110991455078125,-2.1080944538116455,-0.05085449293255806,-0.002901607658714056
1751448489351759400,8.12275927734375,-0.9999856352806091,-0.006872228812426329,0.0032070400193333626
1751448489365880600,8.136880615234375,0.19120067358016968,0.007788525894284248,0.004428769461810589
1751448489377648400,8.1486484375,0.7971785664558411,0.03588830679655075,0.008093958720564842
1751448489389416000,8.160416015625,1.2370011806488037,0.004123337101191282,0.005650499369949102
1751448489401183700,8.172183837890625,1.5082250833511353,0.021227551624178886,0.011759147047996521
1751448489415304700,8.1863046875,1.7501275539398193,0.004123337101191282,0.014202605932950974
1751448489431779600,8.202779541015625,2.039677381515503,0.04566214233636856,0.0154243353754282
1751448489443547400,8.21454736328125,2.304792881011963,0.050549060106277466,0.03252854943275452
1751448489457668400,8.22866845703125,2.6309945583343506,-0.02519817277789116,0.020311253145337105
1751448489469436200,8.240436279296874,2.886336088180542,0.06276635825634003,0.02153298258781433
1751448489485911000,8.2569111328125,3.2418594360351562,0.046883873641490936,0.017867794260382652
1751448489497678600,8.2686787109375,3.5216355323791504,0.14828743040561676,0.03252854943275452
1751448489511799800,8.2827998046875,3.7733118534088135,0.0591011680662632,0.0642935186624527
1751448489523567600,8.294567626953125,3.9968881607055664,0.13362666964530945,0.04718930274248123
1751448489535335200,8.306335205078126,4.145939350128174,0.10674861818552017,0.03497200831770897
1751448489549456400,8.320456298828125,4.342637538909912,0.18127411603927612,0.0691804364323616
1751448489561224200,8.33222412109375,4.496575832366943,0.11774418503046036,0.026419902220368385
1751448489572991700,8.34399169921875,4.555218696594238,0.1311832070350647,0.05818486958742142
1751448489587113000,8.358113037109375,4.484358310699463,0.22769984602928162,0.05818486958742142
1751448489598880800,8.369880859375,4.423271656036377,0.06520981341600418,0.0386371985077858
1751448489615355400,8.38635546875,4.277885913848877,0.10674861818552017,0.0386371985077858
1751448489629476600,8.4004765625,4.16915225982666,0.06520981341600418,0.0019853105768561363
1751448489641244400,8.412244384765625,4.073857307434082,0.23258677124977112,0.028863361105322838
1751448489653012000,8.424011962890624,3.939466953277588,0.016340631991624832,0.02764163166284561
1751448489664779800,8.43577978515625,3.8062984943389893,0.06643154472112656,0.030085090547800064
1751448489678901000,8.44990087890625,3.6670212745666504,0.13484840095043182,0.06673697382211685
1751448489695375600,8.466375732421875,3.4434447288513184,0.21914774179458618,0.07162389904260635
1751448489707143400,8.478143310546875,3.2027640342712402,0.027336198836565018,0.03130681812763214
1751448489718911000,8.489910888671876,2.9095489978790283,0.018784092739224434,0.030085090547800064
1751448489730678800,8.5016787109375,2.539364814758301,0.0639880821108818,0.026419902220368385
1751448489742446300,8.5134462890625,2.1117594242095947,0.13729186356067657,0.039858926087617874
1751448489756567600,8.527567626953125,1.5766420364379883,0.007788525894284248,0.014202605932950974
1751448489770688800,8.541688720703124,1.0415244102478027,0.03222311660647392,0.008093958720564842
1751448489787163600,8.55816357421875,0.5125155448913574,0.006566796451807022,0.004428769461810589
1751448489798931200,8.56993115234375,0.2718348205089569,0.013897174037992954,0.004428769461810589
1751448489813052400,8.584052490234376,0.01282816007733345,0.001679878099821508,0.0019853105768561363
1751448489827173600,8.598173583984375,-0.13622283935546875,-0.0032070400193333626,-0.00045814859913662076
1751448489841294800,8.612294921875,-0.5687150955200195,-0.006872228812426329,-0.005345067009329796
1751448489855416000,8.626416015625,-1.3041963577270508,-0.01908952370285988,-0.007788525894284248
1751448489867183900,8.638183837890624,-2.0103559494018555,-0.061850059777498245,-0.01511890348047018
1751448489878951400,8.649951416015625,-2.8118104934692383,-0.09972367435693741,-0.028557928279042244
1751448489895426300,8.66642626953125,-3.8405067920684814,-0.05329795181751251,-0.018784092739224434
1751448489907193900,8.67819384765625,-4.356076717376709,-0.07773254066705704,-0.0383317656815052
1751448489921315000,8.692315185546875,-4.878976821899414,-0.14737112820148468,-0.04566214233636856
1751448489935436300,8.706436279296875,-5.289478302001953,-0.12415826320648193,-0.03955349326133728
1751448489947204000,8.7182041015625,-5.569254398345947,-0.19135339558124542,-0.10430516302585602
1751448489958971600,8.7299716796875,-5.825817584991455,0.046883873641490936,-0.054214250296354294
1751448489970739500,8.741739501953125,-6.000524520874023,-0.04230238497257233,-0.0591011680662632
1751448489984860700,8.755860595703124,-6.264418125152588,-0.32452189922332764,-0.13362666964530945
1751448489996628200,8.767628173828125,-6.431795120239258,0.013897174037992954,-0.027336198836565018
1751448490008396000,8.77939599609375,-6.495325088500977,-0.19990549981594086,-0.09575305134057999
1751448490020163600,8.79116357421875,-6.357269763946533,-0.2805396616458893,-0.09453132748603821
1751448490031931400,8.802931396484375,-6.059167861938477,-0.23044873774051666,-0.06643154472112656
1751448490046052600,8.817052490234374,-5.579028129577637,-0.13759729266166687,-0.09941824525594711
1751448490060173800,8.831173828125,-4.9889326095581055,-0.2182314395904541,-0.07498364895582199
1751448490074295000,8.845294921875,-4.321868419647217,0.001679878099821508,0.0019853105768561363
1751448490088416300,8.859416259765625,-3.487426996231079,-0.02764163166284561,-0.0334448479115963
1751448490100183800,8.871183837890625,-2.5308127403259277,0.187382772564888,0.023976443335413933
1751448490111951600,8.88295166015625,-1.0024291276931763,-0.012980876490473747,-0.01511890348047018
1751448490126072800,8.89707275390625,0.20952661335468292,-0.0032070400193333626,0.0007635809597559273
1751448490137840400,8.90884033203125,0.6505709886550903,0.009010255336761475,0.010537417605519295
1751448490149608200,8.920608154296875,1.063515543937683,0.034666575491428375,0.0154243353754282
1751448490163729400,8.9347294921875,1.6853759288787842,0.0591011680662632,0.02519817277789116
1751448490175497000,8.9464970703125,2.123976945877075,0.006566796451807022,0.0154243353754282
1751448490191971800,8.962971923828125,2.556469202041626,0.10430516302585602,0.03497200831770897
1751448490206093000,8.977093017578126,2.8936665058135986,0.07131846249103546,0.03252854943275452
1751448490217860600,8.988860595703125,3.2540767192840576,0.07376192510128021,0.03130681812763214
1751448490234335200,9.005335205078126,3.800189733505249,0.145843967795372,0.039858926087617874
1751448490250810000,9.02181005859375,4.342637538909912,0.04932733252644539,0.05940660089254379
1751448490264931300,9.035931396484376,4.644404888153076,0.06154462695121765,0.055741410702466965
1751448490281406000,9.052406005859375,4.7458086013793945,0.056657709181308746,0.05085449293255806
1751448490293173800,9.064173828125,4.791012287139893,0.09086613357067108,0.036193739622831345
1751448490304941600,9.075941650390625,4.858207702636719,0.2961167097091675,0.05451968312263489
1751448490316709000,9.087709228515624,4.943728446960449,0.05543597787618637,0.045967575162649155
1751448490328477000,9.099476806640626,4.9779372215271,0.0383317656815052,0.011759147047996521
1751448490342598000,9.113597900390625,4.9278459548950195,0.012675444595515728,0.05451968312263489
1751448490354365700,9.12536572265625,4.791012287139893,0.08353576064109802,0.04108065739274025
1751448490370840600,9.141840576171875,4.523453712463379,0.10674861818552017,0.055741410702466965
1751448490382608100,9.153608154296874,4.3206467628479,0.09575305134057999,0.030085090547800064
1751448490394375700,9.165375732421875,4.11906099319458,0.09208786487579346,0.0154243353754282
1751448490408497000,9.179496826171874,3.8014116287231445,0.29856017231941223,0.10338886082172394
1751448490420264700,9.1912646484375,3.5143051147460938,0.00045814859913662076,0.0154243353754282
1751448490432032300,9.2030322265625,3.1844379901885986,0.1104138121008873,0.05329795181751251
1751448490443800000,9.214800048828126,2.872897148132324,0.19104796648025513,0.04718930274248123
1751448490455567600,9.226567626953125,2.5699081420898438,0.12873975932598114,0.055741410702466965
1751448490467335400,9.23833544921875,2.235154151916504,0.07498364895582199,0.02519817277789116
1751448490479103000,9.25010302734375,1.8490877151489258,0.09086613357067108,0.023976443335413933
1751448490490870800,9.261870849609375,1.4483604431152344,0.05299251899123192,0.017867794260382652
1751448490507345400,9.278345458984376,0.9022472500801086,0.056657709181308746,0.017867794260382652
1751448490519113200,9.29011328125,0.5491674542427063,0.01511890348047018,0.006872228812426329
1751448490530880800,9.301880859375,0.17165300250053406,0.04321868345141411,0.006872228812426329
1751448490545002000,9.316001953125,-0.05558869615197182,0.04199695214629173,0.0007635809597559273
1751448490563830300,9.334830322265624,-0.24984370172023773,-0.004428769461810589,-0.002901607658714056
1751448490575598000,9.34659814453125,-0.6249146461486816,-0.009315688163042068,-0.005345067009329796
1751448490589719300,9.36071923828125,-1.3029745817184448,-0.04841103404760361,-0.012675444595515728
1751448490606194000,9.37719384765625,-2.3060145378112793,-0.02764163166284561,-0.017562363296747208
1751448490617961500,9.38896142578125,-3.0390522480010986,-0.162031888961792,-0.03955349326133728
1751448490632082700,9.403082763671875,-3.761094331741333,-0.141262486577034,-0.03588830679655075
1751448490646204200,9.4172041015625,-4.29254674911499,-0.0154243353754282,-0.027336198836565018
1751448490660325000,9.4313251953125,-4.715265274047852,-0.08872810751199722,-0.02977965772151947
1751448490674446300,9.4454462890625,-5.146535873413086,-0.07651081681251526,-0.04199695214629173
1751448490686214100,9.457214111328126,-5.5423760414123535,-0.05451968312263489,-0.060322895646095276
1751448490700335400,9.47133544921875,-5.967537879943848,-0.20112723112106323,-0.06154462695121765
1751448490712103000,9.48310302734375,-6.180119037628174,0.02000582218170166,-0.03588830679655075
1751448490723870700,9.49487060546875,-6.264418125152588,-0.18280129134655,-0.06154462695121765
1751448490737992000,9.508991943359375,-6.257087707519531,-0.04718930274248123,-0.06765327602624893
1751448490752113200,9.523113037109376,-6.075050354003906,-0.24022257328033447,-0.05787943676114082
1751448490763880700,9.534880615234375,-5.850252151489258,0.08842267841100693,-0.040775224566459656
1751448490778002000,9.549001953125,-5.399433612823486,-0.20601414144039154,-0.03588830679655075
1751448490792123100,9.563123046875,-4.783681869506836,-0.29764387011528015,-0.09575305134057999
1751448490808598000,9.579597900390626,-3.7965245246887207,-0.17913609743118286,-0.08109229803085327
1751448490825072600,9.59607275390625,-2.4037528038024902,-0.19013166427612305,-0.0591011680662632
1751448490836840400,9.60784033203125,-1.249218463897705,-0.0642935186624527,-0.027336198836565018
1751448490850961700,9.621961669921875,-0.09834922850131989,-0.03252854943275452,-0.009010255336761475
1751448490862729200,9.633729248046874,0.5137372612953186,-0.010537417605519295,-0.00045814859913662076
1751448490874497000,9.6454970703125,0.8460476994514465,0.022449281066656113,0.0154243353754282
1751448490888618000,9.659617919921875,1.1478148698806763,0.050549060106277466,0.030085090547800064
1751448490900385800,9.6713857421875,1.4080432653427124,0.024892739951610565,0.016646064817905426
1751448490919214000,9.690214111328125,1.8930699825286865,-0.02153298258781433,0.012980876490473747
1751448490930981600,9.701981689453126,2.2449281215667725,0.050549060106277466,0.023976443335413933
1751448490945102800,9.716102783203125,2.656651020050049,0.09575305134057999,0.03130681812763214
1751448490956870700,9.72787060546875,3.009730815887451,0.07131846249103546,0.026419902220368385
1751448490970991900,9.741991943359375,3.3567018508911133,0.187382772564888,0.06551524996757507
1751448490985113000,9.756113037109374,3.6499171257019043,0.03955349326133728,0.0435241162776947
1751448490996880600,9.767880615234375,3.7989680767059326,0.10674861818552017,0.03497200831770897
1751448491008648400,9.7796484375,3.9577929973602295,0.20570871233940125,0.016646064817905426
1751448491020416000,9.791416015625,4.127613544464111,0.1715002804994583,0.03375028073787689
1751448491034537200,9.805537109375,4.3377509117126465,0.03588830679655075,0.036193739622831345
1751448491046304800,9.8173046875,4.502684116363525,0.08353576064109802,0.055741410702466965
1751448491058072600,9.829072509765625,4.601644515991211,0.03222311660647392,0.05329795181751251
1751448491069840100,9.840840087890625,4.575988292694092,-0.022754713892936707,0.0019853105768561363
1751448491086315000,9.85731494140625,4.433045864105225,0.028557928279042244,0.03130681812763214
1751448491098082600,9.86908251953125,4.3072075843811035,0.046883873641490936,0.01908952370285988
1751448491109850400,9.880850341796876,4.1593780517578125,-0.05085449293255806,0.05329795181751251
1751448491121618000,9.892617919921875,3.9944448471069336,-0.03130681812763214,0.020311253145337105
1751448491133385700,9.9043857421875,3.8185157775878906,-0.016646064817905426,0.036193739622831345
1751448491145153300,9.9161533203125,3.5717263221740723,-0.011759147047996521,0.0386371985077858
1751448491159274500,9.9302744140625,3.2455246448516846,0.2863428592681885,0.1363755613565445
1751448491171042300,9.942042236328126,2.8997750282287598,0.6027708053588867,0.18646647036075592
1751448491185163500,9.95616357421875,2.433074474334717,-0.11316270381212234,-0.01511890348047018
1751448491196931000,9.96793115234375,1.913839340209961,0.1519526094198227,0.06673697382211685
1751448491208698600,9.97969873046875,1.4935643672943115,0.046883873641490936,0.009315688163042068
1751448491220466400,9.991466552734375,1.1429280042648315,0.03711003437638283,0.016646064817905426
1751448491234587600,10.005587646484376,0.8338304162025452,0.017562363296747208,0.005650499369949102
1751448491246355200,10.017355224609375,0.5894845128059387,0.017562363296747208,0.008093958720564842
1751448491258123000,10.029123046875,0.3488037884235382,0.012675444595515728,0.0032070400193333626
1751448491269890600,10.040890625,0.08613193035125732,0.0102319847792387,0.0032070400193333626
1751448491281658400,10.052658447265625,0.000610864779446274,0.00045814859913662076,0.0007635809597559273
1751448491295779600,10.066779541015626,-0.006719512399286032,0.002901607658714056,-0.00045814859913662076
1751448491309900800,10.08090087890625,-0.09957095980644226,-0.0032070400193333626,-0.001679878099821508
1751448491321668400,10.09266845703125,-0.4001164436340332,-0.008093958720564842,-0.005345067009329796
1751448491338143200,10.109143310546875,-1.0891718864440918,-0.02153298258781433,-0.007788525894284248
1751448491349910800,10.120910888671874,-1.7806708812713623,-0.045967575162649155,-0.011453714221715927
1751448491366385400,10.137385498046875,-2.9193227291107178,-0.016646064817905426,-0.018784092739224434
1751448491378153200,10.1491533203125,-3.5912740230560303,-0.05818486958742142,-0.028557928279042244
1751448491389920800,10.160920654296875,-4.171595573425293,-0.1253799945116043,-0.03222311660647392
1751448491401688600,10.1726884765625,-4.677391529083252,-0.0850629210472107,-0.03588830679655075
1751448491415809800,10.186809814453126,-5.102553367614746,-0.13271036744117737,-0.034666575491428375
1751448491427577300,10.198577392578125,-5.379886150360107,-0.1669187992811203,-0.04199695214629173
1751448491439345200,10.21034521484375,-5.623010158538818,-0.26099199056625366,-0.0798705667257309
1751448491451112700,10.22211279296875,-5.802604675292969,-0.10094540566205978,-0.07131846249103546
1751448491462880500,10.233880615234375,-5.885682106018066,-0.16325360536575317,-0.054214250296354294
1751448491474648000,10.24564794921875,-5.87835168838501,-0.29397866129875183,-0.09330959618091583
1751448491488769300,10.259769287109375,-5.795274257659912,-0.11194097250699997,-0.0383317656815052
1751448491505244000,10.276243896484376,-5.461741924285889,-0.030085090547800064,-0.03222311660647392
1751448491517011700,10.28801171875,-5.1343183517456055,-0.31352636218070984,-0.12140937149524689
1751448491531133000,10.3021328125,-4.654178619384766,-0.4137081801891327,-0.1360701322555542
1751448491545254100,10.316254150390625,-4.0530877113342285,-0.2707658112049103,-0.10430516302585602
1751448491559375400,10.330375244140624,-3.4165666103363037,-0.11682789027690887,-0.11652245372533798
1751448491571143000,10.342142822265625,-2.8203625679016113,-0.055741410702466965,-0.09208786487579346
1751448491585264000,10.35626416015625,-2.0103559494018555,-0.028863361105322838,-0.09330959618091583
1751448491597031700,10.36803173828125,-1.240666389465332,0.18493930995464325,0.012980876490473747
1751448491608799500,10.379799560546875,0.039706211537122726,0.4036289155483246,0.13271036744117737
1751448491620567000,10.391567138671874,0.6969966888427734,0.42195484042167664,0.14492766559123993
1751448491637042000,10.4080419921875,1.2736530303955078,-0.02764163166284561,0.008093958720564842
1751448491651163100,10.4221630859375,1.591302752494812,0.03711003437638283,0.026419902220368385
1751448491667637800,10.4386376953125,1.8894047737121582,0.1262962967157364,0.011759147047996521
1751448491679405600,10.450405517578124,2.1129813194274902,0.13851359486579895,0.05696314200758934
1751448491691173000,10.462173095703125,2.3903138637542725,0.050549060106277466,0.05451968312263489
1751448491705294300,10.47629443359375,2.6786420345306396,0.016340631991624832,0.017867794260382652
1751448491717062000,10.488061767578126,2.7739369869232178,0.28267768025398254,0.022754713892936707
1751448491733536800,10.504536865234375,2.9193227291107178,0.10797034949064255,0.005650499369949102
1751448491747658000,10.518657958984376,3.07326078414917,0.29245150089263916,0.05451968312263489
1751448491759425500,10.530425537109375,3.1954336166381836,0.281455934047699,0.04841103404760361
1751448491773546800,10.544546630859376,3.409236431121826,-0.012980876490473747,0.03252854943275452
1751448491787668000,10.55866796875,3.6670212745666504,0.012675444595515728,0.014202605932950974
1751448491801789200,10.5727890625,3.8539459705352783,-0.07162389904260635,0.012980876490473747
1751448491820617500,10.591617431640625,3.8796021938323975,0.0639880821108818,0.04474584385752678
1751448491832385000,10.603385009765624,3.8466155529022217,0.3266599476337433,0.06551524996757507
1751448491844152800,10.61515283203125,3.8050765991210938,0.07376192510128021,0.02519817277789116
1751448491860627500,10.63162744140625,3.7794203758239746,0.2631300091743469,0.06062832847237587
1751448491874748700,10.645748779296875,3.839285135269165,-0.005650499369949102,0.005650499369949102
1751448491888870000,10.659869873046874,3.7562074661254883,0.1104138121008873,0.05451968312263489
1751448491900637400,10.671637451171875,3.5998260974884033,-0.08384118974208832,-0.013897174037992954
1751448491912405200,10.6834052734375,3.377471446990967,-0.16081015765666962,-0.022449281066656113
1751448491926526500,10.6975263671875,3.020726442337036,0.0591011680662632,0.05085449293255806
1751448491938294000,10.7092939453125,2.7262895107269287,-0.030085090547800064,0.02764163166284561
1751448491950061800,10.721061767578124,2.5014913082122803,0.12140937149524689,0.055741410702466965
1751448491966536400,10.737536376953125,2.2009458541870117,0.04199695214629173,0.03130681812763214
1751448491978304000,10.749303955078124,1.92361319065094,0.12751802802085876,0.020311253145337105
1751448491990071800,10.76107177734375,1.6084070205688477,0.1409570425748825,0.05940660089254379
1751448492001839400,10.77283935546875,1.2565488815307617,0.060322895646095276,0.028863361105322838
1751448492013607200,10.784607177734374,0.8826996088027954,0.13362666964530945,0.039858926087617874
1751448492025374700,10.796374755859375,0.5308414697647095,0.17394374310970306,0.05085449293255806
1751448492039496000,10.810495849609374,0.22418737411499023,0.027336198836565018,0.004428769461810589
1751448492053617200,10.8246171875,-0.001832594396546483,0.01511890348047018,0.0007635809597559273
1751448492065384700,10.836384765625,-0.0054977829568088055,0.001679878099821508,0.0007635809597559273
1751448492081859600,10.852859619140625,-0.16798780858516693,-0.0032070400193333626,-0.002901607658714056
1751448492093627100,10.864627197265625,-0.535728394985199,-0.012980876490473747,0.0007635809597559273
1751448492107748400,10.878748291015626,-1.2137882709503174,-0.02153298258781433,-0.0102319847792387
1751448492124223000,10.895222900390625,-2.123976945877075,-0.022754713892936707,-0.0102319847792387
1751448492138344200,10.90934423828125,-2.8851144313812256,-0.07406735420227051,-0.02611446939408779
1751448492152465400,10.92346533203125,-3.5497353076934814,-0.0691804364323616,-0.03588830679655075
1751448492164233200,10.935233154296874,-3.9968881607055664,-0.0019853105768561363,-0.012675444595515728
1751448492178354400,10.9493544921875,-4.4220499992370605,-0.07284562289714813,-0.001679878099821508
1751448492190122000,10.9611220703125,-4.674948215484619,-0.13393209874629974,-0.056657709181308746
1751448492201889500,10.9728896484375,-4.856986045837402,-0.35995206236839294,-0.09697478264570236
1751448492216010800,10.9870107421875,-5.056127548217773,-0.39538222551345825,-0.08720094710588455
1751448492227778600,10.998778564453126,-5.202735424041748,-0.11804962158203125,-0.05177079141139984
1751448492241899800,11.012899658203125,-5.285812854766846,-0.04108065739274025,-0.05177079141139984
1751448492258374400,11.02937451171875,-5.294364929199219,-0.10461059212684631,0.012980876490473747
1751448492270142000,11.041141845703125,-5.211287498474121,-0.31841325759887695,-0.13851359486579895
1751448492281909800,11.05290966796875,-5.056127548217773,-0.19379685819149017,-0.1104138121008873
1751448492296031000,11.067031005859375,-4.789790630340576,-0.24266603589057922,-0.09086613357067108
1751448492310152200,11.081152099609374,-4.341415882110596,-0.23044873774051666,-0.14340050518512726
1751448492324273200,11.095273193359375,-3.708559989929199,-0.3306305706501007,-0.11652245372533798
1751448492343101400,11.114101318359374,-2.6468770503997803,-0.19501857459545135,-0.11407899856567383
1751448492354869200,11.125869140625,-1.9260566234588623,-0.1302669197320938,-0.040775224566459656
1751448492368990500,11.139990478515625,-1.145371437072754,0.145843967795372,-0.0639880821108818
1751448492380758000,11.151758056640626,-0.5393936038017273,0.034666575491428375,0.016646064817905426
1751448492392525800,11.16352587890625,-0.020158538594841957,0.24236060678958893,0.08139773458242416
1751448492411353900,11.182353759765626,0.5137372612953186,0.48304131627082825,0.162031888961792
1751448492423121700,11.19412158203125,0.9816597104072571,-0.03375028073787689,-0.004123337101191282
1751448492434889200,11.20588916015625,1.4422518014907837,0.10919208079576492,0.03130681812763214
1751448492449010400,11.220010498046875,1.9724823236465454,0.1055268943309784,0.055741410702466965
1751448492460778000,11.231778076171874,2.2449281215667725,0.0334448479115963,0.028863361105322838
1751448492479606300,11.250606201171875,2.4514002799987793,0.03222311660647392,0.012980876490473747
1751448492491374000,11.2623740234375,2.6004514694213867,0.20570871233940125,0.05451968312263489
1751448492503141600,11.2741416015625,2.764163017272949,0.16783510148525238,0.04841103404760361
1751448492517262800,11.288262939453125,2.9571964740753174,0.10186170041561127,0.0386371985077858
1751448492529030400,11.300030517578126,3.0952517986297607,0.044440411031246185,0.014202605932950974
1751448492540798200,11.311798095703125,3.162446975708008,-0.055741410702466965,-0.0102319847792387
1751448492552565800,11.323565673828124,3.1648905277252197,0.09819651395082474,0.03375028073787689
1751448492564333600,11.33533349609375,3.1807730197906494,0.060322895646095276,0.030085090547800064
1751448492580808200,11.35180810546875,3.188103199005127,-0.0019853105768561363,0.004428769461810589
1751448492592575700,11.36357568359375,3.14900803565979,0.028557928279042244,0.03741546720266342
1751448492604343600,11.375343505859375,3.1477861404418945,0.17516547441482544,0.05085449293255806
1751448492618464800,11.38946484375,3.2125377655029297,0.1055268943309784,0.02519817277789116
1751448492632586000,11.4035859375,3.1966552734375,0.21914774179458618,0.04108065739274025
1751448492644353500,11.415353515625,3.14900803565979,-0.028863361105322838,0.020311253145337105
1751448492658474800,11.429474853515625,3.014617681503296,0.08597921580076218,0.02519817277789116
1751448492670242300,11.4412421875,2.9095489978790283,-0.005650499369949102,0.03130681812763214
1751448492682010000,11.453010009765626,2.7898194789886475,0.017562363296747208,0.045967575162649155
1751448492696131300,11.46713134765625,2.6896376609802246,0.10797034949064255,0.0032070400193333626
1751448492707899000,11.47889892578125,2.5308127403259277,0.14950916171073914,0.05696314200758934
1751448492722020000,11.49302001953125,2.285245180130005,0.060322895646095276,0.016646064817905426
1751448492736141300,11.507141357421874,1.9285000562667847,0.07864884287118912,0.023976443335413933
1751448492747908900,11.518908935546875,1.6719368696212769,0.04199695214629173,0.0154243353754282
1751448492762030000,11.533030029296874,1.5497639179229736,0.06765327602624893,0.016646064817905426
1751448492776151300,11.5471513671875,1.5179989337921143,0.09697478264570236,0.030085090547800064
1751448492787918800,11.5589189453125,1.4666863679885864,-0.016646064817905426,0.006872228812426329
1751448492799686700,11.570686767578126,1.3384047746658325,0.011453714221715927,0.014202605932950974
1751448492816161300,11.587161376953125,1.0341941118240356,0.001679878099821508,0.0032070400193333626
1751448492827928800,11.5989287109375,0.6811142563819885,0.005345067009329796,0.006872228812426329
1751448492842050000,11.613050048828125,0.1740964651107788,0.007788525894284248,0.0032070400193333626
1751448492860878300,11.63187841796875,-0.1740964651107788,-0.009315688163042068,-0.00045814859913662076
1751448492874999600,11.64599951171875,-0.5161807537078857,-0.020311253145337105,-0.005345067009329796
1751448492886767000,11.65776708984375,-0.9731075763702393,-0.0154243353754282,-0.011453714221715927
1751448492900888300,11.671888427734375,-1.5485422611236572,-0.0154243353754282,-0.009010255336761475
1751448492915009500,11.686009521484374,-2.0408992767333984,-0.052076224237680435,-0.027336198836565018
1751448492929130800,11.700130859375,-2.49538254737854,-0.08139773458242416,-0.02611446939408779
1751448492947959000,11.718958984375,-3.0634868144989014,-0.0850629210472107,-0.016340631991624832
1751448492962080300,11.733080322265625,-3.5191919803619385,-0.08017600327730179,-0.03711003437638283
1751448492978555000,11.749554931640626,-4.087296009063721,-0.02153298258781433,-0.03222311660647392
1751448492992676000,11.763676025390625,-4.463588714599609,-0.1925751268863678,-0.07131846249103546
1751448493004443600,11.775443603515624,-4.705491542816162,-0.06673697382211685,-0.04810560122132301
1751448493016211500,11.78721142578125,-4.878976821899414,-0.15836669504642487,-0.056657709181308746
1751448493027979000,11.79897900390625,-4.975493431091309,-0.22067490220069885,-0.07864884287118912
1751448493039746600,11.81074658203125,-4.932733058929443,-0.20112723112106323,-0.08109229803085327
1751448493051514400,11.822514404296875,-4.828886032104492,-0.1363755613565445,-0.06154462695121765
1751448493065635300,11.83663525390625,-4.6370744705200195,-0.06673697382211685,-0.06276635825634003
1751448493077403100,11.848403076171875,-4.4049458503723145,-0.2597702443599701,-0.11774418503046036
1751448493091524400,11.8625244140625,-4.049422740936279,-0.12293653935194016,-0.05543597787618637
1751448493105645600,11.8766455078125,-3.7097818851470947,-0.1204930767416954,-0.0591011680662632
1751448493122120200,11.8931201171875,-3.2846198081970215,-0.14981459081172943,-0.07131846249103546
1751448493138594800,11.9095947265625,-2.6700899600982666,-0.0850629210472107,-0.05787943676114082
1751448493152716000,11.923716064453124,-1.905287265777588,0.06765327602624893,0.0154243353754282
1751448493164483800,11.93548388671875,-1.1404845714569092,0.16050471365451813,0.03497200831770897
1751448493178605000,11.94960498046875,-0.26939135789871216,-0.05696314200758934,-0.013897174037992954
1751448493195079700,11.96607958984375,0.5369501113891602,0.05177079141139984,0.017867794260382652
1751448493206847200,11.97784716796875,0.8252783417701721,0.0383317656815052,0.008093958720564842
1751448493218615000,11.989614990234376,1.1184934377670288,0.05543597787618637,0.005650499369949102
1751448493230382600,12.001382568359375,1.3946043252944946,0.10674861818552017,0.03497200831770897
1751448493242150100,12.013150146484374,1.7220277786254883,0.2130390852689743,0.045967575162649155
1751448493260978400,12.031978515625,2.171624183654785,0.09575305134057999,0.020311253145337105
1751448493275099600,12.046099609375,2.5308127403259277,0.06276635825634003,0.022754713892936707
1751448493286867200,12.0578671875,2.8240277767181396,0.10797034949064255,0.023976443335413933
1751448493298635000,12.069635009765625,3.12701678276062,0.09697478264570236,0.036193739622831345
1751448493312756000,12.083755859375,3.4067928791046143,0.0847574844956398,0.0386371985077858
1751448493324523800,12.095523681640625,3.618152141571045,0.03711003437638283,0.028863361105322838
1751448493336291300,12.107291259765624,3.833176374435425,0.018784092739224434,0.030085090547800064
1751448493348059100,12.11905908203125,3.9834492206573486,0.16905683279037476,0.05451968312263489
1751448493359826700,12.13082666015625,4.13494348526001,0.034666575491428375,0.0386371985077858
1751448493371594200,12.14259423828125,4.224130153656006,0.10063996911048889,0.04841103404760361
1751448493383362000,12.154362060546875,4.3072075843811035,0.09819651395082474,0.05451968312263489
1751448493395129600,12.166129638671874,4.334085464477539,0.08842267841100693,0.03375028073787689
1751448493406897200,12.177897216796875,4.3353071212768555,0.07009673118591309,0.03130681812763214
1751448493418665000,12.1896650390625,4.3206467628479,-0.03375028073787689,0.016646064817905426
1751448493432786200,12.2037861328125,4.222908020019531,-0.11194097250699997,0.004428769461810589
1751448493446907100,12.2179072265625,4.031096458435059,0.02367101050913334,0.06307178735733032
1751448493461028400,12.2320283203125,3.75254225730896,0.5832231640815735,0.17058399319648743
1751448493475149600,12.246149658203125,3.433670997619629,-0.11438442766666412,-0.06154462695121765
1751448493489270800,12.260270751953126,2.9181010723114014,0.15561780333518982,0.052076224237680435
1751448493501038300,12.272038330078125,2.634659767150879,-0.028863361105322838,-0.00045814859913662076
1751448493512806100,12.28380615234375,2.339001178741455,0.09819651395082474,0.045967575162649155
1751448493524573700,12.29557373046875,1.962708592414856,0.06276635825634003,0.023976443335413933
1751448493541048300,12.31204833984375,1.4275909662246704,0.00045814859913662076,0.010537417605519295
1751448493555169500,12.32616943359375,0.9046907424926758,0.027336198836565018,0.012980876490473747
1751448493566937300,12.337937255859375,0.4734202027320862,0.04321868345141411,0.012980876490473747
1751448493583412000,12.354411865234376,0.029932374134659767,0.02611446939408779,0.0032070400193333626
1751448493595179500,12.366179443359375,-0.1948658674955368,0.011453714221715927,0.0007635809597559273
1751448493606947300,12.377947265625,-0.29138249158859253,-0.023976443335413933,-0.005345067009329796
1751448493618715000,12.38971484375,-0.42332929372787476,-0.02519817277789116,-0.006566796451807022
1751448493630482400,12.401482421875,-0.6713404059410095,-0.04718930274248123,-0.0102319847792387
1751448493642250200,12.413250244140626,-0.9388991594314575,0.007788525894284248,-0.004123337101191282
1751448493658724900,12.429724853515625,-1.4996730089187622,-0.0386371985077858,-0.012675444595515728
1751448493672846000,12.44384619140625,-2.0628902912139893,-0.036193739622831345,-0.018784092739224434
1751448493684613600,12.455613525390625,-2.5503604412078857,-0.05818486958742142,-0.02367101050913334
1751448493701088300,12.472088134765626,-3.1783294677734375,-0.06673697382211685,-0.0383317656815052
1751448493717563000,12.48856298828125,-3.646251916885376,-0.049632761627435684,-0.02367101050913334
1751448493729330700,12.50033056640625,-3.872271776199341,-0.11194097250699997,-0.05177079141139984
1751448493741098200,12.51209814453125,-4.090961456298828,-0.2707658112049103,-0.02977965772151947
1751448493755219500,12.526219482421874,-4.392728805541992,-0.023976443335413933,-0.006566796451807022
1751448493769340700,12.540340576171875,-4.770243167877197,-0.19013166427612305,-0.04321868345141411
1751448493781108200,12.552108154296874,-5.054905891418457,-0.2328922003507614,-0.0896444097161293
1751448493795229400,12.5662294921875,-5.315134525299072,-0.2744309902191162,-0.12873975932598114
1751448493806997000,12.5779970703125,-5.416537761688232,-0.11194097250699997,-0.05787943676114082
1751448493821118200,12.5921181640625,-5.322464942932129,-0.2023489624261856,-0.09941824525594711
1751448493835239400,12.606239501953125,-4.996263027191162,-0.22556181252002716,-0.06887500733137131
1751448493847007000,12.618007080078126,-4.651735305786133,-0.05329795181751251,-0.07620538026094437
1751448493861128200,12.632128173828125,-4.18503475189209,-0.1107192412018776,-0.06520981341600418
1751448493875249400,12.64624951171875,-3.7953028678894043,-0.09605848789215088,-0.04932733252644539
1751448493887017000,12.658016845703125,-3.524078845977783,-0.1204930767416954,-0.060322895646095276
1751448493898784800,12.66978466796875,-3.2125377655029297,-0.21700970828533173,-0.056657709181308746
1751448493912905700,12.68390576171875,-2.766606569290161,0.07009673118591309,0.008093958720564842
1751448493924673500,12.695673583984375,-2.2950189113616943,0.028557928279042244,0.022754713892936707
1751448493941148200,12.712148193359376,-1.3335177898406982,-0.006872228812426329,-0.011453714221715927
1751448493955269400,12.726269287109375,0.03481929376721382,0.005345067009329796,0.004428769461810589
1751448493967037000,12.738036865234376,0.430659681558609,0.013897174037992954,0.004428769461810589
1751448493978804700,12.7498046875,0.6982184648513794,0.012675444595515728,0.008093958720564842
1751448493992925700,12.76392578125,0.9511164426803589,0.01511890348047018,0.012980876490473747
1751448494009400600,12.780400634765625,1.3261874914169312,0.024892739951610565,0.010537417605519295
1751448494021168000,12.792168212890624,1.6267329454421997,0.027336198836565018,0.010537417605519295
1751448494039996400,12.810996337890625,2.065333843231201,0.2900080680847168,0.022754713892936707
1751448494056471000,12.827470947265626,2.4575090408325195,0.07498364895582199,0.03130681812763214
1751448494068238600,12.839238525390625,2.7617197036743164,0.06765327602624893,0.023976443335413933
1751448494080006400,12.85100634765625,3.144120931625366,0.12996147572994232,0.020311253145337105
1751448494094127400,12.86512744140625,3.6364779472351074,0.16783510148525238,0.055741410702466965
1751448494108248600,12.87924853515625,4.020101070404053,0.22036947309970856,0.039858926087617874
1751448494120016100,12.89101611328125,4.207025527954102,0.12996147572994232,0.04841103404760361
1751448494134137300,12.905137451171875,4.323090076446533,0.12996147572994232,0.0386371985077858
1751448494145905200,12.9169052734375,4.398837089538574,0.11774418503046036,0.045967575162649155
1751448494160026000,12.931026123046875,4.473362922668457,0.027336198836565018,0.023976443335413933
1751448494171794000,12.9427939453125,4.431824207305908,0.21548254787921906,0.07528908550739288
1751448494185915000,12.956914794921875,4.379289627075195,-0.030085090547800064,0.07040216773748398
1751448494197682700,12.9686826171875,4.28643798828125,-0.017867794260382652,0.0007635809597559273
1751448494209450200,12.9804501953125,4.127613544464111,0.2179260104894638,0.009315688163042068
1751448494221217800,12.9922177734375,3.9602363109588623,0.09819651395082474,0.0032070400193333626
1751448494235339000,13.006339111328124,3.657247543334961,-0.052076224237680435,-0.016340631991624832
1751448494249460200,13.020460205078125,3.2785112857818604,0.031001387163996696,0.052076224237680435
1751448494265934800,13.036934814453126,2.81425404548645,0.26679518818855286,0.11804962158203125
1751448494280056000,13.05105615234375,2.3597705364227295,-0.10583232343196869,0.011759147047996521
1751448494294177300,13.06517724609375,1.8869613409042358,0.09208786487579346,0.039858926087617874
1751448494308298500,13.079298583984375,1.472795009613037,0.05177079141139984,0.02519817277789116
1751448494320066000,13.091066162109374,1.1074978113174438,0.03588830679655075,0.012980876490473747
1751448494334187300,13.105187255859375,0.6896663308143616,0.0383317656815052,-0.00045814859913662076
1751448494348308200,13.11930810546875,0.37323838472366333,0.031001387163996696,0.008093958720564842
1751448494362429400,13.133429443359375,0.03848448023200035,0.013897174037992954,0.0032070400193333626
1751448494378904300,13.149904296875,-0.2730565667152405,-0.009315688163042068,-0.002901607658714056
1751448494390672000,13.161671875,-0.4673115611076355,-0.011759147047996521,-0.004123337101191282
1751448494407146500,13.178146484375,-1.0317505598068237,-0.028863361105322838,-0.0102319847792387
1751448494418914000,13.1899140625,-1.5143338441848755,-0.036193739622831345,-0.013897174037992954
1751448494435389000,13.206388916015625,-2.248593330383301,-0.04474584385752678,-0.022449281066656113
1751448494447156500,13.218156494140626,-2.740950345993042,-0.03130681812763214,-0.018784092739224434
1751448494458924000,13.229924072265625,-3.2174248695373535,-0.12171480804681778,-0.04321868345141411
1751448494470691600,13.241691650390624,-3.702451467514038,-0.11682789027690887,-0.05177079141139984
1751448494482459400,13.25345947265625,-4.143496036529541,-0.045967575162649155,-0.056657709181308746
1751448494494227000,13.26522705078125,-4.489245414733887,-0.13881902396678925,-0.03955349326133728
1751448494505994500,13.276994384765626,-4.732369422912598,-0.0948367565870285,-0.04932733252644539
1751448494517762300,13.28876220703125,-4.916850566864014,-0.1925751268863678,-0.09697478264570236
1751448494531883300,13.30288330078125,-5.035358428955078,-0.08628465235233307,-0.07254019379615784
1751448494543651000,13.314651123046875,-5.059792995452881,-0.020311253145337105,-0.07376192510128021
1751448494555418600,13.326418701171875,-5.032915115356445,-0.21945317089557648,-0.07620538026094437
1751448494569539800,13.340539794921876,-4.905855178833008,-0.10827577859163284,-0.10797034949064255
1751448494581307400,13.352307373046875,-4.760469436645508,-0.12293653935194016,-0.050549060106277466
1751448494593075000,13.364074951171874,-4.543001174926758,0.14828743040561676,0.004428769461810589
1751448494607196200,13.378196044921875,-4.277885913848877,-0.24755294620990753,-0.09330959618091583
1751448494618963700,13.389963623046874,-4.0225443840026855,-0.20723587274551392,-0.054214250296354294
1751448494630731500,13.4017314453125,-3.7843072414398193,-0.141262486577034,-0.056657709181308746
1751448494642499000,13.4134990234375,-3.476431369781494,-0.08017600327730179,-0.04321868345141411
1751448494654267000,13.425266845703124,-3.1502296924591064,-0.03375028073787689,-0.06765327602624893
1751448494670741500,13.441741455078125,-2.4990477561950684,-0.1363755613565445,-0.044440411031246185
1751448494689569500,13.460569580078126,-1.4361430406570435,-0.05329795181751251,-0.02367101050913334
1751448494701337300,13.47233740234375,-0.6334667801856995,0.0591011680662632,0.011759147047996521
1751448494715458300,13.486458251953126,0.4831940531730652,-0.020311253145337105,-0.002901607658714056
1751448494729579500,13.50057958984375,0.9584468603134155,0.11407899856567383,0.03130681812763214
1751448494741347000,13.51234716796875,1.3176352977752686,0.050549060106277466,0.02153298258781433
1751448494755468300,13.52646826171875,1.7513493299484253,0.04810560122132301,0.01908952370285988
1751448494767236000,13.538236083984375,2.1300854682922363,0.11652245372533798,0.028863361105322838
1751448494786064100,13.557064208984375,2.5271475315093994,0.3107774555683136,0.04718930274248123
1751448494800185300,13.571185302734374,2.7336199283599854,0.37919431924819946,0.11316270381212234
1751448494814306600,13.585306640625,2.9633049964904785,0.050549060106277466,0.017867794260382652
1751448494830781200,13.60178125,3.4043493270874023,0.021227551624178886,0.02519817277789116
1751448494842548700,13.613548828125,3.765981435775757,0.02000582218170166,0.03252854943275452
1751448494856670000,13.627669921875,4.12516975402832,0.03711003437638283,0.01908952370285988
1751448494868437500,13.6394375,4.29254674911499,-0.012980876490473747,0.03252854943275452
1751448494880205000,13.651205078125,4.3744025230407715,0.011453714221715927,-0.007788525894284248
1751448494891972900,13.662972900390624,4.441597938537598,0.011453714221715927,0.04474584385752678
1751448494908447500,13.679447509765625,4.474584579467773,0.23991714417934418,-0.001679878099821508
1751448494920215000,13.691215087890624,4.4660325050354,0.040775224566459656,-0.001679878099821508
1751448494936689700,13.707689697265625,4.28643798828125,0.00045814859913662076,0.03497200831770897
1751448494948457500,13.71945751953125,4.123948097229004,0.011453714221715927,0.02519817277789116
1751448494960225000,13.73122509765625,3.9492406845092773,-0.07528908550739288,-0.002901607658714056
1751448494974346200,13.74534619140625,3.618152141571045,-0.0032070400193333626,0.026419902220368385
1751448494986113800,13.75711376953125,3.302945852279663,-0.02519817277789116,0.04230238497257233
1751448495000235000,13.771235107421875,2.8374669551849365,0.12385283410549164,0.07162389904260635
1751448495016709600,13.787709716796876,2.263253927230835,0.12263110280036926,0.0435241162776947
1751448495030830800,13.801830810546875,1.8393138647079468,0.05177079141139984,0.023976443335413933
1751448495044951800,13.815951904296876,1.4898991584777832,0.10430516302585602,0.0435241162776947
1751448495061426700,13.8324267578125,1.0671807527542114,0.16294817626476288,0.055741410702466965
1751448495077901300,13.8489013671875,0.6053670048713684,0.2130390852689743,0.061850059777498245
1751448495089668900,13.8606689453125,0.3280344009399414,-0.004428769461810589,0.0007635809597559273
1751448495101436400,13.8724365234375,0.11545344442129135,-0.0019853105768561363,0.004428769461810589
1751448495115557600,13.8865576171875,-0.011606430634856224,0.004123337101191282,0.0019853105768561363
1751448495127325200,13.8983251953125,-0.07880155742168427,0.001679878099821508,-0.00045814859913662076
1751448495143799800,13.9147998046875,-0.4428769648075104,-0.004428769461810589,-0.005345067009329796
1751448495155567600,13.926567626953124,-0.896138608455658,-0.010537417605519295,-0.007788525894284248
1751448495167335200,13.938335205078126,-1.4031563997268677,-0.023976443335413933,-0.009010255336761475
1751448495181456400,13.952456298828125,-2.0274600982666016,-0.05085449293255806,-0.024892739951610565
1751448495195577600,13.96657763671875,-2.5381431579589844,-0.020311253145337105,-0.018784092739224434
1751448495209698600,13.980698486328125,-3.0830345153808594,-0.08017600327730179,-0.024892739951610565
1751448495221466000,13.992466064453126,-3.5081963539123535,-0.16081015765666962,-0.040775224566459656
1751448495233234000,14.00423388671875,-3.82828950881958,-0.15347976982593536,-0.022449281066656113
1751448495247355000,14.01835498046875,-4.158156394958496,-0.11927134543657303,-0.05543597787618637
1751448495259122700,14.030122802734375,-4.334085464477539,-0.03741546720266342,-0.03588830679655075
1751448495273244000,14.044243896484375,-4.500240802764893,-0.07651081681251526,-0.06520981341600418
1751448495285011500,14.056011474609376,-4.584540367126465,-0.10949750989675522,-0.03955349326133728
1751448495301486000,14.072486083984375,-4.6285223960876465,-0.0948367565870285,-0.046883873641490936
1751448495315607300,14.086607177734376,-4.652956962585449,-0.346513032913208,-0.10919208079576492
1751448495327374800,14.098374755859375,-4.557662010192871,-0.12660172581672668,-0.040775224566459656
1751448495339142400,14.110142333984374,-4.429380416870117,-0.18035782873630524,-0.050549060106277466
1751448495350910000,14.121909912109375,-4.241234302520752,-0.17302745580673218,-0.046883873641490936
1751448495365031200,14.13603125,-3.961458206176758,-0.17058399319648743,-0.0591011680662632
1751448495376798700,14.147798828125,-3.6865689754486084,-0.13393209874629974,-0.06520981341600418
1751448495388566500,14.15956640625,-3.320050001144409,-0.31230461597442627,-0.08353576064109802
1751448495400334000,14.171333984375,-2.7873759269714355,-0.08872810751199722,-0.013897174037992954
1751448495414455300,14.185455322265625,-1.9468261003494263,0.05543597787618637,-0.013897174037992954
1751448495426222800,14.197222900390624,-1.219896912574768,0.0639880821108818,0.0032070400193333626
1751448495440344000,14.211343994140625,-0.5662716627120972,0.034666575491428375,-0.007788525894284248
1751448495454465000,14.225465087890624,-0.0922405794262886,-0.03130681812763214,-0.009010255336761475
1751448495468586200,14.239586181640625,0.13988803327083588,-0.0032070400193333626,0.0007635809597559273
1751448495482707500,14.25370751953125,0.0030543238390237093,0.0102319847792387,0.0019853105768561363
1751448495494475000,14.26547509765625,0.001832594396546483,0.0102319847792387,0.0019853105768561363
1751448495510949600,14.28194970703125,0.3035998046398163,0.01511890348047018,0.005650499369949102
1751448495527424300,14.29842431640625,1.1698060035705566,0.02000582218170166,0.016646064817905426
1751448495539192000,14.310192138671875,1.9187263250350952,0.001679878099821508,0.011759147047996521
1751448495553313000,14.32431298828125,2.682307243347168,-0.009315688163042068,0.005650499369949102
1751448495565080800,14.336080810546875,3.1062474250793457,0.05299251899123192,0.039858926087617874
1751448495579201800,14.350201904296876,3.3408195972442627,0.12385283410549164,0.0642935186624527
1751448495593323000,14.364322998046875,3.470322847366333,0.21426081657409668,0.06307178735733032
1751448495605090600,14.376090576171874,3.4458882808685303,0.08109229803085327,0.03741546720266342
1751448495616858000,14.387858154296875,3.5167484283447266,0.07620538026094437,0.039858926087617874
1751448495635686400,14.406686279296874,3.8734936714172363,0.14828743040561676,0.05329795181751251
1751448495649807600,14.4208076171875,4.072635650634766,0.15561780333518982,0.039858926087617874
1751448495668635600,14.4396357421875,4.121504783630371,0.14950916171073914,0.08017600327730179
1751448495680403200,14.4514033203125,3.9858927726745605,0.028557928279042244,0.04841103404760361
1751448495692171000,14.4631708984375,3.8600544929504395,0.044440411031246185,0.05818486958742142
1751448495708645600,14.479645751953125,3.6364779472351074,0.002901607658714056,-0.007788525894284248
1751448495720413200,14.4914130859375,3.405571222305298,0.02000582218170166,0.020311253145337105
1751448495732181000,14.503180908203126,3.0940301418304443,0.006566796451807022,0.02764163166284561
1751448495748655600,14.519655517578125,2.5027129650115967,-0.11316270381212234,-0.018784092739224434
1751448495765130200,14.536130126953125,1.9297218322753906,-0.005650499369949102,0.017867794260382652
1751448495781604900,14.55260498046875,1.3946043252944946,0.10430516302585602,0.04474584385752678
1751448495795726000,14.56672607421875,0.8570432662963867,0.10186170041561127,0.039858926087617874
1751448495807493600,14.57849365234375,0.4269944727420807,0.15561780333518982,0.04108065739274025
1751448495821614800,14.59261474609375,-0.19120067358016968,0.22159120440483093,0.0642935186624527
1751448495838089500,14.60908935546875,-0.6493492722511292,-0.04108065739274025,-0.001679878099821508
1751448495852210400,14.62321044921875,-1.1514800786972046,-0.02153298258781433,-0.007788525894284248
1751448495866331600,14.63733154296875,-1.7342450618743896,-0.03375028073787689,-0.021227551624178886
1751448495882806300,14.65380615234375,-2.4245223999023438,-0.09239330142736435,-0.02000582218170166
1751448495894573800,14.66557373046875,-2.875340461730957,-0.07162389904260635,-0.024892739951610565
1751448495906341600,14.677341552734376,-3.3066110610961914,-0.10949750989675522,-0.02611446939408779
1751448495918109200,14.689109130859375,-3.6645777225494385,-0.13759729266166687,-0.040775224566459656
1751448495929876700,14.700876708984374,-3.989557981491089,-0.16936226189136505,-0.046883873641490936
1751448495943998000,14.714998046875,-4.2681121826171875,-0.09728021919727325,-0.05543597787618637
1751448495955765500,14.726765625,-4.414719581604004,-0.06551524996757507,-0.06887500733137131
1751448495969886700,14.74088671875,-4.586983680725098,-0.3477347791194916,-0.11407899856567383
1751448495981654300,14.752654296875,-4.7067131996154785,-0.33307403326034546,-0.14340050518512726
1751448495993421800,14.764421875,-4.7824602127075195,-0.28176137804985046,-0.1727220118045807
1751448496007543000,14.77854296875,-4.787347316741943,-0.3452913165092468,-0.2179260104894638
1751448496019310600,14.790310546875,-4.711599826812744,-0.36972591280937195,-0.20937390625476837
1751448496033431800,14.804431884765625,-4.524675369262695,-0.3000873327255249,-0.13973531126976013
1751448496045199400,14.816199462890625,-4.271777629852295,-0.014202605932950974,-0.0639880821108818
1751448496059320600,14.830320556640626,-3.82828950881958,-0.04718930274248123,-0.08353576064109802
1751448496071088000,14.842088134765625,-3.3884668350219727,-0.16814053058624268,-0.11652245372533798
1751448496082855700,14.853855712890624,-2.99751353263855,-0.12782345712184906,-0.14340050518512726
1751448496094623200,14.865623291015625,-2.576016664505005,0.10063996911048889,-0.004123337101191282
1751448496108744400,14.879744384765624,-1.805105447769165,0.02611446939408779,-0.040775224566459656
1751448496122865700,14.89386572265625,-0.45387253165245056,0.249690979719162,0.07895427197217941
1751448496134633200,14.90563330078125,0.04214967042207718,0.342542439699173,0.11927134543657303
1751448496146400800,14.91740087890625,0.1740964651107788,0.3413206934928894,0.12415826320648193
1751448496160522000,14.93152197265625,0.38301220536231995,0.18127411603927612,0.05696314200758934
1751448496172289500,14.94328955078125,0.4868592321872711,0.0639880821108818,0.020311253145337105
1751448496188764200,14.95976416015625,0.6921098232269287,0.07376192510128021,0.016646064817905426
1751448496202885400,14.973885498046876,1.1099413633346558,0.02977965772151947,0.0154243353754282
1751448496219360000,14.990360107421875,1.758679747581482,0.06520981341600418,0.012980876490473747
1751448496233481000,15.00448095703125,2.285245180130005,-0.0019853105768561363,0.014202605932950974
1751448496245248800,15.016248779296875,2.6590943336486816,0.027336198836565018,0.022754713892936707
1751448496257016300,15.028016357421874,2.97552227973938,-0.011759147047996521,0.012980876490473747
1751448496273491000,15.044490966796875,3.285841703414917,0.07376192510128021,0.0386371985077858
1751448496285258500,15.056258544921874,3.3994624614715576,0.054214250296354294,0.03252854943275452
1751448496297026000,15.068026123046875,3.500865936279297,0.05787943676114082,0.03130681812763214
1751448496308793900,15.0797939453125,3.5729479789733887,0.25091269612312317,0.049632761627435684
1751448496320561400,15.0915615234375,3.6450300216674805,0.187382772564888,0.026419902220368385
1751448496332329000,15.103328857421875,3.6511387825012207,0.0334448479115963,0.005650499369949102
1751448496344096500,15.115096435546874,3.5534005165100098,0.0639880821108818,0.02153298258781433
1751448496358217700,15.1292177734375,3.3909103870391846,0.11407899856567383,0.05451968312263489
1751448496372339000,15.1433388671875,3.3041675090789795,-0.020311253145337105,0.0154243353754282
1751448496384106500,15.1551064453125,3.3017241954803467,-0.0691804364323616,-0.022449281066656113
1751448496400581000,15.1715810546875,3.1722207069396973,0.11652245372533798,0.055741410702466965
1751448496417055700,15.1880556640625,2.9290966987609863,0.04199695214629173,0.028863361105322838
1751448496428823300,15.1998232421875,2.6444337368011475,0.007788525894284248,0.04108065739274025
1751448496445298000,15.2162978515625,2.0970988273620605,0.03955349326133728,0.039858926087617874
1751448496457065500,15.2280654296875,1.757457971572876,0.08231402933597565,0.0386371985077858
1751448496468833300,15.239833251953126,1.4752384424209595,0.027336198836565018,0.017867794260382652
1751448496480600800,15.251600830078125,1.1795798540115356,-0.02519817277789116,-0.002901607658714056
1751448496492368400,15.263368408203124,0.9657772183418274,-0.049632761627435684,-0.002901607658714056
1751448496508843000,15.279843017578125,0.721431314945221,0.02611446939408779,0.012980876490473747
1751448496520610600,15.291610595703125,0.5430588126182556,0.040775224566459656,0.009315688163042068
1751448496532378000,15.303378173828126,0.3646862804889679,0.0383317656815052,0.014202605932950974
1751448496544146000,15.31514599609375,0.17898337543010712,0.03711003437638283,0.005650499369949102
1751448496558267000,15.329266845703126,-0.04214967042207718,-0.028863361105322838,-0.009010255336761475
1751448496572388000,15.34338818359375,-0.23884813487529755,-0.017867794260382652,-0.009010255336761475
1751448496584155600,15.35515576171875,-0.23884813487529755,-0.008093958720564842,-0.005345067009329796
1751448496598276900,15.36927685546875,-0.27427828311920166,0.02611446939408779,0.0019853105768561363
1751448496614751500,15.38575146484375,-0.4013381600379944,-0.009315688163042068,-0.012675444595515728
1751448496626519000,15.39751904296875,-0.4612029194831848,0.01511890348047018,-0.011453714221715927
1751448496638286600,15.40928662109375,-0.5100721120834351,0.0383317656815052,0.03130681812763214
1751448496650054100,15.42105419921875,-0.6053670048713684,0.19960007071495056,0.045967575162649155
1751448496661822000,15.432822021484375,-0.8448259830474854,-0.09605848789215088,-0.0334448479115963
1751448496675943000,15.44694287109375,-1.3005311489105225,-0.04108065739274025,-0.018784092739224434
1751448496692417500,15.46341748046875,-1.8881829977035522,0.060322895646095276,-0.00045814859913662076
1751448496706538800,15.477538818359376,-2.400087833404541,-0.05329795181751251,-0.005345067009329796
1751448496718306300,15.489306396484375,-2.88389253616333,-0.25732678174972534,-0.06765327602624893
1751448496732427500,15.503427490234374,-3.403127670288086,-0.11804962158203125,-0.021227551624178886
1751448496748902100,15.519902099609375,-3.9492406845092773,0.19104796648025513,-0.006566796451807022
1751448496760669700,15.531669677734374,-4.238790512084961,-0.09728021919727325,-0.04199695214629173
1751448496777144300,15.548144287109375,-4.613861560821533,-0.2292270064353943,-0.0591011680662632
1751448496791265500,15.562265625,-4.809338569641113,-0.14737112820148468,-0.0383317656815052
1751448496807740200,15.578740234375,-4.847211837768555,-0.162031888961792,-0.07254019379615784
1751448496824214800,15.59521484375,-4.6981611251831055,-0.08261945843696594,-0.0383317656815052
1751448496840689400,15.611689453125,-4.47580623626709,-0.1571449637413025,-0.028557928279042244
1751448496854810400,15.625810302734376,-4.260781764984131,-0.10094540566205978,-0.054214250296354294
1751448496866578200,15.637578125,-4.050644397735596,-0.08017600327730179,-0.018784092739224434
1751448496878345700,15.649345703125,-3.6841254234313965,0.002901607658714056,-0.028557928279042244
1751448496890113300,15.66111328125,-3.135568857192993,-0.05329795181751251,-0.012675444595515728
1751448496901880800,15.672880859375,-2.4428482055664062,-0.0642935186624527,-0.024892739951610565
1751448496916002000,15.687001953125,-1.4275909662246704,-0.23533566296100616,-0.07131846249103546
1751448496927769600,15.69876953125,-0.6346884965896606,-0.026419902220368385,-0.012675444595515728
1751448496939537200,15.710537109375,-0.010384701192378998,0.09453132748603821,0.02519817277789116
1751448496956011800,15.72701171875,0.6872228980064392,0.0896444097161293,0.03130681812763214
1751448496972486400,15.743486328125,1.153923511505127,0.009010255336761475,0.008093958720564842
1751448496988961000,15.7599609375,1.7220277786254883,0.034666575491428375,0.012980876490473747
1751448497005435600,15.776435546875,2.386648654937744,0.046883873641490936,0.016646064817905426
1751448497017203200,15.788203125,2.836245059967041,0.017562363296747208,0.023976443335413933
1751448497028970800,15.799970703125,3.207650899887085,0.006566796451807022,0.03130681812763214
1751448497040738600,15.811738525390625,3.5534005165100098,0.0383317656815052,0.023976443335413933
1751448497052506000,15.823506103515625,3.8930411338806152,0.03711003437638283,0.04230238497257233
1751448497064273700,15.835273681640626,4.271777629852295,0.12996147572994232,0.04108065739274025
1751448497076041200,15.847041259765625,4.639517784118652,0.14462223649024963,0.04108065739274025
1751448497087808800,15.858808837890624,4.953502655029297,0.13484840095043182,0.05451968312263489
1751448497101930000,15.872929931640625,5.141648769378662,0.10674861818552017,0.03375028073787689
1751448497116051200,15.88705126953125,5.156309604644775,0.0591011680662632,0.05085449293255806
1751448497130172200,15.901172119140625,5.0475754737854,0.14462223649024963,0.09361502528190613
1751448497144293400,15.91529345703125,4.854542255401611,0.2643517255783081,0.08750637620687485
1751448497156061000,15.92706103515625,4.663952827453613,0.007788525894284248,0.028863361105322838
1751448497170182100,15.94118212890625,4.442819595336914,0.08597921580076218,0.04841103404760361
1751448497184303000,15.95530322265625,4.2009172439575195,-0.11194097250699997,0.03741546720266342
1751448497198424300,15.96942431640625,3.956571102142334,0.007788525894284248,0.0154243353754282
1751448497210192000,15.98119189453125,3.696342706680298,0.0102319847792387,0.03252854943275452
1751448497226666500,15.99766650390625,3.2809548377990723,0.145843967795372,0.04108065739274025
1751448497238434000,16.00943408203125,2.953531265258789,0.15561780333518982,0.07651081681251526
1751448497250201600,16.02120166015625,2.6554291248321533,0.2692386507987976,0.10216713696718216
1751448497261969200,16.03296923828125,2.4245223999023438,-0.0435241162776947,-0.012675444595515728
1751448497273736700,16.04473681640625,2.230267286300659,-0.03375028073787689,0.006872228812426329
1751448497287858000,16.05885791015625,1.9113959074020386,0.005345067009329796,0.011759147047996521
1751448497301979100,16.072979248046874,1.5228859186172485,0.07376192510128021,0.017867794260382652
1751448497313746700,16.08474658203125,1.173471212387085,0.06154462695121765,0.0154243353754282
1751448497325514200,16.09651416015625,0.7910698652267456,0.03711003437638283,0.009315688163042068
1751448497337281800,16.10828173828125,0.37690356373786926,0.001679878099821508,0.0007635809597559273
1751448497349049300,16.12004931640625,-0.015271619893610477,0.007788525894284248,0.0007635809597559273
1751448497363170600,16.134170654296874,-0.1484401375055313,-0.012980876490473747,-0.004123337101191282
1751448497374938000,16.145938232421877,-0.5112938284873962,-0.017867794260382652,-0.005345067009329796
1751448497386705700,16.15770556640625,-1.212566614151001,-0.04230238497257233,-0.0102319847792387
1751448497403180300,16.17418017578125,-2.3732097148895264,-0.03130681812763214,-0.007788525894284248
1751448497419655000,16.190655029296874,-3.478874921798706,-0.01908952370285988,-0.016340631991624832
1751448497431422500,16.20242236328125,-4.106843948364258,-0.08139773458242416,-0.021227551624178886
1751448497443190000,16.21418994140625,-4.563770771026611,-0.022754713892936707,-0.050549060106277466
1751448497454957600,16.22595751953125,-4.948615550994873,-0.08139773458242416,-0.0383317656815052
1751448497466725000,16.23772509765625,-5.300473690032959,-0.12904518842697144,-0.040775224566459656
1751448497478493000,16.249492919921874,-5.608349323272705,-0.18280129134655,-0.07009673118591309
1751448497490260500,16.261260498046877,-5.823373794555664,-0.3477347791194916,-0.09819651395082474
1751448497506735000,16.277735107421876,-6.004189968109131,0.044440411031246185,0.008093958720564842
1751448497518502700,16.289502685546875,-5.984642028808594,-0.18890993297100067,-0.125074565410614
1751448497532623600,16.30362353515625,-5.768395900726318,-0.2842048406600952,-0.09697478264570236
1751448497544391400,16.315391357421873,-5.525271892547607,-0.17547090351581573,-0.10919208079576492
1751448497558512400,16.329512451171876,-5.151422500610352,-0.18890993297100067,-0.11285726726055145
1751448497570280000,16.341280029296875,-4.808116912841797,-0.3367392122745514,-0.14950916171073914
1751448497586754600,16.357754638671874,-4.262003421783447,-0.19501857459545135,-0.046883873641490936
1751448497598522000,16.369522216796874,-3.8209590911865234,-0.1302669197320938,-0.08842267841100693
1751448497614996700,16.385996826171876,-3.1306819915771484,0.060322895646095276,-0.031001387163996696
1751448497626764300,16.397764404296876,-2.5662429332733154,0.2961167097091675,0.06062832847237587
1751448497638532000,16.409531982421875,-1.8894047737121582,0.3767508566379547,0.10583232343196869
1751448497650299600,16.421299560546874,-1.18446683883667,-0.12415826320648193,-0.03588830679655075
1751448497664420600,16.435420654296873,-0.4770853817462921,0.0639880821108818,0.012980876490473747
1751448497678541800,16.449541748046876,-0.017715077847242355,-0.005650499369949102,-0.004123337101191282
1751448497692662800,16.463662841796875,0.2987128794193268,0.013897174037992954,0.004428769461810589
1751448497706784000,16.477783935546874,0.5100721120834351,0.012675444595515728,0.009315688163042068
1751448497718551600,16.489551513671874,0.6640099883079529,0.011453714221715927,0.010537417605519295
1751448497730319000,16.501319091796876,0.7837395071983337,0.031001387163996696,0.012980876490473747
1751448497744440300,16.5154404296875,1.025641918182373,0.07009673118591309,0.014202605932950974
1751448497758561300,16.529561279296875,1.4679080247879028,0.1311832070350647,0.02764163166284561
1751448497770328800,16.541328857421874,2.000582218170166,0.012675444595515728,0.023976443335413933
1751448497782096600,16.5530966796875,2.576016664505005,0.056657709181308746,0.03741546720266342
1751448497796217600,16.567217529296876,3.207650899887085,0.16783510148525238,0.04841103404760361
1751448497810338800,16.5813388671875,3.75254225730896,0.31322091817855835,0.07040216773748398
1751448497826813400,16.5978134765625,4.254673004150391,-0.045967575162649155,-0.00045814859913662076
1751448497838581000,16.6095810546875,4.511236190795898,-0.020311253145337105,0.03252854943275452
1751448497852702000,16.623701904296876,4.699382781982422,0.09086613357067108,0.0386371985077858
1751448497864469500,16.635469482421875,4.839881420135498,0.16905683279037476,0.022754713892936707
1751448497876237000,16.647237060546875,4.926624298095703,-0.004428769461810589,0.06795870512723923
1751448497892712000,16.6637119140625,5.06345796585083,0.00045814859913662076,0.045967575162649155
1751448497904479500,16.6754794921875,5.125766277313232,0.013897174037992954,0.05085449293255806
1751448497918600400,16.689600341796876,5.128209590911865,-0.011759147047996521,0.030085090547800064
1751448497935075000,16.706074951171875,4.991375923156738,-0.10949750989675522,0.049632761627435684
1751448497949196300,16.7201962890625,4.718930244445801,0.013897174037992954,0.06673697382211685
1751448497960963800,16.7319638671875,4.4440412521362305,-0.039858926087617874,0.05818486958742142
1751448497975084800,16.746084716796876,4.042092323303223,-0.09361502528190613,0.020311253145337105
1751448497989206000,16.7602060546875,3.5827219486236572,0.3767508566379547,0.12782345712184906
1751448498000973600,16.7719736328125,3.205207586288452,0.4341721534729004,0.14004075527191162
1751448498012741000,16.7837412109375,2.8313581943511963,0.12140937149524689,0.09239330142736435
1751448498026862300,16.7978623046875,2.439182996749878,0.17638720571994781,0.05085449293255806
1751448498040983300,16.8119833984375,2.193615436553955,0.2606865465641022,0.07651081681251526
1751448498055104500,16.8261044921875,1.99936044216156,0.012675444595515728,0.0019853105768561363
