time,seconds_elapsed,z,y,x
1751448481515597600,0.28659765625,-0.005192350596189499,0.003512472379952669,0.004428769461810589
1751448481534425900,0.30542578125,-0.005803215317428112,0.003512472379952669,0.003512472379952669
1751448481553254000,0.32425390625,-0.005192350596189499,0.0038179049734026194,0.004428769461810589
1751448481572082200,0.343082275390625,-0.004886918235570192,0.0038179049734026194,0.004123337101191282
1751448481590910500,0.361910400390625,-0.006108647678047419,0.0038179049734026194,0.004123337101191282
1751448481609738800,0.38073876953125,-0.0054977829568088055,0.003512472379952669,0.003512472379952669
1751448481628566800,0.39956689453125,-0.003665188793092966,0.003512472379952669,0.004428769461810589
1751448481647395000,0.41839501953125,-0.004276053514331579,0.003512472379952669,0.004123337101191282
1751448481666223400,0.437223388671875,-0.004886918235570192,0.0025961752980947495,0.0025961752980947495
1751448481685051600,0.4560517578125,-0.0054977829568088055,0.001679878099821508,0.0038179049734026194
1751448481703879700,0.474879638671875,-0.003970621153712273,0.001679878099821508,0.003512472379952669
1751448481722708000,0.4937080078125,-0.004886918235570192,0.001679878099821508,0.0025961752980947495
1751448481741536300,0.512536376953125,-0.004886918235570192,0.004428769461810589,0.004428769461810589
1751448481760364300,0.5313642578125,-0.004581485874950886,0.003512472379952669,0.004428769461810589
1751448481779192600,0.550192626953125,-0.005192350596189499,0.0038179049734026194,0.004734201822429895
1751448481798020900,0.569020751953125,-0.0054977829568088055,0.0025961752980947495,0.0038179049734026194
1751448481816849200,0.58784912109375,-0.005192350596189499,0.004123337101191282,0.004123337101191282
1751448481835677400,0.606677490234375,-0.004886918235570192,0.0038179049734026194,0.0032070400193333626
1751448481854505500,0.62550537109375,-0.004276053514331579,0.0025961752980947495,0.0038179049734026194
1751448481873333800,0.644333740234375,-0.005803215317428112,0.003512472379952669,0.004428769461810589
1751448481892162000,0.663162109375,-0.005803215317428112,0.0032070400193333626,0.004123337101191282
1751448481910990000,0.681989990234375,-0.003970621153712273,0.005039634648710489,0.004123337101191282
1751448481929818400,0.700818359375,-0.005803215317428112,0.008093958720564842,0.005039634648710489
1751448481948646700,0.719646728515625,-0.004886918235570192,0.005650499369949102,0.004734201822429895
1751448481967475000,0.738474853515625,-0.004886918235570192,0.004428769461810589,0.0038179049734026194
1751448481986303200,0.75730322265625,-0.005192350596189499,0.005345067009329796,0.004734201822429895
1751448482005131300,0.77613134765625,-0.004581485874950886,0.0038179049734026194,0.003512472379952669
1751448482023959600,0.79495947265625,-0.004581485874950886,0.0032070400193333626,0.0032070400193333626
1751448482042787800,0.813787841796875,-0.005192350596189499,0.003512472379952669,0.004428769461810589
1751448482061616000,0.8326162109375,-0.0054977829568088055,0.004123337101191282,0.0032070400193333626
1751448482080444200,0.851444091796875,-0.005192350596189499,0.0038179049734026194,0.004123337101191282
1751448482099272400,0.8702724609375,-0.006108647678047419,0.0038179049734026194,0.004428769461810589
1751448482118100700,0.889100830078125,-0.004581485874950886,0.004428769461810589,0.004428769461810589
1751448482136928800,0.9079287109375,-0.005803215317428112,0.004428769461810589,0.002901607658714056
1751448482155757000,0.926757080078125,-0.003970621153712273,0.004428769461810589,0.003512472379952669
1751448482174585300,0.94558544921875,-0.0054977829568088055,0.0038179049734026194,0.002901607658714056
1751448482193413600,0.96441357421875,-0.004581485874950886,0.004734201822429895,0.002290742937475443
1751448482212242000,0.983241943359375,-0.0054977829568088055,0.004428769461810589,0.001679878099821508
1751448482231070000,1.002070068359375,-0.004581485874950886,0.003512472379952669,0.001679878099821508
1751448482249898200,1.020898193359375,-0.004581485874950886,0.004428769461810589,0.001679878099821508
1751448482268726500,1.0397265625,-0.0054977829568088055,0.004123337101191282,0.0038179049734026194
1751448482287554600,1.058554443359375,-0.005192350596189499,0.004123337101191282,0.004428769461810589
1751448482306382800,1.0773828125,-0.005803215317428112,0.004123337101191282,0.003512472379952669
1751448482325211100,1.096211181640625,-0.005192350596189499,0.004123337101191282,0.0038179049734026194
1751448482344039400,1.115039306640625,-0.005192350596189499,0.0032070400193333626,0.0038179049734026194
1751448482362867700,1.13386767578125,-0.004581485874950886,0.004123337101191282,0.003512472379952669
1751448482381695700,1.15269580078125,-0.004276053514331579,0.004428769461810589,0.003512472379952669
1751448482400524000,1.17152392578125,-0.005192350596189499,0.003512472379952669,0.003512472379952669
1751448482419352300,1.190352294921875,-0.005192350596189499,0.0038179049734026194,0.003512472379952669
1751448482438180600,1.2091806640625,-0.004886918235570192,0.0038179049734026194,0.002901607658714056
1751448482457008600,1.228008544921875,-0.0054977829568088055,0.004123337101191282,0.004734201822429895
1751448482475837000,1.2468369140625,-0.004886918235570192,0.004123337101191282,0.003512472379952669
1751448482494665200,1.265665283203125,-0.004581485874950886,0.003512472379952669,0.003512472379952669
1751448482513493500,1.284493408203125,-0.005192350596189499,0.0032070400193333626,0.003512472379952669
1751448482532321500,1.303321533203125,-0.005803215317428112,0.0032070400193333626,0.003512472379952669
1751448482551149800,1.32214990234375,-0.004886918235570192,0.0032070400193333626,0.003512472379952669
1751448482569978000,1.34097802734375,-0.005192350596189499,0.0032070400193333626,0.004123337101191282
1751448482588806400,1.359806396484375,-0.004276053514331579,0.004428769461810589,0.004428769461810589
1751448482607634400,1.378634521484375,-0.0054977829568088055,0.002901607658714056,0.004123337101191282
1751448482626462700,1.397462646484375,-0.004581485874950886,0.0038179049734026194,0.004123337101191282
1751448482645291000,1.416291015625,-0.004581485874950886,0.004734201822429895,0.0038179049734026194
1751448482664119300,1.435119384765625,-0.0054977829568088055,0.004123337101191282,0.002901607658714056
1751448482682947300,1.453947265625,-0.004581485874950886,0.004428769461810589,0.003512472379952669
1751448482701775600,1.472775634765625,-0.005192350596189499,0.003512472379952669,0.0038179049734026194
1751448482720604000,1.49160400390625,-0.004581485874950886,0.004123337101191282,0.0038179049734026194
1751448482739432200,1.51043212890625,-0.005192350596189499,0.003512472379952669,0.0038179049734026194
1751448482758260200,1.52926025390625,-0.005803215317428112,0.004428769461810589,0.004123337101191282
1751448482777088500,1.548088623046875,-0.004581485874950886,0.003512472379952669,0.0038179049734026194
1751448482795916800,1.566916748046875,-0.004886918235570192,0.0038179049734026194,0.0038179049734026194
1751448482814745000,1.5857451171875,-0.006108647678047419,0.004123337101191282,0.004123337101191282
1751448482852401400,1.6234013671875,-0.004886918235570192,0.004123337101191282,0.0032070400193333626
1751448482880643800,1.651643798828125,-0.004276053514331579,0.0038179049734026194,0.0038179049734026194
1751448482937128400,1.70812841796875,-0.004886918235570192,0.002290742937475443,0.003512472379952669
1751448482955956700,1.726956787109375,-0.004886918235570192,0.0032070400193333626,0.004734201822429895
1751448482974785000,1.745784912109375,-0.004886918235570192,0.0038179049734026194,0.0032070400193333626
1751448482993613000,1.764613037109375,-0.004886918235570192,0.0038179049734026194,0.002901607658714056
1751448483012441300,1.78344140625,-0.004581485874950886,0.0032070400193333626,0.004428769461810589
1751448483050098000,1.821097900390625,-0.004886918235570192,0.0032070400193333626,0.003512472379952669
1751448483068926000,1.839926025390625,-0.004886918235570192,0.0032070400193333626,0.004428769461810589
1751448483087754200,1.858754150390625,-0.0054977829568088055,0.003512472379952669,0.0032070400193333626
1751448483106582500,1.87758251953125,-0.004581485874950886,0.0032070400193333626,0.003512472379952669
1751448483125410800,1.896410888671875,-0.004276053514331579,0.003512472379952669,0.0032070400193333626
1751448483144239000,1.915239013671875,-0.004886918235570192,0.003512472379952669,0.004123337101191282
1751448483163067100,1.934067138671875,-0.005192350596189499,0.003512472379952669,0.003512472379952669
1751448483181895400,1.9528955078125,-0.005192350596189499,0.004123337101191282,0.0032070400193333626
1751448483200723700,1.9717236328125,-0.004886918235570192,0.003512472379952669,0.0038179049734026194
1751448483238380000,2.009380126953125,-0.004581485874950886,0.003512472379952669,0.002901607658714056
1751448483257208300,2.028208251953125,-0.005192350596189499,0.001679878099821508,0.0032070400193333626
1751448483276036600,2.04703662109375,-0.004276053514331579,0.009621120058000088,0.004734201822429895
1751448483304279000,2.075279052734375,-0.005192350596189499,0.001679878099821508,0.0032070400193333626
1751448483323107000,2.094107177734375,-0.004886918235570192,0.004734201822429895,0.004123337101191282
1751448483341935400,2.112935302734375,-0.004886918235570192,-0.0013744457392022014,0.002290742937475443
1751448483370177800,2.141177734375,-0.006108647678047419,0.007177661173045635,0.004428769461810589
1751448483389006000,2.160006103515625,-0.005803215317428112,0.004428769461810589,0.0032070400193333626
1751448483407834000,2.178834228515625,-0.004886918235570192,0.004428769461810589,0.0038179049734026194
1751448483426662400,2.197662353515625,-0.0054977829568088055,0.007483093533664942,0.005345067009329796
1751448483445490700,2.21649072265625,-0.004886918235570192,0.007483093533664942,0.004734201822429895
1751448483464319000,2.235319091796875,-0.005192350596189499,-0.0010690133785828948,0.002290742937475443
1751448483483147000,2.25414697265625,-0.004886918235570192,0.0010690133785828948,0.0032070400193333626
1751448483501975300,2.272975341796875,-0.004276053514331579,0.009926552884280682,0.004734201822429895
1751448483520803600,2.291803466796875,-0.004276053514331579,0.005955931730568409,0.0038179049734026194
1751448483539631900,2.3106318359375,-0.0054977829568088055,0.0025961752980947495,0.002901607658714056
1751448483558460200,2.329460205078125,-0.005192350596189499,0.016646064817905426,0.006566796451807022
1751448483577288200,2.3482880859375,-0.004886918235570192,0.004123337101191282,0.003512472379952669
1751448483596116500,2.367116455078125,-0.004276053514331579,0.0007635809597559273,0.0032070400193333626
1751448483614944800,2.38594482421875,-0.004886918235570192,0.0038179049734026194,0.004123337101191282
1751448483633773000,2.40477294921875,-0.0054977829568088055,0.009010255336761475,0.005345067009329796
1751448483662015200,2.43301513671875,-0.004581485874950886,0.005955931730568409,0.004123337101191282
1751448483690257700,2.461257568359375,-0.005803215317428112,0.008399390615522861,0.005345067009329796
1751448483709086000,2.4800859375,-0.004886918235570192,-0.0010690133785828948,0.001679878099821508
1751448483746742300,2.5177421875,-0.004886918235570192,0.001679878099821508,0.0038179049734026194
1751448483765570600,2.536570556640625,-0.004886918235570192,0.008704823441803455,0.005345067009329796
1751448483784398800,2.55539892578125,-0.004886918235570192,0.0062613640911877155,0.004123337101191282
1751448483803227100,2.57422705078125,-0.003970621153712273,-0.010537417605519295,0.0001527161948615685
1751448483822055400,2.593055419921875,-0.0054977829568088055,0.002901607658714056,0.0032070400193333626
1751448483840883500,2.611883544921875,-0.005192350596189499,0.010842849500477314,0.005345067009329796
1751448483859711700,2.630711669921875,-0.005192350596189499,0.008704823441803455,0.005039634648710489
1751448483878540000,2.6495400390625,-0.004581485874950886,0.005955931730568409,0.004123337101191282
1751448483897368300,2.668368408203125,-0.004886918235570192,0.007483093533664942,0.005345067009329796
1751448483916196400,2.6871962890625,-0.005192350596189499,0.015729768201708794,0.007177661173045635
1751448483935024600,2.706024658203125,-0.006108647678047419,0.029016077518463135,0.0102319847792387
1751448483953853000,2.72485302734375,-0.004886918235570192,0.007483093533664942,0.004428769461810589
1751448483972681200,2.74368115234375,-0.003970621153712273,0.0010690133785828948,0.003512472379952669
1751448483991509500,2.762509521484375,-0.004581485874950886,0.002901607658714056,0.002901607658714056
1751448484010337500,2.781337646484375,-0.005192350596189499,-0.0007635809597559273,0.002901607658714056
1751448484029165800,2.800165771484375,-0.004276053514331579,-0.004734201822429895,0.0013744457392022014
1751448484047994000,2.818994140625,-0.005192350596189499,0.006566796451807022,0.004428769461810589
1751448484076236500,2.847236572265625,-0.0054977829568088055,0.0102319847792387,0.005345067009329796
1751448484095064600,2.866064697265625,-0.07513637095689774,0.004123337101191282,0.0032070400193333626
1751448484113892900,2.884892822265625,-0.23854269087314606,-0.012370011769235134,-0.0013744457392022014
1751448484132721200,2.90372119140625,-0.3995055556297302,-0.013286309316754341,-0.00045814859913662076
1751448484151549400,2.922549560546875,-0.5057960152626038,-0.01695149764418602,0.0007635809597559273
1751448484170377700,2.941377685546875,-0.5299251675605774,-0.014813470654189587,-0.004428769461810589
1751448484189205800,2.960205810546875,-0.5146535634994507,0.007483093533664942,0.004428769461810589
1751448484208034000,2.979033935546875,-0.5137372612953186,-0.053603384643793106,-0.013897174037992954
1751448484226862300,2.9978623046875,-0.5204567909240723,0.013897174037992954,0.0062613640911877155
1751448484245690600,3.016690673828125,-0.6004800796508789,0.04153880476951599,0.0102319847792387
1751448484264519000,3.035518798828125,-0.6701186895370483,0.0019853105768561363,0.0007635809597559273
1751448484283347000,3.054346923828125,-0.6624828577041626,-0.018784092739224434,-0.001679878099821508
1751448484302175200,3.07317529296875,-0.5876519083976746,-0.016646064817905426,-0.002901607658714056
1751448484321003500,3.09200341796875,-0.499381959438324,-0.03527744114398956,-0.009621120058000088
1751448484339831800,3.110831787109375,-0.4557051360607147,-0.022449281066656113,-0.0062613640911877155
1751448484368074200,3.13907421875,-0.39339691400527954,0.016187917441129684,0.0038179049734026194
1751448484386902300,3.15790234375,-0.41263917088508606,-0.007177661173045635,-0.0001527161948615685
1751448484405730600,3.17673046875,-0.4248564541339874,-0.004734201822429895,0.00045814859913662076
1751448484424558800,3.195558837890625,-0.25992295145988464,-0.03894263133406639,-0.007483093533664942
1751448484443387100,3.21438720703125,0.0772743970155716,-0.0025961752980947495,0.001679878099821508
1751448484462215400,3.23321533203125,0.42394015192985535,-0.03252854943275452,-0.004123337101191282
1751448484481043500,3.25204345703125,1.109025001525879,-0.02458730712532997,-0.00045814859913662076
1751448484499871700,3.270871826171875,1.701563835144043,0.050549060106277466,0.01908952370285988
1751448484518700000,3.289699951171875,1.9489641189575195,0.031154103577136993,0.018173227086663246
1751448484537528300,3.3085283203125,1.915366530418396,0.1948658674955368,0.07223475724458694
1751448484556356600,3.327356689453125,1.7993022203445435,0.047952886670827866,0.03741546720266342
1751448484575185000,3.346184814453125,1.5879429578781128,0.041844237595796585,0.01847865991294384
1751448484594013000,3.365012939453125,1.26021409034729,0.0206166859716177,0.0154243353754282
1751448484612841200,3.38384130859375,0.8167262077331543,0.022449281066656113,0.013897174037992954
1751448484631669500,3.40266943359375,0.379347026348114,0.01802051067352295,0.010842849500477314
1751448484650497800,3.421497802734375,0.025350889191031456,0.008093958720564842,0.005345067009329796
1751448484669326000,3.440326171875,-0.004886918235570192,0.0038179049734026194,0.004123337101191282
1751448484688154400,3.459154296875,-0.004581485874950886,0.001679878099821508,0.0038179049734026194
1751448484706982400,3.477982421875,-0.0054977829568088055,-0.00045814859913662076,0.002901607658714056
1751448484725810700,3.496810791015625,-0.005192350596189499,0.002901607658714056,0.004123337101191282
1751448484744639000,3.515638916015625,-0.04214967042207718,-0.001679878099821508,0.003512472379952669
1751448484763467300,3.53446728515625,-0.46944957971572876,-0.002901607658714056,-0.0013744457392022014
1751448484782295600,3.553295654296875,-1.0424407720565796,-0.05238165333867073,-0.011453714221715927
1751448484801123800,3.572123779296875,-1.5781691074371338,-0.028863361105322838,-0.0102319847792387
1751448484819951900,3.590951904296875,-1.9202533960342407,-0.02458730712532997,-0.024434590712189674
1751448484838780200,3.6097802734375,-2.215606451034546,-0.026419902220368385,-0.017715077847242355
1751448484857608400,3.6286083984375,-2.400698661804199,-0.07345648854970932,-0.013897174037992954
1751448484876436700,3.647436767578125,-2.357632637023926,-0.01511890348047018,-0.01695149764418602
1751448484895265000,3.66626513671875,-2.1609342098236084,-0.058795735239982605,-0.022907428443431854
1751448484914093300,3.68509326171875,-1.9049818515777588,-0.03588830679655075,-0.013286309316754341
1751448484932921300,3.70392138671875,-1.7889175415039062,-0.10644318908452988,-0.015577051788568497
1751448484951749600,3.72274951171875,-1.647196888923645,-0.04046979174017906,-0.011453714221715927
1751448484970578000,3.741577880859375,-1.1111630201339722,-0.01359174121171236,-0.004428769461810589
1751448484989406200,3.76040625,-0.19303326308727264,0.004734201822429895,0.004123337101191282
1751448485008234500,3.779234375,0.4422661066055298,0.009621120058000088,0.0062613640911877155
1751448485027062800,3.798062744140625,1.1209368705749512,0.013286309316754341,0.012980876490473747
1751448485045890800,3.816890869140625,1.8478659391403198,0.047036588191986084,0.02153298258781433
1751448485064719000,3.835718994140625,2.4239113330841064,0.038789913058280945,0.015729768201708794
1751448485083547400,3.85454736328125,2.8463244438171387,0.06597339361906052,0.03191768378019333
1751448485102375700,3.873375732421875,3.0390522480010986,0.02932151034474373,0.020311253145337105
1751448485121204000,3.892203857421875,2.986823320388794,0.06994401663541794,0.04718930274248123
1751448485140032300,3.9110322265625,2.7250678539276123,0.03451386094093323,0.02367101050913334
1751448485158860500,3.929860595703125,2.439182996749878,0.05283980444073677,0.02825249545276165
1751448485177688600,3.9486884765625,2.1160356998443604,0.07788526266813278,0.034666575491428375
1751448485196516900,3.967516845703125,1.6942334175109863,0.09896009415388107,0.03283398225903511
1751448485215345200,3.98634521484375,1.1994329690933228,0.09712749719619751,0.03527744114398956
1751448485234173400,4.00517333984375,0.6102539300918579,0.04917461425065994,0.018784092739224434
1751448485253001700,4.024001708984375,0.06200277432799339,0.02107483521103859,0.008704823441803455
1751448485281244200,4.052244140625,-0.005803215317428112,0.009010255336761475,0.005650499369949102
1751448485300072400,4.071072509765625,-0.09651663154363632,-0.0001527161948615685,0.0038179049734026194
1751448485318900700,4.089900634765625,-0.5534434914588928,-0.025503603741526604,-0.004123337101191282
1751448485337728800,4.108728759765625,-1.2434152364730835,-0.07513637095689774,-0.01282816007733345
1751448485356557000,4.12755712890625,-2.0042474269866943,-0.055741410702466965,-0.02107483521103859
1751448485375385300,4.14638525390625,-2.536921501159668,-0.0539088174700737,-0.021227551624178886
1751448485394213600,4.165213623046875,-2.8802273273468018,-0.07620538026094437,-0.03329212963581085
1751448485413042000,4.1840419921875,-2.9263477325439453,-0.07559451460838318,-0.02871064469218254
1751448485431870200,4.2028701171875,-2.90282940864563,-0.03711003437638283,-0.017867794260382652
1751448485450698500,4.221698486328125,-2.989572286605835,-0.05451968312263489,-0.032070402055978775
1751448485469526800,4.24052685546875,-2.975827693939209,-0.08200860023498535,-0.039858926087617874
1751448485488354800,4.259354736328125,-2.5867068767547607,-0.05696314200758934,-0.026878049597144127
1751448485526011400,4.297011474609375,-0.9694424271583557,-0.011148282326757908,-0.007788525894284248
1751448485544839700,4.315839599609375,0.0824667438864708,0.004734201822429895,0.003512472379952669
1751448485563668000,4.33466796875,0.8564324378967285,0.01908952370285988,0.014202605932950974
1751448485582496300,4.353496337890625,1.7681480646133423,0.0204639695584774,0.0154243353754282
1751448485601324500,4.372324462890625,2.495077133178711,0.04825831577181816,0.02611446939408779
1751448485620152800,4.39115283203125,2.88389253616333,0.07024945318698883,0.03649916872382164
1751448485638981000,4.409981201171875,3.1841325759887695,0.08674279600381851,0.04199695214629173
1751448485657809200,4.42880908203125,3.3820528984069824,0.02107483521103859,0.02306014485657215
1751448485676637400,4.447637451171875,3.3741116523742676,0.02260199747979641,0.02214384824037552
1751448485695465700,4.4664658203125,3.1059420108795166,0.15118902921676636,0.06765327602624893
1751448485714294000,4.4852939453125,2.6169447898864746,0.09651663154363632,0.03741546720266342
1751448485733122300,4.504122314453125,2.0635011196136475,0.035124726593494415,0.02214384824037552
1751448485751950600,4.52295068359375,1.5308271646499634,0.0766635313630104,0.022449281066656113
1751448485770779000,4.54177880859375,0.9511164426803589,0.03741546720266342,0.016340631991624832
1751448485789607200,4.560607177734375,0.231212317943573,0.025503603741526604,0.011148282326757908
1751448485808435500,4.579435546875,-0.02107483521103859,0.007483093533664942,0.005650499369949102
1751448485827263700,4.598263671875,-0.16646064817905426,0.002290742937475443,0.0019853105768561363
1751448485846092000,4.617092041015625,-0.7718276381492615,-0.018173227086663246,-0.005345067009329796
1751448485864920300,4.63592041015625,-1.7956370115280151,-0.08200860023498535,-0.020311253145337105
1751448485883748400,4.654748291015625,-2.752251148223877,-0.06582067906856537,-0.023212861269712448
1751448485902576600,4.67357666015625,-3.3655595779418945,-0.1519526094198227,-0.04428769648075104
1751448485921405000,4.692405029296875,-3.573559045791626,0.020769402384757996,-0.020769402384757996
1751448485940233200,4.711233154296875,-3.5359907150268555,-0.15928299725055695,-0.05894844979047775
1751448485959061500,4.7300615234375,-3.2782058715820312,-0.24694208800792694,-0.09285144507884979
1751448485977889800,4.748889892578125,-2.477972984313965,-0.03497200831770897,-0.02718348242342472
1751448485996718000,4.767718017578125,-1.2977821826934814,0.07819069176912308,0.009621120058000088
1751448486015546400,4.78654638671875,-0.1740964651107788,0.06291907280683517,0.024281874299049377
1751448486034374700,4.805374755859375,0.665842592716217,0.09437860548496246,0.036804601550102234
1751448486053203000,4.824202880859375,1.8222095966339111,0.06291907280683517,0.02916879393160343
1751448486072031200,4.84303125,2.8063127994537354,0.057726722210645676,0.041386090219020844
1751448486090859500,4.861859619140625,3.2586581707000732,0.12064579129219055,0.036193739622831345
1751448486109687800,4.880687744140625,3.349982500076294,0.12980876863002777,0.05635227635502815
1751448486128516000,4.89951611328125,3.414734125137329,0.08460476994514465,0.023365577682852745
1751448486147344100,4.91834423828125,3.266904830932617,0.0668896958231926,0.0386371985077858
1751448486166172400,4.93717236328125,2.853349447250366,-0.02367101050913334,0.0062613640911877155
1751448486185000700,4.956000732421875,2.210414171218872,0.007483093533664942,0.019700389355421066
1751448486203829000,4.9748291015625,1.4972295761108398,0.12278381735086441,0.05329795181751251
1751448486222657300,4.9936572265625,0.6948586702346802,0.07391463965177536,0.031612250953912735
1751448486241485600,5.012485595703125,0.009162971749901772,0.06719512492418289,0.02000582218170166
1751448486260313900,5.03131396484375,-0.035735588520765305,0.05497783049941063,0.012980876490473747
1751448486279142100,5.05014208984375,-0.2816086709499359,0.0007635809597559273,0.003512472379952669
1751448486297970400,5.068970458984375,-1.0870338678359985,-0.008704823441803455,-0.004123337101191282
1751448486316798700,5.087798828125,-2.2009458541870117,-0.05513054504990578,-0.01893680728971958
1751448486335627000,5.106626953125,-3.1752750873565674,-0.1207985132932663,-0.035124726593494415
1751448486354455300,5.125455322265625,-3.8631088733673096,-0.15470150113105774,-0.046425722539424896
1751448486373283600,5.14428369140625,-4.2259626388549805,-0.19501857459545135,-0.06841685622930527
1751448486392111900,5.16311181640625,-4.120588302612305,-0.044440411031246185,-0.03390299528837204
1751448486410940200,5.181940185546875,-3.5998260974884033,-0.04932733252644539,-0.03283398225903511
1751448486429768200,5.200768310546875,-2.8600687980651855,-0.14462223649024963,-0.06902772188186646
1751448486448596500,5.219596435546875,-2.0689990520477295,-0.01908952370285988,-0.009315688163042068
1751448486467424800,5.2384248046875,-1.2803726196289062,0.029474224895238876,0.0019853105768561363
1751448486486253000,5.257253173828125,-0.21135921776294708,0.10659590363502502,0.03436114266514778
1751448486505081300,5.276081298828125,0.5128209590911865,0.04459312930703163,0.017562363296747208
1751448486523909600,5.29490966796875,1.5332705974578857,0.048563748598098755,0.025809036567807198
1751448486542738000,5.313738037109375,2.5555527210235596,0.11331541836261749,0.028557928279042244
1751448486561566200,5.332566162109375,3.2253661155700684,0.09590577334165573,0.04046979174017906
1751448486580394500,5.35139453125,3.511861562728882,0.08368847519159317,0.03955349326133728
1751448486599222800,5.370222900390625,3.5781404972076416,0.13194678723812103,0.05024362727999687
1751448486618051000,5.389051025390625,3.3655595779418945,0.07299833744764328,0.02764163166284561
1751448486636879400,5.40787939453125,2.8713698387145996,0.04459312930703163,0.031612250953912735
1751448486655707600,5.426707763671875,2.2559237480163574,0.12980876863002777,0.04657844081521034
1751448486674536000,5.445535888671875,1.5885539054870605,0.07024945318698883,0.022449281066656113
1751448486693364200,5.4643642578125,0.9456186890602112,0.029932374134659767,0.014202605932950974
1751448486712192500,5.483192626953125,0.4572322964668274,0.018631376326084137,0.008093958720564842
1751448486731020800,5.502020751953125,0.18417572975158691,0.009315688163042068,0.004123337101191282
1751448486749849000,5.52084912109375,0.04062250629067421,0.005650499369949102,0.003512472379952669
1751448486768677400,5.539677490234375,-0.007635809946805239,0.005650499369949102,0.004428769461810589
1751448486787505700,5.558505615234375,-0.272751122713089,-0.012675444595515728,0.001679878099821508
1751448486806334000,5.577333984375,-1.1896591186523438,-0.03588830679655075,-0.004428769461810589
1751448486825162200,5.596162353515625,-2.41963529586792,-0.07712167501449585,-0.025045456364750862
1751448486843990500,5.614990478515625,-3.44283390045166,-0.06826414167881012,-0.03023780696094036
1751448486862818800,5.63381884765625,-4.1282243728637695,-0.23961171507835388,-0.06505709886550903
1751448486881647000,5.652647216796875,-4.433351039886475,-0.16264274716377258,-0.053756099194288254
1751448486900475400,5.671475341796875,-4.3493571281433105,-0.010537417605519295,-0.039706211537122726
1751448486919303700,5.6903037109375,-3.688706874847412,-0.06368265300989151,-0.03283398225903511
1751448486938132000,5.709132080078125,-2.5772385597229004,-0.060933761298656464,-0.021991131827235222
1751448486956960300,5.727960205078125,-1.1508692502975464,-0.025503603741526604,-0.011453714221715927
1751448486975788500,5.74678857421875,0.35277441143989563,-0.007177661173045635,0.002290742937475443
1751448486994616800,5.765616943359375,1.40559983253479,0.021838415414094925,0.01695149764418602
1751448487013445000,5.784445068359375,2.5210390090942383,0.04764745384454727,0.02672533318400383
1751448487032273400,5.8032734375,3.375333309173584,0.09040798991918564,0.04566214233636856
1751448487051101700,5.822101806640625,3.8154613971710205,0.19730933010578156,0.07498364895582199
1751448487069930000,5.840929931640625,3.8466155529022217,0.10537417232990265,0.04932733252644539
1751448487088758300,5.85975830078125,3.6529712677001953,0.11575887352228165,0.03191768378019333
1751448487107586600,5.878586669921875,3.2598798274993896,0.09376774728298187,0.036193739622831345
1751448487126414800,5.897414794921875,2.9245152473449707,0.024434590712189674,0.02306014485657215
1751448487145243100,5.9162431640625,2.5967862606048584,0.059864748269319534,0.02214384824037552
1751448487164071400,5.935071533203125,2.190561056137085,0.0873536616563797,0.03191768378019333
1751448487182899700,5.953899658203125,1.683237910270691,0.0565049909055233,0.022754713892936707
1751448487201728000,5.97272802734375,1.1731657981872559,0.05406153202056885,0.022449281066656113
1751448487220556300,5.991556396484375,0.6349939107894897,0.020922118797898293,0.009621120058000088
1751448487239384600,6.010384521484375,0.1331685185432434,0.009010255336761475,0.005345067009329796
1751448487258212900,6.029212890625,-0.11239911615848541,0.0013744457392022014,0.002901607658714056
1751448487277041200,6.048041259765625,-0.7354812026023865,-0.010537417605519295,-0.0025961752980947495
1751448487295869400,6.066869384765625,-2.182008981704712,-0.055741410702466965,-0.017104214057326317
1751448487314697700,6.08569775390625,-3.780336618423462,-0.10461059212684631,-0.03023780696094036
1751448487333526000,6.104526123046875,-4.901578903198242,-0.08781181275844574,-0.03787361457943916
1751448487352354300,6.123354248046875,-5.404626369476318,-0.22556181252002716,-0.054672397673130035
1751448487371182600,6.1421826171875,-5.334071159362793,-0.31230461597442627,-0.07513637095689774
1751448487390011000,6.161010986328125,-4.496881008148193,-0.1153007298707962,-0.07147117704153061
1751448487408839200,6.179839111328125,-2.861290693283081,-0.040775224566459656,-0.02107483521103859
1751448487427667500,6.19866748046875,-0.8203914165496826,-0.012370011769235134,-0.0019853105768561363
1751448487446495700,6.217495849609375,0.9465349912643433,0.03023780696094036,0.012370011769235134
1751448487465324000,6.236323974609375,2.2592833042144775,0.06017018109560013,0.031612250953912735
1751448487484152300,6.25515234375,3.403127670288086,0.12186752259731293,0.05696314200758934
1751448487502980600,6.273980712890625,4.116006851196289,0.12705987691879272,0.064598947763443
1751448487521809000,6.292808837890625,4.402196884155273,0.1340848207473755,0.06001746281981468
1751448487540637200,6.31163720703125,4.460840225219727,0.11484257876873016,0.049021899700164795
1751448487559465500,6.330465576171875,4.349967956542969,0.04550942778587341,0.033139415085315704
1751448487578293800,6.349293701171875,4.1896162033081055,0.13683371245861053,0.060322895646095276
1751448487597122000,6.3681220703125,4.031707763671875,0.14508038759231567,0.05849030241370201
1751448487615950300,6.386950439453125,3.5924956798553467,0.09560033679008484,0.041386090219020844
1751448487634778600,6.405778564453125,2.844797372817993,0.17058399319648743,0.0642935186624527
1751448487653607000,6.42460693359375,1.9285000562667847,0.0720820426940918,0.02611446939408779
1751448487672435200,6.443435302734375,1.0207550525665283,0.05283980444073677,0.030695954337716103
1751448487691263500,6.462263427734375,0.2556469142436981,0.03145953640341759,0.009010255336761475
1751448487710091800,6.481091796875,-0.09621120244264603,0.011148282326757908,0.0025961752980947495
1751448487728920000,6.499920166015625,-0.3026835024356842,-0.017256930470466614,0.00045814859913662076
1751448487747748400,6.518748291015625,-1.1407899856567383,-0.049021899700164795,-0.00946840364485979
1751448487766576600,6.53757666015625,-2.3295328617095947,-0.046883873641490936,-0.01695149764418602
1751448487785405000,6.556405029296875,-3.5585927963256836,-0.08781181275844574,-0.0360410213470459
1751448487804233200,6.575233154296875,-4.43793249130249,-0.10399972647428513,-0.04214967042207718
1751448487823061800,6.594061767578125,-5.087587356567383,-0.21395538747310638,-0.06963858753442764
1751448487841890000,6.61289013671875,-5.471821308135986,-0.02626718580722809,-0.024740023538470268
1751448487860718300,6.63171826171875,-5.491674423217773,-0.35934120416641235,-0.12461641430854797
1751448487879546600,6.650546630859375,-5.449830055236816,-0.10858121514320374,-0.056810423731803894
1751448487898375000,6.669375,-5.373777389526367,-0.1256854236125946,-0.08063415437936783
1751448487917203200,6.688203125,-5.135234832763672,-0.17058399319648743,-0.08429934084415436
1751448487936031500,6.707031494140625,-4.496270179748535,-0.08048143237829208,-0.04978547990322113
1751448487954859800,6.72585986328125,-3.4993388652801514,0.06627883017063141,0.017562363296747208
1751448487973688000,6.74468798828125,-2.3115122318267822,-0.0386371985077858,-0.03634645417332649
1751448487992516400,6.763516357421875,-1.0833686590194702,-0.017867794260382652,0.006566796451807022
1751448488011344600,6.7823447265625,0.2629773020744324,0.018784092739224434,0.008704823441803455
1751448488030173000,6.8011728515625,0.573602020740509,0.05864302068948746,0.0154243353754282
1751448488049001200,6.820001220703125,1.0769546031951904,0.08002328872680664,0.016035201027989388
1751448488067829500,6.83882958984375,1.8854341506958008,0.10751219838857651,0.02367101050913334
1751448488086657800,6.85765771484375,2.7345361709594727,-0.05849030241370201,0.020922118797898293
1751448488105486000,6.876486083984375,3.515221357345581,0.06841685622930527,0.03802633285522461
1751448488124314400,6.895314453125,4.252840518951416,0.08429934084415436,0.039248060435056686
1751448488143142700,6.914142578125,4.7070183753967285,0.13988803327083588,0.027030766010284424
1751448488161971000,6.932970947265625,4.992598056793213,0.0720820426940918,0.02916879393160343
1751448488180799200,6.95179931640625,5.042688846588135,0.20891575515270233,0.07834340631961823
1751448488199627500,6.97062744140625,4.888751029968262,0.06230820715427399,0.025503603741526604
1751448488218455800,6.989455810546875,4.550942420959473,0.050090912729501724,0.03558287397027016
1751448488256112400,7.0271123046875,3.540266752243042,0.013439024798572063,0.024281874299049377
1751448488274940700,7.045940673828125,2.983768939971924,0.13591741025447845,0.0487164668738842
1751448488293769000,7.06476904296875,2.2953243255615234,0.06047561392188072,0.027947064489126205
1751448488312597200,7.08359716796875,1.6227623224258423,0.17318016290664673,0.052076224237680435
1751448488331425500,7.102425537109375,1.0473276376724243,0.02626718580722809,0.013286309316754341
1751448488350253800,7.12125390625,0.6643154621124268,0.026878049597144127,0.010537417605519295
1751448488369082000,7.14008203125,0.2883281707763672,0.019700389355421066,0.007177661173045635
1751448488387910700,7.15891064453125,-0.024434590712189674,0.002901607658714056,0.004734201822429895
1751448488406739000,7.177739013671875,-0.3952295184135437,-0.009621120058000088,0.0001527161948615685
1751448488425567200,7.196567138671875,-1.510363221168518,-0.02153298258781433,-0.005039634648710489
1751448488444395500,7.2153955078125,-2.7782130241394043,-0.06001746281981468,-0.013897174037992954
1751448488463223800,7.234223876953125,-3.908923625946045,-0.07498364895582199,-0.018325943499803543
1751448488482052000,7.253052001953125,-4.8826422691345215,-0.06582067906856537,-0.01740964688360691
1751448488500880400,7.27188037109375,-5.637365818023682,-0.14340050518512726,-0.05345066636800766
1751448488519708700,7.290708740234375,-6.082075119018555,-0.15409064292907715,-0.05497783049941063
1751448488538537000,7.309536865234375,-6.15904426574707,-0.18952079117298126,-0.08552107214927673
1751448488557365200,7.328365234375,-5.983115196228027,-0.28267768025398254,-0.07941242307424545
1751448488576193500,7.347193603515625,-5.873770236968994,-0.10461059212684631,-0.057726722210645676
1751448488595021800,7.366021728515625,-5.5842204093933105,-0.17027856409549713,-0.0766635313630104
1751448488613850000,7.38485009765625,-4.834689140319824,-0.08903354406356812,-0.05528326332569122
1751448488632678400,7.403678466796875,-3.590663194656372,-0.05238165333867073,-0.05345066636800766
1751448488651506700,7.422506591796875,-1.1145228147506714,0.10476330667734146,0.03894263133406639
1751448488670335000,7.4413349609375,0.45998117327690125,0.019242240116000175,0.011148282326757908
1751448488689163300,7.460163330078125,1.2745693922042847,0.02458730712532997,0.016035201027989388
1751448488707991600,7.478991455078125,2.050367593765259,0.03695731982588768,0.023976443335413933
1751448488726819800,7.49781982421875,2.6169447898864746,0.05864302068948746,0.027336198836565018
1751448488745648000,7.516648193359375,3.1364850997924805,0.03909534588456154,0.022449281066656113
1751448488764476400,7.535476318359375,3.711003541946411,0.0308486707508564,0.02825249545276165
1751448488783304700,7.5543046875,4.14746618270874,0.0694858655333519,0.029474224895238876
1751448488802133000,7.573133056640625,4.442208766937256,0.08002328872680664,0.04505127668380737
1751448488820961300,7.591961181640625,4.580874919891357,0.12583814561367035,0.05696314200758934
1751448488839789600,7.61078955078125,4.641045093536377,0.07360920310020447,0.054214250296354294
1751448488858617900,7.629617919921875,4.595535755157471,0.05558869615197182,0.05940660089254379
1751448488877446100,7.648446044921875,4.4104437828063965,-0.05635227635502815,-0.0019853105768561363
1751448488896274700,7.667274658203125,4.038121700286865,0.017867794260382652,0.06001746281981468
1751448488915103000,7.68610302734375,3.6193737983703613,0.08552107214927673,0.05513054504990578
1751448488933931000,7.704930908203125,3.320050001144409,0.5119046568870544,0.1776089370250702
1751448488952759600,7.723759521484375,2.989877700805664,-0.09850194305181503,-0.00045814859913662076
1751448488971587800,7.742587890625,2.5442519187927246,0.1432477980852127,0.05146535858511925
1751448488990416100,7.761416015625,2.0912954807281494,0.2049451321363449,0.0642935186624527
1751448489009244400,7.780244384765625,1.5332705974578857,0.04581485688686371,0.027030766010284424
1751448489028072700,7.79907275390625,0.7589994668960571,0.02519817277789116,0.012980876490473747
1751448489046901000,7.81790087890625,0.12278381735086441,0.014508038759231567,0.007177661173045635
1751448489065729300,7.836729248046875,-0.38331764936447144,-0.008399390615522861,-0.0001527161948615685
1751448489084557600,7.8555576171875,-0.9847140312194824,-0.021838415414094925,-0.005345067009329796
1751448489103385900,7.8743857421875,-2.001193046569824,-0.04169152304530144,-0.0206166859716177
1751448489122214100,7.893214111328125,-3.1957390308380127,-0.05604684352874756,-0.02458730712532997
1751448489141042400,7.91204248046875,-4.056142330169678,-0.064598947763443,-0.029626941308379173
1751448489159870700,7.93087060546875,-4.661509037017822,-0.08903354406356812,-0.028405211865901947
1751448489178699000,7.949698974609375,-5.15814208984375,-0.18402300775051117,-0.03237583488225937
1751448489197527300,7.96852734375,-5.698146820068359,-0.2997818887233734,-0.07330377399921417
1751448489216355600,7.98735546875,-6.170650482177734,-0.03588830679655075,-0.04825831577181816
1751448489235183900,8.006183837890624,-6.2967939376831055,-0.1464548259973526,-0.07024945318698883
1751448489254012200,8.02501220703125,-6.11811637878418,-0.37461283802986145,-0.1588248461484909
1751448489272840400,8.04384033203125,-5.742434501647949,-0.3764454126358032,-0.1594357043504715
1751448489291668700,8.062668701171875,-5.256491661071777,0.09682206809520721,-0.049480047076940536
1751448489310497000,8.0814970703125,-4.656316757202148,0.2617555558681488,0.04780016839504242
1751448489329325300,8.1003251953125,-3.4605488777160645,-0.08261945843696594,-0.030543239787220955
1751448489348153600,8.119153564453125,-1.3280199766159058,-0.013897174037992954,-0.0007635809597559273
1751448489366982000,8.13798193359375,0.25534147024154663,0.013897174037992954,0.009621120058000088
1751448489385810200,8.15681005859375,1.1136064529418945,0.016646064817905426,0.007788525894284248
1751448489404638500,8.175638427734375,1.5674790143966675,0.017867794260382652,0.012370011769235134
1751448489423466800,8.194466796875,1.889099359512329,0.02611446939408779,0.025503603741526604
1751448489442295000,8.213294921875,2.269057273864746,0.06872228533029556,0.039858926087617874
1751448489461123300,8.232123291015625,2.7036874294281006,0.023212861269712448,0.023365577682852745
1751448489479951600,8.25095166015625,3.0836453437805176,0.20311254262924194,0.0591011680662632
1751448489498780000,8.26977978515625,3.5393505096435547,0.0974329337477684,0.03558287397027016
1751448489517608200,8.288608154296876,3.889681577682495,0.11667517572641373,0.041386090219020844
1751448489536436500,8.3074365234375,4.161211013793945,0.035735588520765305,0.02672533318400383
1751448489555264800,8.3262646484375,4.430907726287842,0.08155044913291931,0.04016435891389847
1751448489574093000,8.345093017578124,4.5423903465271,0.1740964651107788,0.0639880821108818
1751448489592921300,8.36392138671875,4.448011875152588,0.15485422313213348,0.04627300798892975
1751448489611749600,8.38274951171875,4.297433853149414,0.0769689604640007,0.042913250625133514
1751448489630578000,8.401577880859374,4.159989356994629,0.0013744457392022014,0.01908952370285988
1751448489649406200,8.42040625,3.981616735458374,0.028863361105322838,0.02764163166284561
1751448489668234500,8.439234375,3.7702574729919434,0.06780599057674408,0.02458730712532997
1751448489687062800,8.458062744140625,3.560119867324829,0.14691297709941864,0.049632761627435684
1751448489705891000,8.47689111328125,3.2195627689361572,0.03222311660647392,0.03375028073787689
1751448489724719400,8.49571923828125,2.721708059310913,0.12705987691879272,0.0487164668738842
1751448489743547600,8.514547607421875,2.0604469776153564,0.08368847519159317,0.027947064489126205
1751448489762376000,8.5333759765625,1.341459035873413,0.03695731982588768,0.022449281066656113
1751448489781204200,8.552204345703124,0.6707295179367065,0.027030766010284424,0.011453714221715927
1751448489800032500,8.571032470703125,0.24862197041511536,0.013897174037992954,0.008093958720564842
1751448489818860800,8.58986083984375,-0.06475166976451874,0.004734201822429895,0.004123337101191282
1751448489837689000,8.608689208984375,-0.4315759539604187,-0.0010690133785828948,-0.0001527161948615685
1751448489856517400,8.627517333984375,-1.3765838146209717,-0.01359174121171236,-0.004123337101191282
1751448489875345700,8.646345703125,-2.576627731323242,-0.06704241037368774,-0.0154243353754282
1751448489894174000,8.665174072265625,-3.7812530994415283,-0.07223475724458694,-0.024740023538470268
1751448489913002200,8.684002197265626,-4.583623886108398,-0.08109229803085327,-0.04581485688686371
1751448489931830500,8.70283056640625,-5.200597286224365,-0.13484840095043182,-0.037262752652168274
1751448489950658800,8.721658935546875,-5.651721000671387,-0.22647811472415924,-0.06047561392188072
1751448489969487000,8.740487060546876,-5.994110584259033,-0.06246092543005943,-0.04001164436340332
1751448489988315400,8.7593154296875,-6.323061466217041,-0.264046311378479,-0.08613193035125732
1751448490007143700,8.778143798828125,-6.496852397918701,-0.2280052751302719,-0.08155044913291931
1751448490025972000,8.796971923828124,-6.244870662689209,-0.26740604639053345,-0.10384701192378998
1751448490044800300,8.81580029296875,-5.625148296356201,-0.1516471803188324,-0.07422006875276566
1751448490063628500,8.834628662109376,-4.847517490386963,-0.1821904182434082,-0.08949168771505356
1751448490082456800,8.853456787109375,-3.8768532276153564,-0.003512472379952669,-0.03817904740571976
1751448490101285000,8.87228515625,-2.355494499206543,0.09437860548496246,0.004123337101191282
1751448490120113400,8.891113525390624,-0.19272783398628235,-0.007483093533664942,0.003512472379952669
1751448490138941700,8.909941650390625,0.685084879398346,0.02000582218170166,0.01511890348047018
1751448490157770000,8.92877001953125,1.416595458984375,0.04367683082818985,0.026419902220368385
1751448490176598300,8.947598388671874,2.154520034790039,0.027336198836565018,0.021838415414094925
1751448490195426600,8.966426513671875,2.634965181350708,0.14813470840454102,0.041386090219020844
1751448490214254800,8.9852548828125,3.1392340660095215,0.06261363625526428,0.029474224895238876
1751448490233083100,9.004083251953125,3.7562074661254883,0.06352993845939636,0.04046979174017906
1751448490251911400,9.022911376953125,4.36493444442749,0.10934479534626007,0.051159925758838654
1751448490270739700,9.04173974609375,4.683805465698242,0.03940077871084213,0.03436114266514778
1751448490289568000,9.060568115234375,4.767799377441406,0.09682206809520721,0.05177079141139984
1751448490308396300,9.079396240234376,4.8856964111328125,0.287106454372406,0.08261945843696594
1751448490327224600,9.098224609375,4.967857837677002,0.06719512492418289,0.031612250953912735
1751448490346052900,9.117052978515625,4.882031440734863,0.02458730712532997,0.055741410702466965
1751448490364881200,9.135881103515626,4.614167213439941,0.06352993845939636,0.04627300798892975
1751448490383709400,9.15470947265625,4.3014044761657715,0.07941242307424545,0.03649916872382164
1751448490402537700,9.173537841796875,3.9437429904937744,0.1695149689912796,0.061850059777498245
1751448490421366000,9.192365966796874,3.4776532649993896,0.024434590712189674,0.027336198836565018
1751448490440194300,9.2111943359375,2.961167097091675,0.09529490768909454,0.049021899700164795
1751448490459022600,9.230022705078126,2.469420909881592,0.0769689604640007,0.036193739622831345
1751448490477851000,9.248850830078124,1.8842123746871948,0.04917461425065994,0.022449281066656113
1751448490496679200,9.26767919921875,1.2522728443145752,0.03252854943275452,0.013286309316754341
1751448490515507500,9.286507568359376,0.6490437984466553,0.0038179049734026194,0.008093958720564842
1751448490534335700,9.305335693359375,0.0720820426940918,0.02764163166284561,0.007788525894284248
1751448490553164000,9.3241640625,-0.0977383628487587,0.001679878099821508,0.003512472379952669
1751448490571992300,9.342992431640624,-0.49968740344047546,0.0032070400193333626,0.00045814859913662076
1751448490590820600,9.361820556640625,-1.3753620386123657,-0.041386090219020844,-0.005955931730568409
1751448490609649000,9.38064892578125,-2.526231288909912,-0.036193739622831345,-0.017104214057326317
1751448490628477200,9.399477294921875,-3.598909854888916,-0.07864884287118912,-0.026878049597144127
1751448490647305500,9.418305419921875,-4.3322529792785645,-0.08384118974208832,-0.031154103577136993
1751448490666133500,9.437133544921876,-4.8939433097839355,-0.10583232343196869,-0.04306596517562866
1751448490684961800,9.4559619140625,-5.503891468048096,-0.09850194305181503,-0.02932151034474373
1751448490703790000,9.4747900390625,-6.057640552520752,-0.19440771639347076,-0.06811141967773438
1751448490722618400,9.493618408203124,-6.256171703338623,-0.18616104125976562,-0.06994401663541794
1751448490741446700,9.51244677734375,-6.238761901855469,-0.19929464161396027,-0.08643736690282822
1751448490760275000,9.53127490234375,-5.9330244064331055,-0.09819651395082474,-0.05100720748305321
1751448490779103200,9.550103271484375,-5.350564479827881,-0.16844595968723297,-0.06963858753442764
1751448490797931500,9.568931640625,-4.46969747543335,-0.11988221108913422,-0.051618073135614395
1751448490816759800,9.587759765625,-3.1581709384918213,0.09193515032529831,0.009926552884280682
1751448490835588000,9.606588134765625,-1.3643665313720703,-0.005955931730568409,-0.006566796451807022
1751448490854416400,9.62541650390625,0.11575887352228165,0.005650499369949102,0.001679878099821508
1751448490873244700,9.64424462890625,0.8097012639045715,0.046425722539424896,0.020922118797898293
1751448490892073000,9.663072998046875,1.2055416107177734,0.10506874322891235,0.03375028073787689
1751448490910901200,9.6819013671875,1.6588033437728882,0.0717766135931015,0.028863361105322838
1751448490929729500,9.7007294921875,2.202167510986328,0.0821613147854805,0.03405570983886719
1751448490948557800,9.719557861328125,2.768439292907715,0.06414080411195755,0.030390523374080658
1751448490967386000,9.73838623046875,3.274846076965332,0.15668681263923645,0.05696314200758934
1751448490986214400,9.75721435546875,3.65755295753479,0.053756099194288254,0.04260781779885292
1751448491005042700,9.776042724609376,3.9043421745300293,0.17898337543010712,0.027336198836565018
1751448491023871000,9.79487109375,4.190227031707764,0.06612611562013626,0.03252854943275452
1751448491042699300,9.81369921875,4.448317527770996,0.0766635313630104,0.04627300798892975
1751448491061527600,9.832527587890626,4.597368240356445,-0.001679878099821508,0.028863361105322838
1751448491080355800,9.85135595703125,4.484358310699463,0.08918625861406326,0.06001746281981468
1751448491099183900,9.870183837890625,4.287965297698975,0.023823726922273636,0.03802633285522461
1751448491118012200,9.88901220703125,4.040259838104248,-0.08872810751199722,0.03130681812763214
1751448491136840400,9.90784033203125,3.739103317260742,-0.030085090547800064,0.028863361105322838
1751448491155668700,9.926668701171875,3.319439172744751,0.19822561740875244,0.10888664424419403
1751448491174497000,9.9454970703125,2.794400930404663,0.5952877402305603,0.191964253783226
1751448491193325300,9.9643251953125,2.0586142539978027,0.0821613147854805,0.03222311660647392
1751448491212153600,9.983153564453126,1.3768892288208008,0.051618073135614395,0.01695149764418602
1751448491230982000,10.00198193359375,0.9037744402885437,0.022907428443431854,0.01206457894295454
1751448491249810200,10.02081005859375,0.5131264328956604,0.018631376326084137,0.011453714221715927
1751448491268638500,10.039638427734374,0.11117739230394363,0.013897174037992954,0.006872228812426329
1751448491287466800,10.058466796875,-0.0054977829568088055,0.008093958720564842,0.004734201822429895
1751448491306295000,10.077294921875,-0.06444623321294785,0.0013744457392022014,0.001679878099821508
1751448491325123300,10.096123291015624,-0.5332849621772766,-0.0019853105768561363,-0.001679878099821508
1751448491343951600,10.11495166015625,-1.4190388917922974,-0.028557928279042244,-0.004734201822429895
1751448491362779600,10.133779541015626,-2.6859724521636963,-0.02214384824037552,-0.015577051788568497
1751448491381608000,10.15260791015625,-3.7672030925750732,-0.06062832847237587,-0.025961752980947495
1751448491400436200,10.171436279296875,-4.635547161102295,-0.11407899856567383,-0.03283398225903511
1751448491419264500,10.190264404296874,-5.19265604019165,-0.11499529331922531,-0.0360410213470459
1751448491438092800,10.2090927734375,-5.6065168380737305,-0.22128576040267944,-0.06841685622930527
1751448491456921000,10.227921142578126,-5.872548580169678,-0.12415826320648193,-0.05528326332569122
1751448491475749400,10.246749267578124,-5.887209415435791,-0.3407098352909088,-0.09621120244264603
1751448491494577700,10.26557763671875,-5.708225727081299,-0.12782345712184906,-0.07147117704153061
1751448491513406000,10.284406005859376,-5.239997863769531,-0.1977674663066864,-0.07635809481143951
1751448491532234200,10.303234130859375,-4.609585762023926,-0.3966039717197418,-0.16065743565559387
1751448491551062500,10.3220625,-3.7992734909057617,-0.1611155867576599,-0.11392628401517868
1751448491569890800,10.340890869140624,-2.8939719200134277,-0.10583232343196869,-0.06536252796649933
1751448491588719000,10.359718994140625,-1.7919718027114868,-0.01908952370285988,-0.02718348242342472
1751448491607547100,10.378547119140626,-0.09987638890743256,0.39858928322792053,0.13301581144332886
1751448491626375400,10.39737548828125,0.9071341753005981,0.027488915249705315,0.018784092739224434
1751448491645203700,10.41620361328125,1.4657700061798096,0.04764745384454727,0.02672533318400383
1751448491664032000,10.435031982421876,1.8295400142669678,0.05711585655808449,0.02825249545276165
1751448491682860300,10.4538603515625,2.185368776321411,0.14110976457595825,0.04230238497257233
1751448491701688600,10.4726884765625,2.614806652069092,0.013286309316754341,0.01695149764418602
1751448491720516900,10.491516845703124,2.8099780082702637,0.0616973415017128,0.021227551624178886
1751448491739345200,10.51034521484375,2.983768939971924,0.04001164436340332,0.051159925758838654
1751448491758173400,10.52917333984375,3.185659885406494,0.15790854394435883,0.043829549103975296
1751448491777001500,10.54800146484375,3.455967426300049,0.03390299528837204,0.04108065739274025
1751448491795829800,10.566829833984375,3.780336618423462,0.048563748598098755,0.025503603741526604
1751448491814658000,10.585657958984376,3.8820457458496094,0.049480047076940536,0.045967575162649155
1751448491833486300,10.604486328125,3.8402013778686523,0.26022839546203613,0.08170316368341446
1751448491852314600,10.623314697265625,3.7785041332244873,0.0717766135931015,0.040775224566459656
1751448491871143000,10.642142822265624,3.814545154571533,0.05253437161445618,0.010842849500477314
1751448491889971200,10.66097119140625,3.735438108444214,0.10842850059270859,0.036804601550102234
1751448491908799500,10.679799560546876,3.456578254699707,-0.1617264449596405,-0.020769402384757996
1751448491927627800,10.698627685546874,2.984074354171753,0.05894844979047775,0.03558287397027016
1751448491946456000,10.7174560546875,2.560134172439575,0.11087195575237274,0.05696314200758934
1751448491965284000,10.7362841796875,2.215606451034546,0.008246674202382565,0.02611446939408779
1751448491984112400,10.7551123046875,1.76875901222229,0.10690133273601532,0.0591011680662632
1751448492002940700,10.773940673828125,1.214093804359436,0.07086031138896942,0.027947064489126205
1751448492021769000,10.79276904296875,0.62857985496521,0.16310089826583862,0.05299251899123192
1751448492040597200,10.81159716796875,0.20250166952610016,0.018173227086663246,0.009315688163042068
1751448492059425500,10.830425537109376,-0.005803215317428112,0.005955931730568409,0.004734201822429895
1751448492078253800,10.84925390625,-0.11545344442129135,0.0013744457392022014,0.0010690133785828948
1751448492097082000,10.86808203125,-0.6966912746429443,-0.008704823441803455,0.0025961752980947495
1751448492115910400,10.886910400390626,-1.673464059829712,-0.028557928279042244,-0.008246674202382565
1751448492134738400,10.905738525390625,-2.7067418098449707,-0.06490438431501389,-0.02932151034474373
1751448492153566700,10.924566650390625,-3.601658821105957,-0.08842267841100693,-0.024740023538470268
1751448492172395000,10.94339501953125,-4.269944667816162,-0.12171480804681778,-0.04321868345141411
1751448492191223300,10.962223388671875,-4.700299263000488,-0.1715002804994583,-0.056810423731803894
1751448492210051600,10.981051513671876,-4.969690322875977,-0.366060733795166,-0.09560033679008484
1751448492228880000,10.9998798828125,-5.2067060470581055,-0.034666575491428375,-0.03940077871084213
1751448492247708200,11.018708251953125,-5.309942245483398,-0.056657709181308746,-0.05955931544303894
1751448492266536400,11.037536376953126,-5.2461066246032715,-0.21975859999656677,-0.09957095980644226
1751448492285364500,11.056364501953125,-5.010313034057617,-0.25091269612312317,-0.10537417232990265
1751448492304192800,11.07519287109375,-4.552469730377197,-0.2240346521139145,-0.11636973917484283
1751448492323021000,11.09402099609375,-3.763843297958374,-0.2811505198478699,-0.13500112295150757
1751448492341849300,11.112849365234375,-2.7198753356933594,-0.208152174949646,-0.11423171311616898
1751448492360677600,11.131677734375,-1.5964951515197754,-0.04413498193025589,-0.056810423731803894
1751448492379506000,11.150505859375,-0.6026180982589722,0.06261363625526428,0.016035201027989388
1751448492398334200,11.169334228515625,0.164322629570961,0.34147340059280396,0.11835505068302155
1751448492417162200,11.188162353515626,0.732121467590332,0.45967575907707214,0.1406516134738922
1751448492435990500,11.206990478515625,1.4957023859024048,0.09162971377372742,0.03283398225903511
1751448492454818800,11.22581884765625,2.109010696411133,0.08338304609060287,0.030085090547800064
1751448492473647000,11.244647216796874,2.380234718322754,0.03817904740571976,0.025503603741526604
1751448492492475400,11.263475341796875,2.6138904094696045,0.2257145345211029,0.06307178735733032
1751448492511303700,11.2823037109375,2.8848090171813965,0.019853105768561363,0.018173227086663246
1751448492530132000,11.301132080078125,3.1007497310638428,0.04062250629067421,0.021227551624178886
1751448492548960000,11.3199599609375,3.1593925952911377,0.057726722210645676,0.03375028073787689
1751448492567788300,11.338788330078126,3.188103199005127,0.019394956529140472,0.02306014485657215
1751448492586616600,11.357616455078125,3.1615307331085205,0.06352993845939636,0.03955349326133728
1751448492605444900,11.37644482421875,3.1471753120422363,0.15546508133411407,0.06154462695121765
1751448492624273200,11.395273193359374,3.2226171493530273,0.08093958348035812,0.03436114266514778
1751448492643101400,11.414101318359375,3.1505351066589355,-0.009315688163042068,0.02519817277789116
1751448492661929500,11.432929443359376,2.9831581115722656,0.033597562462091446,0.012370011769235134
1751448492680757800,11.4517578125,2.8011205196380615,0.09834922850131989,0.040775224566459656
1751448492699586000,11.4705859375,2.63740873336792,0.11759147047996521,0.03527744114398956
1751448492718414300,11.489414306640626,2.3506076335906982,0.03634645417332649,0.01359174121171236
1751448492737242600,11.50824267578125,1.8976514339447021,0.06383536756038666,0.031612250953912735
1751448492756071000,11.52707080078125,1.5781691074371338,0.04886918142437935,0.02764163166284561
1751448492774899000,11.54589892578125,1.51616632938385,0.0769689604640007,0.028863361105322838
1751448492793727200,11.564727294921875,1.416595458984375,0.005039634648710489,0.01359174121171236
1751448492812555500,11.583555419921876,1.0986403226852417,0.02871064469218254,0.014813470654189587
1751448492831383800,11.6023837890625,0.5387827157974243,0.022296564653515816,0.011453714221715927
1751448492850212000,11.621212158203125,-0.029932374134659767,0.01206457894295454,0.007483093533664942
1751448492869040400,11.640040283203126,-0.34605491161346436,-0.009010255336761475,0.0010690133785828948
1751448492887868400,11.658868408203125,-1.0259474515914917,-0.015729768201708794,-0.008093958720564842
1751448492906696700,11.67769677734375,-1.7534873485565186,-0.017867794260382652,-0.0102319847792387
1751448492925525000,11.69652490234375,-2.3817617893218994,-0.04841103404760361,-0.0206166859716177
1751448492944353300,11.715353271484375,-2.962388753890991,-0.051159925758838654,-0.018631376326084137
1751448492963181600,11.734181640625,-3.5607306957244873,-0.13881902396678925,-0.03222311660647392
1751448492982009600,11.753009521484374,-4.194502830505371,-0.03375028073787689,-0.021380268037319183
1751448493000838000,11.771837890625,-4.640739917755127,-0.14248420298099518,-0.05803215503692627
1751448493019666200,11.790666259765626,-4.923264503479004,-0.18035782873630524,-0.06200277432799339
1751448493047908600,11.81890869140625,-4.871035575866699,-0.0691804364323616,-0.04673115536570549
1751448493066737000,11.83773681640625,-4.614472389221191,-0.08353576064109802,-0.05558869615197182
1751448493085565000,11.85656494140625,-4.211301803588867,-0.007483093533664942,-0.029932374134659767
1751448493104393200,11.875393310546874,-3.738492488861084,-0.10430516302585602,-0.04917461425065994
1751448493123221500,11.894221435546875,-3.2504115104675293,-0.14370593428611755,-0.0720820426940918
1751448493142049800,11.9130498046875,-2.503629207611084,-0.036193739622831345,-0.026878049597144127
1751448493160878000,11.931878173828125,-1.3820815086364746,0.13744457066059113,0.03222311660647392
1751448493179706000,11.9507060546875,-0.20341797173023224,-0.02977965772151947,-0.003512472379952669
1751448493198534400,11.969534423828126,0.6212494969367981,0.03390299528837204,0.012675444595515728
1751448493217362700,11.98836279296875,1.0852012634277344,0.04780016839504242,0.01206457894295454
1751448493236191000,12.00719091796875,1.5561779737472534,0.12003492563962936,0.03955349326133728
1751448493255019300,12.026019287109374,2.043037176132202,0.035124726593494415,0.019700389355421066
1751448493273847600,12.04484765625,2.4929392337799072,0.10048725455999374,0.019394956529140472
1751448493292675600,12.063675537109376,2.978882074356079,0.06612611562013626,0.0334448479115963
1751448493311504000,12.08250390625,3.381136655807495,0.05833758786320686,0.034666575491428375
1751448493330332200,12.101332275390625,3.7238316535949707,0.0977383628487587,0.03375028073787689
1751448493349160400,12.120160400390626,3.995055675506592,0.18387030065059662,0.06337722390890121
1751448493367988500,12.138988525390625,4.196030139923096,0.10598503798246384,0.05238165333867073
1751448493386816800,12.157816650390625,4.315148830413818,0.08796452730894089,0.04230238497257233
1751448493405645000,12.17664501953125,4.334696292877197,0.07544180005788803,0.039248060435056686
1751448493424473300,12.195473388671875,4.285827159881592,-0.01359174121171236,0.03741546720266342
1751448493443301400,12.21430126953125,4.073857307434082,-0.0487164668738842,0.02458730712532997
1751448493462129700,12.233129638671874,3.722304582595825,0.5659661889076233,0.19135339558124542
1751448493480958000,12.2519580078125,3.2198681831359863,-0.04459312930703163,-0.0027488914784044027
1751448493499786200,12.2707861328125,2.6554291248321533,0.10018182545900345,0.03741546720266342
1751448493518614500,12.289614501953125,2.148106098175049,0.03390299528837204,0.0206166859716177
1751448493537442800,12.30844287109375,1.5375466346740723,0.05803215503692627,0.023976443335413933
1751448493556270800,12.327270751953124,0.8558215498924255,0.033139415085315704,0.015729768201708794
1751448493575099100,12.34609912109375,0.2306014597415924,0.02153298258781433,0.007177661173045635
1751448493593927400,12.364927490234376,-0.18845178186893463,0.013897174037992954,0.004428769461810589
1751448493612755500,12.38375537109375,-0.35185810923576355,-0.01908952370285988,-0.001679878099821508
1751448493631583700,12.402583740234375,-0.6991347670555115,-0.03191768378019333,-0.004428769461810589
1751448493650412000,12.421412109375,-1.191491723060608,-0.026419902220368385,-0.005955931730568409
1751448493669240300,12.440240234375,-1.9281946420669556,-0.03436114266514778,-0.013439024798572063
1751448493688068400,12.459068359375,-2.6926920413970947,-0.05787943676114082,-0.021685699000954628
1751448493706896600,12.477896728515624,-3.3716681003570557,-0.07651081681251526,-0.02626718580722809
1751448493725725000,12.496724853515625,-3.813934326171875,-0.10399972647428513,-0.038789913058280945
1751448493744553200,12.51555322265625,-4.170068264007568,-0.2182314395904541,-0.04764745384454727
1751448493763381500,12.534381591796874,-4.610501766204834,-0.16447533667087555,-0.05803215503692627
1751448493782209500,12.55320947265625,-5.079646110534668,-0.23777911067008972,-0.09010255336761475
1751448493801037800,12.572037841796876,-5.393019676208496,0.007330377586185932,-0.04001164436340332
1751448493819866000,12.5908662109375,-5.332849502563477,-0.18096868693828583,-0.08521563559770584
1751448493838694400,12.6096943359375,-4.898219108581543,-0.21914774179458618,-0.08093958348035812
1751448493857522400,12.6285224609375,-4.3017096519470215,-0.09850194305181503,-0.04581485688686371
1751448493876350700,12.647350830078125,-3.7788095474243164,-0.09300415962934494,-0.04276053607463837
1751448493895179000,12.666178955078125,-3.3090546131134033,-0.16539163887500763,-0.056810423731803894
1751448493914007300,12.68500732421875,-2.7308709621429443,0.08979712426662445,0.004428769461810589
1751448493932835300,12.70383544921875,-1.904370903968811,0.008704823441803455,-0.00045814859913662076
1751448493951663600,12.72266357421875,-0.2724456787109375,0.010537417605519295,0.005345067009329796
1751448493970492000,12.741491943359375,0.5137372612953186,0.01206457894295454,0.008704823441803455
1751448493989320000,12.76031982421875,0.8842267394065857,0.011759147047996521,0.014813470654189587
1751448494008148200,12.779148193359376,1.2910627126693726,0.0206166859716177,0.013286309316754341
1751448494026976500,12.7979765625,1.7705916166305542,0.03145953640341759,0.011759147047996521
1751448494045804800,12.8168046875,2.2000296115875244,0.22357651591300964,0.06582067906856537
1751448494064632800,12.8356328125,2.6725335121154785,0.041844237595796585,0.02825249545276165
1751448494083461000,12.854461181640625,3.2678210735321045,0.1026252806186676,0.03558287397027016
1751448494102289400,12.873289306640626,3.886016368865967,0.12705987691879272,0.0435241162776947
1751448494121117700,12.89211767578125,4.211912631988525,0.08888082206249237,0.04169152304530144
1751448494139945700,12.91094580078125,4.354244232177734,0.13530655205249786,0.05299251899123192
1751448494158774000,12.92977392578125,4.465726852416992,0.03940077871084213,0.031612250953912735
1751448494177602300,12.948602294921875,4.4159417152404785,0.08521563559770584,0.04474584385752678
1751448494196430300,12.967430419921875,4.287660121917725,0.036651886999607086,0.02764163166284561
1751448494215258600,12.986258544921874,4.051866054534912,-0.001221729558892548,0.014813470654189587
1751448494234087000,13.0050869140625,3.6786277294158936,-0.027336198836565018,0.002901607658714056
1751448494252915200,13.023915283203126,3.17130446434021,0.06780599057674408,0.049021899700164795
1751448494271743200,13.0427431640625,2.6025893688201904,0.4001164436340332,0.13393209874629974
1751448494290571500,13.061571533203125,1.997527837753296,0.12186752259731293,0.04535670951008797
1751448494309399800,13.08039990234375,1.4282019138336182,0.05589412897825241,0.01908952370285988
1751448494328227800,13.099227783203125,0.8408553600311279,0.02977965772151947,0.009621120058000088
1751448494347056000,13.11805615234375,0.3970620930194855,0.019394956529140472,0.011759147047996521
1751448494365884400,13.136884521484374,-0.07055488228797913,0.0062613640911877155,0.004734201822429895
1751448494384712400,13.15571240234375,-0.35185810923576355,-0.004734201822429895,0.00045814859913662076
1751448494403540700,13.174540771484375,-0.9019418358802795,-0.023976443335413933,-0.0062613640911877155
1751448494422369000,13.193369140625,-1.6710206270217896,-0.03497200831770897,-0.013439024798572063
1751448494441197000,13.212197021484375,-2.5048511028289795,-0.047494735568761826,-0.0154243353754282
1751448494460025300,13.231025390625,-3.2699592113494873,-0.11316270381212234,-0.025350889191031456
1751448494478853600,13.249853515625,-4.017352104187012,-0.058795735239982605,-0.03176496922969818
1751448494497682000,13.268681884765625,-4.572628498077393,-0.13393209874629974,-0.03145953640341759
1751448494516510000,13.287510009765626,-4.903411388397217,-0.2075413018465042,-0.06322450190782547
1751448494535338200,13.306338134765625,-5.047881126403809,-0.07284562289714813,-0.04276053607463837
1751448494554166500,13.32516650390625,-5.0307769775390625,-0.18982623517513275,-0.09437860548496246
1751448494572994600,13.34399462890625,-4.868897914886475,-0.1253799945116043,-0.07605266571044922
1751448494591822800,13.36282275390625,-4.57049036026001,0.09987638890743256,0.016035201027989388
1751448494610651100,13.381651123046876,-4.214661598205566,-0.03451386094093323,-0.03329212963581085
1751448494629479200,13.400479248046874,-3.8121016025543213,-0.09880737960338593,-0.0412333719432354
1751448494648307500,13.419307373046875,-3.3160793781280518,-0.06246092543005943,-0.030543239787220955
1751448494667135700,13.4381357421875,-2.660010576248169,-0.09147699922323227,-0.03695731982588768
1751448494685963800,13.4569638671875,-1.656665325164795,-0.10063996911048889,-0.04046979174017906
1751448494704792000,13.4757919921875,-0.3396408259868622,0.11575887352228165,0.036193739622831345
1751448494723620400,13.494620361328124,0.767551600933075,0.0873536616563797,0.03130681812763214
1751448494742448400,13.513448486328125,1.3487894535064697,0.04734202101826668,0.023365577682852745
1751448494761276700,13.532276611328125,1.9471315145492554,0.0360410213470459,0.018173227086663246
1751448494780105000,13.55110498046875,2.4260494709014893,0.14172062277793884,0.039858926087617874
1751448494798933000,13.56993310546875,2.71010160446167,0.3185659945011139,0.0798705667257309
1751448494817761300,13.58876123046875,3.045466423034668,0.021838415414094925,0.013286309316754341
1751448494836589600,13.607589599609375,3.581500291824341,0.025350889191031456,0.015729768201708794
1751448494855417600,13.62641748046875,4.095848560333252,0.036651886999607086,0.024892739951610565
1751448494874246000,13.645245849609376,4.334085464477539,0.04214967042207718,0.02611446939408779
1751448494893074200,13.66407421875,4.443430423736572,0.07483093440532684,0.03588830679655075
1751448494911902200,13.682902099609375,4.4773335456848145,0.17547090351581573,0.0435241162776947
1751448494930730500,13.70173046875,4.354244232177734,0.0256563201546669,0.01847865991294384
1751448494949558800,13.720558837890625,4.1028733253479,-0.016035201027989388,0.0487164668738842
1751448494968386800,13.73938671875,3.763537883758545,-0.281455934047699,-0.027488915249705315
1751448494987215000,13.758215087890624,3.2568256855010986,0.0334448479115963,0.057268574833869934
1751448495006043400,13.77704345703125,2.6242752075195312,0.10934479534626007,0.0591011680662632
1751448495024871400,13.795871337890626,2.0069961547851562,0.05497783049941063,0.036804601550102234
1751448495043699700,13.81469970703125,1.5131120681762695,0.11362084746360779,0.043829549103975296
1751448495062528000,13.833528076171875,1.0357211828231812,0.17623448371887207,0.060322895646095276
1751448495081356000,13.85235595703125,0.5042688846588135,0.21197007596492767,0.061850059777498245
1751448495100184300,13.871184326171875,0.1331685185432434,0.01954767294228077,0.008399390615522861
1751448495119012600,13.8900126953125,-0.023823726922273636,0.008093958720564842,0.005650499369949102
1751448495137840600,13.908840576171874,-0.2770271897315979,-0.0032070400193333626,-0.00045814859913662076
1751448495156669000,13.9276689453125,-0.9502001404762268,-0.010537417605519295,-0.004428769461810589
1751448495175497000,13.9464970703125,-1.778532862663269,-0.04505127668380737,-0.01435532234609127
1751448495194325200,13.9653251953125,-2.495687961578369,-0.05787943676114082,-0.009926552884280682
1751448495213153500,13.984153564453125,-3.2180356979370117,-0.034666575491428375,-0.02260199747979641
1751448495231981600,14.002981689453126,-3.8041603565216064,-0.13454297184944153,-0.032681263983249664
1751448495250809900,14.021809814453125,-4.2235188484191895,-0.12935061752796173,-0.04520399495959282
1751448495269638100,14.04063818359375,-4.465726852416992,-0.04260781779885292,-0.03023780696094036
1751448495288466200,14.059466064453124,-4.604087829589844,-0.09300415962934494,-0.03298669680953026
1751448495307294500,14.07829443359375,-4.6367692947387695,-0.1311832070350647,-0.04001164436340332
1751448495326122800,14.097122802734376,-4.57049036026001,-0.15317434072494507,-0.043371398001909256
1751448495344950800,14.11595068359375,-4.350273609161377,-0.054214250296354294,-0.04062250629067421
1751448495363779000,14.134779052734375,-3.995971918106079,-0.14431680738925934,-0.0513126403093338
1751448495382607000,14.153607177734376,-3.5390450954437256,-0.1357647031545639,-0.05100720748305321
1751448495401435400,14.172435302734375,-2.7198753356933594,-0.06368265300989151,-0.02626718580722809
1751448495420263700,14.191263671875,-1.5842777490615845,-0.055741410702466965,-0.014660755172371864
1751448495439091700,14.210091796875,-0.6239983439445496,0.03940077871084213,0.016340631991624832
1751448495457920000,14.228919921875,-0.011911863461136818,-0.0013744457392022014,-0.0013744457392022014
1751448495476748000,14.247748046875,0.06597339361906052,0.004428769461810589,0.005345067009329796
1751448495495576300,14.266576416015624,0.007635809946805239,0.008093958720564842,0.005345067009329796
1751448495514404600,14.285404541015625,0.46028661727905273,0.02260199747979641,0.01206457894295454
1751448495533232600,14.304232666015626,1.5360194444656372,0.017104214057326317,0.01695149764418602
1751448495552061000,14.32306103515625,2.6218316555023193,0.004123337101191282,0.009010255336761475
1751448495570889000,14.341888916015625,3.2146759033203125,0.10231985151767731,0.04169152304530144
1751448495589717200,14.36071728515625,3.4373362064361572,0.25473061203956604,0.08384118974208832
1751448495608545500,14.379545654296875,3.439168691635132,0.10720676928758621,0.04841103404760361
1751448495627373600,14.39837353515625,3.7039785385131836,0.11178825795650482,0.042913250625133514
1751448495646201900,14.417201904296874,4.034151077270508,0.08093958348035812,0.03497200831770897
1751448495665030000,14.43602978515625,4.139525413513184,0.056810423731803894,0.04046979174017906
1751448495683858200,14.454858154296875,3.943132162094116,0.05864302068948746,0.036804601550102234
1751448495702686500,14.4736865234375,3.718944787979126,-0.03436114266514778,0.015729768201708794
1751448495721514500,14.492514404296875,3.3765549659729004,0.010842849500477314,0.02977965772151947
1751448495740342800,14.5113427734375,2.8008151054382324,-0.005039634648710489,0.020311253145337105
1751448495759170800,14.5301708984375,2.112370491027832,-0.006872228812426329,0.018173227086663246
1751448495777999000,14.5489990234375,1.5115848779678345,0.11026109009981155,0.05299251899123192
1751448495796827400,14.567827392578126,0.8164207935333252,0.12950333952903748,0.040775224566459656
1751448495815655400,14.586655517578125,0.060781046748161316,0.2211330533027649,0.06704241037368774
1751448495834483700,14.605483642578125,-0.5396990180015564,0.01695149764418602,0.008093958720564842
1751448495853311700,14.624311767578124,-1.2006547451019287,-0.025809036567807198,-0.004123337101191282
1751448495872140000,14.64314013671875,-2.00882887840271,-0.05787943676114082,-0.02412915788590908
1751448495890968000,14.661968017578126,-2.746448040008545,-0.04535670951008797,-0.018325943499803543
1751448495909796400,14.68079638671875,-3.4214537143707275,-0.10888664424419403,-0.029016077518463135
1751448495928624600,14.699624755859375,-3.9605417251586914,-0.15806126594543457,-0.053756099194288254
1751448495947452700,14.71845263671875,-4.321257591247559,-0.1718057245016098,-0.07574722915887833
1751448495966281000,14.737281005859375,-4.553997039794922,-0.19960007071495056,-0.08643736690282822
1751448495985109000,14.75610888671875,-4.739394187927246,-0.2692386507987976,-0.13591741025447845
1751448496003937300,14.774937255859374,-4.796815872192383,-0.3379609286785126,-0.18325942754745483
1751448496022765300,14.793765380859375,-4.686860084533691,-0.15745039284229279,-0.15088360011577606
1751448496041593600,14.812593505859375,-4.363101482391357,-0.04474584385752678,-0.09407317638397217
1751448496060421600,14.831421630859374,-3.7821693420410156,-0.02000582218170166,-0.07971785217523575
1751448496079250000,14.85025,-3.1230461597442627,-0.04841103404760361,-0.06841685622930527
1751448496098078200,14.869078125,-2.4239113330841064,-0.05146535858511925,-0.06841685622930527
1751448496116906200,14.88790625,-0.9798271059989929,0.2006690800189972,0.05543597787618637
1751448496135734500,14.906734619140625,0.050090912729501724,0.3439168632030487,0.12415826320648193
1751448496154562600,14.9255625,0.291687935590744,0.23854269087314606,0.08139773458242416
1751448496173390800,14.944390869140625,0.4944950342178345,0.06047561392188072,0.02214384824037552
1751448496192219000,14.963218994140625,0.7764091491699219,0.08674279600381851,0.024892739951610565
1751448496211047200,14.982047119140624,1.4223986864089966,0.02764163166284561,0.016340631991624832
1751448496229875500,15.00087548828125,2.1532983779907227,0.06337722390890121,0.02519817277789116
1751448496248703500,15.019703369140625,2.7479751110076904,0.06475166976451874,0.04505127668380737
1751448496267531800,15.03853173828125,3.1874923706054688,0.09101885557174683,0.03711003437638283
1751448496286359800,15.05735986328125,3.4022114276885986,0.04734202101826668,0.03405570983886719
1751448496305188000,15.07618798828125,3.5420994758605957,0.22204934060573578,0.06765327602624893
1751448496324016000,15.09501611328125,3.649611711502075,0.12217295914888382,0.03405570983886719
1751448496342844400,15.113844482421875,3.5640904903411865,0.061391908675432205,0.027947064489126205
1751448496361672400,15.13267236328125,3.3661704063415527,0.08491020649671555,0.04932733252644539
1751448496380500700,15.151500732421875,3.2980589866638184,-0.07254019379615784,-0.009315688163042068
1751448496399328800,15.170328857421875,3.177107810974121,0.10629047453403473,0.05971203371882439
1751448496418157000,15.189156982421874,2.9009969234466553,0.02611446939408779,0.03283398225903511
1751448496436985000,15.207985107421875,2.369849920272827,-0.006566796451807022,0.027336198836565018
1751448496455813400,15.2268134765625,1.7791436910629272,0.012370011769235134,0.02458730712532997
1751448496474641400,15.245641357421874,1.3087778091430664,0.021991131827235222,0.010842849500477314
1751448496493469700,15.2644697265625,0.9416480660438538,-0.007177661173045635,0.011453714221715927
1751448496512297700,15.283297607421876,0.6652317643165588,0.013286309316754341,0.018784092739224434
1751448496531126000,15.3021259765625,0.38179048895835876,0.008093958720564842,0.007177661173045635
1751448496549954000,15.3209541015625,0.08155044913291931,-0.0019853105768561363,0.0025961752980947495
1751448496568782300,15.3397822265625,-0.2211330533027649,0.008704823441803455,0.0010690133785828948
1751448496587610600,15.358610595703125,-0.2522871494293213,0.005039634648710489,0.0007635809597559273
1751448496606438700,15.377438720703125,-0.3484983444213867,0.017715077847242355,-0.005039634648710489
1751448496625266700,15.3962666015625,-0.4569268524646759,0.025503603741526604,0.005345067009329796
1751448496644095000,15.415094970703125,-0.5583304166793823,0.11423171311616898,0.016035201027989388
1751448496662923300,15.43392333984375,-0.8848376274108887,-0.04841103404760361,-0.02107483521103859
1751448496681751300,15.452751220703124,-1.518609881401062,-0.06704241037368774,-0.019242240116000175
1751448496700579600,15.47157958984375,-2.179260015487671,0.0412333719432354,0.0038179049734026194
1751448496719407600,15.49040771484375,-2.9382596015930176,-0.21700970828533173,-0.0409279391169548
1751448496738235600,15.509235595703124,-3.60410213470459,-0.04535670951008797,-0.027488915249705315
1751448496757064000,15.52806396484375,-4.157851219177246,-0.03283398225903511,-0.022296564653515816
1751448496775892200,15.546892333984376,-4.5918707847595215,-0.2228129357099533,-0.05528326332569122
1751448496794720300,15.56572021484375,-4.833467483520508,-0.11468986421823502,-0.03940077871084213
1751448496813548500,15.584548583984375,-4.812087535858154,-0.13729186356067657,-0.05864302068948746
1751448496832376600,15.60337646484375,-4.588816165924072,-0.0743727833032608,-0.03451386094093323
1751448496851204600,15.62220458984375,-4.320341110229492,-0.07131846249103546,-0.04306596517562866
1751448496870033000,15.641032958984376,-3.9605417251586914,-0.08170316368341446,-0.021991131827235222
1751448496888861000,15.65986083984375,-3.200015068054199,-0.03130681812763214,-0.020769402384757996
1751448496907689200,15.678689208984375,-2.034485101699829,-0.11866047978401184,-0.03298669680953026
1751448496926517200,15.697517333984376,-0.7107411623001099,-0.06887500733137131,-0.02107483521103859
1751448496945345500,15.716345458984375,0.2834412455558777,0.09468404203653336,0.02825249545276165
1751448496964173600,15.735173583984375,0.9126319885253906,0.0951421856880188,0.03649916872382164
1751448496983001900,15.754001953125,1.4932589530944824,0.04016435891389847,0.017867794260382652
1751448497001830000,15.772829833984375,2.2452335357666016,0.03390299528837204,0.020311253145337105
1751448497020658200,15.791658203125,2.948338747024536,0.03802633285522461,0.031612250953912735
1751448497039486200,15.810486328125,3.5133888721466064,0.06673697382211685,0.03497200831770897
1751448497058314500,15.829314453125,4.084852695465088,0.0925460159778595,0.042913250625133514
1751448497077142500,15.848142578125,4.669755935668945,0.12767073512077332,0.05299251899123192
1751448497095970800,15.866970703125,5.078118801116943,0.1130099818110466,0.04657844081521034
1751448497114798800,15.885798828125,5.158447742462158,0.06963858753442764,0.04810560122132301
1751448497133627100,15.904627197265626,5.000844478607178,0.2684750556945801,0.10308343172073364
1751448497152455200,15.923455078125,4.729315280914307,0.07788526266813278,0.05818486958742142
1751448497171283200,15.942283203125,4.426020622253418,0.10629047453403473,0.044440411031246185
1751448497190111500,15.961111572265626,4.091266632080078,-0.0487164668738842,-0.004123337101191282
1751448497208939500,15.979939453125,3.7226099967956543,0.0038179049734026194,0.027336198836565018
1751448497227767800,15.998767822265625,3.246440887451172,0.13133592903614044,0.04657844081521034
1751448497246595800,16.017595947265626,2.740644931793213,0.291687935590744,0.11224640160799026
1751448497284252200,16.055252197265624,1.9914191961288452,0.04245510324835777,0.024281874299049377
1751448497303080400,16.07408056640625,1.4868448972702026,0.04673115536570549,0.018173227086663246
1751448497321908500,16.092908447265625,0.9049961566925049,0.025503603741526604,0.012370011769235134
1751448497340736500,16.111736572265624,0.235793799161911,0.0025961752980947495,0.003512472379952669
1751448497359564800,16.130564697265626,-0.10323614627122879,-0.015729768201708794,-0.0010690133785828948
1751448497378392800,16.149392822265625,-0.7073814272880554,-0.016340631991624832,-0.005955931730568409
1751448497397221000,16.16822119140625,-1.9587379693984985,-0.03405570983886719,-0.011606430634856224
1751448497416049200,16.187049072265626,-3.266599416732788,-0.05238165333867073,-0.014660755172371864
1751448497434877400,16.20587744140625,-4.254367828369141,-0.08659008145332336,-0.023518294095993042
1751448497453705500,16.22470556640625,-4.914712429046631,-0.04474584385752678,-0.02932151034474373
1751448497472533500,16.243533447265627,-5.468461513519287,-0.2075413018465042,-0.06322450190782547
1751448497491361800,16.26236181640625,-5.844448566436768,-0.32910341024398804,-0.0974329337477684
1751448497510189800,16.28118994140625,-6.01365852355957,-0.07528908550739288,-0.04550942778587341
1751448497529018000,16.30001806640625,-5.831620693206787,-0.32757624983787537,-0.12217295914888382
1751448497547846100,16.31884619140625,-5.441888809204102,-0.2328922003507614,-0.11331541836261749
1751448497566674400,16.33767431640625,-4.927235126495361,-0.27137666940689087,-0.12125665694475174
1751448497585502500,16.35650244140625,-4.305375099182129,-0.13423752784729004,-0.11911863088607788
1751448497604330500,16.37533056640625,-3.5839436054229736,-0.11591159552335739,-0.08338304609060287
1751448497623158800,16.39415869140625,-2.7479751110076904,0.2315177470445633,0.05482511222362518
1751448497641986800,16.41298681640625,-1.6719368696212769,0.2874118685722351,0.07712167501449585
1751448497660815000,16.431815185546874,-0.648127555847168,0.05742128938436508,0.017867794260382652
1751448497679643100,16.45064306640625,0.010384701192378998,0.011759147047996521,0.002901607658714056
1751448497698471200,16.46947119140625,0.3860665261745453,0.017256930470466614,0.009926552884280682
1751448497717299500,16.488299560546874,0.6444623470306396,0.014508038759231567,0.013286309316754341
1751448497736127500,16.50712744140625,0.8646790981292725,0.03283398225903511,0.015729768201708794
1751448497754955800,16.525955810546876,1.3347395658493042,0.07360920310020447,0.021227551624178886
1751448497773783800,16.54478369140625,2.1664319038391113,0.05803215503692627,0.03405570983886719
1751448497792611800,16.56361181640625,3.0527968406677246,0.1516471803188324,0.04199695214629173
1751448497811440000,16.582440185546876,3.78094744682312,0.3179551064968109,0.0746782198548317
1751448497830268200,16.60126806640625,4.331642150878906,0.029474224895238876,0.017256930470466614
1751448497849096200,16.62009619140625,4.658760070800781,0.019394956529140472,0.033139415085315704
1751448497867924500,16.638924560546876,4.86737060546875,0.043371398001909256,0.031612250953912735
1751448497886752500,16.65775244140625,5.024668216705322,0.0256563201546669,0.030085090547800064
1751448497905580800,16.676580810546874,5.121184825897217,0.03145953640341759,0.04474584385752678
1751448497924408800,16.695408935546876,5.10133171081543,0.011759147047996521,0.05238165333867073
1751448497943236900,16.71423681640625,4.831329345703125,0.009621120058000088,0.052076224237680435
1751448497962065200,16.733065185546874,4.40922212600708,-0.004734201822429895,0.046883873641490936
1751448497980893200,16.75189306640625,3.8658578395843506,0.12492185086011887,0.07223475724458694
1751448497999721200,16.77072119140625,3.2336127758026123,0.4266890585422516,0.1464548259973526
1751448498018549500,16.789549560546874,2.6282458305358887,0.19608759880065918,0.07070759683847427
1751448498037377500,16.80837744140625,2.2446227073669434,0.23762640357017517,0.07681624591350555
1751448498056205800,16.827205810546875,1.9709552526474,0.024281874299049377,0.021227551624178886
1751448498075033900,16.846033935546874,1.5042544603347778,0.05406153202056885,0.031612250953912735
1751448498093862000,16.86486181640625,0.8723149299621582,0.025503603741526604,0.014508038759231567
1751448498112690200,16.883690185546875,0.04001164436340332,0.005955931730568409,0.004734201822429895
1751448498131518200,16.902518310546874,-0.22418737411499023,-0.0038179049734026194,0.0013744457392022014
1751448498150346200,16.92134619140625,-0.9089667797088623,-0.01847865991294384,-0.004734201822429895
1751448498169174500,16.940174560546875,-1.963014006614685,-0.027947064489126205,-0.0154243353754282
1751448498188002600,16.95900244140625,-3.0497424602508545,-0.05818486958742142,-0.025961752980947495
1751448498206830600,16.97783056640625,-4.024682521820068,-0.06826414167881012,-0.03817904740571976
1751448498225659000,16.996658935546876,-4.964192867279053,-0.08933897316455841,-0.04367683082818985
1751448498244487000,17.01548681640625,-5.774199485778809,-0.16600249707698822,-0.04153880476951599
1751448498282143200,17.053143310546876,-6.904910087585449,-0.35506516695022583,-0.09896009415388107
1751448498300971300,17.07197119140625,-7.137038707733154,-0.2961167097091675,-0.12965604662895203
1751448498319799300,17.09079931640625,-6.980962753295898,-0.24174973368644714,-0.14263692498207092
1751448498338627600,17.109627685546876,-6.425992012023926,-0.24602578580379486,-0.11239911615848541
1751448498357455600,17.12845556640625,-5.594299793243408,0.21258094906806946,0.03222311660647392
1751448498376283600,17.14728369140625,-4.676780700683594,-0.05849030241370201,-0.025045456364750862
1751448498395112000,17.16611181640625,-3.7140579223632812,-0.020922118797898293,-0.03329212963581085
1751448498413940000,17.18493994140625,-2.557080030441284,-0.04718930274248123,-0.028405211865901947
1751448498432768000,17.20376806640625,-1.3784164190292358,-0.02214384824037552,-0.007483093533664942
1751448498451596300,17.22259619140625,-0.3451386094093323,0.0025961752980947495,0.004428769461810589
1751448498470424300,17.24142431640625,-0.012217295356094837,0.011148282326757908,0.004428769461810589
1751448498489252400,17.26025244140625,-0.004581485874950886,0.005955931730568409,0.003512472379952669
1751448498508080600,17.27908056640625,0.0030543238390237093,0.0019853105768561363,0.0038179049734026194
1751448498526908700,17.29790869140625,0.30573782324790955,-0.0007635809597559273,0.0038179049734026194
1751448498545736700,17.31673681640625,1.1893537044525146,0.027336198836565018,0.01359174121171236
1751448498564565000,17.33556494140625,2.3432772159576416,0.061391908675432205,0.025809036567807198
1751448498583393000,17.35439306640625,3.5915794372558594,0.010995565913617611,0.050549060106277466
1751448498602221000,17.373220947265626,4.54819393157959,0.1340848207473755,0.04321868345141411
1751448498621049300,17.39204931640625,5.140427112579346,0.22174391150474548,0.06520981341600418
1751448498639877400,17.41087744140625,5.288561820983887,0.24923282861709595,0.07620538026094437
1751448498658705400,17.429705322265626,5.258629322052002,0.0769689604640007,0.04230238497257233
1751448498677533700,17.44853369140625,5.089725494384766,0.2837466895580292,0.0850629210472107
1751448498696361700,17.46736181640625,4.950753688812256,0.09651663154363632,0.025503603741526604
1751448498715189800,17.486189697265626,4.696022987365723,-0.007177661173045635,0.03252854943275452
1751448498734017800,17.505017822265625,4.302931308746338,-0.03405570983886719,0.014202605932950974
1751448498752846000,17.52384619140625,3.793775796890259,0.3020726442337036,0.11896591633558273
1751448498771674000,17.542674072265626,3.3347108364105225,0.210442915558815,0.0691804364323616
1751448498790502100,17.561502197265625,2.8466298580169678,0.07483093440532684,0.030085090547800064
1751448498809330400,17.580330322265624,2.341139316558838,0.022754713892936707,0.016340631991624832
1751448498828158500,17.599158447265626,1.8918482065200806,0.04306596517562866,0.021838415414094925
1751448498846986500,17.617986572265625,1.6218459606170654,0.0412333719432354,0.016646064817905426
1751448498865814800,17.636814697265624,1.4324779510498047,0.025045456364750862,0.016646064817905426
1751448498884642800,17.655642822265627,1.00762140750885,0.030543239787220955,0.014508038759231567
1751448498903470800,17.674470947265625,0.21807873249053955,0.023212861269712448,0.009621120058000088
1751448498922299000,17.693298828125,-0.47433650493621826,0.012980876490473747,0.003512472379952669
1751448498941127200,17.712127197265627,-1.4782928228378296,-0.02367101050913334,-0.005955931730568409
1751448498959955200,17.730955078125,-2.7843215465545654,-0.02672533318400383,-0.007177661173045635
1751448498978783200,17.749783203125,-3.930914878845215,-0.10430516302585602,-0.027488915249705315
1751448498997611300,17.768611328125,-4.813614368438721,-0.10308343172073364,-0.032681263983249664
1751448499016439600,17.787439453125,-5.560702323913574,-0.11163553595542908,-0.04520399495959282
1751448499035267600,17.806267578125,-6.115672588348389,-0.18585561215877533,-0.06811141967773438
1751448499054095600,17.825095703125,-6.615360260009766,-0.07009673118591309,-0.053145237267017365
1751448499072924000,17.843923828125,-6.930261135101318,-0.4543306827545166,-0.14691297709941864
1751448499091752000,17.862751953125,-6.76257848739624,-0.11163553595542908,-0.07880155742168427
1751448499110580000,17.881580078125,-6.325199127197266,-0.3474293351173401,-0.17119485139846802
1751448499129408000,17.900407958984374,-5.750986576080322,-0.4754055142402649,-0.2205221801996231
1751448499148236300,17.919236328125,-4.975799083709717,-0.19501857459545135,-0.13958260416984558
1751448499167064300,17.938064208984375,-3.7293295860290527,0.34116798639297485,0.03252854943275452
1751448499185892400,17.956892333984374,-1.3463460206985474,0.21838416159152985,0.06887500733137131
1751448499204720400,17.975720458984377,0.2611446976661682,0.16768237948417664,0.04627300798892975
1751448499223548700,17.994548583984376,1.1420117616653442,0.020769402384757996,0.006872228812426329
1751448499242376700,18.013376708984374,2.0436480045318604,0.03390299528837204,0.020922118797898293
1751448499261204700,18.032204833984373,2.6954407691955566,0.0513126403093338,0.027947064489126205
1751448499280033000,18.051032958984376,3.0195045471191406,0.04428769648075104,0.03558287397027016
1751448499298861000,18.069861083984375,3.129154920578003,0.09834922850131989,0.04016435891389847
1751448499317689000,18.088689208984373,3.624260663986206,0.08857539296150208,0.028557928279042244
1751448499336517000,18.10751708984375,4.105927467346191,0.05558869615197182,0.040775224566459656
1751448499355345400,18.126345458984375,4.344775676727295,0.06444623321294785,0.06307178735733032
1751448499374173400,18.14517333984375,4.579347610473633,0.11362084746360779,0.04046979174017906
1751448499393001500,18.16400146484375,4.932733058929443,0.2055560052394867,0.05299251899123192
1751448499411829500,18.18282958984375,5.070788383483887,0.023518294095993042,0.036193739622831345
1751448499430657800,18.20165771484375,5.101637363433838,0.023212861269712448,0.046883873641490936
1751448499449485800,18.22048583984375,5.141037940979004,-0.0435241162776947,0.04932733252644539
1751448499468313900,18.23931396484375,4.813614368438721,0.0412333719432354,0.06765327602624893
1751448499487142000,18.258141845703125,4.070497512817383,0.26878049969673157,0.13393209874629974
1751448499505970000,18.276969970703124,2.9932374954223633,0.2559523284435272,0.09269873052835464
1751448499524798200,18.295798095703127,1.9428554773330688,0.2811505198478699,0.08659008145332336
1751448499543626200,18.314626220703126,1.2889246940612793,0.053145237267017365,0.0206166859716177
1751448499562454300,18.333454345703124,0.9358448386192322,0.025809036567807198,0.009010255336761475
1751448499581282600,18.352282470703123,0.5671879649162292,0.03176496922969818,0.01511890348047018
1751448499600110600,18.371110595703126,0.0925460159778595,0.011759147047996521,0.006872228812426329
1751448499618938600,18.389938720703125,-0.19914191961288452,0.0062613640911877155,0.002901607658714056
1751448499637766700,18.4087666015625,-0.8775072693824768,-0.012370011769235134,-0.008093958720564842
1751448499656594700,18.4275947265625,-2.177122116088867,-0.03558287397027016,-0.013439024798572063
1751448499675423000,18.446423095703125,-3.5585927963256836,-0.052076224237680435,-0.01908952370285988
1751448499694251000,18.4652509765625,-4.661509037017822,-0.06001746281981468,-0.01954767294228077
1751448499713079000,18.4840791015625,-5.625759124755859,-0.17944152653217316,-0.04367683082818985
1751448499731907000,18.502906982421877,-6.502961158752441,-0.13545925915241241,-0.05100720748305321
1751448499750735400,18.5217353515625,-7.105578899383545,-0.15470150113105774,-0.05497783049941063
1751448499769563400,18.5405634765625,-7.241801738739014,-0.35995206236839294,-0.08857539296150208
1751448499788391400,18.559391357421877,-6.93606424331665,-0.351705402135849,-0.1130099818110466
1751448499807219500,18.578219482421876,-6.346579551696777,-0.26679518818855286,-0.12125665694475174
1751448499826047500,18.597047607421874,-5.482511520385742,-0.21914774179458618,-0.11667517572641373
1751448499844875800,18.615875732421873,-4.641045093536377,-0.14828743040561676,-0.1029307171702385
1751448499863703800,18.634703857421876,-3.979478597640991,0.05894844979047775,-0.018631376326084137
1751448499882531800,18.65353173828125,-3.230252981185913,-0.031001387163996696,-0.012522728182375431
1751448499901359900,18.67235986328125,-2.249509572982788,-0.07131846249103546,-0.037262752652168274
1751448499920188000,18.69118798828125,-0.9541707634925842,0.025809036567807198,0.0032070400193333626
1751448499939016200,18.71001611328125,0.07788526266813278,0.06444623321294785,0.022754713892936707
1751448499957844200,18.72884423828125,0.5503891706466675,0.2315177470445633,0.06368265300989151
1751448499976672300,18.74767236328125,1.107803225517273,0.028557928279042244,0.016340631991624832
1751448499995500300,18.766500244140627,1.6670500040054321,0.04520399495959282,0.024892739951610565
1751448500014328600,18.78532861328125,2.3435826301574707,0.04886918142437935,0.033139415085315704
1751448500033156600,18.804156494140624,3.299891471862793,0.06108647957444191,0.004123337101191282
1751448500051984600,18.822984619140627,4.122420787811279,0.06337722390890121,0.03405570983886719
1751448500070812700,18.841812744140626,4.640739917755127,0.1646280586719513,0.04993819445371628
1751448500089640700,18.860640625,4.8072004318237305,0.15668681263923645,0.046883873641490936
1751448500108468700,18.87946875,4.838354587554932,0.3481929302215576,0.08781181275844574
1751448500127297000,18.898297119140626,4.998095512390137,0.07452550530433655,0.033139415085315704
1751448500146125000,18.917125,5.139205455780029,0.06291907280683517,0.037720900028944016
1751448500164953000,18.935953125,5.210981845855713,0.035124726593494415,0.03130681812763214
1751448500183781000,18.954781005859374,5.185936450958252,0.0019853105768561363,0.05146535858511925
1751448500202609200,18.973609130859376,5.165778160095215,0.019242240116000175,0.029474224895238876
1751448500221437400,18.9924375,4.906160354614258,0.016187917441129684,0.06123919412493706
1751448500240265500,19.011265380859374,4.420217514038086,-0.03649916872382164,0.02306014485657215
1751448500259093500,19.030093505859377,3.581500291824341,0.013897174037992954,0.0539088174700737
1751448500277921500,19.048921630859375,2.453843832015991,0.06536252796649933,0.05451968312263489
1751448500296749600,19.06774951171875,1.293506145477295,0.3640754222869873,0.11743875592947006
1751448500315577900,19.086577880859377,0.5308414697647095,0.37354379892349243,0.1107192412018776
1751448500334406000,19.105406005859376,0.23518294095993042,0.014508038759231567,0.007788525894284248
1751448500353234000,19.12423388671875,-0.038789913058280945,0.013897174037992954,0.005345067009329796
1751448500372062000,19.14306201171875,-0.21655155718326569,0.005345067009329796,0.0010690133785828948
1751448500390890000,19.161889892578124,-0.8491020202636719,-0.009926552884280682,-0.003512472379952669
1751448500409718000,19.180718017578126,-1.9828671216964722,-0.04932733252644539,-0.011759147047996521
1751448500428546300,19.19954638671875,-3.0830345153808594,-0.04780016839504242,-0.014660755172371864
1751448500447374300,19.218374267578124,-4.025599002838135,-0.11407899856567383,-0.03481929376721382
1751448500466202400,19.237202392578126,-4.730842113494873,-0.08200860023498535,-0.021685699000954628
1751448500485030400,19.256030517578125,-5.291921615600586,-0.15347976982593536,-0.0461202897131443
1751448500503858400,19.2748583984375,-5.7210540771484375,-0.1971566081047058,-0.04917461425065994
1751448500522686700,19.293686767578127,-6.058557033538818,-0.23228132724761963,-0.07757982611656189
1751448500541514800,19.3125146484375,-6.181035041809082,-0.05451968312263489,-0.05192350596189499
1751448500560342800,19.3313427734375,-6.082991600036621,-0.22953243553638458,-0.06933315098285675
1751448500579170800,19.3501708984375,-5.783056735992432,-0.15928299725055695,-0.04734202101826668
1751448500597998800,19.368998779296874,-5.381718635559082,-0.057268574833869934,-0.0409279391169548
1751448500616827000,19.387826904296876,-4.886307239532471,-0.13209950923919678,-0.05070177838206291
1751448500635655000,19.406655029296875,-4.183507442474365,-0.10216713696718216,-0.05558869615197182
1751448500654483200,19.425483154296874,-3.244302749633789,-0.3413206934928894,-0.10323614627122879
1751448500673311200,19.444311279296876,-2.070526123046875,0.03298669680953026,0.009010255336761475
1751448500692139300,19.46313916015625,-0.6832522749900818,0.15546508133411407,0.05238165333867073
1751448500710967300,19.48196728515625,0.4043924808502197,0.01908952370285988,0.011759147047996521
1751448500729795300,19.50079541015625,0.9303470849990845,0.0925460159778595,0.030695954337716103
1751448500748623400,19.519623291015623,1.4679080247879028,0.024281874299049377,0.008093958720564842
1751448500767451400,19.538451416015626,2.069915294647217,0.05497783049941063,0.013897174037992954
1751448500786279700,19.55727978515625,2.6755876541137695,0.036651886999607086,0.016035201027989388
1751448500805107700,19.576107666015623,3.1694719791412354,0.05742128938436508,0.03130681812763214
1751448500823935700,19.594935791015626,3.746433734893799,0.0412333719432354,0.036193739622831345
1751448500842763800,19.613763671875,4.39669942855835,0.1386663019657135,0.05451968312263489
1751448500861591800,19.632591796875,4.965108871459961,0.21685700118541718,0.07162389904260635
1751448500880419800,19.651419921875,5.277871608734131,0.11087195575237274,0.0642935186624527
1751448500899248000,19.670248046875,5.450440883636475,0.11667517572641373,0.043829549103975296
1751448500918076200,19.689076171875,5.439445495605469,0.2715294063091278,0.0746782198548317
1751448500936904200,19.707904296875,5.288867473602295,0.10965022444725037,0.03375028073787689
1751448500955732200,19.726732177734377,4.910741806030273,0.0038179049734026194,0.03649916872382164
1751448500974560300,19.745560302734376,4.414414405822754,-0.06643154472112656,0.001679878099821508
1751448500993388300,19.76438818359375,3.920530080795288,0.24037529528141022,0.10338886082172394
1751448501012216300,19.78321630859375,3.5866925716400146,0.03634645417332649,0.03283398225903511
1751448501031044400,19.80204443359375,3.1496188640594482,0.08368847519159317,0.051159925758838654
1751448501049872600,19.82087255859375,2.5613560676574707,0.05742128938436508,0.03191768378019333
1751448501068700700,19.83970068359375,1.823125958442688,0.16096286475658417,0.05146535858511925
1751448501087528700,19.85852880859375,1.000596523284912,0.029932374134659767,0.015729768201708794
1751448501106356700,19.877356689453126,0.21746785938739777,0.019394956529140472,0.009315688163042068
1751448501125184800,19.896184814453125,-0.023518294095993042,0.005650499369949102,0.003512472379952669
1751448501144012800,19.9150126953125,-0.22663083672523499,0.0001527161948615685,0.0010690133785828948
1751448501162840800,19.9338408203125,-0.9459241032600403,-0.011759147047996521,-0.0025961752980947495
1751448501181669000,19.952669189453125,-1.9853105545043945,-0.04535670951008797,-0.012217295356094837
1751448501209911000,19.9809111328125,-3.598299026489258,-0.05238165333867073,-0.021685699000954628
1751448501228739000,19.999739013671874,-4.461451053619385,-0.08689551800489426,-0.025503603741526604
1751448501247567000,20.018567138671877,-5.048186302185059,-0.13545925915241241,-0.02871064469218254
1751448501266395100,20.03739501953125,-5.469072341918945,-0.10583232343196869,-0.04306596517562866
1751448501285223400,20.056223388671874,-5.831009864807129,-0.2548833191394806,-0.0616973415017128
1751448501304051500,20.075051513671873,-6.1932525634765625,-0.26740604639053345,-0.08124501258134842
1751448501322879500,20.09387939453125,-6.4140801429748535,-0.258853942155838,-0.09040798991918564
1751448501341707500,20.11270751953125,-6.2323479652404785,-0.12721258401870728,-0.061391908675432205
1751448501360535600,20.13153564453125,-5.658745765686035,-0.09911280870437622,-0.06750056147575378
1751448501379363600,20.150363525390624,-4.8212504386901855,-0.0899498388171196,-0.05100720748305321
1751448501398191600,20.169191650390626,-3.959014654159546,-0.11652245372533798,-0.04062250629067421
1751448501417019600,20.18801953125,-2.833496332168579,0.007635809946805239,-0.010690134018659592
1751448501435847700,20.20684765625,-1.2696824073791504,0.008704823441803455,0.007788525894284248
1751448501454676000,20.225676025390626,-0.20677772164344788,-0.04841103404760361,-0.007177661173045635
1751448501473504000,20.24450390625,0.21258094906806946,0.03817904740571976,0.0154243353754282
1751448501492332000,20.26333203125,0.3246746361255646,0.011453714221715927,0.005345067009329796
1751448501511160000,20.28216015625,0.5913171172142029,0.021838415414094925,0.007483093533664942
1751448501529988000,20.300988037109374,1.1420117616653442,0.04153880476951599,0.02000582218170166
1751448501548816100,20.319816162109376,1.9343032836914062,0.04062250629067421,0.019700389355421066
1751448501567644200,20.33864404296875,2.6945245265960693,0.03023780696094036,0.027336198836565018
1751448501586472200,20.35747216796875,3.456272840499878,0.05803215503692627,0.031612250953912735
1751448501605300200,20.37630029296875,4.141357898712158,0.06719512492418289,0.031612250953912735
1751448501624128300,20.395128173828127,4.763217926025391,0.21975859999656677,0.053603384643793106
1751448501642956500,20.41395654296875,5.341707229614258,0.06291907280683517,0.03252854943275452
1751448501661784600,20.43278466796875,5.706393241882324,0.06719512492418289,0.024281874299049377
1751448501680612600,20.451612548828123,5.913171291351318,0.025961752980947495,0.02214384824037552
1751448501699440600,20.470440673828126,5.962956428527832,0.04276053607463837,0.04474584385752678
1751448501718268700,20.4892685546875,5.80565881729126,-0.011148282326757908,0.046883873641490936
1751448501737096700,20.5080966796875,5.350259304046631,0.053145237267017365,0.06704241037368774
1751448501755924700,20.5269248046875,4.5894269943237305,0.17653992772102356,0.08659008145332336
1751448501774752800,20.545752685546876,3.7962191104888916,0.48563748598098755,0.1617264449596405
1751448501793580800,20.564580810546875,3.035081624984741,0.0824667438864708,0.030085090547800064
1751448501812408800,20.583408935546874,2.344499111175537,0.05803215503692627,0.021227551624178886
1751448501831237000,20.602237060546877,1.859777808189392,0.05436696484684944,0.02672533318400383
1751448501850065200,20.621065185546875,1.408348798751831,0.028557928279042244,0.009010255336761475
1751448501868893200,20.63989306640625,0.7834340929985046,0.02458730712532997,0.013286309316754341
1751448501887721200,20.65872119140625,0.04764745384454727,0.010537417605519295,0.007788525894284248
1751448501906549200,20.67754931640625,-0.291687935590744,-0.0001527161948615685,0.0010690133785828948
1751448501925377300,20.696377197265626,-1.0610721111297607,-0.017562363296747208,-0.0062613640911877155
1751448501944205300,20.715205322265625,-2.1337506771087646,-0.0487164668738842,-0.010537417605519295
1751448501963033300,20.734033447265624,-3.2238388061523438,-0.07864884287118912,-0.030543239787220955
1751448501981861400,20.752861328125,-4.1590728759765625,-0.06307178735733032,-0.036651886999607086
1751448502000689400,20.771689453125,-4.948615550994873,-0.11652245372533798,-0.050090912729501724
1751448502019517400,20.790517333984376,-5.602546215057373,-0.09972367435693741,-0.032681263983249664
1751448502038345500,20.809345458984374,-6.026792049407959,-0.2078467458486557,-0.056199558079242706
1751448502057173500,20.828173583984373,-6.1260576248168945,-0.17974695563316345,-0.06261363625526428
1751448502076001500,20.84700146484375,-6.085129737854004,-0.13240493834018707,-0.04764745384454727
1751448502094829800,20.865829833984375,-5.975784778594971,-0.08720094710588455,-0.04734202101826668
1751448502113657900,20.884657958984373,-5.766563415527344,-0.28267768025398254,-0.09437860548496246
1751448502132486000,20.90348583984375,-5.1844096183776855,-0.14828743040561676,-0.06841685622930527
1751448502151314000,20.92231396484375,-4.168846607208252,-0.471129447221756,-0.1902843713760376
1751448502170142000,20.941141845703125,-3.05432391166687,-0.304974228143692,-0.1386663019657135
1751448502188970000,20.959969970703124,-1.8280128240585327,-0.06765327602624893,-0.05833758786320686
1751448502207798000,20.978798095703127,-0.702799916267395,0.10751219838857651,0.02977965772151947
1751448502226626000,20.9976259765625,0.05039634555578232,0.21135921776294708,0.07620538026094437
1751448502245454000,21.0164541015625,0.2764163017272949,0.33750277757644653,0.11988221108913422
1751448502264282000,21.0352822265625,0.7183769941329956,0.19425499439239502,0.07070759683847427
1751448502283110100,21.054110107421874,1.3109158277511597,0.020769402384757996,0.01511890348047018
1751448502301938200,21.072938232421876,1.9318598508834839,0.028405211865901947,0.018784092739224434
1751448502320766200,21.09176611328125,2.539975643157959,0.0409279391169548,0.02519817277789116
1751448502339594200,21.11059423828125,3.1890196800231934,0.10888664424419403,0.039248060435056686
1751448502358422300,21.12942236328125,3.838979721069336,0.13652828335762024,0.04780016839504242
1751448502377250300,21.148250244140623,4.302931308746338,0.12034036219120026,0.05635227635502815
1751448502396078600,21.16707861328125,4.562243461608887,0.16310089826583862,0.049021899700164795
1751448502414906400,21.18590625,4.678918838500977,0.10766492038965225,0.017256930470466614
1751448502433734700,21.204734619140623,4.702742576599121,0.05711585655808449,0.05940660089254379
1751448502452562700,21.223562744140626,4.746419429779053,0.043371398001909256,0.028863361105322838
1751448502471390700,21.242390625,4.689914226531982,0.00045814859913662076,0.04413498193025589
1751448502490218800,21.26121875,4.534449100494385,0.023212861269712448,0.051159925758838654
1751448502509046800,21.280046875,4.1532697677612305,0.1795942485332489,0.10461059212684631
1751448502527874800,21.298874755859377,3.6612181663513184,-0.027947064489126205,0.016646064817905426
1751448502546702800,21.317702880859375,3.134958028793335,0.1081230640411377,0.06337722390890121
1751448502565531000,21.33653076171875,2.6416847705841064,0.20738859474658966,0.0746782198548317
1751448502584359000,21.35535888671875,2.386648654937744,0.15027274191379547,0.05451968312263489
1751448502603187000,21.37418701171875,2.170707941055298,0.03558287397027016,0.016646064817905426
1751448502622015000,21.393014892578126,1.7037018537521362,0.047952886670827866,0.02306014485657215
1751448502640843000,21.411843017578125,0.9056070446968079,0.03130681812763214,0.012675444595515728
1751448502659671000,21.430671142578124,-0.012217295356094837,0.01588248461484909,0.005650499369949102
1751448502678499000,21.4494990234375,-0.22754712402820587,-0.0019853105768561363,0.0013744457392022014
1751448502697327000,21.4683271484375,-0.8567378520965576,-0.01511890348047018,-0.0019853105768561363
1751448502716155100,21.487155029296876,-1.6563597917556763,-0.04505127668380737,-0.012675444595515728
1751448502734983200,21.505983154296874,-2.666119337081909,-0.052687086164951324,-0.015271619893610477
1751448502753811200,21.524811279296873,-3.6590800285339355,-0.06276635825634003,-0.02260199747979641
1751448502772639200,21.54363916015625,-4.682278633117676,-0.11835505068302155,-0.0461202897131443
1751448502791467300,21.56246728515625,-5.705477237701416,-0.22617268562316895,-0.07483093440532684
1751448502810295300,21.58129541015625,-6.316341876983643,-0.16875138878822327,-0.049480047076940536
1751448502829123300,21.600123291015624,-6.495630741119385,-0.14462223649024963,-0.07635809481143951
1751448502847951600,21.61895166015625,-6.453481197357178,-0.07620538026094437,-0.04367683082818985
1751448502866779400,21.637779296875,-6.210051536560059,-0.2994764447212219,-0.1127045527100563
1751448502885607400,21.656607421875,-5.948601245880127,-0.5694786906242371,-0.23472478985786438
1751448502904435700,21.675435791015627,-5.474875450134277,-0.35506516695022583,-0.21471896767616272
1751448502923263700,21.694263671875,-4.65570592880249,-0.07131846249103546,-0.1185077652335167
1751448502942091800,21.713091796875,-3.7122251987457275,0.12186752259731293,-0.0616973415017128
1751448502960919600,21.73191943359375,-2.673755168914795,0.15256348252296448,0.011453714221715927
1751448502979747800,21.750747802734374,-1.499367594718933,0.025961752980947495,0.004123337101191282
1751448502998575900,21.769575927734376,-0.3035998046398163,0.08521563559770584,0.034666575491428375
1751448503017404000,21.78840380859375,0.4581485986709595,0.462424635887146,0.17058399319648743
1751448503036232000,21.80723193359375,1.2886192798614502,0.022296564653515816,0.008399390615522861
1751448503055060000,21.82606005859375,2.283412456512451,0.06414080411195755,0.029474224895238876
1751448503073888000,21.844887939453123,3.0531022548675537,0.16340632736682892,0.040775224566459656
1751448503092716000,21.863716064453126,3.652055025100708,0.1744018942117691,0.04321868345141411
1751448503111544000,21.8825439453125,4.106843948364258,0.29016077518463135,0.07498364895582199
1751448503130372000,21.9013720703125,4.556440353393555,0.004734201822429895,0.02000582218170166
1751448503149200100,21.9202001953125,4.7736029624938965,0.04459312930703163,0.03649916872382164
1751448503168028200,21.939028076171876,4.871952056884766,0.022449281066656113,0.0383317656815052
1751448503186856200,21.957856201171875,4.937009334564209,0.06414080411195755,0.05024362727999687
1751448503205684200,21.976684326171874,4.790401458740234,0.03543015569448471,0.036193739622831345
1751448503224512300,21.99551220703125,4.369210243225098,-0.001679878099821508,0.02825249545276165
1751448503243340300,22.01434033203125,3.8515024185180664,-0.031612250953912735,0.0334448479115963
1751448503262168300,22.033168212890626,3.4489426612854004,0.1334739476442337,0.0850629210472107
1751448503280996400,22.051996337890625,3.1135778427124023,0.014508038759231567,0.04413498193025589
1751448503299824400,22.070824462890624,2.6673409938812256,0.011148282326757908,0.03375028073787689
1751448503318652400,22.08965234375,2.0531165599823,0.017256930470466614,0.027947064489126205
1751448503337480400,22.10848046875,1.3304635286331177,0.027488915249705315,0.025809036567807198
1751448503356308500,22.12730859375,0.7492256760597229,0.129197895526886,0.03741546720266342
1751448503375136500,22.146136474609374,0.32559093832969666,0.05894844979047775,0.02153298258781433
1751448503393964500,22.164964599609377,-0.04367683082818985,0.18890993297100067,0.04108065739274025
1751448503412792600,22.18379248046875,-0.20891575515270233,0.04321868345141411,0.011453714221715927
1751448503431620600,22.20262060546875,-0.8634573817253113,0.08613193035125732,0.016340631991624832
1751448503450448600,22.22144873046875,-2.062279462814331,0.16126830875873566,0.017867794260382652
1751448503469276700,22.240276611328124,-3.473071813583374,-0.046883873641490936,-0.01740964688360691
1751448503488104700,22.259104736328126,-4.719235897064209,-0.0746782198548317,-0.03543015569448471
1751448503506932700,22.2779326171875,-5.754040718078613,-0.22098033130168915,-0.048563748598098755
1751448503525760800,22.2967607421875,-6.4027791023254395,-0.27168211340904236,-0.06505709886550903
1751448503544588800,22.3155888671875,-6.613527297973633,-0.0743727833032608,-0.04978547990322113
1751448503563416600,22.33441650390625,-6.4925761222839355,-0.1207985132932663,-0.06261363625526428
1751448503582244600,22.35324462890625,-6.224406719207764,-0.4085158109664917,-0.16279546916484833
1751448503601072600,22.37207275390625,-5.816654205322266,-0.051159925758838654,-0.048563748598098755
1751448503619900700,22.390900634765625,-5.271152019500732,-0.15867212414741516,-0.06994401663541794
1751448503638728700,22.409728759765624,-4.634936332702637,-0.21120649576187134,-0.08796452730894089
1751448503657556700,22.428556640625,-3.931525707244873,-0.0038179049734026194,-0.024281874299049377
1751448503676384800,22.447384765625,-2.829831123352051,-0.258853942155838,-0.12431098520755768
1751448503695212800,22.466212890625,-1.3851358890533447,-0.228921577334404,-0.09834922850131989
1751448503714040800,22.485040771484375,-0.25534147024154663,0.13133592903614044,0.04810560122132301
1751448503732868900,22.503868896484374,0.4761691093444824,0.27626359462738037,0.1101083755493164
1751448503751697000,22.52269677734375,1.1398736238479614,0.06337722390890121,0.031001387163996696
1751448503770525000,22.54152490234375,1.6994258165359497,0.20341797173023224,0.042913250625133514
1751448503789353000,22.56035302734375,2.238208532333374,0.05100720748305321,0.04108065739274025
1751448503808181000,22.579180908203124,2.8738133907318115,0.05406153202056885,0.04016435891389847
1751448503827009000,22.598009033203127,3.5194973945617676,0.13591741025447845,0.04046979174017906
1751448503845837000,22.616837158203126,3.7210826873779297,0.3052796721458435,0.09422589093446732
1751448503864665000,22.6356650390625,3.873188018798828,0.24037529528141022,0.07651081681251526
1751448503883493000,22.6544931640625,4.061028957366943,0.06811141967773438,0.026419902220368385
1751448503902321200,22.673321044921874,4.281245708465576,0.02825249545276165,0.03222311660647392
1751448503921149200,22.692149169921876,4.491994380950928,0.07819069176912308,0.018173227086663246
1751448503939977200,22.710977294921875,4.553386211395264,0.05711585655808449,0.05849030241370201
1751448503958805200,22.72980517578125,4.373180866241455,0.023212861269712448,0.01359174121171236
1751448503977633300,22.74863330078125,4.102262496948242,0.028099779039621353,0.0386371985077858
1751448503996461000,22.7674609375,4.044841289520264,0.008093958720564842,0.042913250625133514
1751448504015289000,22.7862890625,4.037816047668457,0.026572618633508682,0.025809036567807198
1751448504034117000,22.8051171875,3.6902341842651367,0.03634645417332649,0.0591011680662632
1751448504052945200,22.823945068359375,3.112661600112915,0.009162971749901772,0.03955349326133728
1751448504071773200,22.842773193359374,2.4214680194854736,0.016187917441129684,0.030390523374080658
1751448504090601200,22.861601318359376,1.591302752494812,0.004123337101191282,0.023976443335413933
1751448504109429200,22.88042919921875,0.7049379348754883,0.018631376326084137,0.024892739951610565
1751448504128257300,22.89925732421875,-0.0204639695584774,0.185092031955719,0.0334448479115963
1751448504147085300,22.918085205078125,-0.25961753726005554,0.05100720748305321,0.006872228812426329
1751448504165913300,22.936913330078124,-0.9639446139335632,-0.010537417605519295,-0.012522728182375431
1751448504184741400,22.955741455078126,-1.9749258756637573,0.0013744457392022014,-0.01206457894295454
1751448504203569400,22.9745693359375,-3.1807730197906494,0.020922118797898293,-0.014202605932950974
1751448504222397400,22.9933974609375,-4.373791694641113,-0.02977965772151947,-0.030543239787220955
1751448504241225500,23.0122255859375,-5.229613304138184,-0.12110394239425659,-0.02718348242342472
1751448504260053200,23.03105322265625,-5.677377223968506,-0.017562363296747208,-0.03909534588456154
1751448504278881300,23.04988134765625,-5.777864456176758,-0.2536616027355194,-0.028405211865901947
1751448504297709300,23.068709228515626,-5.698146820068359,-0.0386371985077858,-0.033597562462091446
1751448504316537300,23.087537353515625,-5.623620986938477,-0.02611446939408779,-0.03390299528837204
1751448504335365400,23.106365478515624,-5.4611310958862305,-0.0435241162776947,-0.023212861269712448
1751448504354193400,23.125193359375,-5.051240921020508,-0.12324196845293045,-0.035735588520765305
1751448504373021400,23.144021484375,-4.404335021972656,-0.39477136731147766,-0.09682206809520721
1751448504391849500,23.162849365234376,-3.574169874191284,-0.4130973219871521,-0.1331685185432434
1751448504410677500,23.181677490234375,-2.5292856693267822,-0.03558287397027016,-0.04978547990322113
1751448504429505500,23.200505615234373,-1.5179989337921143,0.0007635809597559273,-0.010995565913617611
1751448504448333600,23.21933349609375,-0.6185005903244019,0.019394956529140472,0.014202605932950974
1751448504467161600,23.23816162109375,0.09865466505289078,0.12736530601978302,0.04718930274248123
1751448504485989600,23.25698974609375,0.5656607747077942,0.02779434807598591,0.009926552884280682
1751448504504817700,23.275817626953124,1.10230553150177,0.164322629570961,0.0539088174700737
1751448504523645400,23.2946455078125,1.7501275539398193,-0.030390523374080658,-0.008704823441803455
1751448504542473500,23.313473388671873,2.388481378555298,0.2663370370864868,0.07803797721862793
1751448504561301500,23.332301513671876,3.0335545539855957,0.3075704276561737,0.09544762223958969
1751448504580129500,23.351129638671875,3.7342164516448975,0.12156209349632263,0.011759147047996521
1751448504598957600,23.36995751953125,4.269028663635254,0.04550942778587341,0.017562363296747208
1751448504617785600,23.38878564453125,4.456563949584961,0.025503603741526604,0.006872228812426329
1751448504636613600,23.407613525390627,4.5643815994262695,0.040317077189683914,0.040775224566459656
1751448504655441700,23.426441650390625,4.7375617027282715,0.010842849500477314,0.0001527161948615685
1751448504674269700,23.445269775390624,5.012145519256592,0.04153880476951599,0.05329795181751251
1751448504693097500,23.464097412109375,5.110494613647461,0.019853105768561363,0.02367101050913334
