time,seconds_elapsed,z,y,x
1751448481499609900,0.27060986328125,79.5,37.72500228881836,-16.03125
1751448481519609900,0.29060986328125,81.11250305175781,37.5,-16.125
1751448481529610000,0.30060986328125,81.75,37.33125305175781,-16.33125114440918
1751448481539609900,0.31060986328125,81.91875457763672,37.44375228881836,-16.256250381469727
1751448481549610000,0.32060986328125,82.10625457763672,37.556251525878906,-16.256250381469727
1751448481559609900,0.33060986328125,82.06875610351562,37.5,-16.181251525878906
1751448481569610000,0.34060986328125,81.84375,37.53750228881836,-16.012500762939453
1751448481579609900,0.35060986328125,82.06875610351562,37.5,-16.200000762939453
1751448481589610000,0.36060986328125,82.03125,37.650001525878906,-15.843750953674316
1751448481599609900,0.37060986328125,82.25625610351562,37.3125,-15.956250190734863
1751448481609610000,0.38060986328125,81.95625305175781,37.40625,-15.862500190734863
1751448481619609900,0.39060986328125,81.9937515258789,37.38750076293945,-15.99375057220459
1751448481629610000,0.40060986328125,81.78750610351562,37.20000076293945,-15.918750762939453
1751448481639609900,0.41060986328125,82.05000305175781,37.33125305175781,-15.99375057220459
1751448481649610000,0.42060986328125,82.35000610351562,37.23750305175781,-16.012500762939453
1751448481659609900,0.43060986328125,82.42500305175781,37.181251525878906,-15.918750762939453
1751448481669610000,0.44060986328125,82.4625015258789,37.125,-15.956250190734863
1751448481679609900,0.45060986328125,82.3125,37.48125076293945,-15.862500190734863
1751448481689610000,0.46060986328125,82.53750610351562,37.48125076293945,-15.862500190734863
1751448481699609900,0.47060986328125,82.51875305175781,37.368751525878906,-15.937500953674316
1751448481709610000,0.48060986328125,82.3687515258789,37.462501525878906,-15.937500953674316
1751448481719609900,0.49060986328125,82.23750305175781,37.275001525878906,-16.125
1751448481729610000,0.50060986328125,82.10625457763672,37.16250228881836,-16.293750762939453
1751448481739609900,0.51060986328125,82.10625457763672,37.275001525878906,-16.23750114440918
1751448481749610000,0.52060986328125,81.88125610351562,37.3125,-16.387500762939453
1751448481759609900,0.53060986328125,82.06875610351562,37.01250076293945,-16.59375
1751448481769610000,0.54060986328125,82.23750305175781,36.993751525878906,-16.40625
1751448481779609900,0.55060986328125,82.16250610351562,37.10625076293945,-16.21875
1751448481789610000,0.56060986328125,82.51875305175781,37.125,-16.368751525878906
1751448481799609900,0.57060986328125,82.53750610351562,37.20000076293945,-16.200000762939453
1751448481809610000,0.58060986328125,82.80000305175781,37.42500305175781,-16.125
1751448481819609900,0.59060986328125,83.0625,37.3125,-16.05000114440918
1751448481829610000,0.60060986328125,83.3062515258789,37.38750076293945,-15.99375057220459
1751448481839609900,0.61060986328125,83.0250015258789,37.650001525878906,-15.975000381469727
1751448481849610000,0.62060986328125,82.70625305175781,37.5,-16.087501525878906
1751448481859609900,0.63060986328125,82.78125,37.5,-16.162500381469727
1751448481869610000,0.64060986328125,82.85625457763672,37.368751525878906,-16.21875
1751448481879609900,0.65060986328125,82.61250305175781,37.25625228881836,-16.350000381469727
1751448481889610000,0.66060986328125,82.125,37.05000305175781,-16.556251525878906
1751448481899609900,0.67060986328125,81.95625305175781,37.087501525878906,-16.762500762939453
1751448481909610000,0.68060986328125,81.88125610351562,36.95625305175781,-16.837501525878906
1751448481919609900,0.69060986328125,81.9937515258789,36.67500305175781,-16.80000114440918
1751448481929610000,0.70060986328125,81.76875305175781,36.84375,-16.725000381469727
1751448481939609900,0.71060986328125,81.84375,36.993751525878906,-16.78125
1751448481949610000,0.72060986328125,81.76875305175781,37.16250228881836,-16.650001525878906
1751448481959609900,0.73060986328125,81.86250305175781,37.275001525878906,-16.59375
1751448481969610000,0.74060986328125,81.91875457763672,37.48125076293945,-16.481250762939453
1751448481979609900,0.75060986328125,81.8062515258789,37.556251525878906,-16.350000381469727
1751448481989610000,0.76060986328125,81.86250305175781,37.78125,-16.33125114440918
1751448481999609900,0.77060986328125,81.9375,37.95000076293945,-16.40625
1751448482009610000,0.78060986328125,82.125,37.875,-16.5
1751448482019609900,0.79060986328125,82.16250610351562,37.61250305175781,-16.443750381469727
1751448482029610000,0.80060986328125,82.01250457763672,37.53750228881836,-16.387500762939453
1751448482039609900,0.81060986328125,82.10625457763672,37.59375,-16.350000381469727
1751448482049610000,0.82060986328125,82.20000457763672,37.57500076293945,-16.33125114440918
1751448482059609900,0.83060986328125,82.29375457763672,37.5,-16.23750114440918
1751448482069610000,0.84060986328125,82.3125,37.29375076293945,-16.33125114440918
1751448482079609900,0.85060986328125,82.25625610351562,37.181251525878906,-16.181251525878906
1751448482089610000,0.86060986328125,82.20000457763672,37.16250228881836,-16.5
1751448482099609900,0.87060986328125,82.1812515258789,36.97500228881836,-16.537500381469727
1751448482109610000,0.88060986328125,82.38750457763672,36.993751525878906,-16.537500381469727
1751448482119609900,0.89060986328125,82.40625,36.9375,-16.42500114440918
1751448482129610000,0.90060986328125,82.66875457763672,37.14375305175781,-16.40625
1751448482139609900,0.91060986328125,82.72500610351562,37.14375305175781,-16.51875114440918
1751448482149610000,0.92060986328125,82.63125610351562,37.03125,-16.40625
1751448482159609900,0.93060986328125,82.72500610351562,37.05000305175781,-16.668750762939453
1751448482169610000,0.94060986328125,83.19375610351562,37.14375305175781,-16.40625
1751448482179609900,0.95060986328125,83.0625,37.3125,-16.293750762939453
1751448482189610000,0.96060986328125,82.85625457763672,37.3125,-16.387500762939453
1751448482199609900,0.97060986328125,82.7437515258789,37.23750305175781,-16.387500762939453
1751448482209610000,0.98060986328125,82.76250457763672,36.84375,-16.40625
1751448482219609900,0.99060986328125,82.8375015258789,37.01250076293945,-16.462501525878906
1751448482229610000,1.00060986328125,82.96875,37.181251525878906,-16.537500381469727
1751448482239609900,1.01060986328125,82.875,37.23750305175781,-16.59375
1751448482249610000,1.02060986328125,82.57500457763672,37.38750076293945,-16.368751525878906
1751448482259609900,1.03060986328125,82.53750610351562,37.53750228881836,-16.368751525878906
1751448482269610000,1.04060986328125,82.51875305175781,37.42500305175781,-16.40625
1751448482279609900,1.05060986328125,82.51875305175781,37.40625,-16.59375
1751448482289610000,1.06060986328125,82.42500305175781,37.61250305175781,-16.80000114440918
1751448482299609900,1.07060986328125,82.3687515258789,37.57500076293945,-16.96875
1751448482309610000,1.08060986328125,82.21875,37.6875,-16.78125
1751448482319609900,1.09060986328125,82.10625457763672,37.78125,-16.5
1751448482329610000,1.10060986328125,81.8062515258789,37.66875076293945,-16.78125
1751448482339609900,1.11060986328125,81.8062515258789,37.51875305175781,-16.89375114440918
1751448482349610000,1.12060986328125,81.97500610351562,37.6875,-16.762500762939453
1751448482359609900,1.13060986328125,81.97500610351562,38.025001525878906,-16.5
1751448482369610000,1.14060986328125,81.95625305175781,37.80000305175781,-16.181251525878906
1751448482379609900,1.15060986328125,81.78750610351562,37.98750305175781,-15.637500762939453
1751448482389610000,1.16060986328125,81.84375,37.931251525878906,-15.731250762939453
1751448482399609900,1.17060986328125,81.95625305175781,38.025001525878906,-15.693750381469727
1751448482409610000,1.18060986328125,82.14375305175781,37.931251525878906,-15.637500762939453
1751448482419609900,1.19060986328125,82.0875015258789,37.931251525878906,-15.731250762939453
1751448482429610000,1.20060986328125,81.91875457763672,37.85625076293945,-15.862500190734863
1751448482439609900,1.21060986328125,82.05000305175781,37.61250305175781,-16.14375114440918
1751448482449610000,1.22060986328125,82.1812515258789,37.72500228881836,-16.14375114440918
1751448482459609900,1.23060986328125,82.2750015258789,37.5,-16.51875114440918
1751448482469610000,1.24060986328125,82.29375457763672,37.275001525878906,-16.5
1751448482479609900,1.25060986328125,82.14375305175781,37.16250228881836,-16.61250114440918
1751448482489610000,1.26060986328125,82.20000457763672,37.16250228881836,-16.481250762939453
1751448482499609900,1.27060986328125,82.16250610351562,37.06875228881836,-16.293750762939453
1751448482509610000,1.28060986328125,82.21875,36.95625305175781,-16.14375114440918
1751448482519609900,1.29060986328125,82.21875,36.900001525878906,-16.106250762939453
1751448482529610000,1.30060986328125,82.125,36.76875305175781,-16.256250381469727
1751448482539609900,1.31060986328125,82.25625610351562,36.86250305175781,-16.106250762939453
1751448482549610000,1.32060986328125,82.125,37.03125,-16.33125114440918
1751448482559609900,1.33060986328125,82.21875,37.01250076293945,-16.350000381469727
1751448482569610000,1.34060986328125,82.10625457763672,37.10625076293945,-16.51875114440918
1751448482579609900,1.35060986328125,82.06875610351562,37.125,-16.575000762939453
1751448482589610000,1.36060986328125,81.97500610351562,37.25625228881836,-16.743751525878906
1751448482599609900,1.37060986328125,81.82500457763672,37.38750076293945,-16.725000381469727
1751448482609610000,1.38060986328125,81.54375457763672,37.556251525878906,-16.59375
1751448482619609900,1.39060986328125,81.50625610351562,37.462501525878906,-16.5
1751448482629610000,1.40060986328125,81.6187515258789,37.38750076293945,-16.256250381469727
1751448482639609900,1.41060986328125,81.41250610351562,37.275001525878906,-16.162500381469727
1751448482649610000,1.42060986328125,81.31875610351562,37.275001525878906,-15.99375057220459
1751448482659609900,1.43060986328125,81.48750305175781,37.59375,-15.862500190734863
1751448482669610000,1.44060986328125,81.69375610351562,37.5,-15.825000762939453
1751448482679609900,1.45060986328125,81.91875457763672,37.368751525878906,-15.768750190734863
1751448482689610000,1.46060986328125,81.97500610351562,37.40625,-15.61875057220459
1751448482699609900,1.47060986328125,81.91875457763672,37.16250228881836,-15.975000381469727
1751448482709610000,1.48060986328125,82.21875,37.06875228881836,-16.087501525878906
1751448482719609900,1.49060986328125,82.48125457763672,37.06875228881836,-16.42500114440918
1751448482739609900,1.51060986328125,82.57500457763672,36.91875076293945,-16.762500762939453
1751448482749610000,1.52060986328125,82.42500305175781,37.05000305175781,-16.78125
1751448482759609900,1.53060986328125,82.40625,37.14375305175781,-16.650001525878906
1751448482769610000,1.54060986328125,82.40625,37.05000305175781,-16.89375114440918
1751448482779609900,1.55060986328125,82.23750305175781,37.44375228881836,-16.6875
1751448482789610000,1.56060986328125,82.01250457763672,37.650001525878906,-16.556251525878906
1751448482799609900,1.57060986328125,82.0875015258789,37.650001525878906,-16.293750762939453
1751448482819609900,1.59060986328125,82.10625457763672,37.70625305175781,-16.125
1751448482849610000,1.62060986328125,81.97500610351562,37.368751525878906,-16.21875
1751448482889610000,1.66060986328125,82.03125,37.181251525878906,-16.443750381469727
1751448482899609900,1.67060986328125,81.78750610351562,37.10625076293945,-16.293750762939453
1751448482909610000,1.68060986328125,81.95625305175781,37.35000228881836,-16.162500381469727
1751448482939609900,1.71060986328125,82.14375305175781,37.5,-15.843750953674316
1751448482949610000,1.72060986328125,82.3687515258789,37.51875305175781,-15.881250381469727
1751448482959609900,1.73060986328125,82.10625457763672,37.38750076293945,-16.012500762939453
1751448482969610000,1.74060986328125,81.91875457763672,37.40625,-16.03125
1751448482979609900,1.75060986328125,82.20000457763672,37.59375,-16.181251525878906
1751448482989610000,1.76060986328125,82.05000305175781,37.42500305175781,-16.21875
1751448482999609900,1.77060986328125,81.97500610351562,37.29375076293945,-16.087501525878906
1751448483009610000,1.78060986328125,81.78750610351562,37.33125305175781,-16.21875
1751448483019609900,1.79060986328125,81.78750610351562,37.5,-16.23750114440918
1751448483029610000,1.80060986328125,81.91875457763672,37.462501525878906,-16.256250381469727
1751448483049610000,1.82060986328125,82.29375457763672,37.181251525878906,-16.012500762939453
1751448483059609900,1.83060986328125,82.0875015258789,37.125,-16.05000114440918
1751448483069610000,1.84060986328125,82.05000305175781,37.125,-16.087501525878906
1751448483079609900,1.85060986328125,82.05000305175781,37.29375076293945,-16.40625
1751448483089610000,1.86060986328125,82.0875015258789,37.23750305175781,-16.23750114440918
1751448483099609900,1.87060986328125,82.01250457763672,37.01250076293945,-16.387500762939453
1751448483109610000,1.88060986328125,81.86250305175781,36.9375,-16.575000762939453
1751448483119609900,1.89060986328125,81.9000015258789,37.087501525878906,-16.5
1751448483129610000,1.90060986328125,81.75,37.03125,-16.70625114440918
1751448483139609900,1.91060986328125,81.95625305175781,36.9375,-16.575000762939453
1751448483149610000,1.92060986328125,82.0875015258789,37.087501525878906,-16.631250381469727
1751448483159609900,1.93060986328125,82.25625610351562,36.993751525878906,-16.51875114440918
1751448483169610000,1.94060986328125,82.35000610351562,37.125,-16.575000762939453
1751448483179609900,1.95060986328125,82.3687515258789,37.181251525878906,-16.51875114440918
1751448483189610000,1.96060986328125,82.48125457763672,37.3125,-16.42500114440918
1751448483199609900,1.97060986328125,82.14375305175781,37.20000076293945,-16.631250381469727
1751448483209610000,1.98060986328125,82.33125305175781,37.06875228881836,-16.537500381469727
1751448483229610000,2.00060986328125,82.5,37.125,-16.5
1751448483239609900,2.01060986328125,82.38750457763672,37.16250228881836,-16.5
1751448483249610000,2.02060986328125,82.3687515258789,37.03125,-16.575000762939453
1751448483259609900,2.03060986328125,82.4625015258789,37.03125,-16.70625114440918
1751448483269610000,2.04060986328125,82.2750015258789,36.97500228881836,-16.6875
1751448483279609900,2.05060986328125,82.16250610351562,36.900001525878906,-16.743751525878906
1751448483289610000,2.06060986328125,82.03125,37.14375305175781,-16.78125
1751448483299609900,2.07060986328125,81.97500610351562,37.21875,-16.950000762939453
1751448483309610000,2.08060986328125,81.9937515258789,37.25625228881836,-16.931251525878906
1751448483319609900,2.09060986328125,81.91875457763672,37.16250228881836,-16.89375114440918
1751448483329610000,2.10060986328125,81.78750610351562,37.25625228881836,-16.725000381469727
1751448483339609900,2.11060986328125,81.8062515258789,37.38750076293945,-16.5
1751448483349610000,2.12060986328125,82.05000305175781,37.51875305175781,-16.462501525878906
1751448483369610000,2.14060986328125,82.25625610351562,37.6875,-16.3125
1751448483379609900,2.15060986328125,82.25625610351562,37.650001525878906,-16.350000381469727
1751448483389610000,2.16060986328125,81.86250305175781,37.5,-16.33125114440918
1751448483399609900,2.17060986328125,82.05000305175781,37.63125228881836,-16.200000762939453
1751448483409610000,2.18060986328125,82.125,37.66875076293945,-16.3125
1751448483419609900,2.19060986328125,81.9937515258789,37.368751525878906,-16.481250762939453
1751448483429610000,2.20060986328125,82.0875015258789,37.20000076293945,-16.51875114440918
1751448483439609900,2.21060986328125,82.33125305175781,37.14375305175781,-16.462501525878906
1751448483449610000,2.22060986328125,81.9375,37.20000076293945,-16.537500381469727
1751448483459609900,2.23060986328125,81.88125610351562,37.16250228881836,-16.443750381469727
1751448483469610000,2.24060986328125,82.01250457763672,37.23750305175781,-16.575000762939453
1751448483479609900,2.25060986328125,82.03125,36.88125228881836,-16.6875
1751448483489610000,2.26060986328125,81.88125610351562,36.78750228881836,-16.89375114440918
1751448483499609900,2.27060986328125,82.14375305175781,36.97500228881836,-16.762500762939453
1751448483509610000,2.28060986328125,82.14375305175781,37.10625076293945,-16.575000762939453
1751448483519609900,2.29060986328125,81.9937515258789,37.25625228881836,-16.3125
1751448483529610000,2.30060986328125,82.25625610351562,37.14375305175781,-16.40625
1751448483539609900,2.31060986328125,82.35000610351562,37.29375076293945,-16.5
1751448483549610000,2.32060986328125,82.5562515258789,37.29375076293945,-16.537500381469727
1751448483569610000,2.34060986328125,82.53750610351562,37.63125228881836,-16.33125114440918
1751448483579609900,2.35060986328125,82.29375457763672,37.556251525878906,-16.3125
1751448483589610000,2.36060986328125,82.35000610351562,37.368751525878906,-16.293750762939453
1751448483599609900,2.37060986328125,82.48125457763672,37.44375228881836,-16.350000381469727
1751448483609610000,2.38060986328125,82.16250610351562,37.556251525878906,-16.200000762939453
1751448483619609900,2.39060986328125,81.9375,37.51875305175781,-15.843750953674316
1751448483629610000,2.40060986328125,81.84375,37.462501525878906,-15.768750190734863
1751448483639609900,2.41060986328125,81.9937515258789,37.42500305175781,-15.918750762939453
1751448483649610000,2.42060986328125,82.06875610351562,37.44375228881836,-16.106250762939453
1751448483659609900,2.43060986328125,82.16250610351562,37.63125228881836,-16.293750762939453
1751448483669610000,2.44060986328125,81.97500610351562,37.70625305175781,-16.556251525878906
1751448483689610000,2.46060986328125,81.73125457763672,37.57500076293945,-16.931251525878906
1751448483699609900,2.47060986328125,81.7125015258789,37.57500076293945,-17.100000381469727
1751448483709610000,2.48060986328125,81.75,37.61250305175781,-17.118751525878906
1751448483719609900,2.49060986328125,81.60000610351562,37.556251525878906,-16.818750381469727
1751448483729610000,2.50060986328125,81.54375457763672,37.5,-16.631250381469727
1751448483749610000,2.52060986328125,81.5250015258789,37.48125076293945,-16.162500381469727
1751448483759609900,2.53060986328125,81.82500457763672,37.5,-16.087501525878906
1751448483769610000,2.54060986328125,81.97500610351562,37.368751525878906,-15.862500190734863
1751448483779609900,2.55060986328125,82.0875015258789,37.25625228881836,-15.843750953674316
1751448483789610000,2.56060986328125,81.9937515258789,37.23750305175781,-15.787500381469727
1751448483799609900,2.57060986328125,82.25625610351562,37.3125,-16.162500381469727
1751448483809610000,2.58060986328125,82.44375610351562,37.57500076293945,-15.956250190734863
1751448483819609900,2.59060986328125,82.38750457763672,37.42500305175781,-16.05000114440918
1751448483829610000,2.60060986328125,82.63125610351562,37.57500076293945,-16.068750381469727
1751448483839609900,2.61060986328125,82.48125457763672,37.462501525878906,-16.21875
1751448483849610000,2.62060986328125,82.6500015258789,37.48125076293945,-16.368751525878906
1751448483859609900,2.63060986328125,82.44375610351562,37.38750076293945,-16.350000381469727
1751448483869610000,2.64060986328125,82.42500305175781,37.368751525878906,-16.481250762939453
1751448483879609900,2.65060986328125,82.3687515258789,37.29375076293945,-16.40625
1751448483889610000,2.66060986328125,82.2750015258789,36.88125228881836,-16.70625114440918
1751448483899609900,2.67060986328125,82.0875015258789,36.993751525878906,-16.556251525878906
1751448483909610000,2.68060986328125,82.125,36.95625305175781,-16.556251525878906
1751448483919609900,2.69060986328125,82.38750457763672,37.06875228881836,-16.275001525878906
1751448483929610000,2.70060986328125,82.21875,37.29375076293945,-16.3125
1751448483939609900,2.71060986328125,82.29375457763672,37.275001525878906,-16.350000381469727
1751448483949610000,2.72060986328125,82.35000610351562,37.35000228881836,-16.3125
1751448483959609900,2.73060986328125,82.3687515258789,37.35000228881836,-16.33125114440918
1751448483969610000,2.74060986328125,82.23750305175781,37.59375,-16.42500114440918
1751448483979609900,2.75060986328125,82.2750015258789,37.63125228881836,-16.59375
1751448483989610000,2.76060986328125,81.78750610351562,37.57500076293945,-16.537500381469727
1751448483999609900,2.77060986328125,81.97500610351562,37.462501525878906,-16.575000762939453
1751448484009610000,2.78060986328125,81.84375,37.44375228881836,-16.40625
1751448484019609900,2.79060986328125,81.9000015258789,37.59375,-16.443750381469727
1751448484039609900,2.81060986328125,81.88125610351562,37.875,-16.012500762939453
1751448484049610000,2.82060986328125,81.84375,37.743751525878906,-15.956250190734863
1751448484059609900,2.83060986328125,82.10625457763672,37.57500076293945,-15.90000057220459
1751448484069610000,2.84060986328125,82.33125305175781,37.5,-15.956250190734863
1751448484079609900,2.85060986328125,81.8062515258789,37.57500076293945,-16.03125
1751448484089610000,2.86060986328125,82.06875610351562,37.462501525878906,-16.181251525878906
1751448484099609900,2.87060986328125,82.38750457763672,37.20000076293945,-16.387500762939453
1751448484109610000,2.88060986328125,82.4625015258789,37.181251525878906,-16.556251525878906
1751448484119609900,2.89060986328125,82.53750610351562,36.900001525878906,-16.650001525878906
1751448484129610000,2.90060986328125,82.6500015258789,37.01250076293945,-16.856250762939453
1751448484139609900,2.91060986328125,82.2750015258789,37.14375305175781,-16.837501525878906
1751448484149610000,2.92060986328125,82.125,37.16250228881836,-16.837501525878906
1751448484159609900,2.93060986328125,82.2750015258789,37.20000076293945,-16.837501525878906
1751448484169610000,2.94060986328125,82.21875,37.16250228881836,-16.80000114440918
1751448484179609900,2.95060986328125,81.9000015258789,37.25625228881836,-16.59375
1751448484189610000,2.96060986328125,81.9000015258789,36.900001525878906,-16.59375
1751448484199609900,2.97060986328125,81.73125457763672,36.95625305175781,-16.78125
1751448484209610000,2.98060986328125,81.6187515258789,36.78750228881836,-16.443750381469727
1751448484219609900,2.99060986328125,81.7125015258789,36.73125076293945,-16.33125114440918
1751448484229610000,3.00060986328125,81.73125457763672,36.67500305175781,-16.256250381469727
1751448484239609900,3.01060986328125,82.125,36.54375076293945,-16.5
1751448484249610000,3.02060986328125,82.3125,36.39375305175781,-16.725000381469727
1751448484259609900,3.03060986328125,82.59375,36.41250228881836,-16.556251525878906
1751448484269610000,3.04060986328125,82.8375015258789,36.618751525878906,-16.743751525878906
1751448484279609900,3.05060986328125,83.00625610351562,36.69375228881836,-16.61250114440918
1751448484299609900,3.07060986328125,83.36250305175781,36.91875076293945,-16.950000762939453
1751448484309610000,3.08060986328125,83.5875015258789,37.01250076293945,-17.118751525878906
1751448484319609900,3.09060986328125,83.56875610351562,37.16250228881836,-17.043750762939453
1751448484329610000,3.10060986328125,83.4937515258789,37.21875,-16.818750381469727
1751448484349610000,3.12060986328125,83.51250457763672,37.44375228881836,-16.650001525878906
1751448484369610000,3.14060986328125,84.09375,37.462501525878906,-16.743751525878906
1751448484389610000,3.16060986328125,84.28125,37.72500228881836,-16.33125114440918
1751448484399609900,3.17060986328125,84.28125,37.53750228881836,-16.275001525878906
1751448484409610000,3.18060986328125,84.5250015258789,37.650001525878906,-16.293750762939453
1751448484419609900,3.19060986328125,84.76875305175781,37.70625305175781,-16.200000762939453
1751448484429610000,3.20060986328125,84.67500305175781,37.6875,-16.575000762939453
1751448484439609900,3.21060986328125,84.58125305175781,37.556251525878906,-16.51875114440918
1751448484449610000,3.22060986328125,84.4312515258789,37.556251525878906,-16.650001525878906
1751448484459609900,3.23060986328125,84.41250610351562,37.556251525878906,-16.837501525878906
1751448484469610000,3.24060986328125,84.5625,37.650001525878906,-17.0625
1751448484479609900,3.25060986328125,84.39375305175781,37.6875,-17.15625
1751448484489610000,3.26060986328125,84.1500015258789,37.57500076293945,-17.193750381469727
1751448484499609900,3.27060986328125,83.625,37.33125305175781,-17.418750762939453
1751448484509610000,3.28060986328125,83.75625610351562,37.33125305175781,-17.4375
1751448484519609900,3.29060986328125,83.7750015258789,37.53750228881836,-17.606250762939453
1751448484529610000,3.30060986328125,83.60625457763672,37.66875076293945,-17.400001525878906
1751448484539609900,3.31060986328125,83.26875305175781,37.44375228881836,-17.4375
1751448484549610000,3.32060986328125,82.7437515258789,37.3125,-17.25
1751448484559609900,3.33060986328125,82.48125457763672,37.35000228881836,-16.96875
1751448484569610000,3.34060986328125,82.25625610351562,37.51875305175781,-16.837501525878906
1751448484579609900,3.35060986328125,82.2750015258789,37.63125228881836,-16.80000114440918
1751448484589610000,3.36060986328125,81.9937515258789,37.72500228881836,-16.42500114440918
1751448484599609900,3.37060986328125,81.63750457763672,37.57500076293945,-16.162500381469727
1751448484609610000,3.38060986328125,81.13125610351562,37.38750076293945,-16.14375114440918
1751448484619609900,3.39060986328125,80.8687515258789,37.40625,-15.768750190734863
1751448484629610000,3.40060986328125,80.79375457763672,37.21875,-15.862500190734863
1751448484639609900,3.41060986328125,80.56875610351562,37.42500305175781,-15.90000057220459
1751448484649610000,3.42060986328125,80.85000610351562,37.20000076293945,-15.90000057220459
1751448484659609900,3.43060986328125,80.56875610351562,37.181251525878906,-15.656250953674316
1751448484669610000,3.44060986328125,80.36250305175781,37.03125,-15.731250762939453
1751448484679609900,3.45060986328125,80.4000015258789,36.82500076293945,-15.975000381469727
1751448484689610000,3.46060986328125,80.75625610351562,36.806251525878906,-15.787500381469727
1751448484699609900,3.47060986328125,80.92500305175781,36.76875305175781,-15.90000057220459
1751448484709610000,3.48060986328125,80.8125,36.63750076293945,-15.918750762939453
1751448484719609900,3.49060986328125,81.03750610351562,36.31875228881836,-16.068750381469727
1751448484729610000,3.50060986328125,80.70000457763672,36.525001525878906,-16.125
1751448484749610000,3.52060986328125,80.88750457763672,36.5625,-16.200000762939453
1751448484759609900,3.53060986328125,80.8687515258789,36.65625,-16.106250762939453
1751448484769610000,3.54060986328125,80.75625610351562,36.58125305175781,-16.5
1751448484779609900,3.55060986328125,80.94375610351562,36.48750305175781,-16.631250381469727
1751448484789610000,3.56060986328125,81.01875305175781,36.73125076293945,-16.443750381469727
1751448484799609900,3.57060986328125,81.01875305175781,36.806251525878906,-16.650001525878906
1751448484809610000,3.58060986328125,81.0562515258789,36.65625,-16.668750762939453
1751448484819609900,3.59060986328125,81.11250305175781,36.58125305175781,-16.59375
1751448484829610000,3.60060986328125,81.35625457763672,36.431251525878906,-16.181251525878906
1751448484839609900,3.61060986328125,81.58125305175781,36.5625,-16.068750381469727
1751448484849610000,3.62060986328125,81.7125015258789,36.63750076293945,-15.881250381469727
1751448484859609900,3.63060986328125,81.6187515258789,36.63750076293945,-15.731250762939453
1751448484869610000,3.64060986328125,82.0875015258789,36.60000228881836,-15.918750762939453
1751448484879609900,3.65060986328125,82.53750610351562,36.54375076293945,-15.768750190734863
1751448484889610000,3.66060986328125,82.85625457763672,36.618751525878906,-15.656250953674316
1751448484899609900,3.67060986328125,83.2125015258789,36.88125228881836,-15.956250190734863
1751448484909610000,3.68060986328125,83.625,36.9375,-16.443750381469727
1751448484919609900,3.69060986328125,84.0562515258789,36.993751525878906,-16.481250762939453
1751448484929610000,3.70060986328125,84.39375305175781,37.275001525878906,-16.575000762939453
1751448484939609900,3.71060986328125,84.82500457763672,37.23750305175781,-16.650001525878906
1751448484949610000,3.72060986328125,85.125,37.35000228881836,-16.537500381469727
1751448484959609900,3.73060986328125,85.35000610351562,37.462501525878906,-16.51875114440918
1751448484969610000,3.74060986328125,85.78125,37.556251525878906,-16.70625114440918
1751448484979609900,3.75060986328125,86.0250015258789,37.63125228881836,-16.537500381469727
1751448484989610000,3.76060986328125,86.34375,37.85625076293945,-16.61250114440918
1751448484999609900,3.77060986328125,86.2125015258789,37.931251525878906,-16.762500762939453
1751448485009610000,3.78060986328125,86.51250457763672,37.875,-16.931251525878906
1751448485019609900,3.79060986328125,86.73750305175781,38.10000228881836,-16.856250762939453
1751448485029610000,3.80060986328125,86.85000610351562,38.00625228881836,-16.912500381469727
1751448485039609900,3.81060986328125,86.5875015258789,38.08125305175781,-17.043750762939453
1751448485049610000,3.82060986328125,86.3062515258789,38.08125305175781,-16.96875
1751448485059609900,3.83060986328125,86.15625,37.91250228881836,-17.137500762939453
1751448485069610000,3.84060986328125,85.91250610351562,37.78125,-17.08125114440918
1751448485079609900,3.85060986328125,86.04375457763672,37.78125,-16.912500381469727
1751448485089610000,3.86060986328125,85.6875,37.66875076293945,-16.98750114440918
1751448485099609900,3.87060986328125,85.3125,37.48125076293945,-17.325000762939453
1751448485109610000,3.88060986328125,84.84375,37.44375228881836,-17.193750381469727
1751448485119609900,3.89060986328125,84.9000015258789,37.40625,-17.006250381469727
1751448485129610000,3.90060986328125,84.5625,37.462501525878906,-16.950000762939453
1751448485139609900,3.91060986328125,84.26250457763672,37.5,-16.6875
1751448485149610000,3.92060986328125,83.66250610351562,37.42500305175781,-16.387500762939453
1751448485159609900,3.93060986328125,83.32500457763672,37.368751525878906,-16.3125
1751448485169610000,3.94060986328125,83.15625,37.275001525878906,-15.80625057220459
1751448485179609900,3.95060986328125,82.51875305175781,37.275001525878906,-15.637500762939453
1751448485189610000,3.96060986328125,82.23750305175781,37.21875,-15.562500953674316
1751448485199609900,3.97060986328125,81.63750457763672,37.10625076293945,-15.393750190734863
1751448485209610000,3.98060986328125,81.58125305175781,36.86250305175781,-15.300000190734863
1751448485219609900,3.99060986328125,81.30000305175781,36.84375,-15.375000953674316
1751448485229610000,4.00060986328125,81.16875457763672,36.97500228881836,-15.206250190734863
1751448485239609900,4.01060986328125,80.47500610351562,36.97500228881836,-15.168750762939453
1751448485249610000,4.02060986328125,80.08125305175781,37.05000305175781,-15.356250762939453
1751448485259609900,4.03060986328125,80.1187515258789,37.16250228881836,-15.131250381469727
1751448485269610000,4.04060986328125,80.0625,37.087501525878906,-15.206250190734863
1751448485279609900,4.05060986328125,79.9312515258789,36.95625305175781,-15.093750953674316
1751448485289610000,4.06060986328125,79.66875457763672,36.97500228881836,-15.131250381469727
1751448485299609900,4.07060986328125,79.5562515258789,36.69375228881836,-15.075000762939453
1751448485309610000,4.08060986328125,79.25625610351562,36.65625,-15.24375057220459
1751448485319609900,4.09060986328125,79.3687515258789,36.35625076293945,-15.206250190734863
1751448485329610000,4.10060986328125,79.59375,36.26250076293945,-15.131250381469727
1751448485339609900,4.11060986328125,79.7437515258789,35.98125076293945,-15.206250190734863
1751448485349610000,4.12060986328125,79.7437515258789,36.056251525878906,-15.225000381469727
1751448485359609900,4.13060986328125,79.81875610351562,36.13125228881836,-15.281250953674316
1751448485369610000,4.14060986328125,79.70625305175781,36.46875,-15.05625057220459
1751448485379609900,4.15060986328125,79.98750305175781,36.84375,-15.093750953674316
1751448485389610000,4.16060986328125,80.51250457763672,36.86250305175781,-15.206250190734863
1751448485399609900,4.17060986328125,80.88750457763672,37.01250076293945,-15.318750381469727
1751448485409610000,4.18060986328125,80.8125,36.91875076293945,-15.543750762939453
1751448485419609900,4.19060986328125,81.03750610351562,37.05000305175781,-15.581250190734863
1751448485429610000,4.20060986328125,81.5250015258789,37.29375076293945,-15.637500762939453
1751448485439609900,4.21060986328125,82.1812515258789,37.20000076293945,-15.750000953674316
1751448485449610000,4.22060986328125,82.59375,36.97500228881836,-16.087501525878906
1751448485459609900,4.23060986328125,82.91250610351562,36.900001525878906,-16.40625
1751448485469610000,4.24060986328125,83.17500305175781,36.95625305175781,-16.350000381469727
1751448485479609900,4.25060986328125,83.625,37.06875228881836,-16.462501525878906
1751448485489610000,4.26060986328125,84.13125610351562,37.35000228881836,-16.575000762939453
1751448485499609900,4.27060986328125,84.2437515258789,37.59375,-16.575000762939453
1751448485529610000,4.30060986328125,85.2750015258789,38.36250305175781,-16.98750114440918
1751448485549610000,4.32060986328125,85.85625457763672,38.66250228881836,-16.950000762939453
1751448485559609900,4.33060986328125,85.96875,38.775001525878906,-17.025001525878906
1751448485569610000,4.34060986328125,86.04375457763672,38.73750305175781,-17.025001525878906
1751448485579609900,4.35060986328125,86.4937515258789,38.625,-17.193750381469727
1751448485589610000,4.36060986328125,86.64375305175781,38.681251525878906,-17.231250762939453
1751448485599609900,4.37060986328125,86.7750015258789,38.55000305175781,-17.36250114440918
1751448485609610000,4.38060986328125,86.8125,38.28750228881836,-17.306251525878906
1751448485619609900,4.39060986328125,86.66250610351562,38.00625228881836,-17.4375
1751448485629610000,4.40060986328125,86.32500457763672,38.025001525878906,-17.36250114440918
1751448485639609900,4.41060986328125,86.2125015258789,37.85625076293945,-17.006250381469727
1751448485649610000,4.42060986328125,86.1187515258789,37.85625076293945,-16.818750381469727
1751448485659609900,4.43060986328125,85.81875610351562,37.650001525878906,-16.78125
1751448485669610000,4.44060986328125,85.5,37.462501525878906,-16.575000762939453
1751448485679609900,4.45060986328125,85.03125,37.23750305175781,-16.443750381469727
1751448485689610000,4.46060986328125,84.54375457763672,37.16250228881836,-16.51875114440918
1751448485699609900,4.47060986328125,83.83125305175781,37.087501525878906,-16.21875
1751448485709610000,4.48060986328125,83.45625305175781,36.900001525878906,-15.956250190734863
1751448485719609900,4.49060986328125,82.875,36.69375228881836,-15.881250381469727
1751448485729610000,4.50060986328125,82.42500305175781,36.54375076293945,-15.862500190734863
1751448485739609900,4.51060986328125,81.9375,36.5625,-15.581250190734863
1751448485749610000,4.52060986328125,81.5625,36.45000076293945,-15.487500190734863
1751448485759609900,4.53060986328125,81.2437515258789,36.45000076293945,-15.450000762939453
1751448485769610000,4.54060986328125,80.8687515258789,36.431251525878906,-15.05625057220459
1751448485779609900,4.55060986328125,80.71875,36.30000305175781,-15.168750762939453
1751448485789610000,4.56060986328125,80.55000305175781,36.50625228881836,-15.05625057220459
1751448485799609900,4.57060986328125,80.36250305175781,36.50625228881836,-15.037500381469727
1751448485809610000,4.58060986328125,80.17500305175781,36.337501525878906,-15.037500381469727
1751448485819609900,4.59060986328125,80.08125305175781,36.41250228881836,-15.131250381469727
1751448485829610000,4.60060986328125,79.81875610351562,36.31875228881836,-15.093750953674316
1751448485839609900,4.61060986328125,79.70625305175781,36.31875228881836,-15.225000381469727
1751448485849610000,4.62060986328125,79.7437515258789,36.1875,-15.225000381469727
1751448485859609900,4.63060986328125,80.00625610351562,36.07500076293945,-15.300000190734863
1751448485869610000,4.64060986328125,80.0250015258789,35.94375228881836,-15.675000190734863
1751448485879609900,4.65060986328125,80.04375457763672,36.22500228881836,-15.918750762939453
1751448485889610000,4.66060986328125,80.17500305175781,36.31875228881836,-15.918750762939453
1751448485899609900,4.67060986328125,80.32500457763672,36.20625305175781,-16.012500762939453
1751448485909610000,4.68060986328125,80.55000305175781,36.375,-15.918750762939453
1751448485919609900,4.69060986328125,80.7750015258789,36.73125076293945,-15.768750190734863
1751448485929610000,4.70060986328125,80.92500305175781,36.993751525878906,-15.80625057220459
1751448485939609900,4.71060986328125,81.30000305175781,37.23750305175781,-15.506250381469727
1751448485949610000,4.72060986328125,81.86250305175781,36.97500228881836,-15.468750953674316
1751448485959609900,4.73060986328125,82.48125457763672,36.9375,-15.468750953674316
1751448485969610000,4.74060986328125,82.95000457763672,37.20000076293945,-15.562500953674316
1751448485979609900,4.75060986328125,83.5875015258789,37.462501525878906,-15.300000190734863
1751448485989610000,4.76060986328125,84.03750610351562,37.368751525878906,-15.843750953674316
1751448485999609900,4.77060986328125,84.50625610351562,37.21875,-16.068750381469727
1751448486009610000,4.78060986328125,84.97500610351562,37.3125,-16.256250381469727
1751448486019609900,4.79060986328125,85.29375457763672,37.48125076293945,-16.668750762939453
1751448486029610000,4.80060986328125,85.6500015258789,37.837501525878906,-16.89375114440918
1751448486039609900,4.81060986328125,85.85625457763672,37.95000076293945,-17.100000381469727
1751448486049610000,4.82060986328125,85.95000457763672,37.91250228881836,-16.950000762939453
1751448486059609900,4.83060986328125,86.0625,37.875,-17.137500762939453
1751448486069610000,4.84060986328125,86.15625,38.00625228881836,-16.762500762939453
1751448486079609900,4.85060986328125,85.91250610351562,38.17500305175781,-16.368751525878906
1751448486089610000,4.86060986328125,85.6875,38.212501525878906,-16.462501525878906
1751448486099609900,4.87060986328125,85.35000610351562,38.00625228881836,-16.162500381469727
1751448486109610000,4.88060986328125,85.05000305175781,37.931251525878906,-15.881250381469727
1751448486119609900,4.89060986328125,84.82500457763672,37.66875076293945,-15.61875057220459
1751448486129610000,4.90060986328125,84.54375457763672,37.44375228881836,-15.412500381469727
1751448486139609900,4.91060986328125,84,37.368751525878906,-15.33750057220459
1751448486149610000,4.92060986328125,83.71875,37.20000076293945,-15.281250953674316
1751448486159609900,4.93060986328125,83.36250305175781,36.95625305175781,-15.281250953674316
1751448486179609900,4.95060986328125,82.98750305175781,36.618751525878906,-14.943750381469727
1751448486189610000,4.96060986328125,82.4625015258789,36.31875228881836,-14.943750381469727
1751448486199609900,4.97060986328125,82.03125,36.22500228881836,-14.96250057220459
1751448486209610000,4.98060986328125,81.54375457763672,36.13125228881836,-15.262500762939453
1751448486219609900,4.99060986328125,81.2437515258789,36.07500076293945,-15.05625057220459
1751448486229610000,5.00060986328125,80.6812515258789,35.94375228881836,-15.037500381469727
1751448486239609900,5.01060986328125,80.71875,35.79375076293945,-15.075000762939453
1751448486249610000,5.02060986328125,80.0250015258789,35.79375076293945,-15.093750953674316
1751448486259609900,5.03060986328125,79.98750305175781,35.587501525878906,-14.943750381469727
1751448486269610000,5.04060986328125,80.04375457763672,35.60625076293945,-14.793750762939453
1751448486279609900,5.05060986328125,79.98750305175781,35.60625076293945,-14.625000953674316
1751448486289610000,5.06060986328125,80.15625,35.92500305175781,-14.21250057220459
1751448486299609900,5.07060986328125,80.0625,35.868751525878906,-14.156250953674316
1751448486309610000,5.08060986328125,80.26875305175781,35.94375228881836,-14.081250190734863
1751448486319609900,5.09060986328125,80.4375,35.90625,-14.21250057220459
1751448486329610000,5.10060986328125,80.73750305175781,35.70000076293945,-14.40000057220459
1751448486339609900,5.11060986328125,81,35.73750305175781,-14.531250953674316
1751448486349610000,5.12060986328125,80.94375610351562,35.85000228881836,-14.531250953674316
1751448486359609900,5.13060986328125,81.30000305175781,35.85000228881836,-14.718750953674316
1751448486369610000,5.14060986328125,81.41250610351562,35.60625076293945,-14.850000381469727
1751448486379609900,5.15060986328125,81.88125610351562,35.55000305175781,-15.15000057220459
1751448486389610000,5.16060986328125,82.35000610351562,35.70000076293945,-15.15000057220459
1751448486399609900,5.17060986328125,82.6500015258789,36.056251525878906,-15.112500190734863
1751448486409610000,5.18060986328125,83.04375457763672,36.41250228881836,-15.206250190734863
1751448486419609900,5.19060986328125,83.53125,36.73125076293945,-15.450000762939453
1751448486429610000,5.20060986328125,84.20625305175781,37.01250076293945,-15.581250190734863
1751448486439609900,5.21060986328125,84.50625610351562,37.14375305175781,-15.750000953674316
1751448486449610000,5.22060986328125,85.03125,37.5,-16.05000114440918
1751448486459609900,5.23060986328125,85.1812515258789,37.6875,-16.21875
1751448486469610000,5.24060986328125,85.48125457763672,37.85625076293945,-16.556251525878906
1751448486479609900,5.25060986328125,85.70625305175781,37.837501525878906,-16.875
1751448486489610000,5.26060986328125,85.81875610351562,37.96875,-16.950000762939453
1751448486499609900,5.27060986328125,86.08125305175781,37.91250228881836,-16.98750114440918
1751448486509610000,5.28060986328125,86.34375,37.85625076293945,-17.212501525878906
1751448486519609900,5.29060986328125,86.53125,38.13750076293945,-17.34375
1751448486529610000,5.30060986328125,86.4375,38.0625,-17.568750381469727
1751448486539609900,5.31060986328125,86.51250457763672,38.212501525878906,-17.73750114440918
1751448486549610000,5.32060986328125,86.55000305175781,38.212501525878906,-17.73750114440918
1751448486559609900,5.33060986328125,86.4375,38.23125076293945,-17.418750762939453
1751448486569610000,5.34060986328125,86.4000015258789,38.10000228881836,-17.118751525878906
1751448486579609900,5.35060986328125,86.04375457763672,38.0625,-16.837501525878906
1751448486589610000,5.36060986328125,85.89375305175781,38.0625,-16.556251525878906
1751448486599609900,5.37060986328125,85.51875305175781,37.80000305175781,-16.3125
1751448486609610000,5.38060986328125,85.35000610351562,37.61250305175781,-15.90000057220459
1751448486619609900,5.39060986328125,85.16250610351562,37.25625228881836,-15.581250190734863
1751448486629610000,5.40060986328125,84.8062515258789,37.05000305175781,-15.393750190734863
1751448486639609900,5.41060986328125,84.45000457763672,36.806251525878906,-15.168750762939453
1751448486649610000,5.42060986328125,84.09375,36.54375076293945,-15.093750953674316
1751448486659609900,5.43060986328125,83.7750015258789,36.41250228881836,-15.24375057220459
1751448486669610000,5.44060986328125,83.28750610351562,36.07500076293945,-15.300000190734863
1751448486679609900,5.45060986328125,83.19375610351562,35.98125076293945,-15.05625057220459
1751448486689610000,5.46060986328125,82.72500610351562,35.83125305175781,-14.96250057220459
1751448486699609900,5.47060986328125,82.3687515258789,35.71875,-14.77500057220459
1751448486709610000,5.48060986328125,81.9375,35.60625076293945,-14.531250953674316
1751448486719609900,5.49060986328125,81.60000610351562,35.60625076293945,-14.606250762939453
1751448486729610000,5.50060986328125,81.4312515258789,35.587501525878906,-14.606250762939453
1751448486739609900,5.51060986328125,81.31875610351562,35.47500228881836,-14.475000381469727
1751448486749610000,5.52060986328125,81.09375,35.400001525878906,-14.531250953674316
1751448486759609900,5.53060986328125,80.85000610351562,35.55000305175781,-14.643750190734863
1751448486769610000,5.54060986328125,80.85000610351562,35.587501525878906,-14.700000762939453
1751448486779609900,5.55060986328125,80.71875,35.73750305175781,-14.58750057220459
1751448486789610000,5.56060986328125,80.7750015258789,35.85000228881836,-14.662500381469727
1751448486799609900,5.57060986328125,80.85000610351562,35.75625228881836,-14.512500762939453
1751448486809610000,5.58060986328125,81.07500457763672,35.962501525878906,-14.568750381469727
1751448486819609900,5.59060986328125,81.09375,35.94375228881836,-14.643750190734863
1751448486829610000,5.60060986328125,81.03750610351562,36.01875305175781,-14.606250762939453
1751448486839609900,5.61060986328125,81.07500457763672,36,-14.475000381469727
1751448486849610000,5.62060986328125,81.31875610351562,35.94375228881836,-14.68125057220459
1751448486859609900,5.63060986328125,81.46875,35.90625,-14.68125057220459
1751448486869610000,5.64060986328125,81.8062515258789,35.775001525878906,-14.793750762939453
1751448486879609900,5.65060986328125,82.29375457763672,35.98125076293945,-15.24375057220459
1751448486889610000,5.66060986328125,82.38750457763672,35.88750076293945,-15.450000762939453
1751448486899609900,5.67060986328125,82.70625305175781,36.22500228881836,-15.61875057220459
1751448486909610000,5.68060986328125,83.32500457763672,36.31875228881836,-15.90000057220459
1751448486919609900,5.69060986328125,83.71875,36.26250076293945,-16.181251525878906
1751448486929610000,5.70060986328125,84.0562515258789,36.337501525878906,-16.256250381469727
1751448486939609900,5.71060986328125,84.95625305175781,36.41250228881836,-16.78125
1751448486949610000,5.72060986328125,85.16250610351562,36.73125076293945,-17.006250381469727
1751448486959609900,5.73060986328125,85.44375610351562,37.14375305175781,-16.856250762939453
1751448486969610000,5.74060986328125,85.96875,37.462501525878906,-16.818750381469727
1751448486979609900,5.75060986328125,86.2125015258789,37.51875305175781,-16.96875
1751448486989610000,5.76060986328125,86.25,37.76250076293945,-16.78125
1751448486999609900,5.77060986328125,86.64375305175781,38.0625,-16.856250762939453
1751448487009610000,5.78060986328125,86.66250610351562,38.4375,-16.818750381469727
1751448487019609900,5.79060986328125,86.13750457763672,38.625,-16.80000114440918
1751448487029610000,5.80060986328125,86.15625,38.55000305175781,-16.70625114440918
1751448487039609900,5.81060986328125,86.13750457763672,38.38125228881836,-16.725000381469727
1751448487049610000,5.82060986328125,85.70625305175781,38.212501525878906,-16.818750381469727
1751448487059609900,5.83060986328125,85.61250305175781,37.95000076293945,-16.481250762939453
1751448487069610000,5.84060986328125,85.70625305175781,37.72500228881836,-16.350000381469727
1751448487079609900,5.85060986328125,85.10625457763672,37.5,-16.293750762939453
1751448487089610000,5.86060986328125,84.69375610351562,37.3125,-15.937500953674316
1751448487099609900,5.87060986328125,84.54375457763672,37.20000076293945,-15.581250190734863
1751448487109610000,5.88060986328125,84,37.05000305175781,-15.543750762939453
1751448487119609900,5.89060986328125,83.70000457763672,36.712501525878906,-15.393750190734863
1751448487129610000,5.90060986328125,83.45625305175781,36.525001525878906,-15.093750953674316
1751448487139609900,5.91060986328125,82.8375015258789,36.375,-14.831250190734863
1751448487149610000,5.92060986328125,82.2750015258789,36.30000305175781,-14.925000190734863
1751448487159609900,5.93060986328125,82.2750015258789,36,-14.887500762939453
1751448487169610000,5.94060986328125,82.16250610351562,35.681251525878906,-15.187500953674316
1751448487179609900,5.95060986328125,81.82500457763672,35.55000305175781,-15.05625057220459
1751448487189610000,5.96060986328125,81.69375610351562,35.587501525878906,-14.831250190734863
1751448487199609900,5.97060986328125,81.13125610351562,35.56875228881836,-14.662500381469727
1751448487209610000,5.98060986328125,80.94375610351562,35.34375,-14.643750190734863
1751448487219609900,5.99060986328125,81,35.36250305175781,-14.662500381469727
1751448487229610000,6.00060986328125,80.71875,35.34375,-14.40000057220459
1751448487239609900,6.01060986328125,80.56875610351562,35.41875076293945,-14.21250057220459
1751448487249610000,6.02060986328125,80.60625457763672,35.38125228881836,-13.687500953674316
1751448487259609900,6.03060986328125,80.4937515258789,35.212501525878906,-13.800000190734863
1751448487269610000,6.04060986328125,80.6812515258789,35.15625,-13.74375057220459
1751448487279609900,6.05060986328125,80.94375610351562,35.19375228881836,-13.725000381469727
1751448487289610000,6.06060986328125,80.9625015258789,35.28750228881836,-13.706250190734863
1751448487299609900,6.07060986328125,81,35.28750228881836,-13.593750953674316
1751448487309610000,6.08060986328125,81,35.212501525878906,-13.74375057220459
1751448487319609900,6.09060986328125,80.75625610351562,35.23125076293945,-13.706250190734863
1751448487329610000,6.10060986328125,80.85000610351562,35.4375,-13.800000190734863
1751448487339609900,6.11060986328125,81.09375,35.47500228881836,-13.856250762939453
1751448487349610000,6.12060986328125,81.30000305175781,35.41875076293945,-14.156250953674316
1751448487359609900,6.13060986328125,81.6187515258789,35.64375305175781,-14.231250762939453
1751448487369610000,6.14060986328125,81.9937515258789,36,-14.21250057220459
1751448487379609900,6.15060986328125,82.29375457763672,36.22500228881836,-14.662500381469727
1751448487389610000,6.16060986328125,83.23125457763672,36.41250228881836,-14.512500762939453
1751448487399609900,6.17060986328125,83.6812515258789,36.712501525878906,-14.831250190734863
1751448487409610000,6.18060986328125,84.2437515258789,36.88125228881836,-15.225000381469727
1751448487419609900,6.19060986328125,84.82500457763672,37.23750305175781,-15.43125057220459
1751448487429610000,6.20060986328125,85.10625457763672,37.63125228881836,-15.637500762939453
1751448487439609900,6.21060986328125,85.3125,37.66875076293945,-15.862500190734863
1751448487449610000,6.22060986328125,85.57500457763672,37.5,-16.33125114440918
1751448487459609900,6.23060986328125,85.96875,37.556251525878906,-16.350000381469727
1751448487469610000,6.24060986328125,85.98750305175781,37.63125228881836,-16.856250762939453
1751448487479609900,6.25060986328125,86.51250457763672,37.6875,-16.743751525878906
1751448487489610000,6.26060986328125,86.41875457763672,37.650001525878906,-16.631250381469727
1751448487499609900,6.27060986328125,86.28750610351562,37.6875,-16.725000381469727
1751448487509610000,6.28060986328125,86.25,37.556251525878906,-16.481250762939453
1751448487519609900,6.29060986328125,86.10000610351562,37.368751525878906,-16.33125114440918
1751448487529610000,6.30060986328125,85.7437515258789,37.275001525878906,-16.106250762939453
1751448487539609900,6.31060986328125,85.10625457763672,37.181251525878906,-15.918750762939453
1751448487549610000,6.32060986328125,84.6187515258789,36.88125228881836,-15.581250190734863
1751448487559609900,6.33060986328125,83.94375610351562,36.76875305175781,-15.225000381469727
1751448487569610000,6.34060986328125,83.51250457763672,36.69375228881836,-15.112500190734863
1751448487579609900,6.35060986328125,83.00625610351562,36.375,-14.700000762939453
1751448487589610000,6.36060986328125,82.42500305175781,36.1875,-14.531250953674316
1751448487599609900,6.37060986328125,81.86250305175781,36.150001525878906,-14.381250381469727
1751448487609610000,6.38060986328125,81.5250015258789,35.94375228881836,-14.11875057220459
1751448487619609900,6.39060986328125,81.54375457763672,35.88750076293945,-13.856250762939453
1751448487629610000,6.40060986328125,81.1875,35.8125,-13.331250190734863
1751448487639609900,6.41060986328125,81.03750610351562,35.56875228881836,-13.162500381469727
1751448487649610000,6.42060986328125,80.8687515258789,35.36250305175781,-13.106250762939453
1751448487659609900,6.43060986328125,80.9625015258789,35.306251525878906,-13.068750381469727
1751448487669610000,6.44060986328125,81.09375,35.32500076293945,-12.637500762939453
1751448487679609900,6.45060986328125,81.09375,35.26875305175781,-12.468750953674316
1751448487689610000,6.46060986328125,81.0562515258789,35.38125228881836,-12.24375057220459
1751448487699609900,6.47060986328125,81,35.212501525878906,-12.05625057220459
1751448487709610000,6.48060986328125,80.8125,35.26875305175781,-12.168750762939453
1751448487719609900,6.49060986328125,80.7750015258789,35.28750228881836,-12.112500190734863
1751448487729610000,6.50060986328125,81.03750610351562,35.25,-11.850000381469727
1751448487739609900,6.51060986328125,80.92500305175781,35.19375228881836,-11.643750190734863
1751448487749610000,6.52060986328125,81.01875305175781,34.98750305175781,-11.756250381469727
1751448487759609900,6.53060986328125,81.30000305175781,34.91250228881836,-11.568750381469727
1751448487769610000,6.54060986328125,81.375,34.72500228881836,-11.756250381469727
1751448487779609900,6.55060986328125,81.28125,34.57500076293945,-12
1751448487789610000,6.56060986328125,81.41250610351562,34.556251525878906,-12.206250190734863
1751448487799609900,6.57060986328125,81.30000305175781,34.5,-12.468750953674316
1751448487809610000,6.58060986328125,81.03750610351562,34.51875305175781,-12.750000953674316
1751448487819609900,6.59060986328125,81.13125610351562,34.66875076293945,-12.881250381469727
1751448487829610000,6.60060986328125,80.79375457763672,34.6875,-13.256250381469727
1751448487839609900,6.61060986328125,80.51250457763672,34.80000305175781,-13.537500381469727
1751448487849610000,6.62060986328125,80.4375,35.10000228881836,-13.55625057220459
1751448487859609900,6.63060986328125,80.60625457763672,35.32500076293945,-13.631250381469727
1751448487869610000,6.64060986328125,80.90625,35.56875228881836,-13.818750381469727
1751448487879609900,6.65060986328125,81.28125,35.8125,-14.100000381469727
1751448487889610000,6.66060986328125,81.97500610351562,36.150001525878906,-14.362500190734863
1751448487899609900,6.67060986328125,82.5,36.20625305175781,-14.625000953674316
1751448487909610000,6.68060986328125,83.19375610351562,36.58125305175781,-14.793750762939453
1751448487919609900,6.69060986328125,84,36.88125228881836,-15.318750381469727
1751448487929610000,6.70060986328125,84.8062515258789,37.03125,-15.731250762939453
1751448487939609900,6.71060986328125,85.53750610351562,37.35000228881836,-16.200000762939453
1751448487949610000,6.72060986328125,86.2125015258789,37.59375,-16.725000381469727
1751448487959609900,6.73060986328125,86.85000610351562,37.85625076293945,-16.96875
1751448487969610000,6.74060986328125,87.09375,37.98750305175781,-17.306251525878906
1751448487979609900,6.75060986328125,87.48750305175781,38.400001525878906,-17.625
1751448487989610000,6.76060986328125,88.01250457763672,38.64375305175781,-18.056251525878906
1751448487999609900,6.77060986328125,88.38750457763672,38.681251525878906,-18.356250762939453
1751448488009610000,6.78060986328125,88.63125610351562,38.625,-18.693750381469727
1751448488019609900,6.79060986328125,88.61250305175781,38.83125305175781,-18.693750381469727
1751448488029610000,6.80060986328125,88.72500610351562,38.75625228881836,-18.600000381469727
1751448488039609900,6.81060986328125,88.98750305175781,38.71875,-18.918750762939453
1751448488049610000,6.82060986328125,89.25,38.75625228881836,-18.86250114440918
1751448488059609900,6.83060986328125,89.23125457763672,38.55000305175781,-19.05000114440918
1751448488069610000,6.84060986328125,89.3062515258789,38.47500228881836,-19.068750381469727
1751448488079609900,6.85060986328125,89.19375610351562,38.41875076293945,-18.806251525878906
1751448488089610000,6.86060986328125,88.98750305175781,38.587501525878906,-18.712501525878906
1751448488099609900,6.87060986328125,89.10000610351562,38.47500228881836,-18.881250381469727
1751448488109610000,6.88060986328125,88.98750305175781,38.36250305175781,-18.975000381469727
1751448488119609900,6.89060986328125,88.78125,38.47500228881836,-18.731250762939453
1751448488129610000,6.90060986328125,88.33125305175781,38.28750228881836,-18.58125114440918
1751448488139609900,6.91060986328125,88.33125305175781,38.36250305175781,-18.1875
1751448488149610000,6.92060986328125,88.01250457763672,38.04375076293945,-17.850000381469727
1751448488159609900,6.93060986328125,87.76875305175781,37.875,-17.625
1751448488169610000,6.94060986328125,87.6187515258789,37.70625305175781,-17.17500114440918
1751448488179609900,6.95060986328125,87.1875,37.38750076293945,-16.59375
1751448488189610000,6.96060986328125,86.79375457763672,37.462501525878906,-15.825000762939453
1751448488199609900,6.97060986328125,86.36250305175781,36.75,-15.600000381469727
1751448488209610000,6.98060986328125,85.85625457763672,36.48750305175781,-15.24375057220459
1751448488219609900,6.99060986328125,85.35000610351562,36.13125228881836,-15.037500381469727
1751448488229610000,7.00060986328125,84.60000610351562,36.056251525878906,-14.77500057220459
1751448488239609900,7.01060986328125,84.09375,35.681251525878906,-14.550000190734863
1751448488249610000,7.02060986328125,83.70000457763672,35.47500228881836,-14.21250057220459
1751448488259609900,7.03060986328125,83.25,35.4375,-14.231250762939453
1751448488269610000,7.04060986328125,83.17500305175781,35.19375228881836,-14.250000953674316
1751448488279609900,7.05060986328125,82.81875610351562,35.38125228881836,-14.006250381469727
1751448488289610000,7.06060986328125,82.98750305175781,35.32500076293945,-13.781250953674316
1751448488299609900,7.07060986328125,82.80000305175781,35.15625,-13.631250381469727
1751448488309610000,7.08060986328125,82.875,35.25,-13.18125057220459
1751448488319609900,7.09060986328125,82.875,35.36250305175781,-13.068750381469727
1751448488329610000,7.10060986328125,82.96875,35.36250305175781,-12.918750762939453
1751448488339609900,7.11060986328125,83.2125015258789,35.306251525878906,-12.562500953674316
1751448488349610000,7.12060986328125,82.91250610351562,35.25,-12.412500381469727
1751448488359609900,7.13060986328125,83.0625,35.13750076293945,-12.112500190734863
1751448488369610000,7.14060986328125,82.85625457763672,35.118751525878906,-12.037500381469727
1751448488379609900,7.15060986328125,82.7437515258789,35.118751525878906,-11.86875057220459
1751448488389610000,7.16060986328125,82.6875,35.025001525878906,-11.8125
1751448488399609900,7.17060986328125,82.6875,35.04375076293945,-11.625
1751448488409610000,7.18060986328125,82.40625,35.025001525878906,-11.58750057220459
1751448488419609900,7.19060986328125,82.3687515258789,34.91250228881836,-11.40000057220459
1751448488429610000,7.20060986328125,82.5,34.875,-11.475000381469727
1751448488439609900,7.21060986328125,82.44375610351562,35.00625228881836,-11.287500381469727
1751448488449610000,7.22060986328125,82.33125305175781,35.0625,-11.268750190734863
1751448488459609900,7.23060986328125,82.3125,35.00625228881836,-11.53125
1751448488469610000,7.24060986328125,82.2750015258789,35.0625,-11.68125057220459
1751448488479609900,7.25060986328125,82.40625,34.89375305175781,-11.850000381469727
1751448488489610000,7.26060986328125,82.03125,35.025001525878906,-12.093750953674316
1751448488499609900,7.27060986328125,81.76875305175781,35.15625,-12.562500953674316
1751448488509610000,7.28060986328125,81.5250015258789,35.47500228881836,-12.90000057220459
1751448488519609900,7.29060986328125,81.375,35.53125,-13.331250190734863
1751448488529610000,7.30060986328125,81.54375457763672,35.625,-13.856250762939453
1751448488539609900,7.31060986328125,81.8062515258789,35.94375228881836,-13.987500190734863
1751448488549610000,7.32060986328125,82.1812515258789,36,-14.49375057220459
1751448488559609900,7.33060986328125,82.40625,36.35625076293945,-14.793750762939453
1751448488569610000,7.34060986328125,83.1187515258789,36.30000305175781,-15.000000953674316
1751448488579609900,7.35060986328125,83.7750015258789,36.60000228881836,-15.52500057220459
1751448488589610000,7.36060986328125,84.39375305175781,36.525001525878906,-15.768750190734863
1751448488599609900,7.37060986328125,85.21875,36.97500228881836,-15.881250381469727
1751448488609610000,7.38060986328125,85.89375305175781,37.38750076293945,-16.068750381469727
1751448488619609900,7.39060986328125,86.55000305175781,37.72500228881836,-16.89375114440918
1751448488629610000,7.40060986328125,87.3375015258789,38.0625,-17.25
1751448488639609900,7.41060986328125,87.8062515258789,38.17500305175781,-17.568750381469727
1751448488649610000,7.42060986328125,88.125,38.34375,-18.28125
1751448488659609900,7.43060986328125,88.6500015258789,38.306251525878906,-18.600000381469727
1751448488669610000,7.44060986328125,89.3062515258789,38.45625305175781,-19.162500381469727
1751448488679609900,7.45060986328125,89.26875305175781,38.51250076293945,-19.912500381469727
1751448488689610000,7.46060986328125,89.3062515258789,38.493751525878906,-20.17500114440918
1751448488699609900,7.47060986328125,89.26875305175781,38.26875305175781,-20.006250381469727
1751448488709610000,7.48060986328125,89.1187515258789,38.0625,-20.043750762939453
1751448488719609900,7.49060986328125,88.95000457763672,38.28750228881836,-20.193750381469727
1751448488729610000,7.50060986328125,89.15625,38.51250076293945,-20.118751525878906
1751448488739609900,7.51060986328125,88.80000305175781,38.53125,-20.212501525878906
1751448488749610000,7.52060986328125,88.33125305175781,38.587501525878906,-19.78125
1751448488759609900,7.53060986328125,88.16250610351562,38.53125,-19.51875114440918
1751448488769610000,7.54060986328125,87.9937515258789,38.51250076293945,-19.33125114440918
1751448488779609900,7.55060986328125,87.65625,38.71875,-18.86250114440918
1751448488789610000,7.56060986328125,87.16875457763672,38.94375228881836,-18.637500762939453
1751448488799609900,7.57060986328125,87.13125610351562,38.85000228881836,-18.337501525878906
1751448488809610000,7.58060986328125,86.92500305175781,38.681251525878906,-17.756250381469727
1751448488819609900,7.59060986328125,86.4375,38.625,-17.15625
1751448488829610000,7.60060986328125,86.23125457763672,38.34375,-16.98750114440918
1751448488839609900,7.61060986328125,85.98750305175781,38.19375228881836,-16.462501525878906
1751448488849610000,7.62060986328125,85.3687515258789,37.80000305175781,-16.181251525878906
1751448488859609900,7.63060986328125,84.9937515258789,37.48125076293945,-16.200000762939453
1751448488869610000,7.64060986328125,84.5625,37.20000076293945,-15.881250381469727
1751448488879609900,7.65060986328125,84.01875305175781,36.712501525878906,-15.52500057220459
1751448488889610000,7.66060986328125,83.38125610351562,36.60000228881836,-15.300000190734863
1751448488899609900,7.67060986328125,83.0250015258789,36.28125,-15.018750190734863
1751448488909610000,7.68060986328125,82.48125457763672,36.30000305175781,-14.606250762939453
1751448488919609900,7.69060986328125,82.20000457763672,35.94375228881836,-14.475000381469727
1751448488929610000,7.70060986328125,82.29375457763672,35.868751525878906,-13.950000762939453
1751448488939609900,7.71060986328125,82.125,35.66250228881836,-13.800000190734863
1751448488949610000,7.72060986328125,82.06875610351562,35.41875076293945,-13.518750190734863
1751448488959609900,7.73060986328125,81.91875457763672,35.55000305175781,-13.237500190734863
1751448488969610000,7.74060986328125,81.88125610351562,35.41875076293945,-13.27500057220459
1751448488979609900,7.75060986328125,82.03125,35.36250305175781,-12.862500190734863
1751448488989610000,7.76060986328125,82.21875,35.19375228881836,-12.80625057220459
1751448488999609900,7.77060986328125,82.33125305175781,35.17500305175781,-12.543750762939453
1751448489009610000,7.78060986328125,82.44375610351562,35.08125305175781,-12.52500057220459
1751448489019609900,7.79060986328125,82.70625305175781,34.931251525878906,-12.112500190734863
1751448489029610000,7.80060986328125,82.6875,34.875,-11.925000190734863
1751448489039609900,7.81060986328125,82.98750305175781,34.72500228881836,-11.68125057220459
1751448489049610000,7.82060986328125,83.19375610351562,34.57500076293945,-11.512500762939453
1751448489059609900,7.83060986328125,83.25,34.44375228881836,-11.606250762939453
1751448489069610000,7.84060986328125,83.32500457763672,34.33125305175781,-11.381250381469727
1751448489079609900,7.85060986328125,83.3062515258789,34.35000228881836,-11.11875057220459
1751448489089610000,7.86060986328125,83.2125015258789,34.14375305175781,-11.02500057220459
1751448489099609900,7.87060986328125,83.2125015258789,34.275001525878906,-10.912500381469727
1751448489109610000,7.88060986328125,83.34375,34.42500305175781,-10.818750381469727
1751448489119609900,7.89060986328125,83.0250015258789,34.462501525878906,-11.100000381469727
1751448489129610000,7.90060986328125,82.81875610351562,34.44375228881836,-11.193750381469727
1751448489139609900,7.91060986328125,82.76250457763672,34.63125228881836,-11.25
1751448489149610000,7.92060986328125,82.6875,34.78125,-11.4375
1751448489159609900,7.93060986328125,82.5562515258789,34.72500228881836,-12.05625057220459
1751448489169610000,7.94060986328125,82.01250457763672,35.13750076293945,-12.468750953674316
1751448489179609900,7.95060986328125,81.7125015258789,35.34375,-12.843750953674316
1751448489189610000,7.96060986328125,81.39375305175781,35.400001525878906,-13.46250057220459
1751448489199609900,7.97060986328125,81.48750305175781,35.400001525878906,-13.800000190734863
1751448489209610000,7.98060986328125,81.41250610351562,35.681251525878906,-14.100000381469727
1751448489219609900,7.99060986328125,81.46875,36.03750228881836,-14.456250190734863
1751448489229610000,8.00060986328125,81.58125305175781,36.26250076293945,-14.812500953674316
1751448489239609900,8.01060986328125,82.03125,36.78750228881836,-14.925000190734863
1751448489249610000,8.02060986328125,82.875,36.91875076293945,-15.000000953674316
1751448489259609900,8.03060986328125,83.34375,37.16250228881836,-15.375000953674316
1751448489269610000,8.04060986328125,84.22500610351562,37.275001525878906,-15.61875057220459
1751448489279609900,8.05060986328125,84.8062515258789,37.57500076293945,-16.03125
1751448489289610000,8.06060986328125,85.38750457763672,37.89375305175781,-16.5
1751448489299609900,8.07060986328125,86.1187515258789,37.98750305175781,-17.212501525878906
1751448489309610000,8.08060986328125,86.625,38.118751525878906,-17.45625114440918
1751448489319609900,8.09060986328125,87.07500457763672,38.23125076293945,-17.962501525878906
1751448489329610000,8.10060986328125,87.6187515258789,38.587501525878906,-18.5625
1751448489339609900,8.11060986328125,88.2750015258789,38.79375076293945,-18.918750762939453
1751448489349610000,8.12060986328125,88.66875457763672,38.79375076293945,-19.200000762939453
1751448489359609900,8.13060986328125,89.00625610351562,38.88750076293945,-19.556251525878906
1751448489369610000,8.14060986328125,89.45625305175781,38.92500305175781,-19.80000114440918
1751448489379609900,8.15060986328125,89.51250457763672,39.11250305175781,-19.818750381469727
1751448489389610000,8.16060986328125,89.98125457763672,39.26250076293945,-20.287500381469727
1751448489399609900,8.17060986328125,89.98125457763672,39.150001525878906,-20.475000381469727
1751448489409610000,8.18060986328125,89.73750305175781,39.16875076293945,-20.606250762939453
1751448489419609900,8.19060986328125,89.4375,39.056251525878906,-20.73750114440918
1751448489429610000,8.20060986328125,89.4000015258789,39.30000305175781,-20.700000762939453
1751448489439609900,8.21060986328125,89.23125457763672,39.525001525878906,-20.512500762939453
1751448489449610000,8.22060986328125,89.25,39.58125305175781,-20.306251525878906
1751448489459609900,8.23060986328125,89.17500305175781,39.243751525878906,-20.325000762939453
1751448489469610000,8.24060986328125,89.17500305175781,39.09375,-20.137500762939453
1751448489479609900,8.25060986328125,89.10000610351562,38.962501525878906,-19.837501525878906
1751448489489610000,8.26060986328125,89.13750457763672,38.681251525878906,-19.368751525878906
1751448489499609900,8.27060986328125,89.23125457763672,38.55000305175781,-19.200000762939453
1751448489509610000,8.28060986328125,88.81875610351562,38.36250305175781,-18.95625114440918
1751448489519609900,8.29060986328125,88.59375,38.00625228881836,-18.5625
1751448489529610000,8.30060986328125,88.44375610351562,37.70625305175781,-18.168750762939453
1751448489539609900,8.31060986328125,88.3687515258789,37.743751525878906,-17.45625114440918
1751448489549610000,8.32060986328125,87.88125610351562,37.70625305175781,-17.0625
1751448489559609900,8.33060986328125,87.69375610351562,37.6875,-16.61250114440918
1751448489569610000,8.34060986328125,87.31875610351562,37.6875,-16.6875
1751448489579609900,8.35060986328125,86.9625015258789,37.33125305175781,-16.181251525878906
1751448489589610000,8.36060986328125,86.75625610351562,36.97500228881836,-15.975000381469727
1751448489599609900,8.37060986328125,86.70000457763672,36.806251525878906,-15.80625057220459
1751448489609610000,8.38060986328125,85.89375305175781,36.67500305175781,-15.487500190734863
1751448489619609900,8.39060986328125,85.4625015258789,36.375,-15.412500381469727
1751448489629610000,8.40060986328125,85.14375305175781,36.07500076293945,-14.850000381469727
1751448489639609900,8.41060986328125,84.84375,35.83125305175781,-14.662500381469727
1751448489649610000,8.42060986328125,84.5625,35.36250305175781,-14.250000953674316
1751448489659609900,8.43060986328125,84.35625457763672,35.45625305175781,-14.02500057220459
1751448489669610000,8.44060986328125,83.94375610351562,35.53125,-13.55625057220459
1751448489679609900,8.45060986328125,83.38125610351562,35.4375,-13.350000381469727
1751448489689610000,8.46060986328125,83.45625305175781,35.212501525878906,-13.312500953674316
1751448489699609900,8.47060986328125,83.25,35.19375228881836,-13.031250953674316
1751448489709610000,8.48060986328125,82.9312515258789,35.15625,-12.862500190734863
1751448489719609900,8.49060986328125,82.78125,34.95000076293945,-12.581250190734863
1751448489729610000,8.50060986328125,83.00625610351562,35.15625,-12.187500953674316
1751448489739609900,8.51060986328125,82.89375305175781,34.837501525878906,-11.96250057220459
1751448489749610000,8.52060986328125,83.17500305175781,34.66875076293945,-11.737500190734863
1751448489759609900,8.53060986328125,83.47500610351562,34.57500076293945,-11.193750381469727
1751448489769610000,8.54060986328125,83.8687515258789,34.35000228881836,-10.875
1751448489779609900,8.55060986328125,84.28125,33.993751525878906,-10.725000381469727
1751448489789610000,8.56060986328125,84.67500305175781,33.95625305175781,-10.59375
1751448489799609900,8.57060986328125,84.73125457763672,33.84375,-10.575000762939453
1751448489809610000,8.58060986328125,84.63750457763672,33.65625,-10.331250190734863
1751448489819609900,8.59060986328125,84.75,33.63750076293945,-10.143750190734863
1751448489829610000,8.60060986328125,84.75,33.30000305175781,-10.237500190734863
1751448489839609900,8.61060986328125,84.84375,33.09375,-10.200000762939453
1751448489849610000,8.62060986328125,84.67500305175781,33.13125228881836,-10.200000762939453
1751448489859609900,8.63060986328125,84.35625457763672,33.09375,-10.125
1751448489869610000,8.64060986328125,84.1875,33.150001525878906,-10.40625
1751448489879609900,8.65060986328125,84.13125610351562,33.35625076293945,-10.65000057220459
1751448489889610000,8.66060986328125,84,33.28125,-10.818750381469727
1751448489899609900,8.67060986328125,83.98125457763672,33.35625076293945,-10.987500190734863
1751448489909610000,8.68060986328125,83.8687515258789,33.67500305175781,-11.21250057220459
1751448489919609900,8.69060986328125,83.56875610351562,34.03125,-11.58750057220459
1751448489929610000,8.70060986328125,83.34375,34.44375228881836,-11.643750190734863
1751448489939609900,8.71060986328125,83.08125305175781,35.00625228881836,-12.05625057220459
1751448489949610000,8.72060986328125,82.89375305175781,35.10000228881836,-12.33750057220459
1751448489959609900,8.73060986328125,82.78125,35.26875305175781,-12.581250190734863
1751448489969610000,8.74060986328125,82.63125610351562,35.51250076293945,-12.956250190734863
1751448489979609900,8.75060986328125,82.5562515258789,35.681251525878906,-13.425000190734863
1751448489989610000,8.76060986328125,82.48125457763672,35.92500305175781,-13.593750953674316
1751448489999609900,8.77060986328125,82.9312515258789,36.03750228881836,-14.062500953674316
1751448490009610000,8.78060986328125,83.32500457763672,36.056251525878906,-14.643750190734863
1751448490019609900,8.79060986328125,84,36.22500228881836,-14.850000381469727
1751448490029610000,8.80060986328125,84.60000610351562,36.28125,-15.112500190734863
1751448490039609900,8.81060986328125,85.125,36.41250228881836,-15.24375057220459
1751448490049610000,8.82060986328125,85.66875457763672,36.78750228881836,-15.787500381469727
1751448490059609900,8.83060986328125,86.0625,37.23750305175781,-16.162500381469727
1751448490069610000,8.84060986328125,86.55000305175781,37.51875305175781,-16.96875
1751448490079609900,8.85060986328125,86.98125457763672,37.837501525878906,-17.287500381469727
1751448490089610000,8.86060986328125,87.31875610351562,38.212501525878906,-17.775001525878906
1751448490099609900,8.87060986328125,87.65625,38.28750228881836,-18.375
1751448490109610000,8.88060986328125,87.76875305175781,38.775001525878906,-18.84375
1751448490119609900,8.89060986328125,88.1812515258789,38.83125305175781,-19.33125114440918
1751448490129610000,8.90060986328125,88.8375015258789,39.01875305175781,-19.481250762939453
1751448490139609900,8.91060986328125,89.08125305175781,39,-19.875
1751448490149610000,8.92060986328125,89.60625457763672,39.09375,-19.856250762939453
1751448490159609900,8.93060986328125,89.56875610351562,39.11250305175781,-19.98750114440918
1751448490169610000,8.94060986328125,89.7750015258789,38.92500305175781,-20.0625
1751448490179609900,8.95060986328125,89.92500305175781,38.98125076293945,-20.006250381469727
1751448490189610000,8.96060986328125,89.85000610351562,38.71875,-19.98750114440918
1751448490199609900,8.97060986328125,89.73750305175781,38.98125076293945,-20.006250381469727
1751448490209610000,8.98060986328125,89.32500457763672,38.70000076293945,-19.96875
1751448490219609900,8.99060986328125,89.36250305175781,38.775001525878906,-19.818750381469727
1751448490229610000,9.00060986328125,88.98750305175781,38.681251525878906,-19.650001525878906
1751448490239609900,9.01060986328125,89.0250015258789,38.56875228881836,-19.33125114440918
1751448490249610000,9.02060986328125,88.5,38.70000076293945,-18.881250381469727
1751448490259609900,9.03060986328125,88.10625457763672,38.625,-18.543750762939453
1751448490269610000,9.04060986328125,88.0875015258789,38.625,-18.131250381469727
1751448490279609900,9.05060986328125,87.78750610351562,38.4375,-17.400001525878906
1751448490289610000,9.06060986328125,87.58125305175781,38.51250076293945,-17.006250381469727
1751448490299609900,9.07060986328125,87.09375,38.306251525878906,-16.575000762939453
1751448490309610000,9.08060986328125,86.7750015258789,38.0625,-16.3125
1751448490319609900,9.09060986328125,86.25,37.837501525878906,-16.21875
1751448490329610000,9.10060986328125,86.08125305175781,37.42500305175781,-16.012500762939453
1751448490339609900,9.11060986328125,85.6500015258789,37.087501525878906,-15.675000190734863
1751448490349610000,9.12060986328125,85.25625610351562,36.84375,-15.33750057220459
1751448490359609900,9.13060986328125,84.82500457763672,36.69375228881836,-15.450000762939453
1751448490369610000,9.14060986328125,84.31875610351562,36.30000305175781,-15.037500381469727
1751448490379609900,9.15060986328125,84.01875305175781,36.11250305175781,-14.512500762939453
1751448490389610000,9.16060986328125,83.60625457763672,35.92500305175781,-14.156250953674316
1751448490399609900,9.17060986328125,83.28750610351562,35.55000305175781,-13.762500762939453
1751448490409610000,9.18060986328125,83.0250015258789,35.681251525878906,-13.500000953674316
1751448490419609900,9.19060986328125,82.81875610351562,35.60625076293945,-13.312500953674316
1751448490429610000,9.20060986328125,82.23750305175781,35.56875228881836,-12.843750953674316
1751448490439609900,9.21060986328125,82.21875,35.32500076293945,-12.543750762939453
1751448490449610000,9.22060986328125,82.29375457763672,35.36250305175781,-12.375000953674316
1751448490459609900,9.23060986328125,82.3125,34.95000076293945,-12.33750057220459
1751448490469610000,9.24060986328125,82.53750610351562,34.80000305175781,-12.037500381469727
1751448490479609900,9.25060986328125,82.78125,34.80000305175781,-11.77500057220459
1751448490489610000,9.26060986328125,83.08125305175781,34.33125305175781,-11.4375
1751448490499609900,9.27060986328125,83.4000015258789,34.29375076293945,-11.11875057220459
1751448490509610000,9.28060986328125,84.01875305175781,33.95625305175781,-11.0625
1751448490519609900,9.29060986328125,84.2437515258789,33.618751525878906,-10.800000190734863
1751448490529610000,9.30060986328125,84.2437515258789,33.26250076293945,-10.631250381469727
1751448490539609900,9.31060986328125,84.375,33.31875228881836,-10.331250190734863
1751448490549610000,9.32060986328125,84.45000457763672,33.375,-10.050000190734863
1751448490559609900,9.33060986328125,84.54375457763672,33.22500228881836,-9.65625
1751448490569610000,9.34060986328125,84.5625,33.39375305175781,-9.52500057220459
1751448490579609900,9.35060986328125,84.63750457763672,33.13125228881836,-9.506250381469727
1751448490589610000,9.36060986328125,84.7125015258789,33.03750228881836,-9.543750762939453
1751448490599609900,9.37060986328125,84.78750610351562,32.962501525878906,-9.75
1751448490609610000,9.38060986328125,84.88125610351562,33.056251525878906,-9.731250762939453
1751448490619609900,9.39060986328125,84.9000015258789,33.30000305175781,-9.75
1751448490629610000,9.40060986328125,84.75,33.30000305175781,-9.75
1751448490639609900,9.41060986328125,84.4312515258789,33.618751525878906,-10.200000762939453
1751448490649610000,9.42060986328125,84.11250305175781,33.58125305175781,-10.612500190734863
1751448490659609900,9.43060986328125,83.9625015258789,33.91875076293945,-10.987500190734863
1751448490669610000,9.44060986328125,83.53125,34.181251525878906,-11.381250381469727
1751448490679609900,9.45060986328125,82.98750305175781,34.72500228881836,-11.49375057220459
1751448490689610000,9.46060986328125,82.95000457763672,34.96875,-12.018750190734863
1751448490699609900,9.47060986328125,82.81875610351562,35.00625228881836,-12.61875057220459
1751448490709610000,9.48060986328125,82.875,35.10000228881836,-13.27500057220459
1751448490719609900,9.49060986328125,82.875,35.25,-13.687500953674316
1751448490729610000,9.50060986328125,82.96875,35.51250076293945,-14.081250190734863
1751448490739609900,9.51060986328125,83.04375457763672,35.53125,-14.40000057220459
1751448490749610000,9.52060986328125,83.17500305175781,35.88750076293945,-14.625000953674316
1751448490759609900,9.53060986328125,83.60625457763672,35.98125076293945,-14.943750381469727
1751448490769610000,9.54060986328125,83.90625,36.16875076293945,-15.356250762939453
1751448490779609900,9.55060986328125,84.5250015258789,36.45000076293945,-15.675000190734863
1751448490789610000,9.56060986328125,85.06875610351562,36.84375,-16.087501525878906
1751448490799609900,9.57060986328125,85.85625457763672,37.16250228881836,-16.3125
1751448490809610000,9.58060986328125,86.36250305175781,37.38750076293945,-16.668750762939453
1751448490819609900,9.59060986328125,87.01875305175781,37.81875228881836,-17.17500114440918
1751448490829610000,9.60060986328125,87.69375610351562,38.04375076293945,-17.775001525878906
1751448490839609900,9.61060986328125,88.06875610351562,38.306251525878906,-18.375
1751448490849610000,9.62060986328125,88.40625,38.45625305175781,-18.618751525878906
1751448490859609900,9.63060986328125,88.48125457763672,38.51250076293945,-18.900001525878906
1751448490869610000,9.64060986328125,88.66875457763672,38.64375305175781,-19.106250762939453
1751448490879609900,9.65060986328125,88.48125457763672,38.71875,-19.350000381469727
1751448490889610000,9.66060986328125,88.63125610351562,38.88750076293945,-19.481250762939453
1751448490899609900,9.67060986328125,88.35000610351562,38.681251525878906,-19.42500114440918
1751448490909610000,9.68060986328125,88.33125305175781,38.66250228881836,-19.125
1751448490919609900,9.69060986328125,88.29375457763672,38.66250228881836,-19.012500762939453
1751448490929610000,9.70060986328125,88.42500305175781,38.625,-18.9375
1751448490939609900,9.71060986328125,88.44375610351562,38.71875,-18.787500381469727
1751448490949610000,9.72060986328125,88.4625015258789,38.79375076293945,-18.693750381469727
1751448490959609900,9.73060986328125,88.40625,38.55000305175781,-18.506250381469727
1751448490969610000,9.74060986328125,88.14375305175781,38.56875228881836,-18.168750762939453
1751448490979609900,9.75060986328125,88.14375305175781,38.625,-17.887500762939453
1751448490989610000,9.76060986328125,88.1812515258789,38.36250305175781,-17.625
1751448490999609900,9.77060986328125,88.125,38.41875076293945,-17.08125114440918
1751448491009610000,9.78060986328125,87.69375610351562,38.400001525878906,-16.80000114440918
1751448491019609900,9.79060986328125,87.45000457763672,38.19375228881836,-16.40625
1751448491029610000,9.80060986328125,87.03750610351562,37.89375305175781,-15.843750953674316
1751448491039609900,9.81060986328125,86.73750305175781,37.95000076293945,-15.506250381469727
1751448491049610000,9.82060986328125,86.53125,37.556251525878906,-15.168750762939453
1751448491059609900,9.83060986328125,86.4000015258789,37.44375228881836,-14.925000190734863
1751448491069610000,9.84060986328125,86.0250015258789,37.33125305175781,-14.943750381469727
1751448491079609900,9.85060986328125,85.72500610351562,37.087501525878906,-14.887500762939453
1751448491089610000,9.86060986328125,85.63125610351562,36.86250305175781,-14.49375057220459
1751448491099609900,9.87060986328125,85.14375305175781,36.69375228881836,-14.30625057220459
1751448491109610000,9.88060986328125,84.9000015258789,36.431251525878906,-14.456250190734863
1751448491119609900,9.89060986328125,84.88125610351562,36.20625305175781,-14.40000057220459
1751448491129610000,9.90060986328125,84.69375610351562,35.868751525878906,-14.287500381469727
1751448491139609900,9.91060986328125,84.11250305175781,35.587501525878906,-14.02500057220459
1751448491149610000,9.92060986328125,83.92500305175781,35.64375305175781,-13.46250057220459
1751448491159609900,9.93060986328125,83.64375305175781,35.25,-13.481250762939453
1751448491169610000,9.94060986328125,83.47500610351562,35.08125305175781,-13.27500057220459
1751448491179609900,9.95060986328125,83.47500610351562,34.59375,-13.162500381469727
1751448491189610000,9.96060986328125,83.47500610351562,34.48125076293945,-12.581250190734863
1751448491199609900,9.97060986328125,83.625,34.25625228881836,-12.112500190734863
1751448491209610000,9.98060986328125,83.83125305175781,34.10625076293945,-11.90625
1751448491219609900,9.99060986328125,84.20625305175781,33.91875076293945,-11.4375
1751448491229610000,10.00060986328125,84.54375457763672,33.50625228881836,-11.53125
1751448491239609900,10.01060986328125,84.7125015258789,33.28125,-11.11875057220459
1751448491249610000,10.02060986328125,84.91875457763672,33.11250305175781,-10.893750190734863
1751448491259609900,10.03060986328125,85.23750305175781,33.28125,-10.612500190734863
1751448491269610000,10.04060986328125,85.57500457763672,33.28125,-10.612500190734863
1751448491279609900,10.05060986328125,85.70625305175781,33.056251525878906,-10.725000381469727
1751448491289610000,10.06060986328125,85.80000305175781,33.150001525878906,-10.518750190734863
1751448491299609900,10.07060986328125,85.78125,32.962501525878906,-10.6875
1751448491309610000,10.08060986328125,85.8375015258789,32.98125076293945,-10.443750381469727
1751448491319609900,10.09060986328125,86.1187515258789,32.868751525878906,-10.293750762939453
1751448491329610000,10.10060986328125,86.15625,32.85000228881836,-10.012500762939453
1751448491339609900,10.11060986328125,86.26875305175781,32.83125305175781,-9.918750762939453
1751448491349610000,10.12060986328125,86.10000610351562,32.71875,-9.90000057220459
1751448491359609900,10.13060986328125,85.91250610351562,32.868751525878906,-10.012500762939453
1751448491369610000,10.14060986328125,85.72500610351562,33.01875305175781,-10.106250762939453
1751448491379609900,10.15060986328125,85.66875457763672,33.337501525878906,-10.143750190734863
1751448491389610000,10.16060986328125,85.16250610351562,33.337501525878906,-10.331250190734863
1751448491399609900,10.17060986328125,84.9000015258789,33.63750076293945,-10.46250057220459
1751448491409610000,10.18060986328125,84.4312515258789,33.86250305175781,-11.15625
1751448491419609900,10.19060986328125,84.03750610351562,33.97500228881836,-11.68125057220459
1751448491429610000,10.20060986328125,83.64375305175781,34.125,-12.018750190734863
1751448491439609900,10.21060986328125,83.53125,34.275001525878906,-12.206250190734863
1751448491449610000,10.22060986328125,83.25,34.48125076293945,-12.543750762939453
1751448491459609900,10.23060986328125,83.00625610351562,34.59375,-13.068750381469727
1751448491469610000,10.24060986328125,83.2125015258789,34.837501525878906,-13.537500381469727
1751448491479609900,10.25060986328125,83.32500457763672,35.13750076293945,-13.968750953674316
1751448491489610000,10.26060986328125,83.56875610351562,35.34375,-14.30625057220459
1751448491499609900,10.27060986328125,83.75625610351562,35.71875,-14.437500953674316
1751448491509610000,10.28060986328125,84.11250305175781,36.13125228881836,-14.756250381469727
1751448491519609900,10.29060986328125,84.48750305175781,36.5625,-15.15000057220459
1751448491529610000,10.30060986328125,85.125,36.86250305175781,-15.637500762939453
1751448491539609900,10.31060986328125,85.7437515258789,37.25625228881836,-15.768750190734863
1751448491549610000,10.32060986328125,86.2125015258789,37.837501525878906,-15.975000381469727
1751448491559609900,10.33060986328125,86.56875610351562,38.04375076293945,-16.556251525878906
1751448491569610000,10.34060986328125,87.20625305175781,38.23125076293945,-16.650001525878906
1751448491579609900,10.35060986328125,87.6187515258789,38.400001525878906,-17.193750381469727
1751448491589610000,10.36060986328125,88.125,38.45625305175781,-17.493751525878906
1751448491599609900,10.37060986328125,88.44375610351562,38.45625305175781,-17.943750381469727
1751448491609610000,10.38060986328125,88.78125,38.64375305175781,-18.1875
1751448491619609900,10.39060986328125,89.0250015258789,38.53125,-18.356250762939453
1751448491629610000,10.40060986328125,89.1187515258789,38.4375,-18.58125114440918
1751448491639609900,10.41060986328125,89.23125457763672,38.47500228881836,-18.806251525878906
1751448491649610000,10.42060986328125,89.19375610351562,38.60625076293945,-19.012500762939453
1751448491659609900,10.43060986328125,89.15625,38.51250076293945,-18.900001525878906
1751448491669610000,10.44060986328125,89.15625,38.60625076293945,-18.806251525878906
1751448491679609900,10.45060986328125,89.04375457763672,38.625,-18.76875114440918
1751448491689610000,10.46060986328125,88.9312515258789,38.45625305175781,-18.48750114440918
1751448491699609900,10.47060986328125,88.76250457763672,38.60625076293945,-18.39375114440918
1751448491709610000,10.48060986328125,88.6500015258789,38.53125,-18.131250381469727
1751448491719609900,10.49060986328125,88.59375,38.41875076293945,-17.662500381469727
1751448491729610000,10.50060986328125,88.35000610351562,38.28750228881836,-17.4375
1751448491739609900,10.51060986328125,88.48125457763672,38.32500076293945,-17.15625
1751448491749610000,10.52060986328125,88.2750015258789,38.00625228881836,-17.025001525878906
1751448491759609900,10.53060986328125,88.14375305175781,37.875,-16.80000114440918
1751448491769610000,10.54060986328125,88.03125,37.76250076293945,-16.575000762939453
1751448491779609900,10.55060986328125,87.78750610351562,37.59375,-16.575000762939453
1751448491789610000,10.56060986328125,87.5250015258789,37.181251525878906,-16.368751525878906
1751448491799609900,10.57060986328125,87.13125610351562,36.91875076293945,-16.03125
1751448491809610000,10.58060986328125,86.92500305175781,36.67500305175781,-15.562500953674316
1751448491819609900,10.59060986328125,86.73750305175781,36.60000228881836,-15.281250953674316
1751448491829610000,10.60060986328125,86.23125457763672,36.60000228881836,-14.793750762939453
1751448491839609900,10.61060986328125,86.08125305175781,36.39375305175781,-14.30625057220459
1751448491849610000,10.62060986328125,85.61250305175781,36.1875,-14.081250190734863
1751448491859609900,10.63060986328125,85.66875457763672,35.83125305175781,-13.706250190734863
1751448491869610000,10.64060986328125,85.2750015258789,35.8125,-13.65000057220459
1751448491879609900,10.65060986328125,85.03125,35.85000228881836,-13.350000381469727
1751448491889610000,10.66060986328125,84.76875305175781,35.56875228881836,-13.312500953674316
1751448491899609900,10.67060986328125,84.375,35.400001525878906,-13.218750953674316
1751448491909610000,10.68060986328125,84.58125305175781,35.23125076293945,-13.143750190734863
1751448491919609900,10.69060986328125,84.39375305175781,35.23125076293945,-12.843750953674316
1751448491929610000,10.70060986328125,84.48750305175781,35.17500305175781,-12.656250953674316
1751448491939609900,10.71060986328125,84.41250610351562,35.15625,-12.206250190734863
1751448491949610000,10.72060986328125,84.46875,35.13750076293945,-11.643750190734863
1751448491959609900,10.73060986328125,84.5625,34.96875,-11.512500762939453
1751448491969610000,10.74060986328125,84.6187515258789,35.025001525878906,-11.0625
1751448491979609900,10.75060986328125,84.82500457763672,34.556251525878906,-11.081250190734863
1751448491989610000,10.76060986328125,84.67500305175781,34.35000228881836,-10.96875
1751448491999609900,10.77060986328125,84.7125015258789,34.03125,-10.856250762939453
1751448492009610000,10.78060986328125,84.86250305175781,33.91875076293945,-10.55625057220459
1751448492019609900,10.79060986328125,84.84375,33.76875305175781,-10.537500381469727
1751448492029610000,10.80060986328125,85.16250610351562,33.63750076293945,-10.55625057220459
1751448492039609900,10.81060986328125,85.3687515258789,33.30000305175781,-10.425000190734863
1751448492049610000,10.82060986328125,85.70625305175781,33,-10.425000190734863
1751448492059609900,10.83060986328125,85.66875457763672,33.28125,-10.068750381469727
1751448492069610000,10.84060986328125,85.8375015258789,33.16875076293945,-9.975000381469727
1751448492079609900,10.85060986328125,85.81875610351562,32.962501525878906,-9.825000762939453
1751448492089610000,10.86060986328125,85.61250305175781,32.775001525878906,-9.731250762939453
1751448492099609900,10.87060986328125,85.72500610351562,32.70000076293945,-9.600000381469727
1751448492109610000,10.88060986328125,85.72500610351562,32.71875,-9.600000381469727
1751448492119609900,10.89060986328125,85.5,32.775001525878906,-9.80625057220459
1751448492129610000,10.90060986328125,85.51875305175781,32.83125305175781,-10.068750381469727
1751448492139609900,10.91060986328125,85.5,32.868751525878906,-9.99375057220459
1751448492149610000,10.92060986328125,85.5,32.962501525878906,-10.068750381469727
1751448492159609900,10.93060986328125,85.48125457763672,33.26250076293945,-10.40625
1751448492169610000,10.94060986328125,85.66875457763672,33.525001525878906,-10.74375057220459
1751448492179609900,10.95060986328125,85.51875305175781,33.712501525878906,-11.231250762939453
1751448492189610000,10.96060986328125,85.1812515258789,33.900001525878906,-11.71875
1751448492199609900,10.97060986328125,85.16250610351562,34.35000228881836,-11.77500057220459
1751448492209610000,10.98060986328125,84.60000610351562,34.80000305175781,-11.943750381469727
1751448492219609900,10.99060986328125,84.73125457763672,34.81875228881836,-12.543750762939453
1751448492229610000,11.00060986328125,84.45000457763672,35.10000228881836,-12.937500953674316
1751448492239609900,11.01060986328125,84.28125,35.19375228881836,-13.406250953674316
1751448492249610000,11.02060986328125,83.9625015258789,35.15625,-13.875000953674316
1751448492259609900,11.03060986328125,83.98125457763672,35.25,-14.287500381469727
1751448492269610000,11.04060986328125,83.98125457763672,35.34375,-14.550000190734863
1751448492279609900,11.05060986328125,84.30000305175781,35.55000305175781,-14.925000190734863
1751448492289610000,11.06060986328125,84.86250305175781,35.51250076293945,-15.206250190734863
1751448492299609900,11.07060986328125,84.9937515258789,35.66250228881836,-15.318750381469727
1751448492309610000,11.08060986328125,85.63125610351562,35.868751525878906,-15.562500953674316
1751448492319609900,11.09060986328125,86.3062515258789,36.13125228881836,-15.71250057220459
1751448492329610000,11.10060986328125,86.83125305175781,36.5625,-15.731250762939453
1751448492339609900,11.11060986328125,87.31875610351562,37.06875228881836,-16.05000114440918
1751448492349610000,11.12060986328125,87.97500610351562,37.275001525878906,-16.200000762939453
1751448492359609900,11.13060986328125,88.3687515258789,37.38750076293945,-16.725000381469727
1751448492369610000,11.14060986328125,88.78125,37.462501525878906,-17.118751525878906
1751448492379609900,11.15060986328125,88.70625305175781,37.85625076293945,-17.681251525878906
1751448492389610000,11.16060986328125,88.72500610351562,38.04375076293945,-18.01875114440918
1751448492399609900,11.17060986328125,88.42500305175781,38.26875305175781,-18.262500762939453
1751448492409610000,11.18060986328125,88.33125305175781,38.34375,-18.5625
1751448492419609900,11.19060986328125,88.25625610351562,38.26875305175781,-18.543750762939453
1751448492429610000,11.20060986328125,88.35000610351562,38.34375,-18.900001525878906
1751448492439609900,11.21060986328125,88.14375305175781,38.587501525878906,-18.76875114440918
1751448492449610000,11.22060986328125,87.95625305175781,38.868751525878906,-18.825000762939453
1751448492459609900,11.23060986328125,88.0875015258789,38.79375076293945,-18.600000381469727
1751448492469610000,11.24060986328125,87.75,38.60625076293945,-18.525001525878906
1751448492479609900,11.25060986328125,88.01250457763672,38.66250228881836,-18.28125
1751448492489610000,11.26060986328125,88.01250457763672,38.56875228881836,-18.337501525878906
1751448492499609900,11.27060986328125,87.9937515258789,38.36250305175781,-18.225000381469727
1751448492509610000,11.28060986328125,87.91875457763672,38.32500076293945,-17.700000762939453
1751448492519609900,11.29060986328125,87.9375,37.89375305175781,-17.775001525878906
1751448492529610000,11.30060986328125,87.86250305175781,37.743751525878906,-17.325000762939453
1751448492539609900,11.31060986328125,87.65625,37.57500076293945,-17.0625
1751448492549610000,11.32060986328125,87.60000610351562,37.42500305175781,-16.837501525878906
1751448492559609900,11.33060986328125,87.11250305175781,37.181251525878906,-16.668750762939453
1751448492569610000,11.34060986328125,86.85000610351562,37.087501525878906,-16.200000762939453
1751448492579609900,11.35060986328125,86.47500610351562,37.01250076293945,-15.937500953674316
1751448492589610000,11.36060986328125,86.0625,36.65625,-15.693750381469727
1751448492599609900,11.37060986328125,85.4625015258789,36.50625228881836,-15.318750381469727
1751448492609610000,11.38060986328125,85.03125,36.46875,-15.075000762939453
1751448492619609900,11.39060986328125,84.95625305175781,36.20625305175781,-14.943750381469727
1751448492629610000,11.40060986328125,84.88125610351562,36.11250305175781,-14.737500190734863
1751448492639609900,11.41060986328125,84.8062515258789,35.79375076293945,-14.40000057220459
1751448492649610000,11.42060986328125,84.50625610351562,35.625,-14.250000953674316
1751448492659609900,11.43060986328125,84.3375015258789,35.587501525878906,-13.968750953674316
1751448492669610000,11.44060986328125,84.1875,35.587501525878906,-14.006250381469727
1751448492679609900,11.45060986328125,84.1875,35.56875228881836,-13.687500953674316
1751448492689610000,11.46060986328125,84.1500015258789,35.212501525878906,-13.800000190734863
1751448492699609900,11.47060986328125,83.85000610351562,35.306251525878906,-13.74375057220459
1751448492709610000,11.48060986328125,83.64375305175781,35.26875305175781,-13.481250762939453
1751448492719609900,11.49060986328125,83.64375305175781,35.41875076293945,-13.518750190734863
1751448492729610000,11.50060986328125,83.625,35.51250076293945,-13.350000381469727
1751448492739609900,11.51060986328125,83.66250610351562,35.41875076293945,-13.237500190734863
1751448492749610000,11.52060986328125,83.56875610351562,35.26875305175781,-12.975000381469727
1751448492759609900,11.53060986328125,83.53125,35.13750076293945,-12.71250057220459
1751448492769610000,11.54060986328125,83.36250305175781,35.25,-12.093750953674316
1751448492779609900,11.55060986328125,83.34375,35.19375228881836,-11.737500190734863
1751448492789610000,11.56060986328125,83.47500610351562,35.23125076293945,-11.512500762939453
1751448492799609900,11.57060986328125,83.4375,35.08125305175781,-11.40000057220459
1751448492809610000,11.58060986328125,83.60625457763672,34.931251525878906,-11.268750190734863
1751448492819609900,11.59060986328125,83.51250457763672,34.81875228881836,-11.15625
1751448492829610000,11.60060986328125,83.4937515258789,34.76250076293945,-10.987500190734863
1751448492839609900,11.61060986328125,83.6812515258789,34.70625305175781,-11.137500762939453
1751448492849610000,11.62060986328125,83.73750305175781,34.556251525878906,-11.40000057220459
1751448492859609900,11.63060986328125,83.9625015258789,34.42500305175781,-11.287500381469727
1751448492869610000,11.64060986328125,84.07500457763672,34.181251525878906,-11.287500381469727
1751448492879609900,11.65060986328125,84,34.20000076293945,-11.193750381469727
1751448492889610000,11.66060986328125,83.85000610351562,34.16250228881836,-11.081250190734863
1751448492899609900,11.67060986328125,83.92500305175781,34.181251525878906,-11.0625
1751448492909610000,11.68060986328125,83.66250610351562,34.21875,-11.11875057220459
1751448492919609900,11.69060986328125,83.45625305175781,34.38750076293945,-11.043750762939453
1751448492929610000,11.70060986328125,83.3062515258789,34.40625,-10.987500190734863
1751448492939609900,11.71060986328125,83.13750457763672,34.368751525878906,-11.25
1751448492949610000,11.72060986328125,83.10000610351562,34.5,-11.25
1751448492959609900,11.73060986328125,82.875,34.44375228881836,-11.40000057220459
1751448492969610000,11.74060986328125,83.0250015258789,34.33125305175781,-11.756250381469727
1751448492979609900,11.75060986328125,82.72500610351562,34.368751525878906,-12.112500190734863
1751448492989610000,11.76060986328125,82.61250305175781,34.72500228881836,-12.356250762939453
1751448492999609900,11.77060986328125,82.44375610351562,34.875,-12.600000381469727
1751448493009610000,11.78060986328125,82.29375457763672,35.04375076293945,-13.08750057220459
1751448493019609900,11.79060986328125,81.97500610351562,35.26875305175781,-13.631250381469727
1751448493029610000,11.80060986328125,81.50625610351562,35.53125,-14.081250190734863
1751448493049610000,11.82060986328125,81.375,36.09375,-14.77500057220459
1751448493059609900,11.83060986328125,81.75,36.28125,-14.793750762939453
1751448493069610000,11.84060986328125,82.14375305175781,36.31875228881836,-14.981250762939453
1751448493079609900,11.85060986328125,82.7437515258789,36.431251525878906,-15.187500953674316
1751448493089610000,11.86060986328125,83.41875457763672,36.65625,-15.468750953674316
1751448493099609900,11.87060986328125,84.22500610351562,36.78750228881836,-15.675000190734863
1751448493109610000,11.88060986328125,85.06875610351562,37.03125,-15.99375057220459
1751448493119609900,11.89060986328125,85.53750610351562,37.23750305175781,-16.162500381469727
1751448493129610000,11.90060986328125,86.00625610351562,37.42500305175781,-16.275001525878906
1751448493139609900,11.91060986328125,86.5875015258789,37.63125228881836,-16.89375114440918
1751448493149610000,11.92060986328125,87.0562515258789,37.6875,-17.662500381469727
1751448493159609900,11.93060986328125,87.30000305175781,37.931251525878906,-18.075000762939453
1751448493169610000,11.94060986328125,87.58125305175781,38.15625,-18.318750381469727
1751448493179609900,11.95060986328125,87.63750457763672,38.493751525878906,-18.318750381469727
1751448493189610000,11.96060986328125,87.88125610351562,38.38125228881836,-18.67500114440918
1751448493199609900,11.97060986328125,88.16250610351562,38.4375,-18.76875114440918
1751448493209610000,11.98060986328125,88.33125305175781,38.4375,-18.918750762939453
1751448493219609900,11.99060986328125,88.33125305175781,38.45625305175781,-18.86250114440918
1751448493229610000,12.00060986328125,88.3125,38.45625305175781,-18.450000762939453
1751448493239609900,12.01060986328125,88.4625015258789,38.47500228881836,-18.48750114440918
1751448493249610000,12.02060986328125,88.53750610351562,38.306251525878906,-18.225000381469727
1751448493259609900,12.03060986328125,88.76250457763672,38.25,-18.168750762939453
1751448493269610000,12.04060986328125,88.5,38.17500305175781,-18.09375
1751448493279609900,12.05060986328125,88.76250457763672,38.025001525878906,-17.981250762939453
1751448493289610000,12.06060986328125,88.81875610351562,38.13750076293945,-17.45625114440918
1751448493299609900,12.07060986328125,88.70625305175781,38.08125305175781,-17.287500381469727
1751448493309610000,12.08060986328125,88.53750610351562,38.23125076293945,-17.231250762939453
1751448493319609900,12.09060986328125,88.35000610351562,37.96875,-16.725000381469727
1751448493329610000,12.10060986328125,88.01250457763672,37.81875228881836,-16.70625114440918
1751448493339609900,12.11060986328125,87.5250015258789,37.48125076293945,-16.256250381469727
1751448493349610000,12.12060986328125,87.2437515258789,37.44375228881836,-15.71250057220459
1751448493359609900,12.13060986328125,86.6812515258789,37.35000228881836,-15.468750953674316
1751448493369610000,12.14060986328125,86.26875305175781,37.125,-15.468750953674316
1751448493379609900,12.15060986328125,85.80000305175781,37.06875228881836,-15.05625057220459
1751448493389610000,12.16060986328125,85.6500015258789,36.75,-14.568750381469727
1751448493399609900,12.17060986328125,85.35000610351562,36.67500305175781,-14.512500762939453
1751448493409610000,12.18060986328125,84.8062515258789,36.431251525878906,-14.231250762939453
1751448493419609900,12.19060986328125,84.4312515258789,36.337501525878906,-14.287500381469727
1751448493429610000,12.20060986328125,84.1875,36.056251525878906,-14.043750762939453
1751448493439609900,12.21060986328125,83.64375305175781,35.75625228881836,-13.912500381469727
1751448493449610000,12.22060986328125,83.36250305175781,35.41875076293945,-13.725000381469727
1751448493459609900,12.23060986328125,82.89375305175781,35.15625,-13.500000953674316
1751448493469610000,12.24060986328125,82.57500457763672,35.08125305175781,-13.200000762939453
1751448493479609900,12.25060986328125,82.53750610351562,34.96875,-12.731250762939453
1751448493489610000,12.26060986328125,82.57500457763672,34.931251525878906,-12.187500953674316
1751448493499609900,12.27060986328125,82.8375015258789,35.00625228881836,-11.606250762939453
1751448493519609900,12.29060986328125,83.28750610351562,35.04375076293945,-11.006250381469727
1751448493529610000,12.30060986328125,83.38125610351562,35.04375076293945,-10.55625057220459
1751448493539609900,12.31060986328125,83.66250610351562,34.875,-10.36875057220459
1751448493549610000,12.32060986328125,83.88750457763672,34.72500228881836,-10.21875
1751448493559609900,12.33060986328125,84.0562515258789,34.462501525878906,-10.106250762939453
1751448493569610000,12.34060986328125,84.1875,34.06875228881836,-10.256250381469727
1751448493579609900,12.35060986328125,84.09375,33.78750228881836,-10.331250190734863
1751448493589610000,12.36060986328125,83.85000610351562,33.63750076293945,-10.21875
1751448493599609900,12.37060986328125,83.79375457763672,33.65625,-9.80625057220459
1751448493609610000,12.38060986328125,83.88750457763672,33.712501525878906,-10.08750057220459
1751448493619609900,12.39060986328125,84.07500457763672,33.65625,-9.918750762939453
1751448493629610000,12.40060986328125,84.11250305175781,33.58125305175781,-9.9375
1751448493639609900,12.41060986328125,83.79375457763672,33.54375076293945,-9.99375057220459
1751448493649610000,12.42060986328125,84.0562515258789,33.86250305175781,-9.862500190734863
1751448493659609900,12.43060986328125,84.01875305175781,33.900001525878906,-9.881250381469727
1751448493669610000,12.44060986328125,84.41250610351562,33.60000228881836,-10.162500381469727
1751448493679609900,12.45060986328125,84.20625305175781,33.69375228881836,-10.668750762939453
1751448493689610000,12.46060986328125,84.01875305175781,33.82500076293945,-10.575000762939453
1751448493699609900,12.47060986328125,83.60625457763672,33.900001525878906,-10.762500762939453
1751448493709610000,12.48060986328125,83.17500305175781,33.88125228881836,-11.043750762939453
1751448493719609900,12.49060986328125,83.0250015258789,34.16250228881836,-11.193750381469727
1751448493729610000,12.50060986328125,82.40625,34.556251525878906,-11.418750762939453
1751448493739609900,12.51060986328125,81.97500610351562,34.650001525878906,-11.850000381469727
1751448493749610000,12.52060986328125,81.48750305175781,35.26875305175781,-12.112500190734863
1751448493759609900,12.53060986328125,81.1500015258789,35.625,-12.262500762939453
1751448493769610000,12.54060986328125,80.6812515258789,35.79375076293945,-12.61875057220459
1751448493779609900,12.55060986328125,80.64375305175781,36.07500076293945,-13.256250381469727
1751448493789610000,12.56060986328125,80.47500610351562,36.31875228881836,-13.537500381469727
1751448493799609900,12.57060986328125,80.32500457763672,36.5625,-13.950000762939453
1751448493809610000,12.58060986328125,80.4000015258789,36.375,-14.381250381469727
1751448493819609900,12.59060986328125,80.75625610351562,36.618751525878906,-14.381250381469727
1751448493829610000,12.60060986328125,81.31875610351562,36.63750076293945,-14.606250762939453
1751448493839609900,12.61060986328125,81.9937515258789,36.58125305175781,-14.831250190734863
1751448493849610000,12.62060986328125,82.7437515258789,36.63750076293945,-15.05625057220459
1751448493859609900,12.63060986328125,83.4000015258789,36.712501525878906,-15.131250381469727
1751448493869610000,12.64060986328125,84.0562515258789,37.01250076293945,-15.506250381469727
1751448493879609900,12.65060986328125,84.9375,37.10625076293945,-15.956250190734863
1751448493889610000,12.66060986328125,85.6500015258789,37.44375228881836,-16.293750762939453
1751448493899609900,12.67060986328125,86.25,37.76250076293945,-16.575000762939453
1751448493909610000,12.68060986328125,86.56875610351562,37.80000305175781,-16.818750381469727
1751448493919609900,12.69060986328125,87.0562515258789,38.08125305175781,-17.306251525878906
1751448493929610000,12.70060986328125,87.60000610351562,38.25,-17.606250762939453
1751448493939609900,12.71060986328125,88.20000457763672,38.400001525878906,-18.075000762939453
1751448493949610000,12.72060986328125,88.5562515258789,38.47500228881836,-18.225000381469727
1751448493959609900,12.73060986328125,88.76250457763672,38.55000305175781,-18.375
1751448493969610000,12.74060986328125,89.08125305175781,38.681251525878906,-18.39375114440918
1751448493979609900,12.75060986328125,89.4000015258789,38.625,-18.525001525878906
1751448493989610000,12.76060986328125,89.56875610351562,38.79375076293945,-18.618751525878906
1751448493999609900,12.77060986328125,89.26875305175781,38.8125,-18.693750381469727
1751448494009610000,12.78060986328125,89.2125015258789,38.775001525878906,-18.881250381469727
1751448494019609900,12.79060986328125,89.10000610351562,38.88750076293945,-18.67500114440918
1751448494029610000,12.80060986328125,89.10000610351562,38.75625228881836,-18.618751525878906
1751448494039609900,12.81060986328125,88.98750305175781,38.88750076293945,-18.375
1751448494049610000,12.82060986328125,88.7437515258789,38.64375305175781,-18.39375114440918
1751448494059609900,12.83060986328125,88.16250610351562,38.66250228881836,-18.48750114440918
1751448494069610000,12.84060986328125,88.3125,38.53125,-18.450000762939453
1751448494079609900,12.85060986328125,88.3687515258789,38.493751525878906,-17.981250762939453
1751448494089610000,12.86060986328125,87.91875457763672,38.587501525878906,-17.606250762939453
1751448494099609900,12.87060986328125,87.69375610351562,38.53125,-17.08125114440918
1751448494109610000,12.88060986328125,87.63750457763672,38.4375,-16.912500381469727
1751448494119609900,12.89060986328125,87.375,38.212501525878906,-16.40625
1751448494129610000,12.90060986328125,87.0562515258789,37.875,-16.068750381469727
1751448494139609900,12.91060986328125,87.13125610351562,37.63125228881836,-15.52500057220459
1751448494149610000,12.92060986328125,86.38125610351562,37.38750076293945,-15.093750953674316
1751448494159609900,12.93060986328125,86.1187515258789,36.993751525878906,-14.981250762939453
1751448494169610000,12.94060986328125,85.96875,36.618751525878906,-14.86875057220459
1751448494179609900,12.95060986328125,85.44375610351562,36.28125,-14.887500762939453
1751448494189610000,12.96060986328125,85.05000305175781,36,-14.512500762939453
1751448494199609900,12.97060986328125,84.67500305175781,35.66250228881836,-14.512500762939453
1751448494209610000,12.98060986328125,84.375,35.681251525878906,-14.156250953674316
1751448494219609900,12.99060986328125,84.16875457763672,35.4375,-14.062500953674316
1751448494229610000,13.00060986328125,84.0562515258789,35.32500076293945,-14.02500057220459
1751448494239609900,13.01060986328125,83.625,35.28750228881836,-13.781250953674316
1751448494249610000,13.02060986328125,83.4937515258789,35.34375,-13.200000762939453
1751448494259609900,13.03060986328125,83.0625,35.23125076293945,-13.031250953674316
1751448494269610000,13.04060986328125,82.81875610351562,35.25,-12.825000762939453
1751448494279609900,13.05060986328125,82.57500457763672,35.0625,-12.61875057220459
1751448494289610000,13.06060986328125,82.5562515258789,34.89375305175781,-12.52500057220459
1751448494299609900,13.07060986328125,82.40625,34.96875,-12.206250190734863
1751448494309610000,13.08060986328125,82.5562515258789,34.89375305175781,-11.606250762939453
1751448494319609900,13.09060986328125,82.875,34.66875076293945,-11.25
1751448494329610000,13.10060986328125,82.96875,34.25625228881836,-11.287500381469727
1751448494339609900,13.11060986328125,83.1187515258789,34.14375305175781,-10.93125057220459
1751448494349610000,13.12060986328125,83.38125610351562,34.03125,-10.59375
1751448494359609900,13.13060986328125,83.7750015258789,34.16250228881836,-10.350000381469727
1751448494369610000,13.14060986328125,84.01875305175781,34.14375305175781,-10.106250762939453
1751448494379609900,13.15060986328125,84.16875457763672,33.9375,-9.99375057220459
1751448494389610000,13.16060986328125,84.375,33.88125228881836,-10.068750381469727
1751448494399609900,13.17060986328125,84.0562515258789,33.84375,-10.18125057220459
1751448494409610000,13.18060986328125,84.11250305175781,34.14375305175781,-10.481250762939453
1751448494419609900,13.19060986328125,84.48750305175781,34.125,-10.537500381469727
1751448494429610000,13.20060986328125,84.48750305175781,34.275001525878906,-10.575000762939453
1751448494439609900,13.21060986328125,84.48750305175781,34.368751525878906,-10.762500762939453
1751448494449610000,13.22060986328125,84.375,34.650001525878906,-10.93125057220459
1751448494459609900,13.23060986328125,84.09375,34.63125228881836,-11.325000762939453
1751448494469610000,13.24060986328125,83.56875610351562,34.89375305175781,-11.40000057220459
1751448494479609900,13.25060986328125,83.5875015258789,35.15625,-11.90625
1751448494489610000,13.26060986328125,83.17500305175781,35.26875305175781,-11.943750381469727
1751448494499609900,13.27060986328125,82.9312515258789,35.56875228881836,-12.356250762939453
1751448494509610000,13.28060986328125,82.57500457763672,35.47500228881836,-12.937500953674316
1751448494519609900,13.29060986328125,82.40625,35.400001525878906,-13.200000762939453
1751448494529610000,13.30060986328125,82.35000610351562,35.32500076293945,-13.706250190734863
1751448494539609900,13.31060986328125,82.4625015258789,35.60625076293945,-14.043750762939453
1751448494549610000,13.32060986328125,82.48125457763672,35.56875228881836,-14.568750381469727
1751448494559609900,13.33060986328125,82.61250305175781,35.681251525878906,-14.812500953674316
1751448494569610000,13.34060986328125,82.96875,35.71875,-15.018750190734863
1751448494579609900,13.35060986328125,83.38125610351562,35.8125,-15.187500953674316
1751448494589610000,13.36060986328125,84.11250305175781,36.16875076293945,-15.412500381469727
1751448494599609900,13.37060986328125,84.5250015258789,36.58125305175781,-15.731250762939453
1751448494609610000,13.38060986328125,84.9000015258789,36.76875305175781,-15.881250381469727
1751448494619609900,13.39060986328125,85.44375610351562,36.993751525878906,-16.106250762939453
1751448494629610000,13.40060986328125,86.23125457763672,37.33125305175781,-16.5
1751448494639609900,13.41060986328125,86.94375610351562,37.6875,-16.462501525878906
1751448494649610000,13.42060986328125,87.45000457763672,38.04375076293945,-16.78125
1751448494659609900,13.43060986328125,87.60000610351562,38.306251525878906,-16.98750114440918
1751448494669610000,13.44060986328125,87.9937515258789,38.38125228881836,-17.231250762939453
1751448494679609900,13.45060986328125,88.25625610351562,38.36250305175781,-17.756250381469727
1751448494689610000,13.46060986328125,88.53750610351562,38.60625076293945,-17.943750381469727
1751448494699609900,13.47060986328125,88.7437515258789,38.493751525878906,-18.075000762939453
1751448494709610000,13.48060986328125,89.04375457763672,38.60625076293945,-18.075000762939453
1751448494719609900,13.49060986328125,89.25,38.56875228881836,-18.262500762939453
1751448494729610000,13.50060986328125,89.41875457763672,38.53125,-18.412500381469727
1751448494739609900,13.51060986328125,89.4937515258789,38.625,-18.637500762939453
1751448494749610000,13.52060986328125,89.47500610351562,38.70000076293945,-18.600000381469727
1751448494759609900,13.53060986328125,89.45625305175781,38.73750305175781,-18.375
1751448494769610000,13.54060986328125,89.55000305175781,38.79375076293945,-18.525001525878906
1751448494779609900,13.55060986328125,89.55000305175781,39.03750228881836,-18.450000762939453
1751448494789610000,13.56060986328125,89.32500457763672,38.962501525878906,-18.450000762939453
1751448494799609900,13.57060986328125,88.98750305175781,38.79375076293945,-18.46875
1751448494809610000,13.58060986328125,89.23125457763672,38.587501525878906,-18.337501525878906
1751448494819609900,13.59060986328125,89.08125305175781,38.45625305175781,-18.168750762939453
1751448494829610000,13.60060986328125,88.96875,38.55000305175781,-17.756250381469727
1751448494839609900,13.61060986328125,88.98750305175781,38.60625076293945,-17.36250114440918
1751448494849610000,13.62060986328125,88.70625305175781,38.55000305175781,-16.78125
1751448494859609900,13.63060986328125,88.40625,38.26875305175781,-16.481250762939453
1751448494869610000,13.64060986328125,88.125,38.13750076293945,-16.21875
1751448494879609900,13.65060986328125,87.86250305175781,38.04375076293945,-15.750000953674316
1751448494889610000,13.66060986328125,87.41250610351562,38.00625228881836,-15.318750381469727
1751448494899609900,13.67060986328125,87.46875,37.70625305175781,-14.887500762939453
1751448494909610000,13.68060986328125,87.0562515258789,37.275001525878906,-14.662500381469727
1751448494919609900,13.69060986328125,86.64375305175781,37.01250076293945,-14.512500762939453
1751448494929610000,13.70060986328125,86.3062515258789,36.618751525878906,-14.456250190734863
1751448494939609900,13.71060986328125,85.89375305175781,36.5625,-14.21250057220459
1751448494949610000,13.72060986328125,85.61250305175781,36.31875228881836,-13.781250953674316
1751448494959609900,13.73060986328125,85.2750015258789,36,-13.593750953674316
1751448494969610000,13.74060986328125,84.73125457763672,35.64375305175781,-13.481250762939453
1751448494979609900,13.75060986328125,84.03750610351562,35.60625076293945,-13.425000190734863
1751448494989610000,13.76060986328125,83.7750015258789,35.47500228881836,-13.500000953674316
1751448494999609900,13.77060986328125,83.36250305175781,35.23125076293945,-13.200000762939453
1751448495009610000,13.78060986328125,83.3062515258789,35.04375076293945,-13.050000190734863
1751448495019609900,13.79060986328125,83.28750610351562,34.85625076293945,-12.80625057220459
1751448495029610000,13.80060986328125,83.2125015258789,34.72500228881836,-12.581250190734863
1751448495039609900,13.81060986328125,83.4375,34.650001525878906,-12.375000953674316
1751448495049610000,13.82060986328125,83.47500610351562,34.78125,-12.131250381469727
1751448495059609900,13.83060986328125,83.71875,34.61250305175781,-11.737500190734863
1751448495069610000,13.84060986328125,83.625,34.462501525878906,-11.512500762939453
1751448495079609900,13.85060986328125,83.90625,34.38750076293945,-11.30625057220459
1751448495089610000,13.86060986328125,84.07500457763672,34.181251525878906,-11.006250381469727
1751448495099609900,13.87060986328125,84.16875457763672,34.21875,-11.043750762939453
1751448495109610000,13.88060986328125,84.46875,34.10625076293945,-11.0625
1751448495119609900,13.89060986328125,84.22500610351562,34.10625076293945,-10.96875
1751448495129610000,13.90060986328125,84.6187515258789,34.01250076293945,-10.725000381469727
1751448495139609900,13.91060986328125,84.97500610351562,34.03125,-10.5
1751448495149610000,13.92060986328125,85.05000305175781,34.03125,-10.40625
1751448495159609900,13.93060986328125,85.06875610351562,34.087501525878906,-10.46250057220459
1751448495169610000,13.94060986328125,85.01250457763672,34.21875,-10.5
1751448495179609900,13.95060986328125,84.9937515258789,34.20000076293945,-10.46250057220459
1751448495189610000,13.96060986328125,84.63750457763672,34.21875,-10.425000190734863
1751448495199609900,13.97060986328125,84.7125015258789,34.275001525878906,-10.55625057220459
1751448495209610000,13.98060986328125,84.50625610351562,34.3125,-10.706250190734863
1751448495219609900,13.99060986328125,84.03750610351562,34.48125076293945,-10.950000762939453
1751448495229610000,14.00060986328125,83.9625015258789,34.837501525878906,-10.96875
1751448495239609900,14.01060986328125,83.625,35.025001525878906,-11.25
1751448495249610000,14.02060986328125,83.25,35.25,-11.456250190734863
1751448495259609900,14.03060986328125,82.76250457763672,35.51250076293945,-11.831250190734863
1751448495269610000,14.04060986328125,82.6875,35.775001525878906,-12.206250190734863
1751448495279609900,14.05060986328125,82.57500457763672,35.88750076293945,-12.506250381469727
1751448495289610000,14.06060986328125,82.0875015258789,36.22500228881836,-13.143750190734863
1751448495299609900,14.07060986328125,81.9000015258789,36.11250305175781,-13.762500762939453
1751448495309610000,14.08060986328125,81.84375,35.962501525878906,-14.081250190734863
1751448495319609900,14.09060986328125,81.9937515258789,35.98125076293945,-14.268750190734863
1751448495329610000,14.10060986328125,82.23750305175781,36.056251525878906,-14.700000762939453
1751448495339609900,14.11060986328125,82.78125,36.056251525878906,-14.925000190734863
1751448495349610000,14.12060986328125,83.19375610351562,36.1875,-15.24375057220459
1751448495359609900,14.13060986328125,83.55000305175781,36.30000305175781,-15.52500057220459
1751448495369610000,14.14060986328125,84.13125610351562,36.1875,-15.581250190734863
1751448495379609900,14.15060986328125,84.88125610351562,36.5625,-15.656250953674316
1751448495389610000,14.16060986328125,85.5562515258789,36.712501525878906,-16.05000114440918
1751448495399609900,14.17060986328125,86.1187515258789,37.06875228881836,-16.575000762939453
1751448495409610000,14.18060986328125,86.53125,37.38750076293945,-16.837501525878906
1751448495419609900,14.19060986328125,87.01875305175781,37.42500305175781,-17.006250381469727
1751448495429610000,14.20060986328125,87.26250457763672,37.61250305175781,-17.193750381469727
1751448495439609900,14.21060986328125,87.63750457763672,37.931251525878906,-17.400001525878906
1751448495449610000,14.22060986328125,88.03125,38.34375,-17.662500381469727
