time,seconds_elapsed,z,y,x
1751619057500867000,0.1778671875,0.011484146118164062,-0.026671409606933594,0.05012749135494232
1751619057519690500,0.1966904296875,0.014348983764648438,-0.01258125901222229,0.009893141686916351
1751619057585572600,0.262572509765625,0.016351699829101562,-0.03986114263534546,-0.08930542320013046
1751619057623219700,0.3002197265625,0.039539337158203125,-0.056500762701034546,0.012976139783859253
1751619057642043100,0.319043212890625,-0.0019989013671875,-0.03676852583885193,-0.014006055891513824
1751619057660866600,0.337866455078125,0.016435623168945312,0.03450429439544678,-0.029000163078308105
1751619057679690000,0.35668994140625,-0.00209808349609375,0.058875590562820435,0.03763781487941742
1751619057698513400,0.375513427734375,-0.00673675537109375,0.0636138916015625,0.12046006321907043
1751619057717336800,0.3943369140625,-0.020107269287109375,0.05467996001243591,0.11666792631149292
1751619057736160300,0.41316015625,-0.029779434204101562,0.033133119344711304,0.0727621465921402
1751619057754983700,0.431983642578125,-0.015063285827636719,0.004424929618835449,0.023283302783966064
1751619057773807400,0.450807373046875,0.0031290054321289062,0.02778327465057373,-0.0006041154265403748
1751619057792630800,0.469630859375,0.012384414672851562,-0.005780965089797974,0.009149707853794098
1751619057811454200,0.4884541015625,0.003292083740234375,-0.037528663873672485,0.013084813952445984
1751619057830277600,0.507277587890625,0.01748180389404297,-0.0166875422000885,-0.01950821280479431
1751619057849101000,0.52610107421875,0.026787757873535156,-0.011386603116989136,-0.03212955594062805
1751619057867924500,0.544924560546875,0.0311126708984375,-0.01080349087715149,-0.04457387328147888
1751619057886748200,0.563748046875,0.016643524169921875,-0.028779178857803345,-0.028794243931770325
1751619057905571600,0.582571533203125,0.0022869110107421875,-0.04117235541343689,-0.05092490464448929
1751619057924395000,0.60139501953125,0.006786346435546875,-0.062233924865722656,-0.09059954434633255
1751619057943218400,0.620218505859375,-0.0123443603515625,-0.06482607126235962,-0.0825013816356659
1751619057962041900,0.639041748046875,-0.01703166961669922,-0.03912729024887085,-0.037960514426231384
1751619057980865500,0.657865478515625,-0.026597976684570312,-0.009706377983093262,0.00011884421110153198
1751619057999689000,0.67668896484375,-0.021973609924316406,0.023297876119613647,-0.00016655027866363525
1751619058018512400,0.695512451171875,-0.0027408599853515625,0.04142126441001892,0.023035980761051178
1751619058037335800,0.714335693359375,-0.0027322769165039062,0.03565549850463867,0.07334397733211517
1751619058056159200,0.7331591796875,0.006842613220214844,0.015959173440933228,0.056958939880132675
1751619058074982700,0.751982666015625,0.0068492889404296875,0.02483430504798889,0.022478945553302765
1751619058093806000,0.77080615234375,0.035094261169433594,0.009853839874267578,-0.015759289264678955
1751619058112629800,0.789629638671875,0.030088424682617188,-0.018560558557510376,-0.0012041032314300537
1751619058131453200,0.808453125,0.024934768676757812,-0.02250736951828003,-0.006113976240158081
1751619058150276600,0.827276611328125,0.024819374084472656,-0.021997958421707153,-0.006192721426486969
1751619058169100000,0.84610009765625,0.010111808776855469,0.020757198333740234,-0.010737799108028412
1751619058187923500,0.86492333984375,0.014556884765625,0.011040151119232178,0.03623988479375839
1751619058206747100,0.8837470703125,-0.018790245056152344,0.0340331494808197,0.025529026985168457
1751619058225570600,0.902570556640625,-0.018642425537109375,0.023716092109680176,-0.018007807433605194
1751619058244394000,0.92139404296875,0.009265899658203125,-0.01880684494972229,-0.07371196895837784
1751619058263217400,0.940217529296875,-0.010179519653320312,-0.07882165908813477,-0.07140381634235382
1751619058282040800,0.959040771484375,-0.00992584228515625,-0.04798758029937744,-0.04111827164888382
1751619058300864300,0.9778642578125,0.013696670532226562,-0.03718554973602295,-0.044175922870635986
1751619058319688000,0.99668798828125,0.022963523864746094,0.00600019097328186,-0.010141156613826752
1751619058338511400,1.015511474609375,0.036792755126953125,0.024355262517929077,0.018334999680519104
1751619058357334800,1.034334716796875,0.03620147705078125,0.00017449259757995605,0.026999689638614655
1751619058376158200,1.053158203125,0.021511077880859375,0.004948675632476807,0.007374458014965057
1751619058394981600,1.071981689453125,0.016564369201660156,-0.004664003849029541,-0.030776388943195343
1751619058413805000,1.09080517578125,-0.0024976730346679688,0.00921010971069336,-0.016215123236179352
1751619058432628700,1.109628662109375,0.0019750595092773438,0.004393547773361206,-0.006771460175514221
1751619058451452200,1.1284521484375,-0.01699542999267578,-0.014269381761550903,-0.0025027021765708923
1751619058470275600,1.147275634765625,-0.007571220397949219,0.004987835884094238,-0.026129357516765594
1751619058489099000,1.16609912109375,0.0060863494873046875,0.005055099725723267,-0.02552059292793274
1751619058507922400,1.18492236328125,0.005566596984863281,0.009982913732528687,-0.015598632395267487
1751619058526746000,1.20374609375,0.005381584167480469,-0.013442039489746094,0.003640785813331604
1751619058545569500,1.222569580078125,0.01947307586669922,-0.0035914182662963867,-0.020112186670303345
1751619058564393000,1.24139306640625,0.014514923095703125,-0.013076215982437134,-0.010210320353507996
1751619058583216400,1.26021630859375,0.023911476135253906,0.010882377624511719,0.013293221592903137
1751619058602039800,1.279039794921875,0.042410850524902344,0.019773274660110474,0.007891267538070679
1751619058620863500,1.297863525390625,0.03253364562988281,0.023740410804748535,0.021484501659870148
1751619058639687000,1.31668701171875,-0.0008611679077148438,0.013614445924758911,0.006544671952724457
1751619058658510300,1.33551025390625,-0.005542755126953125,-0.0009610950946807861,0.0012751519680023193
1751619058677333800,1.354333740234375,-0.015089035034179688,0.00878828763961792,0.024525359272956848
1751619058696157200,1.3731572265625,-0.015063285827636719,-0.0006081163883209229,-0.023267529904842377
1751619058714980600,1.391980712890625,-0.015118598937988281,-0.0005174577236175537,-0.022924132645130157
1751619058733804300,1.41080419921875,-0.01995372772216797,0.004197657108306885,-0.02687402069568634
1751619058752627700,1.429627685546875,-0.0010223388671875,0.004098832607269287,-0.007349066436290741
1751619058771451100,1.448451171875,-0.001071929931640625,0.008976280689239502,-0.002663739025592804
1751619058790274600,1.467274658203125,-0.0011196136474609375,0.018476784229278564,0.034729406237602234
1751619058809098000,1.486097900390625,0.022522926330566406,0.018015027046203613,0.005818650126457214
1751619058827921700,1.504921630859375,0.031813621520996094,0.008312463760375977,0.0009318441152572632
1751619058846745000,1.5237451171875,0.022129058837890625,-0.010481148958206177,0.010120786726474762
1751619058865568500,1.542568603515625,-0.0015096664428710938,-0.0007319450378417969,-0.004131332039833069
1751619058884392000,1.561391845703125,0.008026123046875,-0.010048985481262207,-0.04175384342670441
1751619058903215400,1.58021533203125,-0.0061244964599609375,-0.00015485286712646484,-0.012448474764823914
1751619058922038800,1.599038818359375,-0.01564788818359375,-0.004818737506866455,-0.026391707360744476
1751619058940862500,1.617862548828125,-0.0061931610107421875,0.004744440317153931,-0.0071215033531188965
1751619058959686000,1.636685791015625,-0.01587677001953125,-0.004596740007400513,0.01637444645166397
1751619058978509300,1.65550927734375,-0.02060985565185547,0.0004101097583770752,-0.0029902756214141846
1751619058997332700,1.674332763671875,0.007678985595703125,0.005062758922576904,-0.012381553649902344
1751619059016156200,1.69315625,0.01659679412841797,0.009827584028244019,0.006580807268619537
1751619059034979800,1.711979736328125,0.011572837829589844,0.00008314847946166992,0.0017040818929672241
1751619059053803300,1.73080322265625,0.011579513549804688,0.00964006781578064,-0.007922418415546417
1751619059072626700,1.749626708984375,0.00711822509765625,-0.004600644111633301,0.006111659109592438
1751619059091450000,1.7684501953125,0.030878067016601562,-0.004456460475921631,-0.007769159972667694
1751619059110273500,1.7872734375,0.030562400817871094,0.005141407251358032,-0.01232840120792389
1751619059129097200,1.80609716796875,0.0017824172973632812,0.000415802001953125,-0.01210792362689972
1751619059147920600,1.824920654296875,-0.012555122375488281,0.0097275972366333,-0.007427580654621124
1751619059166744000,1.843744140625,-0.012693405151367188,0.00484919548034668,0.0018823742866516113
1751619059185567500,1.8625673828125,-0.01737689971923828,0.00005364418029785156,0.0014728158712387085
1751619059204391000,1.881390869140625,-0.02213573455810547,-0.00932416319847107,0.010641932487487793
1751619059223214600,1.900214599609375,-0.017798423767089844,0.00011861324310302734,-0.0037896186113357544
1751619059242038000,1.9190380859375,-0.0036449432373046875,-0.009149223566055298,-0.022412829101085663
1751619059260861400,1.937861328125,0.024709701538085938,-0.027755409479141235,-0.012066133320331573
1751619059279684900,1.956684814453125,0.015184402465820312,-0.0178261399269104,0.01641307771205902
1751619059298508300,1.97550830078125,0.03891181945800781,-0.012617260217666626,0.001532427966594696
1751619059317331700,1.994331787109375,0.02468109130859375,-0.002953082323074341,0.006111137568950653
1751619059336155400,2.0131552734375,0.015154838562011719,0.011019080877304077,0.010583221912384033
1751619059354978800,2.031978759765625,0.001003265380859375,0.0013921260833740234,0.01015501469373703
1751619059373802200,2.05080224609375,-0.0036630630493164062,-0.01709309220314026,0.009393535554409027
1751619059392625700,2.069625732421875,0.0054779052734375,0.0112743079662323,-0.014640331268310547
1751619059411449000,2.088448974609375,-0.00450897216796875,-0.012510627508163452,-0.037797898054122925
1751619059430272800,2.107272705078125,-0.014324188232421875,0.001857072114944458,-0.008892379701137543
1751619059449096200,2.12609619140625,-0.023575782775878906,-0.012128233909606934,-0.008363105356693268
1751619059467919600,2.144919677734375,-0.004680633544921875,-0.0025905072689056396,0.005874179303646088
1751619059486743000,2.163742919921875,0.009197235107421875,0.006978660821914673,-0.012904725968837738
1751619059505566500,2.18256640625,0.013830184936523438,-0.0025135576725006104,-0.003062926232814789
1751619059524390000,2.201389892578125,0.0372161865234375,0.006864339113235474,0.010970719158649445
1751619059543213600,2.220213623046875,0.02743244171142578,-0.0026264190673828125,-0.003544814884662628
1751619059562037000,2.239037109375,0.027070045471191406,0.01133495569229126,-0.012792803347110748
1751619059580860400,2.2578603515625,0.007662773132324219,-0.0033220648765563965,-0.007897444069385529
1751619059599683800,2.276683837890625,0.0077190399169921875,-0.01749458909034729,0.0015063956379890442
1751619059618507300,2.29550732421875,-0.0016355514526367188,0.0018994510173797607,-0.007844850420951843
1751619059637331000,2.3143310546875,-0.0066013336181640625,0.0017951428890228271,-0.016999147832393646
1751619059656154400,2.333154296875,-0.01634502410888672,0.0017279982566833496,-0.016674377024173737
1751619059674977800,2.351977783203125,-0.03525829315185547,-0.02170950174331665,0.006933785974979401
1751619059693801200,2.37080126953125,-0.011351585388183594,0.007078766822814941,0.0017296969890594482
1751619059712624600,2.389624755859375,-0.00196075439453125,-0.006968140602111816,0.00653182715177536
1751619059731448000,2.408447998046875,0.011981010437011719,0.007373213768005371,-0.007516391575336456
1751619059750271700,2.427271728515625,0.016678810119628906,-0.01162227988243103,0.0066644251346588135
1751619059769095200,2.44609521484375,0.0026330947875976562,-0.006383150815963745,0.024922072887420654
1751619059787918600,2.464918701171875,0.012423515319824219,0.012485533952713013,0.0010825395584106445
1751619059806742000,2.483741943359375,0.01710987091064453,-0.006398230791091919,-0.017730191349983215
1751619059825565400,2.5025654296875,0.016777992248535156,0.007812827825546265,-0.008033223450183868
1751619059844388900,2.521388916015625,-0.0022916793823242188,-0.015747368335723877,0.0013431981205940247
1751619059863212500,2.540212646484375,-0.011788368225097656,-0.010450363159179688,0.0011081993579864502
1751619059882036000,2.559035888671875,-0.016655921936035156,-0.0008578002452850342,-0.01775383949279785
1751619059900859400,2.577859375,-0.021444320678710938,-0.005621582269668579,-0.007945813238620758
1751619059919682800,2.596682861328125,-0.0072479248046875,0.013615280389785767,0.0017267391085624695
1751619059938506200,2.61550634765625,-0.0074825286865234375,-0.005509287118911743,0.010767698287963867
1751619059957330000,2.634329833984375,-0.007709503173828125,-0.0004710853099822998,0.00586613267660141
1751619059976153300,2.6531533203125,-0.007378578186035156,-0.0006201863288879395,0.0010785013437271118
1751619059994976800,2.671976806640625,0.0021238327026367188,-0.010163307189941406,0.005638435482978821
1751619060013800200,2.69080029296875,0.030681610107421875,-0.014572888612747192,-0.00380098819732666
1751619060032623600,2.70962353515625,0.007075309753417969,-0.00021663308143615723,-0.008097529411315918
1751619060051447000,2.728447021484375,0.0026836395263671875,0.009164959192276001,0.020537279546260834
1751619060070270500,2.7472705078125,0.017098426818847656,-0.009892106056213379,0.015005052089691162
1751619060089094100,2.76609423828125,0.002567291259765625,0.00901535153388977,-0.013995274901390076
1751619060107917600,2.78491748046875,-0.01634502410888672,0.04165184497833252,-0.02822967618703842
1751619060126741000,2.803740966796875,-0.011571884155273438,0.02167898416519165,0.0053290873765945435
1751619060145564400,2.822564453125,-0.01645183563232422,-0.006701052188873291,0.02809615433216095
1751619060164387800,2.841387939453125,-0.03967571258544922,0.00770646333694458,0.0036292746663093567
1751619060183211500,2.86021142578125,-0.015775680541992188,-0.011022359132766724,-0.024729400873184204
1751619060202035000,2.879034912109375,-0.0062351226806640625,-0.020032912492752075,-0.009794287383556366
1751619060220858400,2.8978583984375,0.012868881225585938,-0.010123610496520996,-0.023698464035987854
1751619060239681800,2.916681884765625,0.031653404235839844,0.013891786336898804,-0.004273422062397003
1751619060258505200,2.935505126953125,0.021739959716796875,-0.0006121993064880371,-0.018353261053562164
1751619060277328600,2.95432861328125,0.007449150085449219,-0.0007555186748504639,0.019244574010372162
1751619060296152000,2.973152099609375,-0.006371498107910156,0.008516520261764526,0.02304716408252716
1751619060314975700,2.991975830078125,0.01729106903076172,0.0033306777477264404,0.0033833682537078857
1751619060333799200,3.010799072265625,0.007622718811035156,0.00780719518661499,-0.029484398663043976
1751619060352622600,3.02962255859375,-0.006987571716308594,-0.006263792514801025,-0.015135176479816437
1751619060371446000,3.048446044921875,-0.007229804992675781,-0.00606459379196167,-0.014715179800987244
1751619060390269400,3.06726953125,-0.02142620086669922,-0.014890402555465698,-0.028376705944538116
1751619060409092900,3.0860927734375,-0.016721725463867188,-0.0004452168941497803,-0.023237138986587524
1751619060427916500,3.10491650390625,-0.011859893798828125,0.00905415415763855,-0.008692003786563873
1751619060446740000,3.123739990234375,-0.0070037841796875,-0.00042942166328430176,0.014622285962104797
1751619060465563400,3.1425634765625,0.0024862289428710938,-0.0057446956634521484,0.018574215471744537
1751619060484386800,3.16138671875,0.02601337432861328,0.003579765558242798,0.013406224548816681
1751619060503210200,3.180210205078125,0.0256195068359375,0.012708455324172974,0.00367630273103714
1751619060522034000,3.199033935546875,0.02547740936279297,-0.0064983367919921875,-0.01977122575044632
1751619060540857300,3.217857421875,0.025262832641601562,-0.001696944236755371,-0.01927800476551056
1751619060559680800,3.2366806640625,-0.007735252380371094,-0.0014145374298095703,-0.03318772464990616
1751619060578504200,3.255504150390625,-0.003170013427734375,-0.019963860511779785,-0.023183204233646393
1751619060597327600,3.27432763671875,-0.008481025695800781,0.008925825357437134,-0.013390414416790009
1751619060616151000,3.293151123046875,-0.027498245239257812,-0.005259394645690918,-0.004118800163269043
1751619060634974500,3.311974365234375,-0.017961502075195312,0.01855921745300293,0.0006429031491279602
1751619060653798100,3.330798095703125,-0.008667945861816406,0.018250495195388794,0.00034914910793304443
1751619060672621600,3.34962158203125,0.000560760498046875,-0.005765050649642944,0.0003375932574272156
1751619060691445000,3.368445068359375,0.0005407333374023438,0.00387418270111084,0.00978473573923111
1751619060710268400,3.387268310546875,0.01471710205078125,-0.0006869137287139893,0.004720062017440796
1751619060729091800,3.406091796875,0.01917266845703125,-0.0054121315479278564,-0.01402919739484787
1751619060747915300,3.424915283203125,0.018769264221191406,-0.014730095863342285,-0.013515479862689972
1751619060766739000,3.443739013671875,-0.0001316070556640625,0.01845717430114746,0.0008332207798957825
1751619060785562400,3.462562255859375,-0.014013290405273438,-0.009847134351730347,0.03798208385705948
1751619060804385800,3.4813857421875,-0.013625144958496094,-0.01924443244934082,0.01350400596857071
1751619060823209200,3.500209228515625,-0.013563156127929688,0.03723877668380737,-0.0242791548371315
1751619060842032600,3.51903271484375,0.005154609680175781,0.003764718770980835,-0.014255441725254059
1751619060860856000,3.53785595703125,-0.02795886993408203,0.008417904376983643,0.014060430228710175
1751619060879679500,3.556679443359375,-0.0181732177734375,-0.0006873905658721924,0.008774176239967346
1751619060898503200,3.575503173828125,0.00046634674072265625,0.004236757755279541,-0.0385747104883194
1751619060917326600,3.59432666015625,-0.00002384185791015625,0.018207669258117676,-0.009217798709869385
1751619060936150000,3.61314990234375,-0.0237884521484375,0.01317209005355835,0.023917749524116516
1751619060954973400,3.631973388671875,0.0143280029296875,0.008336693048477173,0.009403489530086517
1751619060973796900,3.650796875,0.03306770324707031,0.012837648391723633,-0.009493745863437653
1751619060992620300,3.669620361328125,0.013933181762695312,0.01723635196685791,-0.01878046989440918
1751619061011444000,3.68844384765625,0.009154319763183594,-0.0018510520458221436,0.009494714438915253
1751619061030267400,3.707267333984375,0.013867378234863281,0.0029854774475097656,0.004361182451248169
1751619061049090800,3.7260908203125,-0.009654998779296875,0.00781896710395813,-0.009937822818756104
1751619061067914200,3.744914306640625,-0.009575843811035156,0.002846837043762207,-0.01427055150270462
1751619061086737700,3.763737548828125,-0.018982887268066406,-0.0020731687545776367,0.004630677402019501
1751619061105561000,3.78256103515625,-0.004634857177734375,-0.006796777248382568,-0.009438522160053253
1751619061124384800,3.801384765625,-0.009345054626464844,-0.0018305182456970215,-0.004580974578857422
1751619061143208200,3.820208251953125,-0.023393630981445312,0.003006488084793091,-0.01395350694656372
1751619061162031600,3.839031494140625,-0.009287834167480469,0.012356877326965332,0.00047197192907333374
1751619061180855000,3.85785498046875,0.009763717651367188,0.007436931133270264,0.01438179612159729
1751619061199678500,3.876678466796875,0.005043983459472656,-0.0022284984588623047,-0.014360800385475159
1751619061218502000,3.895501953125,0.005107879638671875,0.011955022811889648,-0.004976801574230194
1751619061237325300,3.9143251953125,0.0051670074462890625,0.0022524595260620117,-0.00939321517944336
1751619061256148700,3.933148681640625,0.009774208068847656,0.011817246675491333,0.00002810359001159668
1751619061274972400,3.951972412109375,0.00011444091796875,0.002242356538772583,-0.014404207468032837
1751619061293795800,3.9707958984375,0.004733085632324219,0.0022388696670532227,-0.014353983104228973
1751619061312619300,3.989619384765625,-0.019033432006835938,0.01635316014289856,-0.023606881499290466
1751619061331442700,4.008442626953125,-0.009469032287597656,0.01133418083190918,-0.013683833181858063
1751619061350266000,4.02726611328125,-0.009395599365234375,0.0017752349376678467,0.009793564677238464
1751619061369089500,4.046089599609375,-0.0093231201171875,-0.007467746734619141,-0.014061465859413147
1751619061387913000,4.064912841796875,-0.004626274108886719,-0.002836555242538452,-0.023400597274303436
1751619061406736600,4.083736572265625,0.014189720153808594,0.002112150192260742,-0.01345060020685196
1751619061425560000,4.10256005859375,0.004856109619140625,0.006818830966949463,0.010368429124355316
1751619061444383500,4.121383544921875,0.01920032501220703,0.006818592548370361,0.001124165952205658
1751619061463207000,4.14020703125,0.0003662109375,-0.012159734964370728,0.0009766817092895508
1751619061482030300,4.1590302734375,-0.0042781829833984375,0.002273648977279663,-0.008734561502933502
1751619061500853800,4.177853759765625,0.023862838745117188,-0.0026255249977111816,-0.008869878947734833
1751619061519677200,4.19667724609375,-0.0045375823974609375,-0.0023124217987060547,-0.008737020194530487
1751619061538500600,4.21550048828125,-0.004469871520996094,0.0072464048862457275,-0.008840374648571014
1751619061557324300,4.23432421875,-0.013974189758300781,0.016568869352340698,-0.01822550594806671
1751619061576147700,4.253147705078125,-0.00943756103515625,-0.0026533305644989014,0.01037508249282837
1751619061594971100,4.27197119140625,-0.00920867919921875,0.0020540356636047363,-0.004433006048202515
1751619061613794600,4.290794677734375,-0.018632888793945312,-0.0028844475746154785,-0.013776682317256927
1751619061632618000,4.309617919921875,-0.013628959655761719,0.02551683783531189,-0.008458547294139862
1751619061651441400,4.32844140625,0.005402565002441406,-0.007536023855209351,-0.02229660004377365
1751619061670264800,4.347264892578125,0.005377769470214844,-0.01215749979019165,0.006128594279289246
1751619061689088500,4.366088623046875,0.02425670623779297,0.01639348268508911,-0.003327019512653351
1751619061707912000,4.384911865234375,0.014743804931640625,0.0021955370903015137,-0.008036725223064423
1751619061726735400,4.4037353515625,0.009860038757324219,0.0209386944770813,-0.01721472293138504
1751619061745558800,4.422558837890625,0.0049800872802734375,0.01129758358001709,-0.002952076494693756
1751619061764382200,4.44138232421875,-0.008986473083496094,0.015713423490524292,0.001739203929901123
1751619061783205600,4.46020556640625,-0.008848190307617188,0.0014606714248657227,-0.026207976043224335
1751619061802029000,4.479029052734375,-0.0041656494140625,0.0016398727893829346,-0.021186649799346924
1751619061820852700,4.497852783203125,-0.008974075317382812,0.020401358604431152,-0.002010233700275421
1751619061839676200,4.51667626953125,-0.018484115600585938,0.0010513365268707275,0.011901333928108215
1751619061858499600,4.53549951171875,-0.004231452941894531,-0.003618687391281128,0.0021408498287200928
1751619061877323000,4.554322998046875,-0.008799552917480469,0.015124887228012085,0.020544543862342834
1751619061896146400,4.573146484375,0.0008993148803710938,-0.0133056640625,0.010732099413871765
1751619061914969900,4.591969970703125,0.019927024841308594,-0.00341719388961792,-0.01757609099149704
1751619061933793300,4.610793212890625,0.0055389404296875,-0.012646585702896118,-0.03130491077899933
1751619061952616700,4.62961669921875,0.04841136932373047,-0.002902984619140625,0.0067979395389556885
1751619061971440400,4.6484404296875,0.014963150024414062,-0.016932517290115356,-0.0028704702854156494
1751619061990263800,4.667263916015625,-0.0040454864501953125,0.020875483751296997,-0.012296073138713837
1751619062009087200,4.686087158203125,0.014672279357910156,0.020335644483566284,-0.007494039833545685
1751619062027910700,4.70491064453125,0.005084991455078125,0.0012242794036865234,0.0017395466566085815
1751619062046734000,4.723734130859375,-0.013754844665527344,0.02039051055908203,0.0010173693299293518
1751619062065557500,4.7425576171875,-0.018712997436523438,0.0012750029563903809,0.005322448909282684
1751619062084381000,4.761380859375,-0.01856708526611328,0.0014580190181732178,-0.018201060593128204
1751619062103204600,4.78020458984375,0.00039577484130859375,-0.003148198127746582,-0.012975379824638367
1751619062122028000,4.799028076171875,0.005087852478027344,-0.007791608572006226,-0.008029326796531677
1751619062140851500,4.8178515625,0.00020885467529296875,-0.002834796905517578,-0.007870756089687347
1751619062159675000,4.8366748046875,0.009843826293945312,0.006820887327194214,-0.007874347269535065
1751619062178498300,4.855498291015625,0.014615058898925781,0.020517677068710327,0.011102572083473206
1751619062197321700,4.87432177734375,0.009814262390136719,0.01065516471862793,0.010782122611999512
1751619062216145200,4.893145263671875,0.0004673004150390625,0.0288049578666687,0.015053175389766693
1751619062234968600,4.911968505859375,0.0097808837890625,0.01403874158859253,0.0003525838255882263
1751619062253792000,4.9307919921875,-0.004349708557128906,-0.004945307970046997,0.009667344391345978
1751619062272615700,4.94961572265625,-0.00452423095703125,-0.0047123730182647705,-0.014140382409095764
1751619062291439000,4.968439208984375,-0.014260292053222656,-0.02291855216026306,-0.032580286264419556
1751619062310262500,4.987262451171875,-0.018891334533691406,-0.013069570064544678,-0.022435560822486877
1751619062329086000,5.0060859375,-0.009326934814453125,0.0012835860252380371,-0.012282155454158783
1751619062347909400,5.024909423828125,-0.009257316589355469,-0.0171968936920166,0.011735118925571442
1751619062366732800,5.04373291015625,0.00022125244140625,0.016148090362548828,0.011236876249313354
1751619062385556200,5.06255615234375,0.009778022766113281,0.006194710731506348,0.01564975082874298
1751619062404379600,5.081379638671875,0.014390945434570312,0.033979833126068115,0.015015214681625366
1751619062423203000,5.100203125,0.014382362365722656,0.014416247606277466,0.0006349161267280579
1751619062442026800,5.11902685546875,0.028568267822265625,-0.004422217607498169,-0.003970399498939514
1751619062460850200,5.13785009765625,-0.051733970642089844,-0.019027382135391235,-0.009219810366630554
1751619062479673600,5.156673583984375,0.06636333465576172,0.05161750316619873,0.07972706109285355
1751619062498497000,5.1754970703125,-0.05725288391113281,-0.025063127279281616,-0.01493161916732788
1751619062517320400,5.194320556640625,-0.05685710906982422,-0.061623454093933105,-0.019225791096687317
1751619062536144000,5.213143798828125,-0.009333610534667969,-0.05472925305366516,-0.08396327495574951
1751619062554967300,5.23196728515625,0.014029502868652344,-0.011276215314865112,-0.08128441125154495
1751619062573790700,5.250790771484375,0.023446083068847656,0.00764802098274231,-0.004406780004501343
1751619062592614400,5.269614501953125,-0.023604393005371094,0.0025717616081237793,0.060735370963811874
1751619062611437800,5.288437744140625,-0.08094596862792969,0.03032025694847107,0.06348203122615814
1751619062630261200,5.30726123046875,-0.033565521240234375,0.04327094554901123,0.03381141275167465
1751619062649084700,5.326084716796875,0.013814926147460938,0.018303394317626953,0.02822694182395935
1751619062667908000,5.344908203125,0.03743457794189453,0.0036478638648986816,0.004306785762310028
1751619062686731500,5.3637314453125,0.01870250701904297,-0.028720349073410034,-0.005449995398521423
1751619062705555000,5.382554931640625,-0.004974365234375,-0.05149999260902405,-0.03335171937942505
1751619062724378400,5.40137841796875,-0.009830474853515625,-0.026934921741485596,-0.06463450938463211
1751619062743202000,5.4202021484375,-0.014765739440917969,-0.04016536474227905,-0.011412590742111206
1751619062762025500,5.439025390625,-0.028867721557617188,-0.015895307064056396,-0.006463296711444855
1751619062780849000,5.457848876953125,-0.01905536651611328,0.01733061671257019,-0.015923619270324707
1751619062799672300,5.47667236328125,-0.0048618316650390625,0.021534234285354614,0.0306866392493248
1751619062818495700,5.495495849609375,0.004549980163574219,0.020657747983932495,0.03437814861536026
1751619062837319200,5.514319091796875,0.0046367645263671875,0.019855618476867676,0.02370341867208481
1751619062856142600,5.533142578125,-0.009560585021972656,0.014562875032424927,-0.009742893278598785
1751619062874966000,5.551966064453125,-0.004619598388671875,-0.01392868161201477,-0.02817097306251526
1751619062893789400,5.57078955078125,0.02384185791015625,-0.04626038670539856,0.005355827510356903
1751619062912612900,5.58961279296875,0.014342308044433594,-0.03556257486343384,0.0009900256991386414
1751619062931436300,5.608436279296875,0.023825645446777344,0.012509465217590332,-0.008322633802890778
1751619062950260000,5.627260009765625,0.00962066650390625,0.031148135662078857,0.005882911384105682
1751619062969083400,5.64608349609375,0.009455680847167969,0.02085462212562561,0.01972419023513794
1751619062987906800,5.66490673828125,-0.0002727508544921875,0.020155102014541626,0.009070739150047302
1751619063006730200,5.683730224609375,-0.005207061767578125,0.005672574043273926,0.017931684851646423
1751619063025553700,5.7025537109375,-0.005272865295410156,-0.0037014782428741455,-0.001336522400379181
1751619063044377000,5.721377197265625,-0.005494117736816406,-0.022097915410995483,-0.038629114627838135
1751619063063200500,5.740200439453125,-0.010171890258789062,-0.021520495414733887,-0.009277239441871643
1751619063082024200,5.759024169921875,-0.0007419586181640625,-0.00685727596282959,-0.032143160700798035
1751619063100847600,5.77784765625,-0.0055065155029296875,-0.010952144861221313,-0.03126943111419678
1751619063119671000,5.796671142578125,0.013575553894042969,0.008037328720092773,0.0021778419613838196
1751619063138494500,5.815494384765625,0.02779674530029297,0.017190754413604736,0.02533026784658432
1751619063157318000,5.83431787109375,0.1185770034790039,0.016233474016189575,0.04352270066738129
1751619063176141300,5.853141357421875,-0.014416694641113281,-0.01809239387512207,0.029977641999721527
1751619063194964700,5.87196484375,-0.04796409606933594,-0.004346638917922974,-0.002545364201068878
1751619063213788200,5.8907880859375,-0.014777183532714844,-0.018486440181732178,-0.02154448628425598
1751619063232611600,5.909611572265625,-0.000423431396484375,-0.022601813077926636,-0.02620203047990799
1751619063251435000,5.92843505859375,0.013867378234863281,-0.022053122520446777,-0.02043566107749939
1751619063270258400,5.947258544921875,0.009425163269042969,0.0018628239631652832,0.00913180410861969
1751619063289081900,5.966081787109375,-0.02364635467529297,0.015542685985565186,0.01973741501569748
1751619063307905500,5.984905517578125,-0.0096282958984375,0.001207500696182251,0.018885836005210876
1751619063326729000,6.00372900390625,-0.009913444519042969,-0.007632136344909668,0.03946659713983536
1751619063345552400,6.022552490234375,-0.01916980743408203,0.006635755300521851,0.023616135120391846
1751619063364375800,6.041375732421875,-0.0044803619384765625,-0.0031549036502838135,0.03353872895240784
1751619063383199200,6.06019921875,-0.013638496398925781,-0.003914743661880493,0.15566223859786987
1751619063402022700,6.079022705078125,-0.04092121124267578,0.0029970109462738037,-0.07000088691711426
1751619063420846000,6.09784619140625,-0.0663003921508789,-0.035087913274765015,-0.1451088786125183
1751619063439669500,6.11666943359375,0.0058116912841796875,-0.006569474935531616,-0.026737496256828308
1751619063458493000,6.135492919921875,-0.013525009155273438,0.8893615007400513,-0.8335586786270142
1751619063477316400,6.15431640625,-0.013237953186035156,1.139863133430481,-1.781449556350708
1751619063496140000,6.17314013671875,0.015163421630859375,0.6247608661651611,-1.9203367233276367
1751619063514963500,6.19196337890625,0.0051593780517578125,-0.5950387716293335,0.01718027889728546
1751619063533787000,6.210786865234375,0.09753227233886719,-1.0370944738388062,1.5375454425811768
1751619063552610300,6.2296103515625,0.021154403686523438,-1.3572463989257812,2.3125836849212646
1751619063571433700,6.248433837890625,0.011745452880859375,-0.4173036217689514,1.218592882156372
1751619063590257200,6.267257080078125,0.01649761199951172,-0.2687551975250244,0.29908883571624756
1751619063609080600,6.28608056640625,0.0069789886474609375,-0.7341645956039429,1.0575730800628662
1751619063627904000,6.304904052734375,0.03084278106689453,-0.5556386113166809,1.4425880908966064
1751619063646727400,6.3237275390625,0.01636505126953125,-0.8276075720787048,1.9026824235916138
1751619063665551000,6.342551025390625,0.04940605163574219,-1.136617660522461,2.075427532196045
1751619063684374500,6.36137451171875,0.0011882781982421875,-0.5060637593269348,1.882683277130127
1751619063703198000,6.380197998046875,-0.008908271789550781,-0.009018093347549438,1.2820292711257935
1751619063722021400,6.399021484375,-0.014245986938476562,0.3844790458679199,-0.7752098441123962
1751619063740844800,6.4178447265625,0.014050483703613281,0.929928719997406,-2.8137154579162598
1751619063759668200,6.436668212890625,0.056240081787109375,0.7917449474334717,-3.6452443599700928
1751619063778491600,6.45549169921875,0.04612159729003906,0.1436035931110382,-2.7038815021514893
1751619063797315000,6.474315185546875,-0.09161376953125,1.3562129735946655,-0.9425896406173706
1751619063816138500,6.493138427734375,-0.024229049682617188,1.7657625675201416,-2.1855905055999756
1751619063834962000,6.5119619140625,0.10994625091552734,0.1486518383026123,-1.7914067506790161
1751619063853785600,6.53078564453125,0.024054527282714844,-1.2169629335403442,-0.5287168025970459
1751619063872609000,6.549609130859375,0.029030799865722656,-1.6488655805587769,0.23372480273246765
1751619063891432400,6.568432373046875,0.038771629333496094,-1.0461938381195068,0.5424981713294983
1751619063910255900,6.587255859375,-0.013512611389160156,-0.3394721746444702,1.0217719078063965
1751619063929079300,6.606079345703125,0.024888038635253906,-0.7870124578475952,1.3296265602111816
1751619063947902700,6.62490283203125,0.0009984970092773438,-0.6865952014923096,1.3578429222106934
1751619063966726100,6.64372607421875,-0.008502960205078125,-0.3558637201786041,1.1977626085281372
1751619063985549600,6.662549560546875,-0.0037679672241210938,0.02697107195854187,0.0496198832988739
1751619064004373000,6.681373046875,0.005585670471191406,-1.6361351013183594,1.7572695016860962
1751619064023196400,6.700196533203125,0.08188438415527344,-0.860072135925293,1.8706616163253784
1751619064042019800,6.719019775390625,0.1524515151977539,-1.7133183479309082,2.3406472206115723
1751619064060843300,6.73784326171875,-0.0867156982421875,-1.1992595195770264,2.7099854946136475
1751619064079667000,6.7566669921875,-0.00036907196044921875,-0.816382646560669,1.092824101448059
1751619064098490400,6.775490478515625,0.07113456726074219,-0.2047068029642105,-1.0774459838867188
1751619064117313800,6.794313720703125,0.037108421325683594,0.8986886739730835,-2.8776865005493164
1751619064136137200,6.81313720703125,0.05119132995605469,1.7821053266525269,-3.800488233566284
1751619064154960600,6.831960693359375,-0.054058074951171875,1.952867031097412,-2.9754538536071777
1751619064173784000,6.8507841796875,0.10389995574951172,4.079960346221924,-4.413105487823486
1751619064192607500,6.869607421875,0.2796478271484375,4.134139537811279,-7.279441833496094
1751619064211431000,6.888430908203125,0.1662607192993164,0.017847657203674316,-5.253714084625244
1751619064230254300,6.90725439453125,-1.346780776977539,-3.314356565475464,-1.3942313194274902
1751619064249077800,6.926077880859375,-0.3256235122680664,-4.199131488800049,1.3460780382156372
1751619064267901200,6.944901123046875,0.7157573699951172,-2.668776750564575,2.9434361457824707
1751619064286724900,6.963724853515625,-0.1942272186279297,-3.3515777587890625,4.814317226409912
1751619064305548300,6.98254833984375,-0.021215438842773438,-3.3019628524780273,6.06635856628418
1751619064324371700,7.001371826171875,0.28070545196533203,-0.811853289604187,0.7795743346214294
1751619064343195100,7.020195068359375,0.11791515350341797,-0.5955942869186401,0.2989966869354248
1751619064362018600,7.0390185546875,0.0411834716796875,-1.1122955083847046,0.7450721859931946
1751619064380842000,7.057842041015625,-0.03071117401123047,-1.42313814163208,2.1380724906921387
1751619064399665400,7.07666552734375,-0.0025625228881835938,-1.5534157752990723,1.9428766965866089
1751619064418488800,7.09548876953125,-0.2088603973388672,-1.536656379699707,1.9632680416107178
1751619064437312300,7.114312255859375,0.09171676635742188,-1.7418687343597412,1.3296324014663696
1751619064456135700,7.1331357421875,-0.009809494018554688,-1.2773456573486328,0.5548611283302307
1751619064474959000,7.151958984375,-0.001689910888671875,-0.29288169741630554,0.4609869122505188
1751619064493782500,7.170782470703125,-0.21242237091064453,0.7395512461662292,-1.7748727798461914
1751619064512606000,7.18960595703125,-0.06863594055175781,2.391620397567749,-4.408694267272949
1751619064531429600,7.2084296875,0.03648090362548828,3.334585189819336,-5.0756378173828125
1751619064550253000,7.227253173828125,-0.016323089599609375,0.38049113750457764,-0.378368079662323
1751619064569076500,7.246076416015625,0.02729511260986328,1.71171236038208,-1.7388571500778198
1751619064587900000,7.26489990234375,0.022918701171875,2.3824825286865234,-4.642622470855713
1751619064606723300,7.283723388671875,0.018152236938476562,1.749643087387085,-5.8558549880981445
1751619064625546800,7.302546630859375,-0.2664346694946289,-0.6100412607192993,-4.177891731262207
1751619064644370200,7.3213701171875,0.14014816284179688,-2.8799571990966797,-0.8966183066368103
1751619064663193600,7.340193603515625,0.1262226104736328,-3.279712438583374,2.7401044368743896
1751619064682017000,7.35901708984375,0.0020923614501953125,-2.5888283252716064,4.616100788116455
1751619064700840400,7.37784033203125,-0.03119182586669922,-3.1015732288360596,5.737051486968994
1751619064719663900,7.396663818359375,-0.064483642578125,-0.633777379989624,2.4806201457977295
1751619064738487300,7.4154873046875,0.0023708343505859375,-0.7397357225418091,0.7209593653678894
1751619064757310700,7.434310791015625,-0.00262451171875,-1.4654203653335571,1.7545840740203857
1751619064776134400,7.453134521484375,-0.026760101318359375,-1.9252265691757202,3.5541796684265137
1751619064794957800,7.471957763671875,0.034850120544433594,-2.5991384983062744,5.510008811950684
1751619064813781200,7.49078125,0.2622842788696289,-3.0839197635650635,5.554687023162842
1751619064832604700,7.509604736328125,-0.05957317352294922,-2.413250684738159,2.582104206085205
1751619064851428000,7.528427978515625,-0.08355140686035156,0.3585262596607208,-4.716111183166504
1751619064870251500,7.54725146484375,0.26549434661865234,2.5025734901428223,-11.932534217834473
1751619064889075000,7.566074951171875,0.0628805160522461,2.000408411026001,-9.305413246154785
1751619064907898400,7.5848984375,-0.0230865478515625,2.905390739440918,-3.369403123855591
1751619064926721800,7.6037216796875,-0.14627838134765625,3.3262717723846436,-4.059605598449707
1751619064945545200,7.622545166015625,0.018024444580078125,1.3078035116195679,-3.929466962814331
1751619064964368600,7.64136865234375,0.10057544708251953,-0.810832142829895,-2.773332118988037
1751619064983192000,7.660192138671875,-0.4205646514892578,-2.900477886199951,0.03192658722400665
1751619065002015700,7.679015625,-0.13310718536376953,-4.076212406158447,2.3788304328918457
1751619065020839200,7.697839111328125,-0.008516311645507812,-4.592818260192871,4.316871643066406
1751619065039662600,7.71666259765625,-0.02277088165283203,-4.303071022033691,5.932660102844238
1751619065058486000,7.735486083984375,0.025007247924804688,-1.3932552337646484,2.5486083030700684
1751619065077309400,7.754309326171875,0.029531478881835938,-1.6811937093734741,2.59505558013916
1751619065096132900,7.7731328125,-0.057015419006347656,-2.0803463459014893,3.7852563858032227
1751619065114956300,7.791956298828125,-0.019834518432617188,-2.272085666656494,4.391746997833252
1751619065133779700,7.81077978515625,-0.14987945556640625,-2.2561445236206055,3.188189744949341
1751619065152603100,7.82960302734375,-0.06947803497314453,-2.907118320465088,0.8399413824081421
1751619065171426600,7.848426513671875,-0.08824539184570312,-2.205336570739746,-2.2500624656677246
1751619065190250000,7.86725,0.17827415466308594,-0.6583669185638428,-4.71429443359375
1751619065209073400,7.886073486328125,0.09685897827148438,2.8596086502075195,-8.11085033416748
1751619065227896800,7.904896728515625,0.06786632537841797,6.938572883605957,-10.171968460083008
1751619065246720300,7.92372021484375,-0.11315250396728516,4.180708885192871,-7.5371503829956055
1751619065265543700,7.942543701171875,-0.03164482116699219,1.5628116130828857,-5.7520904541015625
1751619065284367400,7.961367431640625,0.12182235717773438,-0.8847761154174805,-2.988309860229492
1751619065303190800,7.980190673828125,0.23296642303466797,-2.373544692993164,-1.0589163303375244
1751619065322014200,7.99901416015625,0.00907135009765625,-3.391045093536377,2.1268906593322754
1751619065340837600,8.017837646484375,0.02424144744873047,-4.813939571380615,5.018127918243408
1751619065359661000,8.0366611328125,0.024633407592773438,-4.118592739105225,5.539115905761719
1751619065378484500,8.055484375,0.0007543563842773438,-1.492656946182251,3.8894457817077637
1751619065397308000,8.074307861328125,-0.02303314208984375,0.3057091534137726,0.6768956184387207
1751619065416131300,8.09313134765625,0.00080108642578125,-1.1431128978729248,1.2854410409927368
1751619065434954800,8.111954833984376,0.01491546630859375,-2.982057809829712,3.779829978942871
1751619065453778200,8.130778076171875,0.03822612762451172,-3.4163408279418945,5.374588966369629
1751619065472601600,8.1496015625,0.12278461456298828,-2.6370105743408203,5.227506637573242
1751619065491425000,8.168425048828125,-0.13136672973632812,-1.762289047241211,2.116462469100952
1751619065510248400,8.18724853515625,0.41415882110595703,-0.5794409513473511,-3.296139717102051
1751619065529071900,8.20607177734375,0.3511495590209961,-0.25354495644569397,-6.691267967224121
1751619065547895300,8.224895263671876,0.11126995086669922,2.536130666732788,-10.083159446716309
1751619065566719000,8.243718994140625,0.05393695831298828,4.437942981719971,-6.756502628326416
1751619065585542400,8.26254248046875,0.0448455810546875,4.886955738067627,-8.05063247680664
1751619065604365800,8.28136572265625,-0.00762176513671875,2.5881154537200928,-7.114223480224609
1751619065623189200,8.300189208984374,-0.18737220764160156,-0.5628665685653687,-2.3978588581085205
1751619065642012700,8.3190126953125,0.07138252258300781,-3.7232115268707275,0.6821818947792053
1751619065660836000,8.337836181640625,-0.061476707458496094,-4.134363174438477,2.902958631515503
1751619065679659500,8.356659423828125,-0.05089855194091797,-4.725256443023682,4.89532995223999
1751619065698483000,8.37548291015625,-0.16596412658691406,-5.07634162902832,6.061592102050781
1751619065717306400,8.394306396484374,0.03010082244873047,-3.453120231628418,4.755308628082275
1751619065736129800,8.4131298828125,0.02036285400390625,-3.5428271293640137,2.9184136390686035
1751619065754953200,8.431953125,0.23913955688476562,-3.9691572189331055,4.225656509399414
1751619065773776600,8.450776611328125,0.09042167663574219,-2.9820213317871094,4.259527683258057
1751619065792600000,8.46960009765625,0.026299476623535156,-2.562009811401367,2.680205821990967
1751619065811423500,8.488423583984375,0.07370281219482422,-2.1901090145111084,1.1947678327560425
1751619065830247000,8.507246826171874,-0.21224689483642578,-1.2895889282226562,-2.1269655227661133
1751619065849070600,8.526070556640626,0.15464115142822266,-0.04627378284931183,-5.030773162841797
1751619065867894000,8.54489404296875,0.1159200668334961,2.675543785095215,-7.271732330322266
1751619065886717400,8.563717529296875,0.020140647888183594,5.519535541534424,-9.903447151184082
1751619065905540900,8.582540771484375,-0.12333297729492188,2.8798606395721436,-5.094786167144775
1751619065924364300,8.6013642578125,0.01953411102294922,2.068793773651123,-4.684201240539551
1751619065943187700,8.620187744140624,0.004900932312011719,1.3977196216583252,-3.546832323074341
1751619065962011100,8.63901123046875,0.005181312561035156,1.154189109802246,-2.98520565032959
1751619065980834600,8.65783447265625,0.07339954376220703,-0.32180604338645935,-1.2507290840148926
1751619065999658000,8.676657958984375,-0.021081924438476562,-2.8061459064483643,1.996931791305542
1751619066018481400,8.6954814453125,0.37700557708740234,-4.386525630950928,3.6263484954833984
1751619066037304800,8.714304931640624,-0.09035301208496094,-2.9903106689453125,2.7524213790893555
1751619066056128300,8.733128173828124,0.02884960174560547,-1.2457748651504517,1.166191816329956
1751619066074951700,8.75195166015625,0.00032329559326171875,-1.1609559059143066,1.0048446655273438
1751619066093775000,8.770775146484375,0.014725685119628906,-1.4211146831512451,1.6801197528839111
1751619066112598500,8.7895986328125,-0.033110618591308594,-1.2240296602249146,3.0108656883239746
1751619066131422000,8.808421875,-0.013924598693847656,-0.07542285323143005,0.10355445742607117
1751619066150245400,8.827245361328124,-0.009167671203613281,-1.1104780435562134,1.3205673694610596
1751619066169068800,8.84606884765625,0.009669303894042969,-1.9520702362060547,4.09179162979126
1751619066187892200,8.864892333984375,-0.03834819793701172,-1.542425274848938,4.861440658569336
1751619066206716000,8.8837158203125,0.04744911193847656,-1.794560194015503,3.0936949253082275
1751619066225539300,8.902539306640625,-0.15398693084716797,-1.9829871654510498,0.7892978191375732
1751619066244362800,8.92136279296875,0.11336135864257812,0.5282891988754272,-3.1653172969818115
1751619066263186200,8.940186279296874,0.1463489532470703,2.6086769104003906,-6.9811224937438965
1751619066282009600,8.959009521484376,0.10305595397949219,1.461160659790039,-6.18532657623291
1751619066300833000,8.9778330078125,0.0073909759521484375,0.04931098222732544,0.01602892577648163
1751619066319656400,8.996656494140625,-0.04980945587158203,1.4927432537078857,-1.030417799949646
1751619066357303300,9.03430322265625,-0.08251380920410156,2.6229963302612305,-5.928476333618164
1751619066376126700,9.053126708984376,0.023146629333496094,0.19132652878761292,-4.819449424743652
1751619066394950100,9.0719501953125,-0.010149002075195312,-1.501062035560608,-3.233142614364624
1751619066413773600,9.090773681640625,0.023865699768066406,-2.7127575874328613,-1.170736312866211
1751619066432597000,9.109596923828125,0.06306743621826172,-4.210636615753174,1.6884971857070923
1751619066451420400,9.12842041015625,0.20670795440673828,-5.040823936462402,4.879497528076172
1751619066470243800,9.147243896484374,0.03983497619628906,-4.79318380355835,8.066690444946289
1751619066489067300,9.1660673828125,-0.00290679931640625,-2.504011631011963,6.617891788482666
1751619066507890700,9.184890625,-0.008104324340820312,-2.358851909637451,5.06610107421875
1751619066526714000,9.203714111328125,-0.09008598327636719,-2.330867290496826,4.387179851531982
1751619066545537500,9.22253759765625,0.17707252502441406,-2.7609357833862305,2.6666746139526367
1751619066564361200,9.241361328125,0.2997875213623047,-3.5013279914855957,1.6419224739074707
1751619066583184600,9.2601845703125,0.20308589935302734,-4.532231330871582,0.4780438244342804
1751619066602008000,9.279008056640626,-0.0746450424194336,-4.100020408630371,-1.9182579517364502
1751619066620831500,9.29783154296875,0.015514373779296875,-2.021674156188965,-4.42769193649292
1751619066639655000,9.316655029296875,0.04383087158203125,0.40958818793296814,-5.739480495452881
1751619066667890000,9.344889892578125,-0.09517669677734375,4.415224552154541,-8.16922664642334
1751619066686713300,9.36371337890625,0.24413013458251953,4.873381614685059,-6.839961051940918
1751619066705536800,9.382536865234375,-0.05743217468261719,4.273042678833008,-8.388718605041504
1751619066724360200,9.401360107421874,0.08579730987548828,3.201620578765869,-9.9639253616333
1751619066743184000,9.420183837890624,0.20085620880126953,-0.4230339825153351,-5.540212154388428
1751619066762007300,9.43900732421875,-0.164794921875,-3.7524328231811523,0.48275530338287354
1751619066780830700,9.457830810546875,0.15239906311035156,-6.4463605880737305,4.055220603942871
1751619066799654100,9.476654052734375,-0.014308929443359375,-5.7093000411987305,7.1250152587890625
1751619066818477600,9.4954775390625,-0.000072479248046875,-5.351204872131348,7.80344820022583
1751619066837301000,9.514301025390624,0.03350257873535156,-1.3263788223266602,3.351013422012329
1751619066856124400,9.53312451171875,0.014150619506835938,-2.0291826725006104,2.4561197757720947
1751619066874947800,9.55194775390625,0.1378154754638672,-3.1910400390625,3.8836095333099365
1751619066893771300,9.570771240234375,0.19446086883544922,-4.817963123321533,5.744724750518799
1751619066912594700,9.5895947265625,-0.012663841247558594,-5.358489990234375,5.684535026550293
1751619066931418000,9.608418212890625,0.11103534698486328,-4.678558349609375,3.2536609172821045
1751619066950241500,9.627241455078124,-0.9397716522216797,-1.9941786527633667,-3.7680776119232178
1751619066969065000,9.64606494140625,0.7853031158447266,1.9993562698364258,-11.136587142944336
1751619066987888400,9.664888427734375,-0.04285717010498047,5.496522903442383,-14.624314308166504
1751619067006711800,9.6837119140625,0.13327980041503906,3.501210927963257,-9.68860149383545
1751619067025535200,9.70253515625,0.22930908203125,3.9734458923339844,-9.619998931884766
1751619067044358700,9.721358642578124,-0.13421154022216797,1.5850138664245605,-7.8305253982543945
1751619067063182000,9.74018212890625,0.0001354217529296875,-0.9695435762405396,-3.356461763381958
1751619067082005500,9.759005615234376,-0.09878253936767578,-3.4164223670959473,1.1504185199737549
1751619067100829000,9.777828857421875,0.0037946701049804688,-5.00923490524292,3.3687431812286377
1751619067119652400,9.79665234375,-0.11507797241210938,-4.798013687133789,4.697174072265625
1751619067138475800,9.815475830078125,0.24386978149414062,-5.140956878662109,4.8265767097473145
1751619067157299200,9.83429931640625,0.05702686309814453,-4.9062066078186035,5.8197221755981445
1751619067176123000,9.853122802734376,-0.024135589599609375,-1.8774590492248535,2.748234748840332
1751619067194946000,9.871946044921875,0.05676841735839844,-2.1803691387176514,3.633087396621704
1751619067213769500,9.89076953125,-0.05822181701660156,-2.569333791732788,4.345475196838379
1751619067232593200,9.90959326171875,0.022551536560058594,-2.6103265285491943,3.3916985988616943
1751619067251416600,9.92841650390625,-0.09813976287841797,-2.3166449069976807,2.1099905967712402
1751619067270240000,9.947239990234374,-0.07898998260498047,-1.4417905807495117,0.543956995010376
1751619067289063400,9.9660634765625,0.3990745544433594,2.265920400619507,-4.41744327545166
1751619067307886800,9.984886962890625,0.016138076782226562,3.907559633255005,-9.463908195495605
1751619067326710300,10.003710205078125,0.09692096710205078,2.263702392578125,-10.142535209655762
1751619067345533700,10.02253369140625,0.04912281036376953,2.7370991706848145,-8.461265563964844
1751619067364357000,10.041357177734374,0.1980581283569336,1.1475971937179565,-6.780811309814453
1751619067383180500,10.0601806640625,0.11772537231445312,-0.7877573370933533,-3.406285285949707
1751619067402004000,10.07900390625,0.07004261016845703,-2.003664970397949,-0.12545621395111084
1751619067420827400,10.097827392578125,0.009179115295410156,-4.027652263641357,3.5393035411834717
1751619067439650800,10.11665087890625,0.09071636199951172,-5.1457648277282715,5.984828472137451
1751619067458474200,10.13547412109375,-0.01908111572265625,-5.725454330444336,7.266096115112305
1751619067477297700,10.154297607421874,-0.009646415710449219,-2.4002442359924316,4.293665885925293
1751619067496121000,10.17312109375,-0.019405364990234375,-2.7526731491088867,3.9652140140533447
1751619067514944500,10.191944580078125,-0.15389537811279297,-3.0257253646850586,4.624181270599365
1751619067533768000,10.210767822265625,0.28958988189697266,-2.9869351387023926,3.781947612762451
1751619067552591400,10.22959130859375,-0.4995298385620117,-3.111602544784546,2.7059714794158936
1751619067571414800,10.248414794921874,-0.15566730499267578,-2.1402339935302734,0.41110485792160034
1751619067590238200,10.26723828125,0.006371498107910156,-0.45523256063461304,-3.8919811248779297
1751619067609061600,10.2860615234375,0.2880992889404297,2.196031332015991,-9.400032997131348
1751619067627885000,10.304885009765625,0.09644317626953125,5.715626239776611,-13.907022476196289
1751619067646708500,10.32370849609375,-0.01818561553955078,4.31928014755249,-8.15290355682373
1751619067665532000,10.342531982421875,0.08718395233154297,2.1849353313446045,-6.4551591873168945
1751619067684355300,10.361355224609374,-0.013047218322753906,0.24538040161132812,-3.86629581451416
1751619067703178800,10.3801787109375,-0.012186050415039062,-0.9463835954666138,-1.596464991569519
1751619067722002200,10.399002197265625,-0.31258106231689453,-2.4165961742401123,1.4016432762145996
1751619067740825900,10.417825927734375,-0.1256093978881836,-4.110811710357666,3.3851449489593506
1751619067759649300,10.436649169921875,0.10479259490966797,-4.647818565368652,4.211402893066406
1751619067778472700,10.45547265625,-0.01494598388671875,-4.171241760253906,4.492882251739502
1751619067797296000,10.474296142578124,0.008994102478027344,-2.2547121047973633,3.501894235610962
1751619067816119600,10.49311962890625,0.009035110473632812,-0.15181565284729004,0.8735387325286865
1751619067834943000,10.51194287109375,-0.0005712509155273438,-2.05712628364563,2.698172092437744
1751619067853766400,10.530766357421875,0.047000885009765625,-3.0352084636688232,5.385380744934082
1751619067872589800,10.54958984375,0.017607688903808594,-3.2103545665740967,5.754063606262207
1751619067891413200,10.568413330078124,0.16484832763671875,-2.7339248657226562,3.4821829795837402
1751619067910236700,10.587236572265626,-0.11308956146240234,-1.991525411605835,0.6380952000617981
1751619067929060000,10.60606005859375,0.11684799194335938,-1.3613262176513672,-2.579000473022461
1751619067947883500,10.624883544921875,-0.01798248291015625,-0.8016496896743774,-5.372855186462402
1751619067966707000,10.64370703125,0.08192253112792969,2.7264909744262695,-10.797954559326172
1751619067985530400,10.6625302734375,-0.056819915771484375,5.314467430114746,-10.53045654296875
1751619068013765400,10.690765380859375,0.034137725830078125,3.6678831577301025,-9.067350387573242
1751619068032588800,10.7095888671875,0.12584495544433594,0.9917360544204712,-5.613088607788086
1751619068051412200,10.728412109375,0.08368682861328125,-1.7598512172698975,-2.4304561614990234
1751619068070236000,10.74723583984375,0.10863494873046875,-4.624821186065674,1.046143889427185
1751619068089059300,10.766059326171876,0.13298511505126953,-6.692451477050781,4.814070701599121
1751619068107882800,10.7848828125,-0.10496711730957031,-7.2620744705200195,7.249730110168457
1751619068126706000,10.803705810546875,0.047882080078125,-4.929632663726807,7.173123359680176
1751619068145529600,10.822529541015625,-0.014272689819335938,-0.08558648824691772,0.9140357971191406
1751619068164353000,10.84135302734375,-0.004834175109863281,-0.6408019065856934,0.6560278534889221
1751619068183176400,10.860176513671876,-0.00019073486328125,-1.8959263563156128,3.633265733718872
1751619068202000000,10.878999755859375,-0.05286979675292969,-3.470367670059204,6.5098066329956055
1751619068220823300,10.8978232421875,0.09938240051269531,-4.165700435638428,6.3195576667785645
1751619068239646700,10.916646728515625,0.07916259765625,-4.21508264541626,3.6372430324554443
1751619068258470100,10.93547021484375,0.006526947021484375,-3.7803428173065186,0.40116965770721436
1751619068277293600,10.95429345703125,-0.37584400177001953,-3.2477803230285645,-3.768842935562134
1751619068296117000,10.973116943359376,0.34545135498046875,0.014101609587669373,-9.802755355834961
1751619068314940400,10.9919404296875,0.019568443298339844,6.131733417510986,-15.817096710205078
1751619068333763800,11.010763916015625,-0.009032249450683594,5.8394975662231445,-12.794374465942383
1751619068352587300,11.029587158203125,0.048689842224121094,3.949047803878784,-11.440670013427734
1751619068371410700,11.04841064453125,-0.01708698272705078,0.1423271894454956,-6.0523152351379395
1751619068390234000,11.067234130859376,0.07513809204101562,-3.7808170318603516,-1.508978247642517
1751619068409057500,11.0860576171875,0.2194967269897461,-6.941372871398926,3.54606294631958
1751619068427881000,11.104880859375,-0.1052999496459961,-8.564179420471191,8.230083465576172
1751619068446704400,11.123704345703125,0.06714630126953125,-6.426806449890137,9.749778747558594
1751619068465527800,11.14252783203125,-0.009477615356445312,-4.0491838455200195,6.6424055099487305
1751619068484351200,11.161351318359374,-0.05756950378417969,-3.382094383239746,5.422210693359375
1751619068503174700,11.180174560546876,0.02327251434326172,-3.2986397743225098,3.99369215965271
1751619068521998000,11.198998046875,0.29920291900634766,-3.674529552459717,2.8867743015289307
1751619068540821500,11.217821533203125,0.22138118743896484,-4.2693891525268555,2.136852264404297
1751619068559645000,11.23664501953125,0.0008487701416015625,-3.3795015811920166,-0.7045478820800781
1751619068578468400,11.25546826171875,0.17873096466064453,-0.721312403678894,-4.956669330596924
1751619068597291800,11.274291748046876,-0.0472412109375,3.5882842540740967,-10.002616882324219
1751619068616115200,11.293115234375,0.2586069107055664,7.761571407318115,-15.081812858581543
1751619068634938600,11.311938720703125,-0.09010028839111328,4.866512298583984,-9.081890106201172
1751619068653762000,11.330761962890625,-0.061783790588378906,2.5513076782226562,-7.953444480895996
1751619068672585500,11.34958544921875,0.03841972351074219,0.2293776571750641,-4.919755458831787
1751619068691409000,11.368408935546874,0.007178306579589844,-1.0601694583892822,-1.8530670404434204
1751619068710232300,11.387232421875,0.1086282730102539,-2.5486738681793213,0.7896629571914673
1751619068729055700,11.4060556640625,-0.029279708862304688,-5.429396152496338,3.5610239505767822
1751619068747879200,11.424879150390625,0.047951698303222656,-7.393754959106445,6.092965126037598
1751619068766702600,11.44370263671875,0.04294776916503906,-6.2936577796936035,7.2936882972717285
1751619068785526000,11.462526123046874,-0.0000782012939453125,-1.9666565656661987,2.1895086765289307
1751619068804349400,11.481349365234376,0.04749774932861328,-2.293837308883667,1.5068578720092773
1751619068823172900,11.5001728515625,0.06133460998535156,-2.9277725219726562,3.1489808559417725
1751619068841996300,11.518996337890625,-0.02989482879638672,-2.895426034927368,4.0859785079956055
1751619068860819700,11.53781982421875,0.14127159118652344,-3.0778563022613525,4.30136775970459
1751619068879643100,11.55664306640625,0.059436798095703125,-3.3905234336853027,3.6404078006744385
1751619068898466600,11.575466552734374,0.02512645721435547,-3.1498095989227295,1.3484150171279907
1751619068917290000,11.5942900390625,0.29833316802978516,-2.5002970695495605,-1.98208749294281
1751619068936113700,11.61311376953125,0.13478755950927734,0.4044874310493469,-6.435575485229492
1751619068954936800,11.631936767578125,0.014749526977539062,4.343691825866699,-12.668707847595215
1751619068973760300,11.65076025390625,0.02901458740234375,5.350360870361328,-12.820428848266602
1751619068992583700,11.669583740234375,-0.013986587524414062,3.794011354446411,-11.15733814239502
1751619069011407400,11.688407470703124,0.029272079467773438,1.7282931804656982,-7.9730610847473145
1751619069030230800,11.707230712890626,-0.022462844848632812,-0.5106221437454224,-3.8658063411712646
1751619069049054200,11.72605419921875,0.16515254974365234,-3.2438271045684814,-0.09428802132606506
1751619069067877600,11.744877685546875,0.10431385040283203,-5.667742729187012,3.0443291664123535
1751619069086701000,11.763701171875,0.1381082534790039,-6.1566925048828125,5.279542922973633
1751619069105524500,11.7825244140625,0.08099842071533203,-6.122927665710449,6.88118314743042
1751619069124348000,11.801347900390626,0.02357769012451172,-4.61544132232666,7.2894487380981445
1751619069143171300,11.82017138671875,0.11891937255859375,-3.246121406555176,3.408687114715576
1751619069161994800,11.838994873046875,0.032588958740234375,-3.111210823059082,3.701343536376953
1751619069180818200,11.857818115234375,0.1703500747680664,-2.9367763996124268,3.969949245452881
1751619069199641600,11.8766416015625,0.059398651123046875,-3.4846789836883545,3.490635633468628
1751619069218465000,11.895465087890624,-0.032546043395996094,-3.9166104793548584,2.7052667140960693
1751619069237288400,11.914288330078126,-0.0707998275756836,-0.9621679782867432,-0.5461265444755554
1751619069256111900,11.93311181640625,0.2891654968261719,3.763237476348877,-8.140140533447266
1751619069274935300,11.951935302734375,-0.018331527709960938,7.29878568649292,-14.743375778198242
1751619069293758700,11.9707587890625,0.010036468505859375,4.272512435913086,-10.443741798400879
1751619069312582100,11.98958203125,0.09624385833740234,2.9907655715942383,-8.520914077758789
1751619069331405600,12.008405517578124,-0.16093921661376953,0.12173449993133545,-4.576488971710205
1751619069350229000,12.02722900390625,0.036078453063964844,-1.6195441484451294,-1.2421365976333618
1751619069369052400,12.046052490234375,0.08440780639648438,-2.4280037879943848,0.795803427696228
1751619069387875800,12.064875732421875,0.07557487487792969,-3.228281259536743,2.014822244644165
1751619069406699300,12.08369921875,0.090301513671875,-5.086162090301514,3.3501176834106445
1751619069425522700,12.102522705078124,0.07599639892578125,-6.080134868621826,5.315612316131592
1751619069444346000,12.12134619140625,0.028148651123046875,-4.85026216506958,6.095582485198975
1751619069463169500,12.14016943359375,0.02768993377685547,-2.754927635192871,2.476376533508301
1751619069481993000,12.158992919921875,-0.0157012939453125,-2.8759043216705322,4.246165752410889
1751619069500816400,12.17781640625,-0.08795642852783203,-2.7827274799346924,5.398378849029541
1751619069519639800,12.196639892578125,0.09279823303222656,-3.3803048133850098,4.315028667449951
1751619069538463200,12.215463134765624,0.025109291076660156,-4.040837287902832,2.222559690475464
1751619069557286700,12.23428662109375,-0.09482288360595703,-2.681405782699585,-0.2836065888404846
1751619069576110000,12.253110107421875,-0.1358814239501953,1.7930644750595093,-5.910388946533203
1751619069594933500,12.27193359375,-0.1426849365234375,6.508574962615967,-11.675477981567383
1751619069613757000,12.2907568359375,0.19635295867919922,5.034247398376465,-12.147177696228027
1751619069632580400,12.309580322265624,0.11541557312011719,3.19341778755188,-7.972202301025391
1751619069651403800,12.32840380859375,-0.11857795715332031,3.2581217288970947,-6.494518280029297
1751619069670227200,12.347227294921876,0.001434326171875,2.601452589035034,-5.450596809387207
1751619069689050600,12.366050537109375,-0.1077127456665039,-2.040286064147949,-2.736943483352661
1751619069707874000,12.3848740234375,-0.12432670593261719,-7.861026287078857,2.2798056602478027
1751619069726697500,12.403697509765625,-0.00959014892578125,-8.64589786529541,6.922425746917725
1751619069745521000,12.42252099609375,0.10503768920898438,-6.47817325592041,7.190669059753418
1751619069764344300,12.44134423828125,0.018766403198242188,-2.032616138458252,1.5315269231796265
1751619069783167700,12.460167724609375,0.037750244140625,-2.2904701232910156,0.8496581315994263
1751619069801991200,12.4789912109375,-0.020252227783203125,-1.9518296718597412,1.4245229959487915
1751619069820814600,12.497814697265625,0.036731719970703125,-2.0462148189544678,2.979367733001709
1751619069839638000,12.516637939453124,0.0885610580444336,-2.8921308517456055,3.8671014308929443
1751619069858461400,12.53546142578125,-0.04615306854248047,-2.4261226654052734,3.131786346435547
1751619069877284900,12.554284912109376,0.13013744354248047,-0.8450582027435303,0.5100865960121155
1751619069896108300,12.5731083984375,-0.17963409423828125,-0.18036384880542755,-3.0046892166137695
1751619069914931700,12.591931640625,0.20674705505371094,-0.16865848004817963,-4.697994709014893
1751619069933755100,12.610755126953125,0.010454177856445312,2.7734475135803223,-6.099262714385986
1751619069952578600,12.62957861328125,0.07733345031738281,7.1351494789123535,-8.758929252624512
1751619069971402000,12.648402099609376,-0.027376174926757812,5.963218688964844,-7.412417888641357
1751619069990225400,12.667225341796875,0.07777786254882812,3.9332869052886963,-7.744734764099121
1751619070009048800,12.686048828125,-0.20842552185058594,1.4486603736877441,-4.890873432159424
1751619070027872300,12.704872314453125,0.4402151107788086,-2.564305305480957,-2.1466212272644043
1751619070046695700,12.72369580078125,-0.06760787963867188,-5.480058670043945,0.9539720416069031
1751619070065519000,12.74251904296875,-0.5471553802490234,-7.643889427185059,5.003060817718506
1751619070084342500,12.761342529296876,0.7567081451416016,-6.257137775421143,5.885589599609375
1751619070103166000,12.780166015625,-0.048338890075683594,-3.7948496341705322,5.03240442276001
1751619070121989400,12.7989892578125,-0.00504302978515625,-2.1092300415039062,1.9166866540908813
1751619070140812800,12.817812744140625,0.03753948211669922,-2.8837850093841553,2.3276450634002686
1751619070159636200,12.83663623046875,0.03211021423339844,-1.9328263998031616,3.6566574573516846
1751619070178459600,12.855459716796876,-0.01633453369140625,-1.6764605045318604,3.9440059661865234
1751619070197283000,12.874282958984375,0.025865554809570312,-1.4827414751052856,2.498136520385742
1751619070216106500,12.8931064453125,0.14961624145507812,-1.5968055725097656,1.2267906665802002
1751619070234930000,12.911929931640625,-0.08949947357177734,-1.521079182624817,-0.19754363596439362
1751619070253753300,12.93075341796875,-0.3187847137451172,-1.4137845039367676,-2.827413558959961
1751619070272576800,12.94957666015625,0.3312673568725586,0.3960539698600769,-5.486708164215088
1751619070291400200,12.968400146484376,0.3162107467651367,2.596268892288208,-8.104148864746094
1751619070310223600,12.9872236328125,0.105010986328125,5.775144577026367,-8.443543434143066
1751619070329047000,13.006047119140625,-0.04332923889160156,4.702826976776123,-5.790834426879883
1751619070347870500,13.024870361328125,-0.00092315673828125,3.5603582859039307,-6.848106384277344
1751619070366694000,13.04369384765625,0.00377655029296875,0.3366343379020691,-5.42861270904541
1751619070385517300,13.062517333984376,-0.14733123779296875,-1.8564951419830322,-3.1564061641693115
1751619070404340700,13.0813408203125,0.06449031829833984,-3.631019353866577,-0.19374872744083405
1751619070423164200,13.1001640625,0.15640544891357422,-5.100002288818359,3.0603902339935303
1751619070441987600,13.118987548828125,0.18516921997070312,-5.542973041534424,5.417224407196045
1751619070460811000,13.13781103515625,0.013302803039550781,-4.275616645812988,6.534412860870361
1751619070479634400,13.156634521484374,-0.03919506072998047,-1.4563522338867188,3.959212064743042
1751619070498457900,13.175457763671876,0.02296161651611328,-1.5627437829971313,1.9651446342468262
1751619070517281300,13.19428125,0.032138824462890625,-1.9772288799285889,2.4521169662475586
1751619070536104700,13.213104736328125,-0.0066928863525390625,-2.351738452911377,2.9255502223968506
1751619070554928000,13.23192822265625,0.2598247528076172,-3.1171181201934814,2.9241952896118164
1751619070573751600,13.25075146484375,-0.11838817596435547,-3.405795097351074,3.3260908126831055
1751619070592575000,13.269574951171874,-0.051308631896972656,-2.3866124153137207,2.0632026195526123
1751619070611398400,13.2883984375,-0.6815853118896484,-0.6519289612770081,-2.2220661640167236
1751619070630221800,13.307221923828125,0.5521020889282227,2.688229560852051,-8.106722831726074
1751619070649045200,13.326045166015625,-0.047026634216308594,5.93204927444458,-11.962624549865723
1751619070667868700,13.34486865234375,-0.009007453918457031,3.4203500747680664,-6.3750529289245605
1751619070686692000,13.363692138671874,0.04367828369140625,2.939305305480957,-5.9018754959106445
1751619070705515500,13.382515625,0.048241615295410156,2.0927510261535645,-5.912580966949463
1751619070724339000,13.4013388671875,-0.06058692932128906,1.0657784938812256,-4.737365245819092
1751619070743162400,13.420162353515625,-0.25983619689941406,-1.8335752487182617,-1.2480353116989136
1751619070761985800,13.43898583984375,0.16612720489501953,-5.297568321228027,2.5699222087860107
1751619070780809200,13.457809326171875,-0.005428314208984375,-5.542341709136963,5.778326511383057
1751619070799632600,13.476632568359374,0.0901803970336914,-4.247813701629639,5.843789100646973
1751619070818456000,13.4954560546875,0.0278167724609375,-3.074936866760254,3.8188836574554443
1751619070837279500,13.514279541015625,-0.039084434509277344,-0.1385924369096756,-0.11016849428415298
1751619070856103000,13.53310302734375,-0.029404640197753906,-1.3867734670639038,0.723139762878418
1751619070874926300,13.55192626953125,0.02792644500732422,-2.837766170501709,2.044614791870117
1751619070893749800,13.570749755859374,0.0178070068359375,-2.94457745552063,2.953360080718994
1751619070912573200,13.5895732421875,0.122283935546875,-2.664851665496826,3.276865243911743
1751619070931396600,13.608396728515626,-0.0168304443359375,-3.068765878677368,3.6472833156585693
1751619070950220000,13.627219970703125,0.06851863861083984,-3.095792531967163,2.1922953128814697
1751619070969043500,13.64604345703125,-0.04676532745361328,-1.7747372388839722,0.06842993199825287
1751619070987867000,13.664866943359375,0.23116016387939453,1.7447140216827393,-4.576998233795166
1751619071006690300,13.683690185546874,-0.018064498901367188,7.08104133605957,-8.845246315002441
1751619071025513700,13.702513671875,0.034766197204589844,5.135352611541748,-9.167654037475586
1751619071044337200,13.721337158203125,0.03962898254394531,2.536445379257202,-4.620202541351318
1751619071063160600,13.74016064453125,0.06844329833984375,2.7290377616882324,-3.7558274269104004
1751619071081984000,13.75898388671875,-0.012284278869628906,1.9182435274124146,-4.7230634689331055
1751619071100807400,13.777807373046874,0.03138256072998047,-0.9231883883476257,-3.4697425365448
1751619071119630800,13.796630859375,0.013142585754394531,-2.4557745456695557,-1.0266376733779907
1751619071138454300,13.815454345703126,0.2427978515625,-3.6099140644073486,1.4167745113372803
1751619071157277700,13.834277587890625,0.018566131591796875,-3.039222478866577,2.055034637451172
1751619071176101000,13.85310107421875,0.05199623107910156,-3.1406543254852295,1.9036970138549805
1751619071194924500,13.871924560546875,0.04257488250732422,-4.056519031524658,4.79490852355957
1751619071213748000,13.890748046875,-0.0005350112915039062,-2.3268556594848633,4.489095211029053
1751619071232571400,13.9095712890625,0.04697608947753906,-3.107530117034912,3.6540534496307373
1751619071251394800,13.928394775390625,0.008328437805175781,-3.1980319023132324,5.0261454582214355
1751619071270218200,13.94721826171875,0.09837532043457031,-5.117129802703857,3.9002606868743896
1751619071289041700,13.966041748046875,0.19320011138916016,-6.805943012237549,2.598940372467041
1751619071307865000,13.984864990234374,0.36406993865966797,-6.00709867477417,0.8136806488037109
1751619071326688500,14.0036884765625,0.0957479476928711,-1.7895435094833374,-3.707632303237915
1751619071345512000,14.022511962890626,0.15270519256591797,3.9979968070983887,-8.898348808288574
1751619071364335400,14.04133544921875,-0.2245779037475586,6.309040069580078,-10.62112045288086
1751619071383158800,14.06015869140625,-0.051140785217285156,7.666121482849121,-7.950169086456299
1751619071401982200,14.078982177734375,0.7125005722045898,3.4915571212768555,-2.8767712116241455
1751619071420805600,14.0978056640625,-0.23490047454833984,1.978095531463623,-4.531303882598877
1751619071439629000,14.116629150390626,0.22764873504638672,4.165428638458252,-7.899868011474609
1751619071458452500,14.135452392578125,-0.2736845016479492,2.758516788482666,-8.492670059204102
1751619071477276000,14.15427587890625,-0.19162654876708984,-1.5940496921539307,-4.215410232543945
1751619071496099300,14.173099365234375,-0.1260547637939453,-6.3552727699279785,0.9855476021766663
1751619071514922800,14.1919228515625,0.38021087646484375,-9.290094375610352,5.146823406219482
1751619071533746200,14.21074609375,0.25080299377441406,-6.697208881378174,7.408792018890381
1751619071552569600,14.229569580078126,-0.5019388198852539,-4.5348968505859375,6.171480655670166
1751619071571393000,14.24839306640625,0.06266975402832031,-0.10241951048374176,0.38106638193130493
1751619071590216400,14.267216552734375,0.0006494522094726562,-0.036047399044036865,-0.04219213128089905
1751619071609040000,14.286039794921875,-0.0040683746337890625,0.08275395631790161,-0.030353635549545288
1751619071627863300,14.30486328125,0.0054836273193359375,-1.8070496320724487,0.8978530764579773
1751619071646686700,14.323686767578126,0.15306758880615234,-3.6272168159484863,3.1604411602020264
1751619071665510100,14.34251025390625,0.037659645080566406,-5.326327800750732,4.994075298309326
1751619071684333600,14.36133349609375,0.03659820556640625,-5.530248641967773,5.4465765953063965
1751619071703157000,14.380156982421875,0.1689281463623047,-3.1007466316223145,2.447049379348755
1751619071721980400,14.39898046875,-0.0024929046630859375,0.3079431653022766,-1.7326828241348267
1751619071740803800,14.417803955078124,-0.31773948669433594,2.7387521266937256,-7.17974328994751
1751619071759627300,14.436627197265626,-0.05074024200439453,2.35770845413208,-9.226017951965332
1751619071778450700,14.45545068359375,0.1204671859741211,3.818155288696289,-8.317816734313965
1751619071797274000,14.474274169921875,-0.042435646057128906,1.4844391345977783,-2.6893911361694336
1751619071816097500,14.49309765625,0.03897571563720703,0.7176327109336853,-1.7269479036331177
1751619071834921000,14.5119208984375,0.048686981201171875,0.9425771236419678,-1.2607736587524414
1751619071853744400,14.530744384765624,-0.03259468078613281,1.1521230936050415,-1.634853720664978
1751619071872567800,14.54956787109375,-0.05618000030517578,0.9269838333129883,-2.185741901397705
1751619071891391200,14.56839111328125,0.025331497192382812,0.4637577533721924,-2.3218703269958496
1751619071910214700,14.587214599609375,-0.4791831970214844,-0.1820947676897049,-1.3203954696655273
1751619071929038000,14.6060380859375,0.21608924865722656,-1.8859349489212036,-0.573927104473114
1751619071947861500,14.624861572265624,-0.033392906188964844,-2.7218189239501953,0.08320245146751404
1751619071966685000,14.643684814453126,-0.12865257263183594,-3.0035157203674316,1.74441397190094
1751619071985508400,14.66250830078125,-0.03744220733642578,-3.3151931762695312,4.094594955444336
1751619072004331800,14.681331787109375,-0.018027305603027344,-2.768749952316284,6.273101806640625
1751619072023155200,14.7001552734375,0.010820388793945312,-0.5588700771331787,2.5826773643493652
1751619072041978600,14.718978515625,-0.008390426635742188,-2.9351143836975098,4.078005313873291
1751619072060802000,14.737802001953124,0.0151824951171875,-3.6436243057250977,4.839972972869873
1751619072079625500,14.75662548828125,0.12436103820800781,-4.092914581298828,3.5498921871185303
1751619072098449000,14.775448974609375,0.12381362915039062,-2.442615509033203,1.3820905685424805
1751619072117272600,14.7942724609375,-0.1394662857055664,-0.7024844884872437,-1.6105409860610962
1751619072136095700,14.813095703125,-0.1296234130859375,-1.1154650449752808,-3.8774824142456055
1751619072154919200,14.831919189453124,0.1756572723388672,-0.9856042265892029,-4.445436954498291
1751619072173742600,14.85074267578125,0.060585975646972656,0.38910454511642456,-5.191521644592285
1751619072192566300,14.869566162109376,-0.07307243347167969,4.851230144500732,-7.60570764541626
1751619072211389700,14.8883896484375,0.33321571350097656,4.514554023742676,-5.612729549407959
1751619072230213000,14.907213134765625,0.09940719604492188,5.7180867195129395,-7.659587860107422
1751619072249036500,14.92603662109375,0.11436080932617188,2.6888811588287354,-5.671868324279785
1751619072267860000,14.94485986328125,-0.10045242309570312,-0.43283137679100037,-2.1001720428466797
1751619072286683400,14.963683349609376,0.5311365127563477,-4.110031604766846,1.6271685361862183
1751619072305506800,14.9825068359375,0.10642337799072266,-5.366977691650391,3.91583251953125
1751619072324330200,15.001330322265625,-0.055787086486816406,-3.340963125228882,4.912720203399658
1751619072343153700,15.020153564453125,0.08329582214355469,-1.8151521682739258,3.8326706886291504
1751619072361977000,15.03897705078125,-0.04565906524658203,-1.3405671119689941,1.9374228715896606
1751619072380800500,15.057800537109374,-0.07902240753173828,-0.7892263531684875,0.1795547604560852
1751619072399624000,15.0766240234375,-0.04052925109863281,-1.0127512216567993,0.5111721158027649
1751619072418447400,15.095447265625,0.035752296447753906,-4.389909744262695,4.460367202758789
1751619072437270800,15.114270751953125,0.07330894470214844,-5.249449253082275,6.739460468292236
1751619072456094200,15.13309423828125,0.1398153305053711,-3.642399549484253,5.229280471801758
1751619072474917600,15.151917724609374,0.024648666381835938,-2.8879592418670654,1.8729397058486938
1751619072493741000,15.170740966796876,0.03370475769042969,-3.3122169971466064,-1.2448619604110718
1751619072512564500,15.189564453125,-0.10556411743164062,-2.5550942420959473,-4.689027786254883
1751619072531388000,15.208387939453125,0.07057571411132812,0.48271065950393677,-7.606041431427002
1751619072550211300,15.22721142578125,-0.22086048126220703,5.123906135559082,-10.3624849319458
1751619072569034800,15.24603466796875,0.5160675048828125,6.543341159820557,-8.800917625427246
1751619072587858200,15.264858154296874,-0.02419757843017578,2.9221363067626953,-6.5168585777282715
1751619072606681600,15.283681640625,-0.028310775756835938,2.5858352184295654,-6.470401763916016
1751619072625505300,15.30250537109375,-0.10883712768554688,0.7226224541664124,-4.782799243927002
1751619072644328700,15.32132861328125,-0.0028400421142578125,-1.8515331745147705,-2.1859798431396484
1751619072663152000,15.340152099609375,-0.007208824157714844,-3.3938136100769043,1.1252046823501587
1751619072681975600,15.3589755859375,0.045940399169921875,-4.0299391746521,3.8521173000335693
1751619072700799000,15.377799072265624,-0.011013984680175781,-3.5460636615753174,5.51995325088501
1751619072719622400,15.396622314453126,-0.0011310577392578125,-2.889738082885742,5.173276901245117
1751619072738445800,15.41544580078125,0.0037889480590820312,-2.3444604873657227,3.3638689517974854
1751619072757269200,15.434269287109375,0.013451576232910156,-0.9655492901802063,-0.3172823190689087
1751619072776092700,15.4530927734375,-0.000766754150390625,-0.03261750936508179,-0.13709992170333862
1751619072794916000,15.471916015625,0.03265380859375,-0.7915881276130676,0.8822977542877197
1751619072813739500,15.490739501953126,-0.005742073059082031,-2.425899028778076,3.2944512367248535
1751619072832563000,15.50956298828125,-0.015470504760742188,-3.39395809173584,5.096154689788818
1751619072851386400,15.528386474609375,0.04162883758544922,-3.343557834625244,4.997905731201172
1751619072870210000,15.5472099609375,0.031701087951660156,-2.4994466304779053,3.6433582305908203
1751619072889033500,15.566033447265625,0.007113456726074219,-2.349407911300659,1.173864722251892
1751619072907857000,15.58485693359375,-0.07923126220703125,-1.37079656124115,-3.3739452362060547
1751619072926680300,15.603680419921876,0.23065757751464844,0.4336729049682617,-6.56951904296875
1751619072945503700,15.622503662109375,-0.11361122131347656,2.8654868602752686,-9.326991081237793
1751619072964327200,15.6413271484375,-0.1509990692138672,5.795965194702148,-11.124410629272461
1751619072983150600,15.660150634765625,-0.41912078857421875,4.416584014892578,-9.223018646240234
1751619073001974000,15.67897412109375,0.06941032409667969,1.7565888166427612,-9.175385475158691
1751619073020797400,15.69779736328125,0.06047248840332031,-1.171802043914795,-6.0932488441467285
1751619073039621000,15.71662109375,0.07095909118652344,-3.5698413848876953,-2.422236204147339
1751619073058444500,15.735444580078125,0.22918987274169922,-4.132011413574219,1.5913095474243164
1751619073077268000,15.75426806640625,-0.052611351013183594,-4.9964070320129395,4.692854881286621
1751619073096091400,15.77309130859375,0.00547027587890625,-5.859311103820801,7.101727485656738
1751619073114914800,15.791914794921874,-0.037418365478515625,-3.7398452758789062,6.189319610595703
1751619073133738200,15.81073828125,-0.07068824768066406,-4.48612117767334,4.120962619781494
1751619073152561700,15.829561767578125,0.010668754577636719,-0.7490166425704956,0.9571563601493835
1751619073171385000,15.848385009765625,-0.0037136077880859375,-2.4447624683380127,4.938608169555664
1751619073190208500,15.86720849609375,0.024801254272460938,-3.270009994506836,6.143616676330566
1751619073209032200,15.8860322265625,-0.08058738708496094,-3.305025815963745,3.9667305946350098
1751619073227855600,15.904855712890624,0.03360748291015625,-3.8284294605255127,1.9800833463668823
1751619073246679000,15.923678955078126,0.2334432601928711,-4.3217926025390625,1.0265306234359741
1751619073265502500,15.94250244140625,0.2277975082397461,-3.7315826416015625,0.14768749475479126
1751619073284326000,15.961325927734375,-0.37471580505371094,-1.900787591934204,-3.3375258445739746
1751619073303149300,15.9801494140625,-0.5604696273803711,2.6762728691101074,-8.124773025512695
1751619073321972700,15.99897265625,1.0124473571777344,5.956772804260254,-13.231501579284668
1751619073340796200,16.017796142578124,-0.11709403991699219,3.616364002227783,-10.585392951965332
1751619073359619800,16.036619873046874,-0.13581371307373047,2.609647274017334,-7.544478416442871
1751619073378443300,16.055443359375,-0.025217056274414062,-0.3075147569179535,-4.9287824630737305
1751619073397266700,16.0742666015625,0.08525466918945312,-1.4413530826568604,-2.351283311843872
1751619073416090000,16.093090087890626,0.056926727294921875,-1.3065674304962158,-1.0775082111358643
1751619073434913500,16.11191357421875,0.05774116516113281,-1.4561549425125122,0.01332959532737732
1751619073453737000,16.130737060546874,0.13931941986083984,-3.2209229469299316,2.3861210346221924
1751619073472560400,16.149560302734375,0.11101531982421875,-4.390430927276611,5.02364444732666
1751619073491384000,16.168384033203125,-0.017889022827148438,-4.534933567047119,6.543461322784424
1751619073510207500,16.18720751953125,0.006182670593261719,-2.872575044631958,4.339601516723633
1751619073529031000,16.206031005859376,-0.0319671630859375,-0.9593057632446289,1.9425252676010132
1751619073547854300,16.224854248046874,-0.046271324157714844,-2.076805591583252,4.572556495666504
1751619073566677800,16.243677734375,-0.013010978698730469,-2.989030361175537,5.348306179046631
1751619073585501200,16.262501220703125,0.005698204040527344,-3.512221574783325,5.305698394775391
1751619073604324900,16.281324951171875,0.14865684509277344,-3.848357915878296,5.040633678436279
1751619073623148300,16.300148193359377,0.024183273315429688,-3.7677977085113525,2.0116782188415527
1751619073641971700,16.3189716796875,0.09528541564941406,-3.7678072452545166,-2.1534903049468994
1751619073660795100,16.337795166015624,0.1805858612060547,-0.35691356658935547,-9.469733238220215
1751619073679618600,16.35661865234375,0.051151275634765625,4.121981143951416,-15.997222900390625
1751619073698442000,16.37544189453125,0.017650604248046875,4.885748386383057,-11.542407035827637
1751619073717265400,16.394265380859373,-0.04894447326660156,2.4446420669555664,-8.374542236328125
1751619073736089000,16.413089111328127,0.05216693878173828,-0.05433712899684906,-5.312824726104736
1751619073754912500,16.43191259765625,0.04292774200439453,-1.4657375812530518,-2.797452688217163
1751619073773736000,16.45073583984375,0.0052089691162109375,-2.082111120223999,-1.2036350965499878
1751619073792559400,16.469559326171876,-0.06116962432861328,-3.163667678833008,1.6891599893569946
1751619073811382800,16.4883828125,-0.041396141052246094,-4.452797889709473,4.921165466308594
1751619073830206500,16.50720654296875,-0.07933807373046875,-4.117962837219238,6.299757957458496
1751619073849030000,16.52602978515625,-0.054970741271972656,-2.3833811283111572,5.860987186431885
1751619073867853300,16.544853271484374,-0.1262807846069336,-0.8468335866928101,3.9731717109680176
1751619073886676700,16.5636767578125,-0.011602401733398438,-0.013926923274993896,0.00042767077684402466
1751619073905500200,16.582500244140626,-0.07364368438720703,-1.1393496990203857,2.967904806137085
1751619073924323600,16.601323486328123,-0.021047592163085938,-2.8889541625976562,6.188765525817871
1751619073943147300,16.620147216796877,0.016986846923828125,-3.690485715866089,6.254676342010498
1751619073961970700,16.638970703125,0.0834951400756836,-3.7493791580200195,4.877626895904541
1751619073980794000,16.657794189453124,-0.03645133972167969,-3.86881160736084,3.060955286026001
1751619073999617500,16.676617431640626,0.1396923065185547,-4.415879249572754,0.009162921458482742
1751619074018441200,16.695441162109375,0.19179153442382812,-2.6285598278045654,-4.652365207672119
1751619074037264600,16.7142646484375,-0.024255752563476562,1.3014490604400635,-10.670975685119629
1751619074056088000,16.733088134765627,0.07133769989013672,5.923597812652588,-15.35073471069336
1751619074074911500,16.751911376953124,0.03315162658691406,4.173914909362793,-9.804252624511719
1751619074093735000,16.77073486328125,-0.01891326904296875,2.861057996749878,-8.017358779907227
1751619074112558300,16.789558349609376,0.23954105377197266,-0.3456113338470459,-5.954317092895508
1751619074131382000,16.808382080078125,-0.1564798355102539,-2.2330210208892822,-3.1674532890319824
1751619074150205400,16.827205322265623,0.14505767822265625,-2.976161003112793,-0.6878201365470886
1751619074169028900,16.84602880859375,0.059741973876953125,-3.9887044429779053,2.3679161071777344
1751619074187852300,16.864852294921874,0.026581764221191406,-5.17948055267334,5.196506023406982
1751619074206675700,16.88367578125,-0.1161813735961914,-4.520517826080322,6.796781539916992
1751619074225499400,16.90249951171875,-0.029811859130859375,-3.13114333152771,6.312119960784912
1751619074244322800,16.92132275390625,0.022934913635253906,-0.031142443418502808,0.12338779121637344
1751619074263146200,16.940146240234377,-0.0010242462158203125,-0.06391465663909912,0.026371311396360397
1751619074281969700,16.9589697265625,-0.03914451599121094,-1.8420720100402832,3.3312883377075195
1751619074300793300,16.97779345703125,0.02283954620361328,-2.900479316711426,5.146819591522217
1751619074319616800,16.99661669921875,0.013077735900878906,-4.555788516998291,6.290389537811279
1751619074338440200,17.015440185546876,0.0076541900634765625,-4.298113822937012,5.1230292320251465
1751619074357263600,17.034263671875,0.32771873474121094,-4.265186786651611,3.074716567993164
1751619074376087000,17.053087158203127,0.04019451141357422,-4.360252857208252,0.8253705501556396
1751619074394910700,17.07191064453125,0.23511409759521484,-2.7393126487731934,-3.6646878719329834
1751619074413734100,17.090734130859374,0.058582305908203125,1.783009648323059,-12.141412734985352
1751619074432557600,17.1095576171875,0.06280994415283203,7.519468307495117,-18.10080337524414
1751619074451381000,17.128381103515625,0.07218551635742188,5.169022560119629,-11.660088539123535
1751619074470204700,17.14720458984375,0.010723114013671875,2.3262102603912354,-9.02118968963623
1751619074489028000,17.166028076171877,0.06881141662597656,-1.2806227207183838,-5.26000452041626
1751619074507851500,17.1848515625,0.13631057739257812,-3.3254201412200928,-2.3352396488189697
1751619074526675000,17.203675048828124,0.08916187286376953,-3.3248631954193115,0.2340344935655594
1751619074545498600,17.22249853515625,0.09442996978759766,-4.138219356536865,2.9183688163757324
1751619074564322000,17.241322021484375,0.037316322326660156,-5.104037284851074,5.579115867614746
1751619074583145500,17.2601455078125,0.01874065399169922,-4.848875045776367,6.800443649291992
1751619074601969000,17.278968994140627,0.004633903503417969,-3.585129976272583,6.750143051147461
1751619074620792600,17.29779248046875,0.057425498962402344,-0.1173272430896759,0.9061089754104614
1751619074639616000,17.316615966796874,0.004817962646484375,-1.17832350730896,2.3524863719940186
1751619074658439400,17.335439453125,0.014272689819335938,-1.2209004163742065,3.303464412689209
1751619074677262800,17.354262939453125,-0.005173683166503906,-1.8131587505340576,3.216256618499756
1751619074696086500,17.37308642578125,0.037720680236816406,-3.3399498462677,4.196839809417725
1751619074714910000,17.391909912109377,0.013222694396972656,-3.3281731605529785,3.1795804500579834
1751619074733733400,17.4107333984375,-0.12102413177490234,-2.9250457286834717,1.755798101425171
1751619074752556800,17.429556884765624,0.0077610015869140625,-1.799045443534851,-0.2074064165353775
1751619074771380500,17.44838037109375,0.040863990783691406,-0.007066681981086731,-3.57218337059021
1751619074790204000,17.467203857421875,-0.09315013885498047,2.511420249938965,-9.548100471496582
1751619074809027300,17.48602734375,-0.0077037811279296875,4.589871883392334,-14.954681396484375
1751619074827851000,17.50485107421875,0.07345962524414062,3.6709659099578857,-8.222004890441895
1751619074846674400,17.52367431640625,-0.01676177978515625,2.870185375213623,-7.71419095993042
1751619074865497900,17.542497802734374,0.0747995376586914,-0.07045160233974457,-5.492206573486328
1751619074884321300,17.5613212890625,0.06088733673095703,-2.5616679191589355,-2.4110021591186523
1751619074903145000,17.58014501953125,0.10491275787353516,-3.5761561393737793,0.3240080177783966
1751619074921968400,17.598968505859375,0.3056926727294922,-4.8554558753967285,2.63460373878479
1751619074940791800,17.617791748046876,0.177276611328125,-4.976415157318115,4.328951835632324
1751619074959615200,17.636615234375,-0.00403594970703125,-3.766065835952759,5.669209957122803
1751619074978439000,17.65543896484375,-0.027637481689453125,-1.309949278831482,6.588494300842285
1751619074997262300,17.674262451171874,-0.01775836944580078,0.49795258045196533,2.623924732208252
1751619075016085800,17.693085693359375,-0.04161548614501953,-0.5417765378952026,4.322501182556152
1751619075034909400,17.711909423828125,0.010889053344726562,-2.484761953353882,5.122734069824219
1751619075053732900,17.73073291015625,0.029649734497070312,-4.847105979919434,5.108963966369629
1751619075072556300,17.749556396484376,-0.08562183380126953,-6.223630428314209,4.385460376739502
1751619075091379700,17.768379638671874,0.2623739242553711,-4.6896185874938965,2.174180746078491
1751619075110203400,17.787203369140624,-0.039116859436035156,-2.911191701889038,-1.100840449333191
1751619075129026800,17.80602685546875,0.1609964370727539,-1.0540530681610107,-4.263600826263428
1751619075147850200,17.824850341796875,-0.011400222778320312,-0.3465094566345215,-7.080369472503662
1751619075166674000,17.843673828125,-0.021597862243652344,1.854254961013794,-8.222895622253418
1751619075185497300,17.862497314453126,-0.0547637939453125,5.168800354003906,-11.092105865478516
1751619075204320800,17.88132080078125,0.10320186614990234,0.9668899774551392,-6.58887243270874
1751619075223144400,17.90014453125,0.04088115692138672,2.1493427753448486,-7.935626983642578
1751619075241967900,17.9189677734375,-0.016213417053222656,2.557792901992798,-8.152207374572754
1751619075260791300,17.937791259765625,0.012973785400390625,0.38285142183303833,-6.254164695739746
1751619075279614700,17.95661474609375,0.08140277862548828,-1.9733108282089233,-3.5725972652435303
1751619075298438400,17.9754384765625,0.08668041229248047,-5.2724289894104,-0.015609964728355408
1751619075317261800,17.99426171875,0.12528324127197266,-7.398981094360352,3.868614673614502
1751619075336085200,18.013085205078124,0.03509712219238281,-7.699902057647705,7.26582145690918
1751619075354909000,18.031908935546873,0.1308908462524414,-5.229791164398193,8.604736328125
1751619075373732400,18.050732421875,-0.08888530731201172,-1.0279954671859741,6.69964599609375
1751619075392555800,18.0695556640625,0.016500473022460938,0.770534873008728,1.912674903869629
1751619075411379200,18.088379150390626,-0.03127098083496094,-1.3771815299987793,4.788468360900879
1751619075430203000,18.107202880859376,0.07837963104248047,-2.97330904006958,5.070538520812988
1751619075449026300,18.1260263671875,0.034844398498535156,-4.513895034790039,5.37695837020874
1751619075467849700,18.144849609375,0.08721256256103516,-5.730510711669922,5.487899303436279
1751619075486673400,18.16367333984375,0.0006694793701171875,-5.14921760559082,3.2929351329803467
1751619075505496800,18.182496826171874,0.07143592834472656,-3.5285210609436035,-1.1683380603790283
1751619075524320300,18.2013203125,0.04710865020751953,-2.4225914478302,-4.59181022644043
1751619075543144000,18.22014404296875,0.21369075775146484,-0.8835692405700684,-7.3106865882873535
1751619075561967400,18.23896728515625,0.1415386199951172,2.691077709197998,-11.54598331451416
1751619075580790800,18.257790771484373,0.007709503173828125,4.965322017669678,-14.195328712463379
1751619075599614500,18.276614501953127,-0.025583267211914062,1.9714019298553467,-6.762801170349121
1751619075618438000,18.29543798828125,-0.011064529418945312,2.18715763092041,-7.212245941162109
1751619075637261300,18.31426123046875,0.1326150894165039,1.4073115587234497,-6.421939849853516
1751619075656085000,18.3330849609375,-0.12032604217529297,-0.3239608407020569,-4.469311714172363
1751619075674908400,18.351908447265625,0.16735267639160156,-1.7853124141693115,-2.0710833072662354
1751619075693731800,18.37073193359375,0.0821065902709961,-3.320882558822632,0.25266215205192566
1751619075712555500,18.389555419921876,-0.008421897888183594,-5.484037399291992,2.990546226501465
1751619075731379000,18.40837890625,-0.137176513671875,-6.941573619842529,6.608964920043945
1751619075750202600,18.42720263671875,-0.01727008819580078,-6.380307674407959,9.365030288696289
1751619075769026000,18.446026123046874,-0.021787643432617188,-1.3335624933242798,4.839585304260254
1751619075787849500,18.464849365234375,0.011547088623046875,-0.5341732501983643,2.308710813522339
1751619075806673200,18.483673095703125,0.0065555572509765625,-1.3142035007476807,4.204443454742432
1751619075825496600,18.50249658203125,0.02073955535888672,-3.301966905593872,5.710458278656006
1751619075844320000,18.521320068359376,-0.012993812561035156,-4.906400203704834,5.338193893432617
1751619075863143400,18.540143310546874,0.14870738983154297,-5.5340166091918945,3.415421485900879
1751619075881967000,18.558967041015624,0.019097328186035156,-4.529609680175781,0.8332942724227905
1751619075900790500,18.57779052734375,-0.12912273406982422,-3.517451286315918,-1.706549882888794
1751619075919614000,18.596614013671875,0.07044410705566406,-2.431741237640381,-4.541024684906006
1751619075938437600,18.615437744140625,0.03179740905761719,-0.6677512526512146,-7.681905269622803
1751619075957261000,18.634260986328126,0.1223287582397461,2.3470301628112793,-11.322644233703613
1751619075976084700,18.653084716796876,-0.03085041046142578,6.5245561599731445,-14.661781311035156
1751619076004320000,18.681320068359376,0.08405780792236328,3.225745439529419,-10.325925827026367
1751619076023143400,18.700143310546874,-0.058548927307128906,0.3294457793235779,-6.412164211273193
1751619076041966800,18.718966796875,0.2765064239501953,-2.0939369201660156,-1.3099360466003418
1751619076060790500,18.73779052734375,-0.0814828872680664,-3.301564931869507,1.7426156997680664
1751619076079614000,18.756614013671875,0.005259513854980469,-4.0312724113464355,3.2743265628814697
1751619076098437400,18.775437255859377,0.12974071502685547,-4.6930460929870605,4.144626140594482
1751619076117261000,18.794260986328126,-0.008823394775390625,-3.194258689880371,4.156519889831543
1751619076136084500,18.81308447265625,0.0008182525634765625,-2.3550074100494385,4.038475513458252
1751619076154908000,18.831907958984374,-0.04215431213378906,-0.7670485973358154,3.187490701675415
1751619076173731600,18.850731689453124,0.0057392120361328125,-0.03488337993621826,1.7550870180130005
1751619076192555000,18.869554931640625,0.0009565353393554688,0.08921831846237183,0.05586512014269829
1751619076211378400,18.88837841796875,0.010582923889160156,0.07906696200370789,0.03242262452840805
1751619076230202000,18.9072021484375,0.029677391052246094,0.016763240098953247,0.06522289663553238
1751619076249025500,18.926025634765626,-0.0038394927978515625,-0.7364248037338257,1.813576102256775
1751619076267849200,18.94484912109375,-0.008707046508789062,-2.121405839920044,5.013164520263672
1751619076286672600,18.963672607421874,0.024522781372070312,-3.237945318222046,5.17665433883667
1751619076305496000,18.98249609375,0.0577392578125,-3.156141996383667,4.218014717102051
1751619076324319700,19.00131982421875,-0.24859619140625,-3.1773414611816406,2.620305299758911
1751619076343143200,19.02014306640625,0.01867389678955078,-2.9883697032928467,0.9049758315086365
1751619076361966800,19.038966796875,0.02788257598876953,-1.7717350721359253,-2.539682149887085
1751619076380790300,19.057790283203126,-0.02052783966064453,1.100394606590271,-6.698762893676758
1751619076399613700,19.07661376953125,-0.03489208221435547,3.7737534046173096,-12.229836463928223
1751619076418437000,19.09543701171875,0.02707672119140625,3.399868965148926,-9.323006629943848
1751619076437260800,19.1142607421875,-0.0680837631225586,4.053584098815918,-9.878789901733398
1751619076456084200,19.133084228515624,0.0330963134765625,1.9202187061309814,-8.678563117980957
1751619076474908000,19.151907958984374,0.07646465301513672,-0.7076833248138428,-5.4620842933654785
1751619076493731300,19.1707314453125,0.11995697021484375,-2.8052144050598145,-2.650550127029419
1751619076512554800,19.1895546875,0.072784423828125,-5.540704727172852,0.7248385548591614
1751619076531378400,19.20837841796875,0.12986183166503906,-7.351319789886475,4.470660209655762
1751619076550201900,19.227201904296876,-0.05157756805419922,-6.089676856994629,6.938107967376709
1751619076569025500,19.246025634765626,-0.05514812469482422,-4.196268081665039,6.965724945068359
1751619076587849000,19.264848876953124,0.06444454193115234,-1.2751613855361938,5.296961307525635
1751619076606672400,19.28367236328125,0.07884883880615234,0.0008162558078765869,0.04205680266022682
1751619076625496000,19.30249609375,0.0023221969604492188,-0.30930671095848083,1.0824120044708252
1751619076644319500,19.321319580078125,0.02613544464111328,-2.1878714561462402,4.975287914276123
1751619076663143000,19.340142822265626,0.025754928588867188,-3.842498302459717,7.122668266296387
1751619076681966600,19.358966552734376,0.12560558319091797,-5.613231658935547,6.635501384735107
1751619076700790000,19.3777900390625,0.25414180755615234,-6.254757404327393,4.741706848144531
1751619076719613400,19.396613525390624,0.2196664810180664,-6.130609512329102,2.195927619934082
1751619076738437000,19.41543701171875,0.037636756896972656,-5.256712436676025,-1.8587985038757324
1751619076757260500,19.434260498046875,0.6633014678955078,-2.815605878829956,-6.936977863311768
1751619076776084200,19.453084228515625,0.1366596221923828,1.2249904870986938,-11.88683795928955
1751619076794907600,19.47190771484375,0.088531494140625,5.324039936065674,-15.4111328125
1751619076813731000,19.49073095703125,0.06941699981689453,4.386022567749023,-10.923812866210938
1751619076832554800,19.5095546875,0.06473922729492188,2.6751604080200195,-9.250509262084961
1751619076851378200,19.528378173828123,-0.020394325256347656,1.5139410495758057,-6.4887003898620605
1751619076870201600,19.54720166015625,0.06614112854003906,0.187641441822052,-3.420598268508911
1751619076889025300,19.566025390625,-0.10535144805908203,-1.1274288892745972,-0.5686153769493103
1751619076907848700,19.5848486328125,-0.09504032135009766,-2.9221673011779785,3.4477181434631348
1751619076926672400,19.60367236328125,0.24545001983642578,-4.846414566040039,5.468099594116211
1751619076945495800,19.622495849609376,-0.02691650390625,-4.1937665939331055,4.821410179138184
1751619076964319200,19.6413193359375,0.011315345764160156,-3.6009562015533447,3.180258274078369
1751619076983143000,19.660142822265627,0.06370162963867188,-2.756816864013672,2.319242238998413
1751619077001966300,19.67896630859375,0.020704269409179688,-1.795756459236145,1.868558645248413
1751619077020790000,19.6977900390625,0.015964508056640625,0.015090465545654297,0.0726269856095314
1751619077039613400,19.716613525390624,0.025482177734375,-1.077709436416626,2.191366672515869
1751619077058436900,19.735436767578125,0.006236076354980469,-2.8961503505706787,5.067358493804932
1751619077077260500,19.754260498046875,-0.027502059936523438,-3.264285087585449,6.051010608673096
1751619077096084000,19.773083984375,-0.07077312469482422,-3.085176706314087,5.0218024253845215
1751619077114907600,19.79190771484375,-0.013953208923339844,-3.2308688163757324,2.795931816101074
1751619077133731000,19.81073095703125,0.16203880310058594,-3.3281986713409424,0.2574250102043152
1751619077152554500,19.829554443359374,0.07106494903564453,-3.1431994438171387,-2.0188302993774414
1751619077171378200,19.848378173828124,-0.010840415954589844,-0.43057870864868164,-5.960448265075684
1751619077190201600,19.86720166015625,0.05087757110595703,3.558166742324829,-11.621935844421387
1751619077209025300,19.886025390625,0.017569541931152344,5.140397548675537,-12.952693939208984
1751619077227848700,19.9048486328125,0.10385704040527344,4.797752857208252,-10.73633861541748
1751619077246672100,19.923672119140626,-0.05359458923339844,2.104869842529297,-7.865586757659912
1751619077265495800,19.942495849609376,0.07144355773925781,-0.9713578224182129,-3.772958993911743
1751619077284319200,19.9613193359375,0.06725692749023438,-3.3592028617858887,-0.5504515171051025
1751619077303142700,19.980142578125,-0.10937976837158203,-3.8867650032043457,0.7507809400558472
1751619077321966300,19.99896630859375,0.1632843017578125,-4.809903144836426,1.8284205198287964
1751619077340789800,20.017789794921875,0.17728424072265625,-5.6203107833862305,4.048640251159668
1751619077359613400,20.036613525390624,-0.0900869369506836,-4.799042701721191,5.419440269470215
1751619077378436900,20.055436767578126,-0.0846261978149414,-2.5431485176086426,4.928435325622559
1751619077397260500,20.074260498046876,-0.012819290161132812,0.25537943840026855,3.1563265323638916
1751619077416084000,20.093083984375,0.006426811218261719,-0.9440088272094727,1.4368269443511963
1751619077434907400,20.111907470703127,0.034972190856933594,-3.3336312770843506,3.943934440612793
1751619077453731000,20.13073095703125,0.07750511169433594,-3.5572028160095215,5.588223457336426
1751619077472554500,20.149554443359374,0.029410362243652344,-3.9335498809814453,5.705156326293945
1751619077491378000,20.1683779296875,0.1624298095703125,-3.8596134185791016,4.4088544845581055
1751619077510201600,20.18720166015625,0.15272808074951172,-3.6590518951416016,2.5282511711120605
1751619077529025000,20.20602490234375,-0.010207176208496094,-3.2833197116851807,-0.45800453424453735
1751619077547848700,20.2248486328125,0.09927654266357422,-0.6909313201904297,-6.523038864135742
1751619077566672100,20.243672119140626,0.1847524642944336,3.207409143447876,-14.202170372009277
1751619077585495800,20.262495849609376,0.074554443359375,5.544317722320557,-17.30602264404297
1751619077604319200,20.2813193359375,0.04594993591308594,5.397699356079102,-12.322826385498047
1751619077623142700,20.300142578125,0.03211784362792969,2.5770397186279297,-9.636323928833008
1751619077641966300,20.31896630859375,0.09979724884033203,-1.3439218997955322,-4.362498760223389
1751619077660789800,20.337789794921875,0.04823112487792969,-3.1677560806274414,-0.9481396675109863
1751619077679613200,20.35661328125,0.029306411743164062,-5.023807525634766,1.1569578647613525
1751619077698436900,20.375436767578126,0.2822389602661133,-6.886290550231934,2.787017345428467
1751619077717260300,20.39426025390625,-0.42371559143066406,-5.934388160705566,4.213891506195068
1751619077736084000,20.413083984375,-0.22829246520996094,-5.454690456390381,4.707812786102295
1751619077754907400,20.431907470703123,0.011080741882324219,-2.283175468444824,4.182049751281738
1751619077773730800,20.450730712890625,-0.04608631134033203,0.08369415998458862,3.4953033924102783
1751619077792554500,20.469554443359375,-0.036205291748046875,0.32969436049461365,3.4753825664520264
1751619077811378000,20.4883779296875,0.016283035278320312,-0.17695751786231995,0.20566150546073914
1751619077830201600,20.50720166015625,0.0016994476318359375,-3.089970588684082,5.5185770988464355
1751619077849025000,20.52602490234375,-0.04159069061279297,-4.105445861816406,8.435656547546387
1751619077867848700,20.5448486328125,-0.0036706924438476562,-4.522891998291016,6.413560390472412
1751619077886672100,20.563672119140627,0.07700157165527344,-5.019173622131348,3.6448047161102295
1751619077905495600,20.58249560546875,0.0761566162109375,-4.961793899536133,0.3533165156841278
1751619077924319200,20.6013193359375,0.17121410369873047,-3.856661081314087,-3.024806261062622
1751619077943142700,20.620142578125,0.1277179718017578,-1.4405173063278198,-6.094544887542725
1751619077961966300,20.63896630859375,0.0029478073120117188,2.7762534618377686,-11.477265357971191
1751619077980789800,20.657789794921875,0.12704849243164062,7.984055519104004,-17.82286834716797
1751619077999613200,20.67661328125,0.03150653839111328,5.238966464996338,-11.891631126403809
1751619078018436900,20.695436767578126,-0.10649871826171875,3.234924077987671,-10.350517272949219
1751619078037260300,20.71426025390625,0.12350177764892578,-0.15853075683116913,-7.729867458343506
1751619078056084000,20.733083984375,0.2102642059326172,-3.7157487869262695,-4.439451694488525
1751619078074907400,20.751907470703124,0.3395872116088867,-7.9223432540893555,-0.12997445464134216
1751619078093730800,20.770730712890625,-0.4811735153198242,-11.354981422424316,6.624067306518555
1751619078112554500,20.789554443359375,0.2408456802368164,-8.863981246948242,10.653346061706543
1751619078131378000,20.8083779296875,-0.06539535522460938,-2.486176013946533,10.588363647460938
1751619078150201600,20.82720166015625,-0.04606914520263672,1.3488343954086304,3.0544075965881348
1751619078169025000,20.84602490234375,-0.02692890167236328,0.21526721119880676,1.1731476783752441
1751619078187848700,20.8648486328125,-0.0126953125,-1.6739344596862793,2.357476234436035
1751619078206672100,20.883672119140623,0.015563011169433594,-3.1638550758361816,4.018333911895752
1751619078225495600,20.90249560546875,0.038865089416503906,-4.152170181274414,5.25653600692749
1751619078244319200,20.9213193359375,0.004878044128417969,-4.227321624755859,4.320980548858643
1751619078263142700,20.940142578125,0.08550453186035156,-1.4579384326934814,0.26742133498191833
1751619078281966300,20.95896630859375,0.06650733947753906,2.4360625743865967,-6.928350448608398
1751619078300789800,20.977789794921875,0.09949684143066406,3.30538272857666,-11.176454544067383
1751619078319613200,20.99661328125,0.08463287353515625,1.2313851118087769,-8.229375839233398
1751619078338436900,21.015436767578127,-0.044277191162109375,2.6354565620422363,-4.426225185394287
1751619078357260300,21.03426025390625,0.04212379455566406,2.643608808517456,-5.627490043640137
1751619078376084000,21.053083984375,0.09958934783935547,-0.01180371642112732,-2.7473373413085938
1751619078394907400,21.071907470703124,-0.010355949401855469,-3.0763185024261475,3.0130903720855713
1751619078413730800,21.090730712890625,0.013605117797851562,-4.55409049987793,6.571049690246582
1751619078432554500,21.109554443359375,-0.014880180358886719,-1.75052809715271,3.109466552734375
1751619078451378000,21.1283779296875,0.008952140808105469,-1.224948763847351,1.3575021028518677
1751619078470201600,21.14720166015625,0.013581275939941406,0.16152259707450867,0.09610496461391449
1751619078489025000,21.16602490234375,-0.02475738525390625,1.1160680055618286,-1.4779841899871826
1751619078507848700,21.1848486328125,-0.05341529846191406,1.482675552368164,-1.369879126548767
1751619078526672100,21.203672119140624,0.008790969848632812,0.05060577392578125,0.05818541720509529
1751619078545495800,21.222495849609373,0.023062705993652344,0.06116637587547302,-0.03754831850528717
1751619078564319200,21.2413193359375,0.008695602416992188,0.06177467107772827,-0.045238085091114044
1751619078583142700,21.260142578125,0.018326759338378906,0.21323293447494507,-0.8508163690567017
1751619078601966300,21.27896630859375,-0.005496978759765625,-0.1519472897052765,0.3815758228302002
1751619078620789800,21.297789794921876,0.03760814666748047,0.09635072946548462,0.10360401123762131
1751619078639613400,21.316613525390625,0.013672828674316406,0.07207790017127991,-0.030074134469032288
1751619078658436900,21.335436767578123,-0.000644683837890625,0.0669260025024414,-0.0726701021194458
1751619078677260300,21.35426025390625,-0.005352020263671875,0.05680033564567566,0.023842111229896545
1751619078696084000,21.373083984375,-0.014873504638671875,0.03718915581703186,-0.03296089172363281
1751619078714907400,21.391907470703124,-0.010117530822753906,0.03241539001464844,-0.08104465156793594
1751619078733731000,21.41073095703125,-0.019677162170410156,0.07040750980377197,0.09060689061880112
1751619078752554500,21.429554443359375,0.00423431396484375,0.06477093696594238,0.004737198352813721
1751619078771378000,21.4483779296875,-0.0005254745483398438,0.059197187423706055,-0.04647907614707947
1751619078790201600,21.46720166015625,0.004256248474121094,0.07766234874725342,-0.021538160741329193
1751619078809025000,21.48602490234375,0.008962631225585938,0.07717999815940857,-0.03585006296634674
1751619078827848700,21.5048486328125,0.008908271789550781,0.06770461797714233,-0.032086990773677826
1751619078846672100,21.523672119140624,-0.010219573974609375,0.04869365692138672,0.08075699955224991
1751619078865495800,21.542495849609374,0.018558502197265625,0.010151565074920654,-0.07262460887432098
1751619078884319200,21.5613193359375,0.01856231689453125,0.029060393571853638,-0.11877629905939102
1751619078903142700,21.580142578125,-0.00057220458984375,0.04315117001533508,-0.04633605480194092
1751619078921966300,21.59896630859375,-0.009828567504882812,0.0702110230922699,0.01918674260377884
1751619078940789800,21.617789794921876,-0.00012302398681640625,0.05443951487541199,0.03989609703421593
1751619078959613400,21.636613525390626,-0.005074501037597656,0.09475061297416687,0.051801491528749466
1751619078978436900,21.655436767578124,-0.004955291748046875,0.07663574814796448,-0.009603045880794525
1751619078997260500,21.674260498046873,-0.014569282531738281,0.03221142292022705,-0.011593766510486603
1751619079016084000,21.693083984375,-0.0048885345458984375,0.007545351982116699,-0.0242956280708313
1751619079034907400,21.711907470703125,0.02343463897705078,0.04433828592300415,-0.06993280351161957
1751619079053731000,21.73073095703125,-0.000713348388671875,0.023621022701263428,0.038853175938129425
1751619079072554500,21.749554443359376,-0.009762763977050781,0.012411355972290039,0.060019731521606445
1751619079091378200,21.768378173828125,-0.00014495849609375,-0.03121030330657959,-0.076437808573246
1751619079110201600,21.78720166015625,0.009636878967285156,0.04341393709182739,-0.164300799369812
1751619079129025300,21.806025390625,0.0235443115234375,0.10667118430137634,-0.025800958275794983
1751619079147848700,21.8248486328125,-0.0004425048828125,0.08432775735855103,0.045267943292856216
1751619079166672100,21.843672119140624,0.009135246276855469,0.05823269486427307,0.08483266830444336
1751619079185495800,21.862495849609374,0.004108428955078125,0.07517823576927185,-0.012731008231639862
1751619079204319200,21.8813193359375,-0.005527496337890625,0.017102867364883423,-0.07379410415887833
1751619079223143000,21.900142822265625,-0.029105186462402344,-0.04876008629798889,-0.06644105911254883
1751619079241966300,21.91896630859375,-0.023820877075195312,-0.05153761804103851,-0.07812796533107758
1751619079260790000,21.9377900390625,-0.009389877319335938,-0.021639466285705566,-0.10438922792673111
1751619079279613400,21.956613525390626,0.0043811798095703125,0.02167457342147827,-0.08367780596017838
1751619079298436900,21.975436767578124,-0.010042190551757812,0.039686381816864014,0.03523975610733032
1751619079317260500,21.994260498046874,0.013994216918945312,0.01923471689224243,-0.01665308326482773
1751619079336084000,22.013083984375,0.023588180541992188,0.06026992201805115,0.040063247084617615
1751619079354907600,22.03190771484375,0.009395599365234375,0.08129799365997314,0.024669237434864044
1751619079373731000,22.05073095703125,0.0233612060546875,0.06445330381393433,0.023887380957603455
1751619079392554500,22.069554443359376,-0.0006351470947265625,0.011207133531570435,0.03694163262844086
1751619079411378200,22.088378173828126,0.004260063171386719,-0.007987022399902344,0.008411064743995667
1751619079430201600,22.10720166015625,-0.014616966247558594,0.0014574527740478516,-0.0568859800696373
1751619079449025300,22.126025390625,-0.0144500732421875,0.015440642833709717,-0.050458453595638275
1751619079467848700,22.1448486328125,-0.009888648986816406,-0.008483856916427612,0.002681136131286621
1751619079486672400,22.16367236328125,-0.019195556640625,0.01485934853553772,-0.005933411419391632
1751619079505495800,22.182495849609374,0.01846599578857422,0.014058440923690796,-0.019415520131587982
1751619079524319200,22.2013193359375,0.0037889480590820312,0.04643869400024414,-0.025069862604141235
1751619079552554800,22.2295546875,-0.010500907897949219,0.01333501935005188,0.005119211971759796
1751619079571378200,22.248378173828126,-0.015106201171875,-0.005748540163040161,0.004305586218833923
1751619079590201600,22.26720166015625,-0.014911651611328125,0.012798398733139038,-0.0044616833329200745
1751619079609025300,22.286025390625,-0.010203361511230469,0.026584237813949585,-0.019214622676372528
1751619079627848700,22.3048486328125,-0.0008907318115234375,0.012169599533081055,0.021464191377162933
1751619079646672400,22.32367236328125,-0.024501800537109375,0.026195526123046875,0.024315625429153442
1751619079665495800,22.342495849609374,0.004225730895996094,0.021037578582763672,-0.013871163129806519
1751619079684319500,22.361319580078124,0.013654708862304688,0.006376743316650391,-0.05063658952713013
1751619079703143000,22.380142822265626,0.022600173950195312,-0.030606627464294434,-0.13783159852027893
1751619079721966300,22.39896630859375,-0.0058536529541015625,-0.03827017545700073,-0.025857262313365936
1751619079740790000,22.4177900390625,-0.0008058547973632812,0.01000368595123291,-0.005918584764003754
1751619079759613400,22.436613525390626,0.008806228637695312,0.02340388298034668,0.04143700748682022
1751619079778437000,22.45543701171875,-0.0009708404541015625,0.03194183111190796,0.03067638725042343
1751619079797260500,22.474260498046874,-0.0153961181640625,0.0311756432056427,0.014172002673149109
1751619079816084200,22.493084228515624,-0.0011186599731445312,0.04903125762939453,0.04931213706731796
1751619079834907600,22.51190771484375,-0.0012712478637695312,0.029569774866104126,0.02260781079530716
1751619079853731000,22.53073095703125,-0.020198822021484375,0.009767651557922363,0.012995637953281403
1751619079872554800,22.5495546875,0.008654594421386719,-0.018807560205459595,-0.03757602721452713
1751619079891378200,22.568378173828126,0.008454322814941406,-0.013756096363067627,-0.058887869119644165
1751619079910201900,22.587201904296876,0.01781749725341797,-0.017621874809265137,-0.03332998603582382
1751619079929025300,22.606025390625,0.0038080215454101562,-0.007677972316741943,0.0003405734896659851
1751619079947849000,22.624848876953124,0.017868995666503906,0.0016682744026184082,-0.00029718875885009766
1751619079966672400,22.64367236328125,0.008250236511230469,0.01062709093093872,0.01304692029953003
1751619079985496000,22.66249609375,-0.015322685241699219,0.03827017545700073,0.01247859001159668
1751619080004319500,22.681319580078124,-0.010357856750488281,0.023223936557769775,0.011080138385295868
1751619080023143000,22.700142822265626,-0.010346412658691406,0.02259001135826111,0.02389068901538849
1751619080041966600,22.718966552734376,-0.014863967895507812,0.016857266426086426,-0.004731699824333191
1751619080060790000,22.7377900390625,-0.009967803955078125,-0.012010902166366577,-0.02247162163257599
1751619080079613700,22.75661376953125,-0.010095596313476562,-0.021100133657455444,-0.016026802361011505
1751619080098437000,22.77543701171875,-0.005452156066894531,-0.010651439428329468,-0.043198101222515106
1751619080117260800,22.7942607421875,-0.0008945465087890625,0.004033923149108887,-0.032532453536987305
1751619080136084200,22.813084228515624,0.008350372314453125,0.018647819757461548,-0.04278629273176193
1751619080154907600,22.83190771484375,-0.010304450988769531,0.01859360933303833,0.022436410188674927
1751619080173731300,22.8507314453125,0.013876914978027344,0.0276658833026886,0.0490800216794014
1751619080192554800,22.8695546875,0.004557609558105469,0.03624740242958069,0.009422466158866882
1751619080211378400,22.88837841796875,-0.009860038757324219,0.048572540283203125,-0.004164069890975952
1751619080230201900,22.907201904296876,0.009286880493164062,0.018880575895309448,0.010515265166759491
1751619080249025500,22.926025634765626,0.004349708557128906,-0.02850174903869629,0.005059294402599335
1751619080267849000,22.944848876953124,0.0042095184326171875,-0.03249901533126831,-0.02351038157939911
1751619080286672400,22.96367236328125,-0.024400711059570312,-0.01750442385673523,-0.05993982404470444
1751619080305496000,22.98249609375,-0.019754409790039062,-0.0028115808963775635,-0.0251602903008461
1751619080324319500,23.001319580078125,-0.033690452575683594,-0.011934489011764526,0.007913671433925629
1751619080343143200,23.02014306640625,-0.01900768280029297,0.0023026764392852783,0.03518156707286835
1751619080361966600,23.038966552734376,-0.0001068115234375,0.025716304779052734,-0.007973887026309967
1751619080380790300,23.057790283203126,-0.004891395568847656,0.011056602001190186,-0.002872385084629059
1751619080399613700,23.07661376953125,0.0045223236083984375,0.015311747789382935,0.034639716148376465
1751619080418437000,23.09543701171875,0.004607200622558594,0.01946955919265747,0.02412267029285431
1751619080437260800,23.1142607421875,0.014097213745117188,0.004539161920547485,-0.004531636834144592
1751619080456084200,23.133084228515624,0.018410682678222656,-0.009502261877059937,-0.00920315831899643
1751619080474908000,23.151907958984374,0.023087501525878906,-0.014327257871627808,-0.012138009071350098
1751619080493731300,23.1707314453125,0.03244209289550781,0.009669750928878784,-0.0542370080947876
1751619080512555000,23.189554931640625,0.013077735900878906,0.010273367166519165,-0.08648212254047394
1751619080531378400,23.20837841796875,-0.015613555908203125,0.005633264780044556,-0.019598200917243958
1751619080550201900,23.227201904296876,0.0035686492919921875,-0.018119752407073975,0.013224601745605469
