time,seconds_elapsed,z,y,x
1751619057644543000,0.32154296875,9.903294563293457,0.3044866919517517,-0.1495514214038849
1751619057663366400,0.340366455078125,9.893723487854004,0.36670008301734924,-0.13040883839130402
1751619057682190000,0.359190185546875,9.908080101013184,0.3858426511287689,-0.020338991656899452
1751619057701013500,0.378013427734375,9.89850902557373,0.3858426511287689,0.017946170642971992
1751619057719837000,0.3968369140625,9.93679428100586,0.36670008301734924,-0.0011964113218709826
1751619057738660400,0.415660400390625,9.908080101013184,0.3284149169921875,-0.058624155819416046
1751619057757483800,0.43448388671875,9.932008743286133,0.3284149169921875,-0.0729810893535614
1751619057776307200,0.45330712890625,9.903294563293457,0.34277185797691345,-0.10648060590028763
1751619057795130600,0.472130615234375,9.88415241241455,0.2997010350227356,-0.0729810893535614
1751619057813954300,0.490954345703125,9.893723487854004,0.2757728099822998,-0.10648060590028763
1751619057832777700,0.50977783203125,9.888937950134277,0.31405797600746155,-0.13040883839130402
1751619057851601200,0.52860107421875,9.893723487854004,0.30927231907844543,-0.13519448041915894
1751619057870424600,0.547424560546875,9.893723487854004,0.3044866919517517,-0.13998012244701385
1751619057889248000,0.566248046875,9.903294563293457,0.2709871530532837,-0.13998012244701385
1751619057908071700,0.58507177734375,9.91286563873291,0.24227328598499298,-0.1782652884721756
1751619057926895000,0.60389501953125,9.917651176452637,0.2709871530532837,-0.19740787148475647
1751619057945718500,0.622718505859375,9.917651176452637,0.26141586899757385,-0.1543370634317398
1751619057964542000,0.6415419921875,9.932008743286133,0.28534409403800964,-0.11126625537872314
1751619057983365400,0.660365478515625,9.93679428100586,0.3188436031341553,-0.10648060590028763
1751619058002188800,0.679188720703125,9.903294563293457,0.3332005441188812,-0.09690931439399719
1751619058021012200,0.69801220703125,9.908080101013184,0.33798620104789734,-0.04426721855998039
1751619058039836000,0.7168359375,9.89850902557373,0.3332005441188812,-0.04426721855998039
1751619058058659300,0.735659423828125,9.89850902557373,0.3332005441188812,-0.06340979784727097
1751619058077482800,0.754482666015625,9.89850902557373,0.33798620104789734,-0.09212367236614227
1751619058096306200,0.77330615234375,9.888937950134277,0.3188436031341553,-0.11605189740657806
1751619058115129600,0.792129638671875,9.903294563293457,0.29012975096702576,-0.09212367236614227
1751619058133953000,0.810953125,9.888937950134277,0.2949153780937195,-0.10169496387243271
1751619058152776700,0.829776611328125,9.917651176452637,0.31405797600746155,-0.11605189740657806
1751619058171600100,0.84860009765625,9.91286563873291,0.31405797600746155,-0.09690931439399719
1751619058190423600,0.867423583984375,9.917651176452637,0.33798620104789734,-0.06340979784727097
1751619058209247000,0.8862470703125,9.917651176452637,0.33798620104789734,-0.058624155819416046
1751619058228070400,0.9050703125,9.946365356445312,0.3044866919517517,-0.1256231814622879
1751619058246894000,0.92389404296875,9.93679428100586,0.26620152592658997,-0.16390834748744965
1751619058265717500,0.942717529296875,9.903294563293457,0.23748764395713806,-0.15912270545959473
1751619058284541000,0.961541015625,9.91286563873291,0.2709871530532837,-0.17347964644432068
1751619058303364400,0.9803642578125,9.903294563293457,0.2997010350227356,-0.14476576447486877
1751619058322187800,0.999187744140625,9.903294563293457,0.3284149169921875,-0.12083754688501358
1751619058341011200,1.01801123046875,9.908080101013184,0.3284149169921875,-0.08255238085985184
1751619058359835000,1.0368349609375,9.908080101013184,0.30927231907844543,-0.08733802288770676
1751619058378658300,1.055658203125,9.903294563293457,0.31405797600746155,-0.09212367236614227
1751619058397481700,1.074481689453125,9.908080101013184,0.3332005441188812,-0.11126625537872314
1751619058416305200,1.09330517578125,9.927223205566406,0.3044866919517517,-0.10169496387243271
1751619058435128600,1.112128662109375,9.917651176452637,0.2997010350227356,-0.08255238085985184
1751619058453952300,1.1309521484375,9.927223205566406,0.2949153780937195,-0.10648060590028763
1751619058472775700,1.149775634765625,9.946365356445312,0.3044866919517517,-0.1256231814622879
1751619058491599000,1.16859912109375,9.93679428100586,0.2949153780937195,-0.12083754688501358
1751619058510422500,1.187422607421875,9.917651176452637,0.29012975096702576,-0.1256231814622879
1751619058529246000,1.206245849609375,9.908080101013184,0.2997010350227356,-0.10648060590028763
1751619058548069400,1.2250693359375,9.908080101013184,0.31405797600746155,-0.1256231814622879
1751619058566893000,1.24389306640625,9.89850902557373,0.2997010350227356,-0.11126625537872314
1751619058585716500,1.262716552734375,9.908080101013184,0.3332005441188812,-0.08733802288770676
1751619058604540000,1.281539794921875,9.89850902557373,0.33798620104789734,-0.09212367236614227
1751619058623363300,1.30036328125,9.908080101013184,0.3332005441188812,-0.08733802288770676
1751619058642186800,1.319186767578125,9.91286563873291,0.3284149169921875,-0.08733802288770676
1751619058661010400,1.338010498046875,9.927223205566406,0.2949153780937195,-0.09212367236614227
1751619058679833900,1.356833740234375,9.927223205566406,0.3044866919517517,-0.08733802288770676
1751619058698657300,1.3756572265625,9.932008743286133,0.30927231907844543,-0.11126625537872314
1751619058717480700,1.394480712890625,9.93679428100586,0.31405797600746155,-0.13040883839130402
1751619058736304000,1.41330419921875,9.927223205566406,0.30927231907844543,-0.13040883839130402
1751619058755127600,1.43212744140625,9.917651176452637,0.2997010350227356,-0.10648060590028763
1751619058773951200,1.450951171875,9.917651176452637,0.2997010350227356,-0.09690931439399719
1751619058792774700,1.469774658203125,9.908080101013184,0.3236292600631714,-0.10169496387243271
1751619058811598000,1.48859814453125,9.89850902557373,0.31405797600746155,-0.11605189740657806
1751619058830421500,1.50742138671875,9.89850902557373,0.3044866919517517,-0.10169496387243271
1751619058849245000,1.526244873046875,9.89850902557373,0.3044866919517517,-0.11605189740657806
1751619058868068600,1.545068603515625,9.908080101013184,0.30927231907844543,-0.11126625537872314
1751619058886892000,1.56389208984375,9.908080101013184,0.2949153780937195,-0.13040883839130402
1751619058905715500,1.582715576171875,9.927223205566406,0.3044866919517517,-0.10648060590028763
1751619058924539000,1.601538818359375,9.927223205566406,0.30927231907844543,-0.11605189740657806
1751619058943362300,1.6203623046875,9.93679428100586,0.3044866919517517,-0.10648060590028763
1751619058962185700,1.639185791015625,9.932008743286133,0.2997010350227356,-0.09212367236614227
1751619058981009400,1.658009521484375,9.932008743286133,0.30927231907844543,-0.10648060590028763
1751619058999832800,1.676832763671875,9.93679428100586,0.3044866919517517,-0.11126625537872314
1751619059018656300,1.69565625,9.917651176452637,0.3236292600631714,-0.11126625537872314
1751619059037479700,1.714479736328125,9.903294563293457,0.3044866919517517,-0.09690931439399719
1751619059056303400,1.733303466796875,9.888937950134277,0.3044866919517517,-0.10169496387243271
1751619059075126800,1.752126708984375,9.893723487854004,0.30927231907844543,-0.13519448041915894
1751619059093950200,1.7709501953125,9.903294563293457,0.2997010350227356,-0.11605189740657806
1751619059112773600,1.789773681640625,9.917651176452637,0.30927231907844543,-0.11605189740657806
1751619059131597000,1.80859716796875,9.927223205566406,0.3188436031341553,-0.10169496387243271
1751619059150420500,1.82742041015625,9.93679428100586,0.31405797600746155,-0.10169496387243271
1751619059169244200,1.846244140625,9.927223205566406,0.31405797600746155,-0.09212367236614227
1751619059188067600,1.865067626953125,9.93679428100586,0.3044866919517517,-0.10169496387243271
1751619059206891000,1.88389111328125,9.960722923278809,0.31405797600746155,-0.10648060590028763
1751619059225714400,1.90271435546875,9.932008743286133,0.3044866919517517,-0.11605189740657806
1751619059244537900,1.921537841796875,9.91286563873291,0.30927231907844543,-0.13519448041915894
1751619059263361500,1.940361572265625,9.89850902557373,0.30927231907844543,-0.11126625537872314
1751619059282185000,1.95918505859375,9.888937950134277,0.2997010350227356,-0.09212367236614227
1751619059301008400,1.97800830078125,9.88415241241455,0.30927231907844543,-0.10169496387243271
1751619059319831800,1.996831787109375,9.89850902557373,0.3236292600631714,-0.10648060590028763
1751619059338655200,2.0156552734375,9.903294563293457,0.31405797600746155,-0.09212367236614227
1751619059357478700,2.034478759765625,9.91286563873291,0.29012975096702576,-0.07776673883199692
1751619059376302300,2.05330224609375,9.93679428100586,0.31405797600746155,-0.09212367236614227
1751619059395125800,2.072125732421875,9.946365356445312,0.30927231907844543,-0.12083754688501358
1751619059413949200,2.09094921875,9.946365356445312,0.30927231907844543,-0.11605189740657806
1751619059432772600,2.109772705078125,9.92243766784668,0.2949153780937195,-0.13040883839130402
1751619059451596000,2.128595947265625,9.93679428100586,0.30927231907844543,-0.10648060590028763
1751619059470419700,2.147419677734375,9.93679428100586,0.3044866919517517,-0.11605189740657806
1751619059489243100,2.1662431640625,9.91286563873291,0.30927231907844543,-0.12083754688501358
1751619059508066600,2.185066650390625,9.91286563873291,0.30927231907844543,-0.10648060590028763
1751619059526890000,2.203889892578125,9.903294563293457,0.30927231907844543,-0.10169496387243271
1751619059545713400,2.22271337890625,9.91286563873291,0.3236292600631714,-0.12083754688501358
1751619059564536800,2.241536865234375,9.927223205566406,0.3332005441188812,-0.10648060590028763
1751619059583360500,2.260360595703125,9.908080101013184,0.3188436031341553,-0.10648060590028763
1751619059602184000,2.279183837890625,9.908080101013184,0.2949153780937195,-0.10648060590028763
1751619059621007400,2.29800732421875,9.93679428100586,0.30927231907844543,-0.11605189740657806
1751619059639830800,2.316830810546875,9.946365356445312,0.31405797600746155,-0.11126625537872314
1751619059658654200,2.335654296875,9.941579818725586,0.3044866919517517,-0.09690931439399719
1751619059677478000,2.354477783203125,9.932008743286133,0.2997010350227356,-0.09212367236614227
1751619059696301300,2.37330126953125,9.932008743286133,0.2997010350227356,-0.11605189740657806
1751619059715124700,2.392124755859375,9.932008743286133,0.3044866919517517,-0.1256231814622879
1751619059733948200,2.4109482421875,9.908080101013184,0.31405797600746155,-0.11126625537872314
1751619059752771600,2.429771484375,9.89850902557373,0.29012975096702576,-0.08733802288770676
1751619059771595000,2.448594970703125,9.893723487854004,0.31405797600746155,-0.12083754688501358
1751619059790418400,2.46741845703125,9.908080101013184,0.2949153780937195,-0.11605189740657806
1751619059809242000,2.4862421875,9.92243766784668,0.3044866919517517,-0.12083754688501358
1751619059828065500,2.5050654296875,9.917651176452637,0.3044866919517517,-0.11126625537872314
1751619059846889000,2.523888916015625,9.927223205566406,0.29012975096702576,-0.10169496387243271
1751619059865712400,2.54271240234375,9.941579818725586,0.30927231907844543,-0.10648060590028763
1751619059884535800,2.561535888671875,9.941579818725586,0.31405797600746155,-0.12083754688501358
1751619059903359500,2.580359375,9.93679428100586,0.29012975096702576,-0.11605189740657806
1751619059922183000,2.599182861328125,9.941579818725586,0.31405797600746155,-0.08733802288770676
1751619059941006300,2.61800634765625,9.941579818725586,0.2949153780937195,-0.10648060590028763
1751619059959829800,2.636829833984375,9.908080101013184,0.3188436031341553,-0.10169496387243271
1751619059978653200,2.655653076171875,9.92243766784668,0.3044866919517517,-0.10648060590028763
1751619059997476600,2.6744765625,9.89850902557373,0.2949153780937195,-0.11126625537872314
1751619060016300300,2.69330029296875,9.893723487854004,0.30927231907844543,-0.13519448041915894
1751619060035123700,2.712123779296875,9.893723487854004,0.3044866919517517,-0.13040883839130402
1751619060053947100,2.730947021484375,9.89850902557373,0.31405797600746155,-0.09212367236614227
1751619060072770600,2.7497705078125,9.927223205566406,0.31405797600746155,-0.08255238085985184
1751619060091594000,2.768593994140625,9.92243766784668,0.3188436031341553,-0.09212367236614227
1751619060110417700,2.787417724609375,9.932008743286133,0.33798620104789734,-0.11605189740657806
1751619060129241000,2.806240966796875,9.941579818725586,0.3044866919517517,-0.0729810893535614
1751619060148064500,2.825064453125,9.917651176452637,0.2997010350227356,-0.07776673883199692
1751619060166888000,2.843887939453125,9.93679428100586,0.29012975096702576,-0.10169496387243271
1751619060185711400,2.86271142578125,9.927223205566406,0.29012975096702576,-0.13040883839130402
1751619060204534800,2.88153466796875,9.908080101013184,0.2997010350227356,-0.11605189740657806
1751619060223358500,2.9003583984375,9.908080101013184,0.29012975096702576,-0.1256231814622879
1751619060242182000,2.919181884765625,9.917651176452637,0.3188436031341553,-0.11126625537872314
1751619060261005300,2.93800537109375,9.908080101013184,0.3188436031341553,-0.09212367236614227
1751619060279828700,2.956828857421875,9.893723487854004,0.3188436031341553,-0.07776673883199692
1751619060298652200,2.975652099609375,9.917651176452637,0.3236292600631714,-0.07776673883199692
1751619060317475600,2.9944755859375,9.917651176452637,0.31405797600746155,-0.10648060590028763
1751619060336299000,3.013299072265625,9.941579818725586,0.2997010350227356,-0.09690931439399719
1751619060355122700,3.032122802734375,9.941579818725586,0.3044866919517517,-0.11605189740657806
1751619060373946000,3.050946044921875,9.932008743286133,0.2805584669113159,-0.1256231814622879
1751619060392769500,3.06976953125,9.941579818725586,0.3044866919517517,-0.11126625537872314
1751619060411593000,3.088593017578125,9.927223205566406,0.3044866919517517,-0.11605189740657806
1751619060430416400,3.10741650390625,9.92243766784668,0.3044866919517517,-0.09212367236614227
1751619060449240000,3.126239990234375,9.92243766784668,0.3332005441188812,-0.08255238085985184
1751619060468063500,3.1450634765625,9.917651176452637,0.31405797600746155,-0.09690931439399719
1751619060486887000,3.163886962890625,9.917651176452637,0.3236292600631714,-0.10648060590028763
1751619060505710300,3.18271044921875,9.903294563293457,0.31405797600746155,-0.12083754688501358
1751619060524533800,3.20153369140625,9.908080101013184,0.3044866919517517,-0.11605189740657806
1751619060543357200,3.220357177734375,9.89850902557373,0.2949153780937195,-0.10648060590028763
1751619060562180600,3.2391806640625,9.93679428100586,0.2949153780937195,-0.11605189740657806
1751619060581004300,3.25800439453125,9.960722923278809,0.29012975096702576,-0.10648060590028763
1751619060599827700,3.27682763671875,9.941579818725586,0.3044866919517517,-0.09212367236614227
1751619060618651100,3.295651123046875,9.941579818725586,0.29012975096702576,-0.10648060590028763
1751619060637474600,3.314474609375,9.946365356445312,0.30927231907844543,-0.09690931439399719
1751619060656298000,3.333298095703125,9.941579818725586,0.31405797600746155,-0.10648060590028763
1751619060675121400,3.352121337890625,9.92243766784668,0.2949153780937195,-0.11605189740657806
1751619060693945000,3.370945068359375,9.917651176452637,0.29012975096702576,-0.10169496387243271
1751619060712768500,3.3897685546875,9.92243766784668,0.3044866919517517,-0.11605189740657806
1751619060731592000,3.408592041015625,9.927223205566406,0.30927231907844543,-0.13040883839130402
1751619060750415400,3.427415283203125,9.908080101013184,0.30927231907844543,-0.12083754688501358
1751619060769238800,3.44623876953125,9.908080101013184,0.2949153780937195,-0.07776673883199692
1751619060788062200,3.465062255859375,9.91286563873291,0.3044866919517517,-0.08733802288770676
1751619060806886000,3.483885986328125,9.932008743286133,0.31405797600746155,-0.11126625537872314
1751619060825709300,3.502709228515625,9.941579818725586,0.3044866919517517,-0.1256231814622879
1751619060844532700,3.52153271484375,9.927223205566406,0.30927231907844543,-0.09690931439399719
1751619060863356200,3.540356201171875,9.927223205566406,0.2757728099822998,-0.09212367236614227
1751619060882179600,3.5591796875,9.951150894165039,0.29012975096702576,-0.09690931439399719
1751619060901003000,3.5780029296875,9.951150894165039,0.31405797600746155,-0.13519448041915894
1751619060919826700,3.59682666015625,9.93679428100586,0.3044866919517517,-0.11605189740657806
1751619060938650000,3.615650146484375,9.917651176452637,0.3044866919517517,-0.10648060590028763
1751619060957473500,3.6344736328125,9.91286563873291,0.31405797600746155,-0.11126625537872314
1751619060976297000,3.653296875,9.908080101013184,0.30927231907844543,-0.11126625537872314
1751619060995120400,3.672120361328125,9.91286563873291,0.30927231907844543,-0.09690931439399719
1751619061013943800,3.69094384765625,9.91286563873291,0.3044866919517517,-0.09690931439399719
1751619061032767200,3.709767333984375,9.908080101013184,0.2997010350227356,-0.10648060590028763
1751619061051591000,3.7285908203125,9.927223205566406,0.3188436031341553,-0.1256231814622879
1751619061070414300,3.747414306640625,9.932008743286133,0.31405797600746155,-0.09690931439399719
1751619061089237800,3.76623779296875,9.927223205566406,0.31405797600746155,-0.12083754688501358
1751619061108061200,3.785061279296875,9.927223205566406,0.2949153780937195,-0.10648060590028763
1751619061126884600,3.803884521484375,9.927223205566406,0.3044866919517517,-0.11126625537872314
1751619061145708000,3.8227080078125,9.946365356445312,0.3044866919517517,-0.11126625537872314
1751619061164531500,3.841531494140625,9.917651176452637,0.3044866919517517,-0.10169496387243271
1751619061183355000,3.86035498046875,9.91286563873291,0.3188436031341553,-0.09690931439399719
1751619061202178600,3.879178466796875,9.91286563873291,0.30927231907844543,-0.09690931439399719
1751619061221002000,3.898001953125,9.91286563873291,0.3236292600631714,-0.1256231814622879
1751619061239825400,3.916825439453125,9.92243766784668,0.2997010350227356,-0.11126625537872314
1751619061258648800,3.93564892578125,9.927223205566406,0.30927231907844543,-0.08733802288770676
1751619061277472300,3.95447216796875,9.927223205566406,0.30927231907844543,-0.10169496387243271
1751619061296295700,3.973295654296875,9.932008743286133,0.30927231907844543,-0.10169496387243271
1751619061315119000,3.992119140625,9.932008743286133,0.31405797600746155,-0.12083754688501358
1751619061333942800,4.01094287109375,9.927223205566406,0.30927231907844543,-0.09690931439399719
1751619061352766200,4.02976611328125,9.927223205566406,0.2997010350227356,-0.09690931439399719
1751619061371589600,4.048589599609375,9.932008743286133,0.3236292600631714,-0.09690931439399719
1751619061390413000,4.0674130859375,9.927223205566406,0.2997010350227356,-0.11605189740657806
1751619061409236500,4.086236572265625,9.903294563293457,0.30927231907844543,-0.11126625537872314
1751619061428060000,4.105059814453125,9.903294563293457,0.3044866919517517,-0.13519448041915894
1751619061446883300,4.12388330078125,9.903294563293457,0.31405797600746155,-0.10648060590028763
1751619061465707000,4.14270703125,9.917651176452637,0.3044866919517517,-0.09690931439399719
1751619061484530400,4.161530517578125,9.932008743286133,0.31405797600746155,-0.09690931439399719
1751619061503353900,4.180353759765625,9.908080101013184,0.2949153780937195,-0.10648060590028763
1751619061522177300,4.19917724609375,9.92243766784668,0.3044866919517517,-0.09212367236614227
1751619061541000700,4.218000732421875,9.932008743286133,0.30927231907844543,-0.10648060590028763
1751619061559824100,4.23682421875,9.946365356445312,0.3188436031341553,-0.11126625537872314
1751619061578647600,4.2556474609375,9.917651176452637,0.31405797600746155,-0.08255238085985184
1751619061597471200,4.27447119140625,9.932008743286133,0.3236292600631714,-0.10648060590028763
1751619061616294700,4.293294677734375,9.92243766784668,0.3044866919517517,-0.13040883839130402
1751619061635118000,4.3121181640625,9.92243766784668,0.2997010350227356,-0.11605189740657806
1751619061653941500,4.33094140625,9.917651176452637,0.31405797600746155,-0.09690931439399719
1751619061672765000,4.349764892578125,9.91286563873291,0.3044866919517517,-0.11126625537872314
1751619061691588400,4.36858837890625,9.903294563293457,0.2997010350227356,-0.11126625537872314
1751619061710411800,4.387411865234375,9.917651176452637,0.31405797600746155,-0.12083754688501358
1751619061729235200,4.406235107421875,9.92243766784668,0.3044866919517517,-0.10648060590028763
1751619061748059000,4.425058837890625,9.908080101013184,0.3044866919517517,-0.11126625537872314
1751619061766882300,4.44388232421875,9.92243766784668,0.3044866919517517,-0.12083754688501358
1751619061785705700,4.462705810546875,9.932008743286133,0.2997010350227356,-0.10169496387243271
1751619061804529200,4.481529052734375,9.932008743286133,0.31405797600746155,-0.11605189740657806
1751619061823352600,4.5003525390625,9.93679428100586,0.3236292600631714,-0.10169496387243271
1751619061842176000,4.519176025390625,9.932008743286133,0.30927231907844543,-0.10648060590028763
1751619061860999400,4.53799951171875,9.917651176452637,0.31405797600746155,-0.09212367236614227
1751619061879822800,4.55682275390625,9.91286563873291,0.30927231907844543,-0.11126625537872314
1751619061898646500,4.575646484375,9.908080101013184,0.29012975096702576,-0.12083754688501358
1751619061917470000,4.594469970703125,9.917651176452637,0.3044866919517517,-0.12083754688501358
1751619061936293400,4.61329345703125,9.88415241241455,0.3044866919517517,-0.11126625537872314
1751619061955116800,4.63211669921875,9.903294563293457,0.30927231907844543,-0.10648060590028763
1751619061973940200,4.650940185546875,9.917651176452637,0.3188436031341553,-0.11126625537872314
1751619061992763600,4.669763671875,9.932008743286133,0.3236292600631714,-0.10169496387243271
1751619062011587000,4.688587158203125,9.917651176452637,0.30927231907844543,-0.09690931439399719
1751619062030410800,4.70741064453125,9.917651176452637,0.29012975096702576,-0.0729810893535614
1751619062049234200,4.726234130859375,9.951150894165039,0.30927231907844543,-0.07776673883199692
1751619062068057600,4.7450576171875,9.932008743286133,0.2997010350227356,-0.10648060590028763
1751619062086881000,4.763881103515625,9.932008743286133,0.3044866919517517,-0.12083754688501358
1751619062105704400,4.782704345703125,9.92243766784668,0.3044866919517517,-0.11605189740657806
1751619062124527900,4.80152783203125,9.927223205566406,0.3044866919517517,-0.11605189740657806
1751619062143351300,4.820351318359375,9.908080101013184,0.2997010350227356,-0.10648060590028763
1751619062162175000,4.839175048828125,9.908080101013184,0.3236292600631714,-0.11605189740657806
1751619062180998400,4.857998291015625,9.91286563873291,0.3188436031341553,-0.10648060590028763
1751619062199821800,4.87682177734375,9.908080101013184,0.34277185797691345,-0.09212367236614227
1751619062218645200,4.895645263671875,9.927223205566406,0.3236292600631714,-0.08733802288770676
1751619062237468700,4.91446875,9.91286563873291,0.30927231907844543,-0.10169496387243271
1751619062256292000,4.9332919921875,9.93679428100586,0.3044866919517517,-0.10648060590028763
1751619062275115500,4.952115478515625,9.946365356445312,0.2805584669113159,-0.11605189740657806
1751619062293939000,4.97093896484375,9.932008743286133,0.30927231907844543,-0.1256231814622879
1751619062312762600,4.9897626953125,9.932008743286133,0.3044866919517517,-0.13040883839130402
1751619062331586000,5.0085859375,9.927223205566406,0.29012975096702576,-0.1256231814622879
1751619062350409500,5.027409423828125,9.927223205566406,0.3044866919517517,-0.09690931439399719
1751619062369233000,5.04623291015625,9.91286563873291,0.3284149169921875,-0.10169496387243271
1751619062388056300,5.065056396484375,9.917651176452637,0.3332005441188812,-0.09212367236614227
1751619062406879700,5.083879638671875,9.908080101013184,0.3236292600631714,-0.10648060590028763
1751619062425703200,5.102703125,9.903294563293457,0.2997010350227356,-0.12083754688501358
1751619062444526600,5.121526611328125,9.91286563873291,0.2997010350227356,-0.11126625537872314
1751619062463350000,5.14035009765625,9.946365356445312,0.34277185797691345,-0.04905286431312561
1751619062482173400,5.15917333984375,9.932008743286133,0.36670008301734924,-0.13998012244701385
1751619062500997000,5.1779970703125,9.955936431884766,0.2805584669113159,-0.11605189740657806
1751619062519820500,5.196820556640625,9.951150894165039,0.24227328598499298,-0.1495514214038849
1751619062538644000,5.21564404296875,9.941579818725586,0.2997010350227356,-0.19262222945690155
1751619062557467400,5.23446728515625,9.908080101013184,0.30927231907844543,-0.14476576447486877
1751619062576290800,5.253290771484375,9.89850902557373,0.3188436031341553,-0.06819544732570648
1751619062595114200,5.2721142578125,9.999007225036621,0.33798620104789734,-0.058624155819416046
1751619062613937700,5.290937744140625,9.984650611877441,0.3523431420326233,-0.07776673883199692
1751619062632761000,5.309760986328125,9.93679428100586,0.357128769159317,-0.08733802288770676
1751619062651584500,5.32858447265625,9.903294563293457,0.3284149169921875,-0.11126625537872314
1751619062670408200,5.347408203125,9.879366874694824,0.2757728099822998,-0.09690931439399719
1751619062689231600,5.366231689453125,9.91286563873291,0.29012975096702576,-0.12083754688501358
1751619062708055000,5.385054931640625,9.93679428100586,0.2949153780937195,-0.17347964644432068
1751619062726878500,5.40387841796875,9.946365356445312,0.28534409403800964,-0.14476576447486877
1751619062745702000,5.422701904296875,9.93679428100586,0.2997010350227356,-0.1256231814622879
1751619062764525300,5.441525390625,9.927223205566406,0.30927231907844543,-0.10648060590028763
1751619062783348700,5.4603486328125,9.93679428100586,0.3236292600631714,-0.0729810893535614
1751619062802172400,5.47917236328125,9.927223205566406,0.34277185797691345,-0.07776673883199692
1751619062820995800,5.497995849609375,9.91286563873291,0.3332005441188812,-0.058624155819416046
1751619062839819300,5.5168193359375,9.92243766784668,0.3284149169921875,-0.10648060590028763
1751619062858642700,5.535642578125,9.917651176452637,0.31405797600746155,-0.12083754688501358
1751619062877466000,5.554466064453125,9.91286563873291,0.29012975096702576,-0.12083754688501358
1751619062896289500,5.57328955078125,9.903294563293457,0.2805584669113159,-0.13998012244701385
1751619062915113000,5.592113037109375,9.903294563293457,0.28534409403800964,-0.12083754688501358
1751619062933936400,5.610936279296875,9.903294563293457,0.30927231907844543,-0.11126625537872314
1751619062952759800,5.629759765625,9.92243766784668,0.3332005441188812,-0.09690931439399719
1751619062971583200,5.648583251953125,9.932008743286133,0.3332005441188812,-0.058624155819416046
1751619062990406700,5.66740673828125,9.93679428100586,0.31405797600746155,-0.08255238085985184
1751619063009230300,5.686230224609375,9.932008743286133,0.3044866919517517,-0.09690931439399719
1751619063028053800,5.7050537109375,9.941579818725586,0.29012975096702576,-0.1256231814622879
1751619063046877200,5.723877197265625,9.927223205566406,0.28534409403800964,-0.13519448041915894
1751619063065700600,5.74270068359375,9.932008743286133,0.2997010350227356,-0.14476576447486877
1751619063084524000,5.76152392578125,9.927223205566406,0.2805584669113159,-0.13519448041915894
1751619063103347500,5.780347412109375,9.91286563873291,0.3044866919517517,-0.12083754688501358
1751619063122171000,5.7991708984375,9.903294563293457,0.3044866919517517,-0.08733802288770676
1751619063140994300,5.817994384765625,9.81236743927002,0.33798620104789734,-0.05383851006627083
1751619063159817700,5.836817626953125,9.879366874694824,0.3523431420326233,-0.11126625537872314
1751619063178641400,5.855641357421875,9.975079536437988,0.3332005441188812,-0.11605189740657806
1751619063197464800,5.87446484375,9.955936431884766,0.3188436031341553,-0.11605189740657806
1751619063216288300,5.893288330078125,9.92243766784668,0.30927231907844543,-0.13040883839130402
1751619063235111700,5.912111572265625,9.91286563873291,0.2949153780937195,-0.13998012244701385
1751619063253935000,5.93093505859375,9.893723487854004,0.29012975096702576,-0.11605189740657806
1751619063272758500,5.949758544921875,9.92243766784668,0.30927231907844543,-0.11126625537872314
1751619063291582000,5.96858203125,9.951150894165039,0.3236292600631714,-0.12083754688501358
1751619063310405400,5.9874052734375,9.946365356445312,0.3236292600631714,-0.10648060590028763
1751619063329228800,6.006228759765625,9.92243766784668,0.3236292600631714,-0.08255238085985184
1751619063348052200,6.02505224609375,9.908080101013184,0.31405797600746155,-0.08733802288770676
1751619063366876000,6.0438759765625,9.91286563873291,0.3236292600631714,-0.06340979784727097
1751619063385699300,6.06269921875,9.888937950134277,0.2805584669113159,-0.005982056725770235
1751619063404522800,6.081522705078125,10.080363273620605,0.26141586899757385,-0.32662028074264526
1751619063423346200,6.10034619140625,9.89850902557373,0.2997010350227356,-0.19262222945690155
1751619063442169600,6.119169677734375,9.946365356445312,0.4815555512905121,-0.32183465361595154
1751619063460993000,6.137992919921875,9.917651176452637,1.5487544536590576,-1.4273186922073364
1751619063479816400,6.15681640625,9.92243766784668,1.342971682548523,-2.3461625576019287
1751619063498640000,6.175639892578125,9.946365356445312,0.42412781715393066,-1.2550355195999146
1751619063517463300,6.19446337890625,9.836296081542969,-0.494716078042984,0.7070791125297546
1751619063536286700,6.21328662109375,9.88415241241455,-0.8201399445533752,1.8077775239944458
1751619063555110100,6.232110107421875,9.89850902557373,-1.0067801475524902,2.2911276817321777
1751619063573933800,6.250933837890625,9.92243766784668,0.41934216022491455,-0.2883351147174835
1751619063592757200,6.26975732421875,9.903294563293457,-0.08793623000383377,0.6831508874893188
1751619063611580700,6.28858056640625,9.89850902557373,-0.28893333673477173,1.0564311742782593
1751619063630404000,6.307404052734375,9.88415241241455,-0.16929219663143158,1.4536397457122803
1751619063649227500,6.3262275390625,9.941579818725586,-0.7100701332092285,1.8891334533691406
1751619063668051000,6.345051025390625,9.927223205566406,-0.600000262260437,1.7934205532073975
1751619063686874400,6.363874267578125,9.908080101013184,0.12263216078281403,1.6546368598937988
1751619063705697800,6.38269775390625,9.941579818725586,0.5006981492042542,0.0849452018737793
1751619063724521200,6.401521240234375,9.903294563293457,0.9122636318206787,-1.9250258207321167
1751619063743345000,6.420344970703125,10.013364791870117,1.280758261680603,-3.724428415298462
1751619063762168300,6.439168212890625,9.955936431884766,0.735194742679596,-3.600001573562622
1751619063780991700,6.45799169921875,9.807581901550293,0.7112665176391602,-1.3603196144104004
1751619063799815200,6.476815185546875,9.994221687316895,2.1756739616394043,-1.934597134590149
1751619063818638600,6.495638671875,9.917651176452637,1.3716856241226196,-2.3844478130340576
1751619063837462000,6.5144619140625,9.92243766784668,-0.19322042167186737,-1.475175142288208
1751619063856285400,6.533285400390625,9.951150894165039,-1.2652050256729126,-0.17347964644432068
1751619063875108900,6.55210888671875,9.93679428100586,-1.0785647630691528,0.15194423496723175
1751619063893932300,6.570932373046875,9.92243766784668,-0.19800607860088348,0.5730810165405273
1751619063912755700,6.589755615234375,9.927223205566406,-0.3032902777194977,0.9750752449035645
1751619063931579100,6.6085791015625,9.932008743286133,-0.3607180118560791,1.1569297313690186
1751619063950402800,6.62740283203125,9.92243766784668,-0.18364913761615753,1.113858938217163
1751619063969226200,6.646226318359375,9.92243766784668,0.45284169912338257,0.49172505736351013
1751619063988049700,6.665049560546875,9.93679428100586,-0.04486542567610741,0.18065811693668365
1751619064006873000,6.683873046875,9.879366874694824,-1.1455638408660889,2.0853450298309326
1751619064025696500,6.702696533203125,9.951150894165039,-1.0163514614105225,1.9417755603790283
1751619064044520000,6.72152001953125,9.78843879699707,-1.4662020206451416,2.630908489227295
1751619064063343400,6.74034326171875,9.81236743927002,-0.6574280261993408,1.8939191102981567
1751619064082166800,6.759166748046875,9.908080101013184,-0.25064817070961,-0.1782652884721756
1751619064100990200,6.777990234375,10.00857925415039,0.7782655358314514,-2.4562325477600098
1751619064119813600,6.796813720703125,9.932008743286133,1.567897081375122,-3.5569307804107666
1751619064138637000,6.815636962890625,9.955936431884766,2.8456642627716064,-4.001996040344238
1751619064157460700,6.834460693359375,9.860223770141602,2.3096721172332764,-1.805384635925293
1751619064176284200,6.8532841796875,9.93679428100586,4.90827751159668,-6.67717170715332
1751619064195107600,6.872107666015625,10.415358543395996,2.7595226764678955,-6.882954120635986
1751619064213931000,6.890930908203125,10.118648529052734,-1.6289139986038208,-3.4085757732391357
1751619064232754400,6.90975439453125,10.420144081115723,-3.67238450050354,0.05623133108019829
1751619064251577900,6.928577880859375,9.381659507751465,-2.9353952407836914,2.2097716331481934
1751619064270401300,6.9474013671875,10.42492961883545,-2.222334146499634,3.1716864109039307
1751619064289224700,6.966224609375,9.802796363830566,-3.1268210411071777,5.770291805267334
1751619064308048100,6.985048095703125,9.697511672973633,-1.2891331911087036,3.434896945953369
1751619064326871600,7.00387158203125,9.850652694702148,-0.3655036687850952,0.2763710021972656
1751619064345695000,7.022695068359375,9.91286563873291,-0.32243284583091736,0.23808585107326508
1751619064364518400,7.041518310546875,9.932008743286133,-0.9158528447151184,1.3052847385406494
1751619064383341800,7.060341796875,9.979865074157715,-0.7483552694320679,1.6785650253295898
1751619064402165500,7.07916552734375,10.113862991333008,-1.1982059478759766,1.7599210739135742
1751619064420989000,7.097989013671875,9.989436149597168,-1.4470595121383667,1.7024933099746704
1751619064439812400,7.116812255859375,10.018150329589844,-1.2795618772506714,0.7310073375701904
1751619064458635800,7.1356357421875,10.0612211227417,-0.6095715761184692,0.6065805554389954
1751619064477459200,7.154459228515625,9.955936431884766,0.615553617477417,-0.7238288521766663
1751619064496282600,7.17328271484375,9.908080101013184,1.8693926334381104,-3.308077335357666
1751619064515106000,7.19210595703125,9.994221687316895,3.218944549560547,-5.231906890869141
1751619064533929500,7.210929443359375,10.00857925415039,2.242672920227051,-4.686343193054199
1751619064552753000,7.2297529296875,9.831509590148926,1.347757339477539,-0.7573283910751343
1751619064571576300,7.248576416015625,9.917651176452637,2.4436700344085693,-3.298506021499634
1751619064590399700,7.267399658203125,10.056435585021973,2.4053850173950195,-5.767899036407471
1751619064609223200,7.28622314453125,9.908080101013184,1.2999008893966675,-5.590830326080322
1751619064628046800,7.305046875,10.305289268493652,-1.8634105920791626,-3.1166515350341797
1751619064646870300,7.323870361328125,9.89850902557373,-2.729612350463867,0.6879364848136902
1751619064665693700,7.342693603515625,9.979865074157715,-2.4424736499786377,3.731606960296631
1751619064684517000,7.36151708984375,9.927223205566406,-2.341975212097168,5.023731231689453
1751619064703340500,7.380340576171875,9.903294563293457,-2.270190477371216,5.6793646812438965
1751619064722164000,7.3991640625,9.951150894165039,0.05563312768936157,0.3242274820804596
1751619064740987400,7.4179873046875,9.946365356445312,-0.7722834944725037,1.1330015659332275
1751619064759810800,7.436810791015625,9.93679428100586,-1.308275818824768,2.310270309448242
1751619064778634200,7.45563427734375,9.92243766784668,-1.85383939743042,4.487739086151123
1751619064797457700,7.474457763671875,10.00857925415039,-2.729612350463867,5.923432350158691
1751619064816281000,7.493281005859375,9.975079536437988,-2.8013970851898193,4.607379913330078
1751619064835104800,7.512104736328125,9.8267240524292,-0.8536394834518433,-0.6951149702072144
1751619064853928200,7.53092822265625,9.759725570678711,1.7497515678405762,-8.73499870300293
1751619064872751600,7.549751708984375,10.4823579788208,3.1663026809692383,-12.132806777954102
1751619064891575000,7.568574951171875,9.979865074157715,1.6923238039016724,-4.36091947555542
1751619064910398500,7.5873984375,9.927223205566406,3.8602211475372314,-3.9014973640441895
1751619064929222000,7.606221923828125,9.941579818725586,2.706880569458008,-4.246063709259033
1751619064948045300,7.62504541015625,9.951150894165039,0.5772684812545776,-3.748356580734253
1751619064966868700,7.64386865234375,10.52064323425293,-1.7772690057754517,-1.6857435703277588
1751619064985692200,7.662692138671875,10.243075370788574,-3.19860577583313,0.8171489238739014
1751619065004515600,7.681515625,10.066006660461426,-3.835096597671509,3.2817561626434326
1751619065023339000,7.700339111328125,9.975079536437988,-4.313661098480225,5.167300701141357
1751619065042162400,7.719162353515625,9.927223205566406,-1.6767704486846924,4.435096740722656
1751619065060985900,7.73798583984375,9.92243766784668,-1.1407781839370728,2.1858434677124023
1751619065079809300,7.756809326171875,9.960722923278809,-1.5236297845840454,3.008974552154541
1751619065098632700,7.7756328125,10.04686450958252,-1.8873388767242432,4.167100429534912
1751619065117456100,7.7944560546875,10.051650047302246,-2.0309081077575684,3.9948174953460693
1751619065136279800,7.81327978515625,10.094720840454102,-2.3515465259552,2.142772674560547
1751619065155103200,7.832103271484375,9.750154495239258,-2.6673989295959473,-1.0109676122665405
1751619065173926700,7.8509267578125,10.243075370788574,-1.4470595121383667,-3.394218921661377
1751619065192750000,7.86975,9.879366874694824,1.0941181182861328,-6.366104602813721
1751619065211573500,7.888573486328125,10.018150329589844,5.401198863983154,-10.185050010681152
1751619065230397000,7.90739697265625,9.955936431884766,4.645066738128662,-7.806583881378174
1751619065249220400,7.926220458984375,10.109077453613281,3.257229804992676,-7.093522548675537
1751619065268043800,7.945043701171875,10.00857925415039,0.49591249227523804,-4.691128730773926
1751619065286867200,7.9638671875,9.841081619262695,-1.4709876775741577,-2.0446670055389404
1751619065305690600,7.982690673828125,9.91286563873291,-2.3850460052490234,0.2907279431819916
1751619065324514000,8.00151416015625,9.965508460998535,-3.9260237216949463,3.631108283996582
1751619065343337500,8.02033740234375,9.970293998718262,-4.308875560760498,5.392225742340088
1751619065362161200,8.0391611328125,9.951150894165039,-2.8253252506256104,4.7796630859375
1751619065380984600,8.057984619140624,9.88415241241455,0.8309076428413391,2.228914260864258
1751619065399808000,8.07680810546875,9.932008743286133,-0.049651071429252625,0.4773681163787842
1751619065418631400,8.09563134765625,9.941579818725586,-1.6480566263198853,2.3772692680358887
1751619065437454800,8.114454833984375,9.979865074157715,-3.2129626274108887,4.6408796310424805
1751619065456278300,8.1332783203125,10.018150329589844,-2.7248268127441406,5.392225742340088
1751619065475101700,8.152101806640625,9.960722923278809,-1.9926230907440186,4.186243057250977
1751619065493925000,8.170925048828124,9.477372169494629,-1.0689935684204102,-0.8195417523384094
1751619065512748500,8.18974853515625,9.79801082611084,-0.2602194547653198,-5.480760097503662
1751619065531572000,8.208572021484375,9.984650611877441,0.9026923179626465,-8.423932075500488
1751619065550395400,8.2273955078125,9.869794845581055,5.104488849639893,-10.371689796447754
1751619065569218800,8.24621875,9.821938514709473,4.779065132141113,-7.46201753616333
1751619065588042200,8.265042236328124,10.032506942749023,4.400999069213867,-8.624929428100586
1751619065606865700,8.28386572265625,9.975079536437988,1.2376874685287476,-5.045266628265381
1751619065625689000,8.302689208984376,10.185647964477539,-1.8059829473495483,-1.23589289188385
1751619065644512500,8.321512451171875,10.013364791870117,-3.7633118629455566,1.482353687286377
1751619065663336000,8.3403359375,10.070792198181152,-4.016951084136963,3.693321704864502
1751619065682159400,8.359159423828125,10.305289268493652,-4.552943229675293,5.44008207321167
1751619065700983000,8.377983154296874,9.960722923278809,-4.466801643371582,6.401997089385986
1751619065719806500,8.396806396484376,9.932008743286133,-2.6626133918762207,2.338984251022339
1751619065738630000,8.4156298828125,9.975079536437988,-3.356531858444214,3.5401811599731445
1751619065757453300,8.434453369140625,9.740582466125488,-3.222533941268921,4.511667251586914
1751619065776276700,8.45327685546875,10.223933219909668,-2.4568307399749756,3.511467218399048
1751619065795100200,8.47210009765625,9.759725570678711,-2.0548365116119385,1.9657038450241089
1751619065813923600,8.490923583984374,9.592227935791016,-1.8586249351501465,-0.4701896607875824
1751619065832747000,8.5097470703125,10.334002494812012,-0.37028929591178894,-3.8536407947540283
1751619065851570400,8.5285703125,9.946365356445312,1.280758261680603,-6.0502519607543945
1751619065870393900,8.547393798828125,9.946365356445312,4.386641979217529,-8.70628547668457
1751619065889217300,8.56621728515625,10.03729248046875,4.400999069213867,-6.978667259216309
1751619065908040700,8.585040771484374,10.099506378173828,2.730808734893799,-5.08355188369751
1751619065926864100,8.603864013671876,10.018150329589844,1.9124635457992554,-4.193421840667725
1751619065945687600,8.6226875,9.951150894165039,1.7306089401245117,-3.6287155151367188
1751619065964511000,8.641510986328125,9.821938514709473,0.7878368496894836,-2.3509483337402344
1751619065983334700,8.660334716796875,9.93679428100586,-1.2077772617340088,0.2955136001110077
1751619066002158000,8.679157958984375,9.735796928405762,-3.7537405490875244,3.128615617752075
1751619066020981500,8.6979814453125,9.821938514709473,-3.4474592208862305,3.2004003524780273
1751619066039805000,8.716804931640626,10.185647964477539,-1.5858432054519653,1.3674981594085693
1751619066058628400,8.73562841796875,9.927223205566406,-0.5952146053314209,0.8937192559242249
1751619066077451800,8.75445166015625,9.93679428100586,-1.0115658044815063,1.042074203491211
1751619066096275200,8.773275146484375,9.960722923278809,-1.1120643615722656,2.2480568885803223
1751619066115098600,8.7920986328125,9.92243766784668,0.3523431420326233,0.836291491985321
1751619066133922000,8.810922119140624,9.93679428100586,0.2997010350227356,0.008374879136681557
1751619066152745500,8.829745361328126,9.960722923278809,-1.7389838695526123,2.8414769172668457
1751619066171569000,8.84856884765625,9.92243766784668,-1.4422738552093506,4.7605204582214355
1751619066190392300,8.867392333984375,9.879366874694824,-1.2077772617340088,4.104887008666992
1751619066209215700,8.8862158203125,10.042078018188477,-1.882553219795227,1.9896320104599
1751619066228039200,8.9050390625,9.951150894165039,-0.4995017349720001,-1.0683952569961548
1751619066246862600,8.923862548828126,9.88415241241455,1.9794625043869019,-5.4951171875
1751619066265686000,8.94268603515625,9.89850902557373,2.8695926666259766,-7.342376232147217
1751619066284509400,8.961509521484375,9.903294563293457,0.20398813486099243,-1.4799607992172241
1751619066303332900,8.980332763671875,9.932008743286133,0.5198407173156738,-0.19740787148475647
1751619066322156300,8.99915625,9.932008743286133,2.9174489974975586,-3.183650493621826
1751619066340980000,9.01797998046875,9.932008743286133,3.582653760910034,-6.102894306182861
1751619066359803400,9.036803466796876,10.027721405029297,1.9411773681640625,-5.825326919555664
1751619066378626800,9.055626708984375,10.104291915893555,-0.6622136831283569,-4.193421840667725
1751619066397450200,9.0744501953125,10.04686450958252,-1.609771490097046,-2.475374937057495
1751619066416273700,9.093273681640625,9.994221687316895,-3.160320520401001,-0.21176479756832123
1751619066435097000,9.11209716796875,9.91286563873291,-4.251447677612305,2.764906644821167
1751619066453920500,9.13092041015625,9.81236743927002,-4.519443988800049,6.564708709716797
1751619066472744000,9.149743896484376,9.845867156982422,-3.5910286903381348,8.522037506103516
1751619066491567400,9.1685673828125,9.984650611877441,-2.1026928424835205,5.483152866363525
1751619066510390800,9.187390869140625,9.999007225036621,-1.815554141998291,4.82751989364624
1751619066529214200,9.206214111328125,9.879366874694824,-2.179263114929199,3.4205398559570312
1751619066548037600,9.22503759765625,9.965508460998535,-2.806182861328125,2.181057929992676
1751619066566861000,9.243861083984376,9.860223770141602,-3.8638103008270264,1.1808580160140991
1751619066585684500,9.2626845703125,9.91286563873291,-4.337589263916016,-0.6472585201263428
1751619066604508000,9.2815078125,10.113862991333008,-3.0693931579589844,-3.064009428024292
1751619066623331300,9.300331298828125,10.003793716430664,-0.6813562512397766,-5.107480049133301
1751619066642154800,9.31915478515625,10.200004577636719,2.1948165893554688,-6.902096748352051
1751619066670390000,9.34739013671875,9.932008743286133,5.362913608551025,-8.476573944091797
1751619066689213400,9.36621337890625,10.051650047302246,4.0803608894348145,-6.849454879760742
1751619066708036900,9.385036865234374,10.051650047302246,4.420141696929932,-10.137192726135254
1751619066726860300,9.4038603515625,9.93679428100586,1.7353945970535278,-8.467002868652344
1751619066745683700,9.42268359375,9.845867156982422,-1.944766640663147,-2.1882362365722656
1751619066764507100,9.441507080078125,10.099506378173828,-4.9022955894470215,2.142772674560547
1751619066783330600,9.46033056640625,10.085148811340332,-5.7062835693359375,5.636293888092041
1751619066802154000,9.479154052734375,10.075577735900879,-5.356931686401367,7.607979774475098
1751619066820977400,9.497977294921874,9.855438232421875,-3.7489547729492188,7.4261250495910645
1751619066839800800,9.51680078125,9.93679428100586,-1.6719847917556763,2.200200319290161
1751619066858624300,9.535624267578125,9.932008743286133,-2.083550214767456,3.0233314037323
1751619066877447700,9.55444775390625,9.855438232421875,-3.9355950355529785,4.8227338790893555
1751619066896271000,9.57327099609375,10.13300609588623,-4.9022955894470215,5.923432350158691
1751619066915094500,9.592094482421874,9.960722923278809,-5.175076961517334,5.004588603973389
1751619066933918000,9.61091796875,9.951150894165039,-3.4474592208862305,0.6065805554389954
1751619066952741600,9.62974169921875,10.094720840454102,-0.2315055876970291,-7.643871784210205
1751619066971565000,9.64856494140625,10.070792198181152,4.496711730957031,-13.544572830200195
1751619066990388500,9.667388427734375,10.142577171325684,5.673980712890625,-14.525629997253418
1751619067009212000,9.6862119140625,9.759725570678711,4.334000110626221,-9.347561836242676
1751619067028035300,9.705035400390624,10.128219604492188,3.022733211517334,-9.476774215698242
1751619067046858800,9.723858642578126,10.013364791870117,0.6346961855888367,-6.189035892486572
1751619067065682200,9.74268212890625,10.00857925415039,-1.8969101905822754,-0.7286145091056824
1751619067084505600,9.761505615234375,9.941579818725586,-4.150949001312256,2.0279171466827393
1751619067103329000,9.7803291015625,10.195219039916992,-4.4859442710876465,3.8321053981781006
1751619067122152400,9.79915234375,9.927223205566406,-4.6199421882629395,4.588237285614014
1751619067140975900,9.817975830078124,10.003793716430664,-4.6199421882629395,4.999803066253662
1751619067159799300,9.83679931640625,9.869794845581055,-2.9114668369293213,5.44008207321167
1751619067178622700,9.855622802734375,9.946365356445312,-1.906481385231018,2.8414769172668457
1751619067197446100,9.874446044921875,9.91286563873291,-2.0691933631896973,4.133601188659668
1751619067216269600,9.89326953125,9.994221687316895,-2.2893331050872803,3.970889091491699
1751619067235093000,9.912093017578124,10.16171932220459,-2.2366909980773926,2.6021945476531982
1751619067253916400,9.93091650390625,9.888937950134277,-2.2031915187835693,1.5876377820968628
1751619067272739800,9.94973974609375,9.64965534210205,0.735194742679596,-1.628315806388855
1751619067291563300,9.968563232421875,9.88415241241455,3.37687087059021,-7.021738052368164
1751619067310386700,9.98738671875,10.04686450958252,4.826921463012695,-11.9461669921875
1751619067329210000,10.006210205078125,9.927223205566406,2.9030921459198,-7.706085205078125
1751619067348033500,10.025033447265624,9.917651176452637,2.582453727722168,-8.299505233764648
1751619067366857200,10.043857177734376,9.860223770141602,0.1944168359041214,-5.442475318908691
1751619067385680600,10.0626806640625,10.099506378173828,-1.0450652837753296,-2.197807550430298
1751619067404504000,10.081504150390625,9.81236743927002,-2.3994028568267822,1.5876377820968628
1751619067423327500,10.100327392578125,9.989436149597168,-4.289732933044434,4.7126641273498535
1751619067442151000,10.11915087890625,9.951150894165039,-5.227719306945801,6.440282344818115
1751619067460974300,10.137974365234374,9.989436149597168,-4.194019794464111,6.751348972320557
1751619067479797800,10.1567978515625,9.946365356445312,-2.231905221939087,3.793820381164551
1751619067498621200,10.17562109375,10.089935302734375,-2.5286152362823486,4.320241451263428
1751619067517444600,10.194444580078125,9.965508460998535,-2.820539712905884,4.277170658111572
1751619067536268000,10.21326806640625,10.03729248046875,-2.696112871170044,3.372683525085449
1751619067555091500,10.232091552734374,10.223933219909668,-2.490330219268799,1.7886348962783813
1751619067573915000,10.250914794921876,10.113862991333008,-1.241276741027832,-1.389033555984497
1751619067592738300,10.26973828125,9.845867156982422,0.8787640929222107,-6.4905314445495605
1751619067611561700,10.288561767578125,9.91286563873291,3.989433526992798,-12.128021240234375
1751619067630385200,10.30738525390625,9.951150894165039,5.1427741050720215,-10.591829299926758
1751619067649208600,10.32620849609375,9.932008743286133,3.716651678085327,-7.959724426269531
1751619067668032000,10.345031982421874,9.979865074157715,1.3668999671936035,-5.361119270324707
1751619067686855400,10.36385546875,9.975079536437988,-0.001794616924598813,-2.8582265377044678
1751619067705678800,10.382678955078125,10.195219039916992,-1.212562918663025,-0.7334001660346985
1751619067724502300,10.401502197265625,10.233504295349121,-2.9114668369293213,2.348555326461792
1751619067743325700,10.42032568359375,9.932008743286133,-4.136591911315918,3.7698919773101807
1751619067762149000,10.439149169921874,10.075577735900879,-4.3280181884765625,4.339384078979492
1751619067780972500,10.45797265625,9.941579818725586,-3.122035264968872,3.9948174953460693
1751619067799796000,10.4767958984375,9.89850902557373,-0.19800607860088348,1.7790635824203491
1751619067818619400,10.495619384765625,9.92243766784668,-0.4420739710330963,1.3627125024795532
1751619067837442800,10.51444287109375,9.903294563293457,-2.4568307399749756,4.191029071807861
1751619067856266200,10.533266357421875,10.00857925415039,-2.988037347793579,5.880361557006836
1751619067875089700,10.552089599609374,9.960722923278809,-2.8396823406219482,4.913661479949951
1751619067893913000,10.5709130859375,9.975079536437988,-2.1122641563415527,1.9226330518722534
1751619067912736500,10.589736572265625,9.630513191223145,-1.3800604343414307,-1.1066805124282837
1751619067931560000,10.608559814453125,10.219147682189941,-1.0498509407043457,-4.155136585235596
1751619067950383600,10.627383544921875,10.066006660461426,0.7447660565376282,-7.787441253662109
1751619067969206800,10.646206787109374,9.994221687316895,5.6931233406066895,-13.71207046508789
1751619067988030200,10.6650302734375,9.965508460998535,4.649852752685547,-9.400203704833984
1751619068006853600,10.683853515625,9.960722923278809,3.9320058822631836,-9.280562400817871
1751619068025677300,10.70267724609375,10.051650047302246,1.3046865463256836,-5.854040622711182
1751619068044500700,10.721500732421875,10.00857925415039,-1.4039887189865112,-2.671586513519287
1751619068063324200,10.74032421875,10.032506942749023,-4.241876125335693,0.8267202377319336
1751619068082147600,10.759147705078124,10.056435585021973,-6.304489612579346,4.636094093322754
1751619068100971000,10.777970947265626,9.817152976989746,-6.883552551269531,7.100701332092285
1751619068119794400,10.79679443359375,9.970293998718262,-4.572085857391357,7.05763053894043
1751619068138617900,10.815617919921875,9.908080101013184,0.26620152592658997,0.8123632669448853
1751619068157441300,10.834441162109375,9.917651176452637,-0.29371899366378784,0.5587241053581238
1751619068176264700,10.8532646484375,9.92243766784668,-1.5619150400161743,3.5497524738311768
1751619068195088100,10.872088134765624,9.869794845581055,-3.160320520401001,6.449853420257568
1751619068213911600,10.89091162109375,10.02293586730957,-3.892524242401123,6.3014984130859375
1751619068232735000,10.90973486328125,10.003793716430664,-3.9834516048431396,3.655036687850952
1751619068251558400,10.928558349609375,9.932008743286133,-3.5910286903381348,0.4534398913383484
1751619068270381800,10.9473818359375,9.54915714263916,-3.0837502479553223,-3.7435710430145264
1751619068289205200,10.966205322265624,10.27178955078125,0.1704886108636856,-9.840482711791992
1751619068308028700,10.985028564453126,9.946365356445312,6.305685997009277,-15.927824020385742
1751619068326852000,11.00385205078125,9.917651176452637,6.056832313537598,-12.975080490112305
1751619068345675500,11.022675537109375,9.975079536437988,4.219144344329834,-11.673385620117188
1751619068364499000,11.0414990234375,9.908080101013184,0.47198426723480225,-6.318248271942139
1751619068383322400,11.060322265625,9.999007225036621,-3.404388427734375,-1.7718851566314697
1751619068402145800,11.079145751953124,10.142577171325684,-6.543771743774414,3.315255880355835
1751619068420969200,11.09796923828125,9.817152976989746,-8.175676345825195,8.053044319152832
1751619068439792600,11.116792724609375,9.989436149597168,-6.060421466827393,9.622735977172852
1751619068458616000,11.135615966796875,9.91286563873291,-3.710669755935669,6.555137634277344
1751619068477439500,11.154439453125,9.865009307861328,-3.0693931579589844,5.358726501464844
1751619068496263000,11.173262939453124,9.946365356445312,-3.0167510509490967,3.951746702194214
1751619068515086300,11.19208642578125,10.223933219909668,-3.4331023693084717,2.884547710418701
1751619068533909800,11.21090966796875,10.14736270904541,-4.079164505004883,2.190629243850708
1751619068552733200,11.229733154296875,9.927223205566406,-3.2368907928466797,-0.6041877269744873
1751619068571556600,11.248556640625,10.104291915893555,-0.5904290080070496,-4.901697158813477
1751619068590380000,11.267380126953125,9.879366874694824,3.7262229919433594,-10.003194808959961
1751619068609203500,11.286203369140624,10.185647964477539,7.942376613616943,-15.181262969970703
1751619068628027000,11.30502685546875,9.836296081542969,5.090131759643555,-9.251849174499512
1751619068646850300,11.323850341796875,9.865009307861328,2.812164783477783,-8.151150703430176
1751619068665673700,11.342673828125,9.965508460998535,0.5246263742446899,-5.1218366622924805
1751619068684497200,11.3614970703125,9.932008743286133,-0.719641387462616,-2.0781664848327637
1751619068703320600,11.380320556640624,10.032506942749023,-2.1744775772094727,0.5730810165405273
1751619068722144000,11.39914404296875,9.893723487854004,-5.041079044342041,3.372683525085449
1751619068740967400,11.417967529296876,9.970293998718262,-7.012764930725098,5.937789440155029
1751619068759790800,11.436790771484375,9.965508460998535,-5.935994625091553,7.1820573806762695
1751619068778614300,11.4556142578125,9.92243766784668,-1.6241283416748047,2.094916343688965
1751619068797437700,11.474437744140625,9.970293998718262,-1.9639091491699219,1.415354609489441
1751619068816261400,11.493261474609374,9.984650611877441,-2.6195425987243652,3.071187973022461
1751619068835084500,11.51208447265625,9.893723487854004,-2.6147570610046387,4.028316974639893
1751619068853908000,11.530907958984375,10.066006660461426,-2.830111026763916,4.277170658111572
1751619068872731400,11.5497314453125,9.984650611877441,-3.1794631481170654,3.6502509117126465
1751619068891555000,11.56855517578125,9.951150894165039,-2.973680257797241,1.3866406679153442
1751619068910378500,11.58737841796875,10.223933219909668,-2.341975212097168,-1.9728822708129883
1751619068929202000,11.606201904296874,10.0612211227417,0.5533402562141418,-6.457031726837158
1751619068948025300,11.625025390625,9.941579818725586,4.501497745513916,-12.745369911193848
1751619068966848800,11.643848876953125,9.955936431884766,5.539982795715332,-12.965509414672852
1751619068985672200,11.662672119140625,9.91286563873291,4.0181474685668945,-11.352746963500977
1751619069004495600,11.68149560546875,9.955936431884766,1.9938194751739502,-8.199007034301758
1751619069023319000,11.700319091796874,9.903294563293457,-0.19800607860088348,-4.107280254364014
1751619069042142500,11.719142578125,10.089935302734375,-2.892324447631836,-0.3314059376716614
1751619069060966000,11.7379658203125,10.027721405029297,-5.294718265533447,2.827120065689087
1751619069079789300,11.756789306640625,10.0612211227417,-5.782854080200195,5.100301265716553
1751619069098612700,11.77561279296875,10.003793716430664,-5.763711452484131,6.7417778968811035
1751619069117436200,11.794436279296875,9.946365356445312,-4.280161380767822,7.186842918395996
1751619069136259600,11.813259521484374,10.042078018188477,-2.9306094646453857,3.324826955795288
1751619069155083000,11.8320830078125,9.955936431884766,-2.820539712905884,3.631108283996582
1751619069173906400,11.850906494140625,10.094720840454102,-2.6769702434539795,3.9278182983398438
1751619069192729900,11.869729736328125,9.984650611877441,-3.2656047344207764,3.4923245906829834
1751619069211553300,11.88855322265625,9.893723487854004,-3.7489547729492188,2.779263496398926
1751619069230376700,11.907376708984375,9.855438232421875,-0.8249256014823914,-0.4414757788181305
1751619069249200000,11.9262001953125,10.214361190795898,3.927220106124878,-8.13679313659668
1751619069268023600,11.9450234375,9.908080101013184,7.492526054382324,-14.812768936157227
1751619069286847000,11.963846923828125,9.93679428100586,4.496711730957031,-10.577472686767578
1751619069305670400,11.98267041015625,10.02293586730957,3.252444267272949,-8.6967134475708
1751619069324493800,12.001493896484375,9.764511108398438,0.42412781715393066,-4.786841869354248
1751619069343317200,12.020317138671874,9.960722923278809,-1.2843475341796875,-1.4608181715011597
1751619069362140700,12.039140625,10.00857925415039,-2.0691933631896973,0.592223584651947
1751619069380964000,12.057964111328126,9.999007225036621,-2.854039192199707,1.8317056894302368
1751619069399787500,12.07678759765625,10.013364791870117,-4.710869789123535,3.190829038619995
1751619069418611000,12.09561083984375,9.999007225036621,-5.720640659332275,5.186442852020264
1751619069437434400,12.114434326171875,9.951150894165039,-4.514657974243164,5.995217323303223
1751619069456257800,12.1332578125,9.951150894165039,-2.437688112258911,2.3916261196136475
1751619069475081200,12.152081298828126,9.908080101013184,-2.5812573432922363,4.18145751953125
1751619069493904600,12.170904541015625,9.836296081542969,-2.5190439224243164,5.373083114624023
1751619069512728000,12.18972802734375,10.018150329589844,-3.1555347442626953,4.339384078979492
1751619069531551500,12.208551513671875,9.951150894165039,-3.8638103008270264,2.3054845333099365
1751619069550375000,12.227375,9.831509590148926,-2.5429723262786865,-0.16869398951530457
1751619069569198300,12.2461982421875,9.78843879699707,1.9555343389511108,-5.911468505859375
1751619069588021800,12.265021728515626,9.783653259277344,6.693323135375977,-11.730813026428223
1751619069606845200,12.28384521484375,10.123434066772461,5.248058319091797,-12.257233619689941
1751619069625668600,12.302668701171875,10.042078018188477,3.43908429145813,-8.127222061157227
1751619069644492000,12.321491943359375,9.807581901550293,3.5443685054779053,-6.67717170715332
1751619069663315500,12.3403154296875,9.927223205566406,2.936591625213623,-5.643472194671631
1751619069682139000,12.359138916015626,9.817152976989746,-1.6671991348266602,-2.915654420852661
1751619069700962300,12.37796240234375,9.79801082611084,-7.467401027679443,2.094916343688965
1751619069719785700,12.39678564453125,9.91286563873291,-8.26660442352295,6.770491600036621
1751619069738609200,12.415609130859375,10.027721405029297,-6.1226348876953125,7.076773166656494
1751619069757432600,12.4344326171875,9.941579818725586,-1.6959130764007568,1.4344971179962158
1751619069776256000,12.453256103515624,9.960722923278809,-1.968694806098938,0.7549355626106262
1751619069795079400,12.472079345703126,9.903294563293457,-1.6480566263198853,1.3387842178344727
1751619069813902800,12.49090283203125,9.960722923278809,-1.7629120349884033,2.913261651992798
1751619069832726300,12.509726318359375,10.013364791870117,-2.6386852264404297,3.827319860458374
1751619069851549700,12.5285498046875,9.879366874694824,-2.207977056503296,3.1334011554718018
1751619069870373000,12.547373046875,10.056435585021973,-0.6574280261993408,0.5539384484291077
1751619069889196500,12.566196533203126,9.745368003845215,0.0029910283628851175,-2.9970104694366455
1751619069908020000,12.58502001953125,10.13300609588623,0.0077766734175384045,-4.719842433929443
1751619069926843400,12.603843505859375,9.93679428100586,2.9557342529296875,-6.1603217124938965
1751619069945666800,12.622666748046875,10.003793716430664,7.34895658493042,-8.864211082458496
1751619069964490200,12.641490234375,9.89850902557373,6.214758396148682,-7.552944660186768
1751619069983313700,12.660313720703124,10.003793716430664,4.223930358886719,-7.911868095397949
1751619070002137000,12.67913720703125,9.716654777526855,1.7784653902053833,-5.073980331420898
1751619070020960500,12.69796044921875,10.367502212524414,-2.222334146499634,-2.2791635990142822
1751619070039784000,12.716783935546875,9.860223770141602,-5.151148796081543,0.9080761671066284
1751619070058607400,12.735607421875,9.376873970031738,-7.309474945068359,4.951946258544922
1751619070077430800,12.7544306640625,10.678568840026855,-5.907280921936035,5.765506267547607
1751619070096254200,12.773254150390626,9.874580383300781,-3.466601848602295,4.937589645385742
1751619070115077600,12.79207763671875,9.917651176452637,-1.7916259765625,1.8269200325012207
1751619070133901000,12.810901123046875,9.960722923278809,-2.586043119430542,2.2480568885803223
1751619070152724500,12.829724365234375,9.955936431884766,-1.6576279401779175,3.597608804702759
1751619070171548000,12.8485478515625,9.908080101013184,-1.4279168844223022,3.9182469844818115
1751619070190371300,12.867371337890624,9.951150894165039,-1.2652050256729126,2.5160529613494873
1751619070209194800,12.88619482421875,10.075577735900879,-1.4135600328445435,1.2957134246826172
1751619070228018200,12.90501806640625,9.836296081542969,-1.3704891204833984,-0.08733802288770676
1751619070246841600,12.923841552734375,9.606584548950195,-1.2795618772506714,-2.733799934387207
1751619070265665000,12.9426650390625,10.25743293762207,0.5341976284980774,-5.456831932067871
1751619070284488400,12.961488525390624,10.243075370788574,2.7451658248901367,-8.132007598876953
1751619070303312000,12.980311767578126,10.032506942749023,5.946762561798096,-8.5100736618042
1751619070322135300,12.99913525390625,9.88415241241455,4.898705959320068,-5.873183250427246
1751619070340958700,13.017958740234375,9.927223205566406,3.7836508750915527,-6.935596466064453
1751619070359782100,13.0367822265625,9.932008743286133,0.5868397355079651,-5.519045352935791
1751619070378605600,13.05560546875,9.778867721557617,-1.5667005777359009,-3.284149169921875
1751619070397429000,13.074428955078124,9.989436149597168,-3.308675527572632,-0.35054850578308105
1751619070416252400,13.09325244140625,10.080363273620605,-4.763511657714844,2.9036903381347656
1751619070435075800,13.112075927734375,10.109077453613281,-5.213362216949463,5.2869415283203125
1751619070453899300,13.130899169921875,9.93679428100586,-3.9595232009887695,6.430710792541504
1751619070472723000,13.149722900390625,9.88415241241455,-1.150349497795105,3.875176191329956
1751619070491546000,13.168546142578125,9.946365356445312,-1.2652050256729126,1.8891334533691406
1751619070510369500,13.18736962890625,9.955936431884766,-1.6959130764007568,2.3916261196136475
1751619070529193000,13.20619287109375,9.917651176452637,-2.0931215286254883,2.8893332481384277
1751619070548016600,13.2250166015625,10.185647964477539,-2.8971099853515625,2.937189817428589
1751619070566839800,13.24383984375,9.807581901550293,-3.232105255126953,3.401397466659546
1751619070585663200,13.262663330078125,9.874580383300781,-2.255833625793457,2.200200319290161
1751619070604486700,13.281486572265624,9.242876052856445,-0.5282155871391296,-2.121237277984619
1751619070623310300,13.300310302734376,10.477572441101074,2.836092948913574,-8.10807991027832
1751619070642133500,13.319133544921876,9.879366874694824,6.109474182128906,-12.037094116210938
1751619070660957000,13.33795703125,9.917651176452637,3.620938777923584,-6.4905314445495605
1751619070679780400,13.3567802734375,9.970293998718262,3.1663026809692383,-6.040680885314941
1751619070698604000,13.37560400390625,9.975079536437988,2.347957134246826,-6.064609050750732
1751619070717427200,13.39442724609375,9.865009307861328,1.3621143102645874,-4.9160542488098145
1751619070736250600,13.413250732421876,9.664012908935547,-1.4997016191482544,-1.4464613199234009
1751619070755074000,13.432073974609375,10.089935302734375,-4.9501519203186035,2.386840581893921
1751619070773897500,13.4508974609375,9.917651176452637,-5.199005603790283,5.621936798095703
1751619070802132700,13.4791328125,9.970293998718262,-3.279961585998535,4.918447017669678
1751619070820956200,13.4979560546875,9.927223205566406,-0.7148557901382446,0.15672987699508667
1751619070839779600,13.516779541015625,9.92243766784668,-0.6526423692703247,-0.06819544732570648
1751619070858603000,13.53560302734375,9.93679428100586,-1.7102699279785156,1.4297115802764893
1751619070877426400,13.554426513671874,10.03729248046875,-2.877967357635498,2.324627161026001
1751619070896249900,13.573249755859376,9.979865074157715,-2.538186550140381,3.119044303894043
1751619070915073300,13.5920732421875,9.89850902557373,-2.600399971008301,3.463610887527466
1751619070933896700,13.610896728515625,10.003793716430664,-3.0071799755096436,3.095116138458252
1751619070952720100,13.62972021484375,10.032506942749023,-2.3994028568267822,1.2191431522369385
1751619070971543600,13.64854345703125,9.534799575805664,-0.3032902777194977,-2.33180570602417
1751619070990367000,13.667366943359376,10.051650047302246,4.960919380187988,-7.5912299156188965
1751619071009190400,13.6861904296875,9.807581901550293,7.7940216064453125,-10.065408706665039
1751619071028013800,13.705013916015625,9.888937950134277,3.3433713912963867,-6.533602237701416
1751619071046837200,13.723837158203125,9.874580383300781,2.7116663455963135,-4.030709743499756
1751619071065660700,13.74266064453125,9.865009307861328,3.0418758392333984,-4.451846599578857
1751619071084484000,13.761484130859374,9.989436149597168,0.8117650747299194,-4.557130813598633
1751619071103307500,13.7803076171875,9.946365356445312,-1.5954145193099976,-2.561516523361206
1751619071122131000,13.799130859375,10.0612211227417,-2.9306094646453857,0.16151553392410278
1751619071140954400,13.817954345703125,9.845867156982422,-2.8636105060577393,1.8604196310043335
1751619071159777800,13.83677783203125,10.018150329589844,-2.9688947200775146,1.5302101373672485
1751619071178601200,13.855601318359374,9.879366874694824,-2.9449665546417236,2.9036903381347656
1751619071197424600,13.874424560546874,9.965508460998535,-4.270590305328369,6.062216281890869
1751619071216248000,13.893248046875,9.970293998718262,-2.5669004917144775,2.8462624549865723
1751619071235071500,13.912071533203125,9.951150894165039,-2.571686029434204,4.516452789306641
1751619071253895000,13.93089501953125,10.00857925415039,-3.8590247631073,4.794020175933838
1751619071272718300,13.94971826171875,9.941579818725586,-5.821139335632324,2.937189817428589
1751619071291541800,13.968541748046874,10.00857925415039,-6.888338088989258,2.0231316089630127
1751619071310365200,13.987365234375,9.979865074157715,-4.117449760437012,-1.6139588356018066
1751619071329188600,14.006188720703125,10.113862991333008,1.2855439186096191,-6.337390899658203
1751619071348012000,14.025011962890625,9.821938514709473,5.678766250610352,-10.137192726135254
1751619071366835500,14.04383544921875,9.716654777526855,7.281957626342773,-10.232906341552734
1751619071385659000,14.062658935546875,10.003793716430664,5.913262844085693,-4.782055854797363
1751619071404482300,14.081482421875,9.941579818725586,1.8023936748504639,-2.671586513519287
1751619071423305700,14.1003056640625,10.228718757629395,3.4199416637420654,-6.619743824005127
1751619071442129200,14.119129150390625,9.927223205566406,4.324428558349609,-9.060422897338867
1751619071460952600,14.13795263671875,10.42492961883545,0.9266205430030823,-6.6006011962890625
1751619071479776000,14.15677587890625,9.79801082611084,-3.7393836975097656,-1.633101463317871
1751619071498599400,14.175599365234374,10.37228775024414,-7.7353973388671875,2.8414769172668457
1751619071517422800,14.1944228515625,8.898308753967285,-7.496115207672119,6.535995006561279
1751619071536246300,14.213246337890626,11.051849365234375,-6.495915412902832,6.344569206237793
1751619071555069700,14.232069580078125,9.927223205566406,-2.3515465259552,4.698307037353516
1751619071573893000,14.25089306640625,9.865009307861328,0.2470589429140091,-0.07776673883199692
1751619071592716500,14.269716552734375,9.91286563873291,0.37148571014404297,-0.1782652884721756
1751619071611540000,14.2885400390625,9.932008743286133,0.026919255033135414,0.017946170642971992
1751619071630363400,14.30736328125,10.003793716430664,-2.868396043777466,2.056631088256836
1751619071649186800,14.326186767578125,9.927223205566406,-4.179663181304932,4.258028030395508
1751619071668010200,14.34501025390625,10.089935302734375,-5.73978328704834,5.468796253204346
1751619071686833700,14.363833740234375,10.276575088500977,-4.265804767608643,4.392025947570801
1751619071705657000,14.382656982421874,9.750154495239258,-1.2939188480377197,0.592223584651947
1751619071724480500,14.40148046875,9.989436149597168,1.9698911905288696,-4.346562385559082
1751619071743304000,14.420303955078126,10.377073287963867,3.108874797821045,-8.711071014404297
1751619071762127400,14.43912744140625,10.228718757629395,2.7355945110321045,-9.031708717346191
1751619071780950800,14.45795068359375,10.066006660461426,4.113860130310059,-4.676771640777588
1751619071799774200,14.476774169921875,9.91286563873291,0.6681957244873047,-1.786242127418518
1751619071818597600,14.49559765625,9.888937950134277,1.0941181182861328,-1.5565310716629028
1751619071837421000,14.514421142578126,10.00857925415039,1.103689432144165,-1.1880364418029785
1751619071856244500,14.533244384765625,9.965508460998535,1.2041879892349243,-1.867598056793213
1751619071875068000,14.55206787109375,10.018150329589844,1.0414760112762451,-2.379662036895752
1751619071893891300,14.570891357421875,9.845867156982422,0.2949153780937195,-2.1068804264068604
1751619071912714800,14.58971484375,9.989436149597168,-0.6957131624221802,-1.1162517070770264
1751619071931538200,14.6085380859375,10.434501647949219,-2.1744775772094727,-0.5659025311470032
1751619071950361600,14.627361572265626,10.113862991333008,-2.6051857471466064,0.898504912853241
1751619071969185000,14.64618505859375,10.003793716430664,-2.9066812992095947,2.6452653408050537
1751619071988008400,14.665008544921875,9.89850902557373,-2.9210381507873535,5.416153907775879
1751619072006831900,14.683831787109375,9.845867156982422,-0.07836493849754333,4.147958278656006
1751619072025655300,14.7026552734375,9.917651176452637,-1.6815561056137085,2.9515466690063477
1751619072044478700,14.721478759765626,9.927223205566406,-3.1555347442626953,4.698307037353516
1751619072063302100,14.74030224609375,9.960722923278809,-3.835096597671509,4.372883319854736
1751619072082125600,14.75912548828125,9.879366874694824,-3.246462106704712,2.583052158355713
1751619072100949000,14.777948974609375,10.013364791870117,-1.0737791061401367,-0.11126625537872314
1751619072119772400,14.7967724609375,9.903294563293457,-0.5282155871391296,-2.9730820655822754
1751619072138595800,14.815595947265624,10.113862991333008,-0.997208833694458,-4.140779495239258
1751619072157419300,14.834419189453126,9.92243766784668,-0.5617151260375977,-4.480560302734375
1751619072176242700,14.85324267578125,9.88415241241455,2.572882652282715,-6.332605361938477
1751619072195066000,14.872066162109375,9.78843879699707,6.9756760597229,-8.409575462341309
1751619072213889500,14.8908896484375,9.644869804382324,3.9702908992767334,-7.217949390411377
1751619072232713000,14.909712890625,9.769296646118164,5.25762939453125,-7.246663570404053
1751619072251536400,14.928536376953126,9.984650611877441,1.2759727239608765,-4.073780536651611
1751619072270359800,14.94735986328125,9.984650611877441,-2.083550214767456,-0.3314059376716614
1751619072289183200,14.966183349609375,9.491728782653809,-4.907081127166748,2.286342144012451
1751619072308006700,14.985006591796875,9.927223205566406,-4.060021877288818,4.593023300170898
1751619072326830000,15.003830078125,9.821938514709473,-2.131406784057617,4.454239368438721
1751619072345653500,15.022653564453124,9.869794845581055,-1.0163514614105225,2.9754750728607178
1751619072364477000,15.041476806640626,9.955936431884766,-1.4231312274932861,0.8554341197013855
1751619072383300400,15.06030029296875,9.92243766784668,0.2183450609445572,-0.11126625537872314
1751619072402124000,15.0791240234375,9.984650611877441,-2.5812573432922363,2.181057929992676
1751619072420947500,15.097947509765625,10.018150329589844,-4.715655326843262,5.995217323303223
1751619072439771000,15.11677099609375,9.865009307861328,-4.447659015655518,6.3254265785217285
1751619072458594300,15.13559423828125,9.917651176452637,-2.7248268127441406,3.5162527561187744
1751619072477417700,15.154417724609376,9.999007225036621,-2.868396043777466,0.3720839321613312
1751619072496241200,15.1732412109375,10.166504859924316,-3.0454649925231934,-3.308077335357666
1751619072515064600,15.192064697265625,10.156933784484863,-1.1982059478759766,-5.96889591217041
1751619072533888000,15.210887939453125,9.941579818725586,3.2093734741210938,-9.237491607666016
1751619072552711400,15.22971142578125,9.530014038085938,6.760322093963623,-11.127821922302246
1751619072571534800,15.248534912109376,9.841081619262695,3.793222188949585,-5.90668249130249
1751619072590358300,15.267358154296875,9.855438232421875,3.147160053253174,-6.820741176605225
1751619072609181700,15.286181640625,10.003793716430664,2.142174482345581,-5.90668249130249
1751619072628005000,15.305005126953125,10.085148811340332,-0.4325026869773865,-3.638286828994751
1751619072646828500,15.32382861328125,10.104291915893555,-2.4711875915527344,-0.8099704384803772
1751619072665652000,15.34265185546875,9.946365356445312,-3.3373894691467285,2.338984251022339
1751619072684475400,15.361475341796876,9.927223205566406,-3.7010984420776367,4.746163845062256
1751619072703299000,15.380299072265625,9.903294563293457,-2.791825771331787,5.44008207321167
1751619072722122500,15.39912255859375,9.903294563293457,-2.303689956665039,4.401597023010254
1751619072740946000,15.41794580078125,9.893723487854004,-1.5044872760772705,1.2430713176727295
1751619072759769300,15.436769287109374,9.88415241241455,-0.001794616924598813,-0.589830756187439
1751619072778592800,15.4555927734375,9.927223205566406,0.251844584941864,-0.16869398951530457
1751619072797416200,15.474416259765626,9.941579818725586,-1.2221341133117676,2.042274236679077
1751619072816239600,15.493239501953125,9.92243766784668,-3.035893678665161,4.296313285827637
1751619072835063000,15.51206298828125,9.903294563293457,-3.11246395111084,5.2630133628845215
1751619072853886500,15.530886474609375,9.908080101013184,-2.6434707641601562,4.487739086151123
1751619072872710000,15.5497099609375,10.032506942749023,-2.2127628326416016,2.506481647491455
1751619072891533300,15.568533203125,9.994221687316895,-1.8873388767242432,-0.776470959186554
1751619072910356700,15.587356689453125,10.080363273620605,-0.1453639715909958,-4.968696117401123
1751619072929180200,15.60618017578125,9.865009307861328,1.4386845827102661,-7.744370460510254
1751619072948003800,15.62500390625,9.893723487854004,5.3246283531188965,-11.467602729797363
1751619072966827300,15.6438271484375,10.587641716003418,4.893920421600342,-9.433703422546387
1751619072985650700,15.662650634765624,9.999007225036621,3.5682966709136963,-9.739984512329102
1751619073004474000,15.68147412109375,10.094720840454102,0.4911268353462219,-8.069794654846191
1751619073023297500,15.700297607421875,9.994221687316895,-2.0931215286254883,-4.58584451675415
1751619073042121000,15.719120849609375,9.979865074157715,-3.686741590499878,-0.6376872062683105
1751619073060944400,15.7379443359375,10.056435585021973,-3.9930226802825928,3.2099716663360596
1751619073079767800,15.756767822265624,9.917651176452637,-5.246861934661865,5.933003902435303
1751619073098591200,15.77559130859375,9.960722923278809,-4.572085857391357,6.87099027633667
1751619073117415000,15.794414794921876,9.92243766784668,-3.73459792137146,5.50229549407959
1751619073136238300,15.81323828125,9.92243766784668,-0.9493523836135864,0.1423729509115219
1751619073155061800,15.832061767578125,9.89850902557373,-1.3178470134735107,2.9036903381347656
1751619073173885200,15.85088525390625,9.893723487854004,-2.6530420780181885,6.019145488739014
1751619073192708600,15.86970849609375,9.917651176452637,-3.088535785675049,5.210371494293213
1751619073211532000,15.888531982421876,10.00857925415039,-3.1316065788269043,2.8175487518310547
1751619073230355500,15.90735546875,10.027721405029297,-3.964308977127075,1.5302101373672485
1751619073249179000,15.926178955078125,10.003793716430664,-3.8877387046813965,0.625723123550415
1751619073268002600,15.94500244140625,10.195219039916992,-2.9114668369293213,-0.6376872062683105
1751619073286826000,15.963825927734375,9.984650611877441,0.4384847581386566,-5.279763221740723
1751619073305649400,15.9826494140625,9.539586067199707,4.343571186065674,-10.409975051879883
1751619073324472800,16.001472900390624,10.14736270904541,6.310471534729004,-15.205191612243652
1751619073343296300,16.020296142578125,10.051650047302246,3.6879379749298096,-8.668000221252441
1751619073362119700,16.03911962890625,10.013364791870117,1.2424731254577637,-6.519245147705078
1751619073380943000,16.057943115234377,9.994221687316895,-0.8823533654212952,-3.67657208442688
1751619073399766500,16.0767666015625,9.984650611877441,-1.179063320159912,-1.786242127418518
1751619073418590200,16.095590087890624,9.845867156982422,-0.5234299302101135,-0.9200403094291687
1751619073437413600,16.11441357421875,9.908080101013184,-1.9830517768859863,0.9272187948226929
1751619073456237000,16.133237060546875,9.893723487854004,-3.4139597415924072,3.702893018722534
1751619073475060500,16.152060546875,9.903294563293457,-4.3998026847839355,5.827719688415527
1751619073493884000,16.1708837890625,9.888937950134277,-4.007379531860352,7.05763053894043
1751619073512707300,16.189707275390624,9.89850902557373,-0.12143574655056,0.7357929348945618
1751619073531531000,16.208531005859374,9.91286563873291,-1.1455638408660889,3.339184045791626
1751619073550354400,16.2273544921875,9.946365356445312,-2.2989044189453125,5.162514686584473
1751619073569177900,16.246177734375,9.965508460998535,-2.916252613067627,5.248656272888184
1751619073588001300,16.265001220703127,9.932008743286133,-3.7058839797973633,5.330012321472168
1751619073606824700,16.28382470703125,9.831509590148926,-3.452244758605957,3.875176191329956
1751619073625648000,16.302648193359374,10.042078018188477,-3.9260237216949463,0.07058826833963394
1751619073644471600,16.321471435546876,10.042078018188477,-1.8586249351501465,-5.1840500831604
1751619073663295200,16.340295166015625,9.927223205566406,2.022533416748047,-13.104292869567871
1751619073682118700,16.35911865234375,9.93679428100586,6.243472576141357,-17.688941955566406
1751619073700942000,16.377942138671877,9.955936431884766,3.573082447052002,-9.376275062561035
1751619073719765500,16.396765625,9.89850902557373,1.4769697189331055,-7.289734363555908
1751619073738589000,16.4155888671875,10.094720840454102,-0.7244270443916321,-4.04985237121582
1751619073757412400,16.434412353515626,10.075577735900879,-1.485344648361206,-2.3700907230377197
1751619073776236000,16.453236083984375,10.03729248046875,-2.4329023361206055,0.02273181453347206
1751619073795059500,16.4720595703125,9.999007225036621,-3.514458179473877,3.1094729900360107
1751619073813883000,16.4908828125,10.04686450958252,-4.146163463592529,5.755934715270996
1751619073832706300,16.509706298828124,9.88415241241455,-2.8636105060577393,6.205785751342773
1751619073851529700,16.52852978515625,9.879366874694824,-1.4518451690673828,5.282155990600586
1751619073870353400,16.547353515625,9.994221687316895,0.29012975096702576,-0.07776673883199692
1751619073889176800,16.5661767578125,9.903294563293457,0.24227328598499298,0.12323036789894104
1751619073908000300,16.585000244140623,9.903294563293457,-1.7198412418365479,5.133800983428955
1751619073926823700,16.60382373046875,9.89850902557373,-3.1651060581207275,6.4354963302612305
1751619073945647000,16.622647216796874,9.93679428100586,-3.404388427734375,5.717649936676025
1751619073964470500,16.641470458984376,9.975079536437988,-3.404388427734375,4.128815650939941
1751619073983294200,16.660294189453126,10.066006660461426,-4.016951084136963,1.659422516822815
1751619074002117600,16.67911767578125,9.88415241241455,-3.624528169631958,-1.7336000204086304
1751619074020941000,16.697941162109377,10.180862426757812,-0.6765705943107605,-7.854440212249756
1751619074039764500,16.716764404296875,9.869794845581055,3.8123645782470703,-13.223934173583984
1751619074058588000,16.735587890625,9.908080101013184,6.09033203125,-13.812568664550781
1751619074077411600,16.75441162109375,9.865009307861328,4.1760735511779785,-8.486145973205566
1751619074096235000,16.773235107421876,9.970293998718262,1.5152549743652344,-7.452445983886719
1751619074115058400,16.792058349609373,10.056435585021973,-1.3178470134735107,-4.729413986206055
1751619074133881900,16.8108818359375,10.128219604492188,-2.279761791229248,-2.3365912437438965
1751619074152705500,16.82970556640625,9.908080101013184,-2.940180778503418,0.49172505736351013
1751619074171529000,16.848529052734374,9.946365356445312,-4.337589263916016,3.568894863128662
1751619074190352400,16.867352294921876,9.917651176452637,-4.797011375427246,6.263213157653809
1751619074209175800,16.88617578125,9.946365356445312,-3.2895328998565674,6.626922130584717
1751619074227999200,16.904999267578123,9.869794845581055,-1.4135600328445435,5.114658355712891
1751619074246823000,16.923822998046877,9.917651176452637,0.2709871530532837,-0.06819544732570648
1751619074265646300,16.942646240234374,9.869794845581055,-0.13579268753528595,0.7645068168640137
1751619074284469800,16.9614697265625,9.908080101013184,-2.011765718460083,4.43031120300293
1751619074303293200,16.980293212890626,9.893723487854004,-3.7010984420776367,5.779862880706787
1751619074322116600,16.99911669921875,10.04686450958252,-4.189234256744385,6.02393102645874
1751619074340940300,17.017940185546873,9.711869239807129,-4.012165546417236,4.143172264099121
1751619074359763700,17.036763671875,9.960722923278809,-4.117449760437012,2.190629243850708
1751619074378587100,17.055587158203124,10.219147682189941,-3.9930226802825928,-0.8243274092674255
1751619074397410600,17.07441064453125,9.597013473510742,-0.7148557901382446,-8.376075744628906
1751619074416234200,17.093234130859376,10.075577735900879,4.951348304748535,-15.832111358642578
1751619074435057700,17.1120576171875,10.003793716430664,7.22452974319458,-15.334403991699219
1751619074453881000,17.130881103515627,9.79801082611084,4.295714855194092,-10.29033374786377
1751619074472704500,17.14970458984375,9.989436149597168,0.7974081635475159,-7.375875949859619
1751619074491528200,17.168528076171874,10.099506378173828,-2.3467607498168945,-3.9493536949157715
1751619074510351600,17.1873515625,9.932008743286133,-3.07417893409729,-1.2837493419647217
1751619074529175000,17.206175048828126,9.999007225036621,-3.193819999694824,1.4679967164993286
1751619074547998500,17.22499853515625,9.994221687316895,-4.332803726196289,4.052245140075684
1751619074566822100,17.243822265625,9.841081619262695,-4.696512699127197,6.200999736785889
1751619074585645600,17.2626455078125,9.893723487854004,-3.964308977127075,6.7178497314453125
1751619074604469000,17.281468994140624,9.817152976989746,-0.9397810697555542,4.794020175933838
1751619074623292400,17.30029248046875,9.879366874694824,-0.4468596279621124,1.2382856607437134
1751619074642115800,17.31911572265625,9.89850902557373,-1.0211371183395386,2.9802606105804443
1751619074660939500,17.337939453125,9.932008743286133,-0.9349954724311829,3.0616166591644287
1751619074679763000,17.356762939453127,9.855438232421875,-2.5334010124206543,3.7459638118743896
1751619074698586400,17.37558642578125,10.027721405029297,-3.0789644718170166,3.8847475051879883
1751619074717409800,17.394409912109374,10.03729248046875,-2.8731818199157715,2.4777679443359375
1751619074736233500,17.4132333984375,9.994221687316895,-2.2654049396514893,0.8267202377319336
1751619074755057000,17.432056884765625,9.965508460998535,-0.8967102766036987,-1.4943177700042725
1751619074773880300,17.45088037109375,9.970293998718262,1.4817553758621216,-6.409175395965576
1751619074792704000,17.4697041015625,10.171290397644043,3.8315072059631348,-13.611571311950684
1751619074811527400,17.48852734375,9.960722923278809,3.8458642959594727,-9.572486877441406
1751619074830350800,17.507350830078124,9.8267240524292,4.056432723999023,-8.634500503540039
1751619074849174300,17.52617431640625,9.965508460998535,1.6683956384658813,-6.768098831176758
1751619074867998000,17.544998046875,10.04686450958252,-1.0785647630691528,-4.384847640991211
1751619074886821400,17.5638212890625,9.860223770141602,-2.820539712905884,-1.0205388069152832
1751619074905644800,17.582644775390627,9.999007225036621,-3.8111681938171387,1.2382856607437134
1751619074924468200,17.60146826171875,9.707083702087402,-4.701298236846924,3.3104701042175293
1751619074943292000,17.6202919921875,9.855438232421875,-4.150949001312256,4.865804672241211
1751619074962115300,17.639115234375,9.893723487854004,-2.5046870708465576,6.1914286613464355
1751619074980938800,17.657938720703125,9.8267240524292,0.046061836183071136,6.842276573181152
1751619074999762200,17.67676220703125,9.893723487854004,0.22791635990142822,2.7936203479766846
1751619075018585900,17.6955859375,9.88415241241455,-0.96370929479599,4.813162803649902
1751619075037409300,17.7144091796875,9.917651176452637,-3.4091739654541016,5.1768717765808105
1751619075056232700,17.733232666015624,10.051650047302246,-5.519643783569336,4.746163845062256
1751619075075056400,17.752056396484374,10.094720840454102,-5.309075355529785,3.535395383834839
1751619075093879800,17.7708798828125,9.879366874694824,-3.696312665939331,0.7070791125297546
1751619075112703200,17.789703125,10.056435585021973,-1.7341982126235962,-2.7912275791168213
1751619075131527000,17.80852685546875,9.927223205566406,-0.5904290080070496,-5.251049518585205
1751619075150350300,17.827350341796876,10.156933784484863,0.6346961855888367,-7.5673017501831055
1751619075169173800,17.846173828125,9.860223770141602,3.7118661403656006,-9.467203140258789
1751619075187997200,17.8649970703125,9.860223770141602,5.109274387359619,-10.089336395263672
1751619075206820900,17.88382080078125,9.989436149597168,1.6109678745269775,-7.4811601638793945
1751619075225644300,17.902644287109375,9.989436149597168,3.0370900630950928,-8.395217895507812
1751619075244467700,17.9214677734375,10.056435585021973,1.8837496042251587,-7.64865779876709
1751619075263291400,17.94029150390625,9.79801082611084,-0.5186443328857422,-5.260620594024658
1751619075282114800,17.95911474609375,10.156933784484863,-3.356531858444214,-2.121237277984619
1751619075300938200,17.977938232421874,10.099506378173828,-6.1465630531311035,1.8652052879333496
1751619075319762000,17.996761962890623,9.869794845581055,-7.352545738220215,5.325226783752441
1751619075338585300,18.01558544921875,9.903294563293457,-6.055635929107666,8.105687141418457
1751619075357408800,18.03440869140625,9.88415241241455,-2.8827531337738037,8.14397144317627
1751619075376232400,18.053232421875,9.855438232421875,2.1230318546295166,2.094916343688965
1751619075395055900,18.072055908203126,9.89850902557373,0.11306086927652359,3.3535408973693848
1751619075413879300,18.09087939453125,9.951150894165039,-1.7820546627044678,5.196014404296875
1751619075432703000,18.109702880859373,9.951150894165039,-3.476173162460327,4.985445976257324
1751619075451526400,18.1285263671875,9.8267240524292,-5.170291423797607,5.68893575668335
1751619075470349800,18.147349853515625,9.984650611877441,-5.275575637817383,4.545166492462158
1751619075489173200,18.16617333984375,10.209575653076172,-4.127020835876465,1.1473584175109863
1751619075507997000,18.184996826171876,10.00857925415039,-2.7631118297576904,-3.102294445037842
1751619075526820400,18.2038203125,10.027721405029297,-1.7964116334915161,-5.6099724769592285
1751619075545643800,18.222643798828123,9.893723487854004,1.1467602252960205,-9.448060035705566
1751619075564467500,18.241467529296877,9.865009307861328,4.190430641174316,-13.223934173583984
1751619075583291000,18.260290771484375,9.93679428100586,2.5537400245666504,-8.438288688659668
1751619075602114600,18.279114501953124,9.965508460998535,2.213959217071533,-7.122236728668213
1751619075620938000,18.29793798828125,9.951150894165039,2.1948165893554688,-7.280162811279297
1751619075639761400,18.316761474609375,10.075577735900879,0.9840483069419861,-5.873183250427246
1751619075658584800,18.335584716796873,9.970293998718262,-0.9828519225120544,-3.480360507965088
1751619075677408500,18.354408447265627,9.91286563873291,-1.973480463027954,-1.2741780281066895
1751619075696232000,18.37323193359375,10.109077453613281,-4.088735580444336,1.2382856607437134
1751619075715055400,18.392055419921874,10.104291915893555,-6.031707763671875,4.71744966506958
1751619075733879000,18.410879150390624,9.951150894165039,-6.749554634094238,8.263612747192383
1751619075752702500,18.429702392578125,9.88415241241455,-3.6771702766418457,8.703892707824707
1751619075771526000,18.44852587890625,9.951150894165039,-0.3320041298866272,2.669193744659424
1751619075790349600,18.467349609375,9.927223205566406,-0.39900317788124084,2.8654050827026367
1751619075809173000,18.486173095703126,9.855438232421875,-2.011765718460083,5.200799942016602
1751619075827996400,18.504996337890624,9.917651176452637,-4.040879249572754,5.708078384399414
1751619075846820000,18.523820068359374,10.066006660461426,-5.1080780029296875,4.521238327026367
1751619075865643500,18.5426435546875,9.989436149597168,-5.069792747497559,2.181057929992676
1751619075884467000,18.561467041015625,9.951150894165039,-3.844667673110962,-0.43190449476242065
1751619075903290600,18.58029052734375,10.39621639251709,-2.892324447631836,-3.0927233695983887
1751619075922114000,18.599114013671876,10.003793716430664,-1.456630825996399,-6.21774959564209
1751619075940937700,18.617937744140626,9.917651176452637,0.47676992416381836,-9.079565048217773
1751619075959761200,18.63676123046875,9.965508460998535,5.090131759643555,-14.353346824645996
1751619075978584600,18.65558447265625,10.018150329589844,4.228715896606445,-10.97468090057373
1751619075997408300,18.674408203125,9.999007225036621,3.43908429145813,-10.52483081817627
1751619076016231700,18.693231689453125,9.855438232421875,0.582054078578949,-6.6484575271606445
1751619076035055000,18.71205517578125,10.190433502197266,-1.810768485069275,-1.5517455339431763
1751619076053878800,18.730878662109376,9.831509590148926,-2.9976086616516113,1.5158531665802002
1751619076072702200,18.7497021484375,9.917651176452637,-3.7154552936553955,3.0664021968841553
1751619076091525600,18.768525634765624,10.042078018188477,-4.380660057067871,3.9661035537719727
1751619076110349300,18.787349365234373,9.903294563293457,-2.8875386714935303,4.004388809204102
1751619076129172700,18.8061728515625,9.91286563873291,-2.0548365116119385,3.9086756706237793
1751619076147996200,18.82499609375,9.869794845581055,-0.4707878530025482,3.0759735107421875
1751619076166819800,18.84381982421875,9.917651176452637,0.26141586899757385,1.6546368598937988
1751619076185643300,18.862643310546876,9.91286563873291,0.3858426511287689,-0.04426721855998039
1751619076204467000,18.881467041015625,9.92243766784668,0.3762713670730591,-0.06819544732570648
1751619076223290400,18.900290283203127,9.941579818725586,0.31405797600746155,-0.03469592705368996
1751619076242113800,18.91911376953125,9.908080101013184,-0.4420739710330963,1.7216359376907349
1751619076260937500,18.9379375,9.903294563293457,-1.8394824266433716,4.947160720825195
1751619076279761000,18.956760986328124,9.93679428100586,-2.978466033935547,5.138586521148682
1751619076298584300,18.975584228515626,9.970293998718262,-2.9210381507873535,4.2006001472473145
1751619076317408000,18.994407958984375,9.664012908935547,-2.9688947200775146,2.6213371753692627
1751619076336231400,19.0132314453125,9.932008743286133,-2.806182861328125,0.9176474809646606
1751619076355054800,19.032054931640626,9.941579818725586,-1.609771490097046,-2.5328028202056885
1751619076373878500,19.05087841796875,9.893723487854004,1.256830096244812,-6.715456962585449
1751619076392702000,19.069701904296874,9.879366874694824,3.941577196121216,-12.29551887512207
1751619076411525400,19.088525390625,9.941579818725586,3.5922250747680664,-9.448060035705566
1751619076430349000,19.10734912109375,9.845867156982422,4.281357765197754,-10.055837631225586
1751619076449172500,19.12617236328125,9.946365356445312,2.190030813217163,-8.902496337890625
1751619076467996200,19.14499609375,9.989436149597168,-0.39900317788124084,-5.705685615539551
1751619076486819600,19.163819580078126,10.032506942749023,-2.461616277694702,-2.8965117931365967
1751619076505643000,19.18264306640625,9.984650611877441,-5.179862976074219,0.50129634141922
1751619076524466700,19.201466796875,10.042078018188477,-6.993622303009033,4.291527271270752
1751619076543290000,19.2202900390625,9.860223770141602,-5.744568824768066,6.80877685546875
1751619076562113500,19.239113525390625,9.855438232421875,-3.8590247631073,6.856633186340332
1751619076580937200,19.257937255859375,9.975079536437988,-0.9445667266845703,5.210371494293213
1751619076599760600,19.2767607421875,9.989436149597168,0.3332005441188812,-0.039481572806835175
1751619076618584300,19.295584228515626,9.91286563873291,0.022133609279990196,1.0037890672683716
1751619076637407700,19.31440771484375,9.93679428100586,-1.8681962490081787,4.918447017669678
1751619076656231200,19.333231201171873,9.93679428100586,-3.5479576587677,7.100701332092285
1751619076675054800,19.352054931640627,10.03729248046875,-5.356931686401367,6.650850772857666
1751619076693878300,19.370878173828125,10.166504859924316,-6.041278839111328,4.789234638214111
1751619076712702000,19.389701904296874,10.13300609588623,-5.959922790527344,2.276770830154419
1751619076731525400,19.408525390625,9.951150894165039,-5.122435092926025,-1.7623138427734375
1751619076750348800,19.427348876953126,10.578070640563965,-2.696112871170044,-6.882954120635986
1751619076769172200,19.446172119140623,10.051650047302246,1.342971682548523,-11.883954048156738
1751619076787996000,19.464995849609377,10.003793716430664,5.458626747131348,-15.477972984313965
1751619076806819300,19.4838193359375,9.984650611877441,4.554139614105225,-11.060822486877441
1751619076825643000,19.50264306640625,9.979865074157715,2.874378204345703,-9.44327449798584
1751619076844466400,19.521466552734374,9.893723487854004,1.7497515678405762,-6.725028038024902
1751619076863290000,19.5402900390625,9.979865074157715,0.4624129831790924,-3.67657208442688
1751619076882113500,19.559113525390625,9.807581901550293,-0.8153542876243591,-0.8147560954093933
1751619076900937000,19.57793701171875,9.817152976989746,-2.5812573432922363,3.229114055633545
1751619076919760600,19.5967607421875,10.156933784484863,-4.4955153465271,5.2869415283203125
1751619076938584000,19.615583984375,9.88415241241455,-3.844667673110962,4.674378871917725
1751619076957407500,19.634407470703124,9.92243766784668,-3.2608189582824707,3.056830883026123
1751619076976231200,19.653231201171874,9.975079536437988,-2.428116798400879,2.214557409286499
1751619076995054600,19.6720546875,9.932008743286133,-1.4757733345031738,1.7742780447006226
1751619077013878000,19.6908779296875,9.927223205566406,0.3332005441188812,-0.020338991656899452
1751619077032701700,19.70970166015625,9.93679428100586,-0.7627122402191162,2.104487419128418
1751619077051525000,19.728525146484376,9.917651176452637,-2.595614433288574,4.999803066253662
1751619077070348800,19.747348876953126,9.88415241241455,-2.988037347793579,6.009573936462402
1751619077089172200,19.766172119140624,9.841081619262695,-2.8348965644836426,5.009374141693115
1751619077107996000,19.784995849609373,9.89850902557373,-3.0071799755096436,2.7984061241149902
1751619077126819300,19.8038193359375,10.075577735900879,-3.1316065788269043,0.2715853750705719
1751619077145642800,19.822642822265625,9.984650611877441,-2.973680257797241,-2.001596212387085
1751619077164466400,19.841466552734374,9.903294563293457,-0.2745763957500458,-5.964110374450684
1751619077183289900,19.860289794921876,9.965508460998535,3.721437454223633,-11.673385620117188
1751619077202113300,19.87911328125,9.932008743286133,5.334199905395508,-13.075579643249512
1751619077220937000,19.89793701171875,10.018150329589844,5.027918815612793,-10.917253494262695
1751619077239760400,19.916760498046877,9.860223770141602,2.376671075820923,-8.088936805725098
1751619077258584000,19.935583984375,9.984650611877441,-0.6622136831283569,-4.011567115783691
1751619077277407500,19.954407470703124,9.979865074157715,-3.026322364807129,-0.7812566161155701
1751619077296231000,19.97323095703125,9.802796363830566,-3.538386583328247,0.5395814776420593
1751619077315054600,19.9920546875,10.075577735900879,-4.457230567932129,1.6450655460357666
1751619077333878000,20.0108779296875,10.089935302734375,-5.275575637817383,3.9038901329040527
1751619077352701700,20.02970166015625,9.821938514709473,-4.466801643371582,5.306084156036377
1751619077371525000,20.048525146484376,9.8267240524292,-2.217548370361328,4.82751989364624
1751619077390348500,20.0673486328125,9.89850902557373,0.582054078578949,3.0664021968841553
1751619077409172200,20.086172119140624,9.917651176452637,-0.6191428303718567,1.353141188621521
1751619077437407500,20.114407470703124,9.960722923278809,-3.2416765689849854,4.908875465393066
1751619077456231000,20.13323095703125,9.860223770141602,-3.5336008071899414,5.8995041847229
1751619077475054600,20.1520546875,10.027721405029297,-3.6293137073516846,5.085944652557373
1751619077493878000,20.1708779296875,9.735796928405762,-3.466601848602295,3.5880374908447266
1751619077512701400,20.189701416015627,9.965508460998535,-3.3230323791503906,1.3196417093276978
1751619077531525000,20.208525146484376,10.018150329589844,-2.279761791229248,-2.796013355255127
1751619077550348500,20.2273486328125,9.970293998718262,1.2759727239608765,-10.371689796447754
1751619077569172200,20.246172119140624,9.893723487854004,5.520840167999268,-17.607585906982422
1751619077587995600,20.26499560546875,9.951150894165039,4.606781959533691,-13.056436538696289
1751619077606819300,20.2838193359375,9.955936431884766,4.831707000732422,-11.955738067626953
1751619077625642800,20.302642822265625,10.013364791870117,0.7639086246490479,-7.155735969543457
1751619077644466200,20.321466064453126,9.888937950134277,-2.1361923217773438,-2.513660192489624
1751619077663289900,20.340289794921876,10.16171932220459,-3.600599765777588,0.0323031060397625
1751619077682113300,20.35911328125,10.085148811340332,-5.7062835693359375,1.6929219961166382
1751619077700936700,20.377936767578124,9.865009307861328,-6.605985164642334,3.45882511138916
1751619077719760400,20.396760498046874,10.616355895996094,-5.648856163024902,4.157529354095459
1751619077738583800,20.415583740234375,9.989436149597168,-3.686741590499878,4.607379913330078
1751619077757407500,20.434407470703125,9.932008743286133,-0.45164528489112854,3.597608804702759
1751619077776231000,20.45323095703125,9.865009307861328,0.7830511927604675,3.4444682598114014
1751619077795054600,20.4720546875,9.946365356445312,0.5485545992851257,0.15194423496723175
1751619077813878000,20.4908779296875,9.946365356445312,-1.5379867553710938,2.664407968521118
1751619077832701400,20.509701416015623,9.93679428100586,-3.452244758605957,7.665407180786133
1751619077851525000,20.528525146484377,9.941579818725586,-3.906881093978882,7.684549808502197
1751619077870348500,20.5473486328125,10.003793716430664,-4.600799560546875,5.02851676940918
1751619077889172200,20.566172119140624,10.118648529052734,-4.844867706298828,2.090130567550659
1751619077907995600,20.58499560546875,9.979865074157715,-4.313661098480225,-1.3986048698425293
1751619077926819000,20.603819091796876,9.927223205566406,-2.782254457473755,-4.5236310958862305
1751619077945642800,20.622642822265625,10.018150329589844,0.8165507316589355,-8.26121997833252
1751619077964466200,20.641466064453127,9.92243766784668,5.338985443115234,-14.855839729309082
1751619077983289900,20.660289794921876,9.91286563873291,5.501697540283203,-12.400803565979004
1751619078002113300,20.67911328125,9.999007225036621,4.932205677032471,-11.515459060668945
1751619078020936700,20.697936767578124,10.104291915893555,1.922034740447998,-9.357132911682129
1751619078039760400,20.716760498046874,9.965508460998535,-1.8203397989273071,-6.346961975097656
1751619078058583800,20.735583740234375,9.908080101013184,-4.993222713470459,-2.963510751724243
1751619078077407500,20.754407470703125,10.113862991333008,-10.429716110229492,2.96111798286438
1751619078096231000,20.77323095703125,10.180862426757812,-9.295517921447754,8.459824562072754
1751619078115054600,20.7920546875,10.042078018188477,-5.768496990203857,11.651849746704102
1751619078133878000,20.8108779296875,9.874580383300781,0.9266205430030823,6.713063716888428
1751619078152701400,20.829701416015624,9.89850902557373,1.1994023323059082,1.4057832956314087
1751619078171525000,20.848525146484373,9.917651176452637,-0.3798605799674988,1.5493526458740234
1751619078190348500,20.8673486328125,9.984650611877441,-2.2031915187835693,3.128615617752075
1751619078209172000,20.886171875,9.999007225036621,-3.356531858444214,4.8466620445251465
1751619078227995600,20.90499560546875,9.970293998718262,-4.265804767608643,5.138586521148682
1751619078246819000,20.923819091796876,10.032506942749023,-3.1268210411071777,2.970689296722412
1751619078265642800,20.942642822265626,9.740582466125488,0.8979067206382751,-3.2793633937835693
1751619078284466200,20.961466064453123,9.970293998718262,3.5682966709136963,-9.893125534057617
1751619078303289900,20.980289794921877,9.999007225036621,2.5872395038604736,-10.749755859375
1751619078322113300,20.99911328125,9.869794845581055,1.2711870670318604,-4.4614176750183105
1751619078340936700,21.017936767578124,9.874580383300781,3.7357943058013916,-5.385047435760498
1751619078359760400,21.036760498046874,9.932008743286133,1.6444673538208008,-5.069194793701172
1751619078378583800,21.055583740234376,9.984650611877441,-1.3465609550476074,0.11844471842050552
1751619078397407500,21.074407470703125,9.946365356445312,-3.758526086807251,4.947160720825195
1751619078416231000,21.09323095703125,9.874580383300781,-3.9978084564208984,7.162914752960205
1751619078435054600,21.1120546875,9.93679428100586,-1.4949159622192383,1.4488540887832642
1751619078453878000,21.1308779296875,9.93679428100586,-0.29371899366378784,0.8075776696205139
1751619078472701400,21.149701416015624,9.93679428100586,0.9888339638710022,-0.9487541913986206
1751619078491525000,21.168525146484374,9.93679428100586,1.6588243246078491,-1.963310956954956
1751619078510348500,21.1873486328125,9.893723487854004,0.8787640929222107,0.04666004329919815
1751619078529172200,21.206172119140625,9.893723487854004,0.3236292600631714,-0.08255238085985184
1751619078547995600,21.22499560546875,9.888937950134277,0.3284149169921875,-0.13040883839130402
1751619078566819000,21.243819091796876,9.879366874694824,0.41934216022491455,-0.4701896607875824
1751619078585642800,21.262642822265626,9.903294563293457,0.3332005441188812,-0.4654040038585663
1751619078604466200,21.281466064453124,9.879366874694824,0.0364905446767807,0.9607182741165161
1751619078623289900,21.300289794921873,9.903294563293457,0.3236292600631714,-0.15912270545959473
1751619078642113300,21.31911328125,9.89850902557373,0.3523431420326233,-0.13519448041915894
1751619078660936700,21.337936767578125,9.893723487854004,0.31405797600746155,-0.09690931439399719
1751619078679760400,21.356760498046874,9.91286563873291,0.2997010350227356,-0.06340979784727097
1751619078698583800,21.375583740234376,9.932008743286133,0.2949153780937195,-0.13040883839130402
1751619078717407500,21.394407470703126,9.927223205566406,0.2949153780937195,-0.11605189740657806
1751619078736231000,21.41323095703125,9.92243766784668,0.3332005441188812,-0.005982056725770235
1751619078755054600,21.4320546875,9.91286563873291,0.2997010350227356,-0.09690931439399719
1751619078773878000,21.4508779296875,9.917651176452637,0.3188436031341553,-0.1256231814622879
1751619078792701400,21.469701416015624,9.93679428100586,0.34277185797691345,-0.10648060590028763
1751619078811525000,21.488525146484374,9.917651176452637,0.3188436031341553,-0.13998012244701385
1751619078830348500,21.5073486328125,9.908080101013184,0.2949153780937195,-0.07776673883199692
1751619078849172200,21.526172119140625,9.869794845581055,0.2805584669113159,-0.0729810893535614
1751619078867995600,21.54499560546875,9.89850902557373,0.2566302418708801,-0.24526432156562805
1751619078886819300,21.5638193359375,9.91286563873291,0.30927231907844543,-0.1495514214038849
1751619078905642800,21.582642822265626,9.903294563293457,0.31405797600746155,-0.09212367236614227
1751619078924466400,21.601466552734376,9.903294563293457,0.3236292600631714,-0.04905286431312561
1751619078943289900,21.620289794921874,9.927223205566406,0.3475574851036072,-0.05383851006627083
1751619078962113300,21.63911328125,9.91286563873291,0.3762713670730591,-0.02512463741004467
1751619078980937000,21.65793701171875,9.932008743286133,0.29012975096702576,-0.13519448041915894
1751619078999760400,21.676760498046875,9.91286563873291,0.2805584669113159,-0.08733802288770676
1751619079018584000,21.695583984375,9.91286563873291,0.30927231907844543,-0.14476576447486877
1751619079037407500,21.714407470703126,9.927223205566406,0.3284149169921875,-0.10648060590028763
1751619079056231200,21.733231201171876,9.893723487854004,0.3044866919517517,-0.0011964113218709826
1751619079075054600,21.7520546875,9.91286563873291,0.26620152592658997,-0.10169496387243271
1751619079093878000,21.7708779296875,9.893723487854004,0.29012975096702576,-0.24047867953777313
1751619079112701700,21.78970166015625,9.917651176452637,0.36670008301734924,-0.2356930375099182
1751619079131525000,21.808525146484374,9.917651176452637,0.3810569941997528,-0.08733802288770676
1751619079150348800,21.827348876953124,9.903294563293457,0.36191442608833313,-0.0011964113218709826
1751619079169172200,21.846172119140626,9.92243766784668,0.36191442608833313,-0.039481572806835175
1751619079187995600,21.86499560546875,9.92243766784668,0.3236292600631714,-0.12083754688501358
1751619079206819300,21.8838193359375,9.92243766784668,0.2709871530532837,-0.15912270545959473
1751619079225642800,21.902642822265626,9.908080101013184,0.21355941891670227,-0.1495514214038849
1751619079244466400,21.921466552734376,9.917651176452637,0.23748764395713806,-0.17347964644432068
1751619079263289900,21.940289794921874,9.941579818725586,0.2757728099822998,-0.21176479756832123
1751619079282113300,21.95911328125,9.927223205566406,0.30927231907844543,-0.13040883839130402
1751619079300937000,21.97793701171875,9.893723487854004,0.3236292600631714,-0.09212367236614227
1751619079319760400,21.996760498046875,9.888937950134277,0.3284149169921875,-0.058624155819416046
1751619079338584000,22.015583984375,9.893723487854004,0.3810569941997528,-0.07776673883199692
1751619079357407500,22.034407470703126,9.91286563873291,0.3762713670730591,-0.07776673883199692
1751619079376231200,22.053231201171876,9.917651176452637,0.3332005441188812,-0.0729810893535614
1751619079395054600,22.0720546875,9.903294563293457,0.2997010350227356,-0.07776673883199692
1751619079413878000,22.0908779296875,9.91286563873291,0.2949153780937195,-0.11605189740657806
1751619079432701700,22.10970166015625,9.917651176452637,0.30927231907844543,-0.1543370634317398
1751619079451525000,22.128525146484375,9.93679428100586,0.3044866919517517,-0.12083754688501358
1751619079470348800,22.147348876953124,9.917651176452637,0.30927231907844543,-0.10648060590028763
1751619079489172200,22.166172119140626,9.932008743286133,0.3236292600631714,-0.11605189740657806
1751619079507996000,22.184995849609376,9.927223205566406,0.33798620104789734,-0.13519448041915894
1751619079526819300,22.2038193359375,9.91286563873291,0.31405797600746155,-0.11605189740657806
1751619079555054600,22.2320546875,9.917651176452637,0.31405797600746155,-0.08255238085985184
1751619079573878300,22.250878173828124,9.917651176452637,0.31405797600746155,-0.11605189740657806
1751619079592701700,22.26970166015625,9.927223205566406,0.3332005441188812,-0.11126625537872314
1751619079611525400,22.288525390625,9.927223205566406,0.33798620104789734,-0.10648060590028763
1751619079630348800,22.307348876953125,9.917651176452637,0.3332005441188812,-0.08733802288770676
1751619079649172200,22.326172119140626,9.908080101013184,0.31405797600746155,-0.08733802288770676
1751619079667996000,22.344995849609376,9.908080101013184,0.3188436031341553,-0.12083754688501358
1751619079686819300,22.3638193359375,9.927223205566406,0.2805584669113159,-0.18783657252788544
1751619079705643000,22.38264306640625,9.903294563293457,0.26620152592658997,-0.19740787148475647
1751619079724466400,22.401466552734377,9.89850902557373,0.29012975096702576,-0.11605189740657806
1751619079743290000,22.4202900390625,9.903294563293457,0.3188436031341553,-0.06340979784727097
1751619079762113500,22.439113525390624,9.927223205566406,0.3236292600631714,-0.05383851006627083
1751619079780937000,22.45793701171875,9.932008743286133,0.34277185797691345,-0.06819544732570648
1751619079799760600,22.4767607421875,9.917651176452637,0.36191442608833313,-0.0729810893535614
1751619079818584000,22.495583984375,9.92243766784668,0.3236292600631714,-0.06819544732570648
1751619079837407700,22.51440771484375,9.92243766784668,0.3236292600631714,-0.07776673883199692
1751619079856231200,22.533231201171876,9.89850902557373,0.28534409403800964,-0.09212367236614227
1751619079875054600,22.5520546875,9.917651176452637,0.2997010350227356,-0.15912270545959473
1751619079893878300,22.570878173828124,9.908080101013184,0.2709871530532837,-0.16869398951530457
1751619079912701700,22.58970166015625,9.888937950134277,0.2997010350227356,-0.13040883839130402
1751619079931525400,22.608525390625,9.91286563873291,0.3188436031341553,-0.10169496387243271
1751619079950348800,22.627348876953125,9.908080101013184,0.3332005441188812,-0.09212367236614227
1751619079969172500,22.64617236328125,9.908080101013184,0.3332005441188812,-0.09690931439399719
1751619079987996000,22.664995849609376,9.91286563873291,0.3332005441188812,-0.0729810893535614
1751619080006819300,22.6838193359375,9.92243766784668,0.33798620104789734,-0.08255238085985184
1751619080025643000,22.70264306640625,9.91286563873291,0.34277185797691345,-0.08255238085985184
1751619080044466400,22.721466552734373,9.917651176452637,0.3188436031341553,-0.11605189740657806
1751619080063290000,22.7402900390625,9.932008743286133,0.29012975096702576,-0.1256231814622879
1751619080082113500,22.759113525390624,9.927223205566406,0.2757728099822998,-0.13998012244701385
1751619080100937200,22.777937255859374,9.927223205566406,0.2997010350227356,-0.15912270545959473
1751619080119760600,22.7967607421875,9.92243766784668,0.30927231907844543,-0.14476576447486877
1751619080138584000,22.815583984375,9.893723487854004,0.31405797600746155,-0.09690931439399719
1751619080157407700,22.83440771484375,9.88415241241455,0.3044866919517517,-0.04426721855998039
1751619080176231200,22.853231201171877,9.893723487854004,0.3188436031341553,-0.04426721855998039
1751619080195054800,22.872054931640626,9.927223205566406,0.3762713670730591,-0.10169496387243271
1751619080213878300,22.890878173828124,9.903294563293457,0.3523431420326233,-0.1256231814622879
1751619080232702000,22.909701904296874,9.917651176452637,0.31405797600746155,-0.06819544732570648
1751619080251525400,22.928525390625,9.917651176452637,0.28534409403800964,-0.08733802288770676
1751619080270348800,22.947348876953125,9.932008743286133,0.28534409403800964,-0.15912270545959473
1751619080289172500,22.96617236328125,9.941579818725586,0.2949153780937195,-0.1543370634317398
1751619080307996000,22.984995849609376,9.92243766784668,0.29012975096702576,-0.08733802288770676
1751619080326819600,23.003819580078126,9.91286563873291,0.30927231907844543,-0.05383851006627083
1751619080345643000,23.02264306640625,9.927223205566406,0.30927231907844543,-0.09690931439399719
1751619080364466700,23.041466796875,9.917651176452637,0.3188436031341553,-0.1256231814622879
1751619080383290000,23.0602900390625,9.917651176452637,0.3284149169921875,-0.09212367236614227
1751619080402113500,23.079113525390625,9.903294563293457,0.3236292600631714,-0.07776673883199692
1751619080420937200,23.097937255859375,9.903294563293457,0.34277185797691345,-0.10169496387243271
1751619080439760600,23.1167607421875,9.92243766784668,0.3044866919517517,-0.10648060590028763
1751619080458584300,23.135584228515626,9.89850902557373,0.29012975096702576,-0.12083754688501358
1751619080477407700,23.15440771484375,9.893723487854004,0.2997010350227356,-0.08733802288770676
1751619080496231400,23.1732314453125,9.91286563873291,0.2805584669113159,-0.13998012244701385
1751619080515054800,23.192054931640627,9.927223205566406,0.3188436031341553,-0.13998012244701385
1751619080533878500,23.21087841796875,9.908080101013184,0.31405797600746155,-0.09212367236614227
1751619080552702000,23.229701904296874,9.917651176452637,0.3236292600631714,-0.05383851006627083
