time,seconds_elapsed,z,y,x
1751619057500867000,0.1778671875,-0.001832594396546483,0.004428769461810589,-0.001679878099821508
1751619057519690500,0.1966904296875,-0.000610864779446274,0.005650499369949102,-0.001679878099821508
1751619057585572600,0.262572509765625,-0.0054977829568088055,0.008093958720564842,-0.006414080038666725
1751619057623219700,0.3002197265625,-0.006719512399286032,0.005650499369949102,-0.005345067009329796
1751619057642043100,0.319043212890625,-0.006719512399286032,0.005650499369949102,-0.005345067009329796
1751619057660866600,0.337866455078125,-0.009162971749901772,0.004428769461810589,-0.005345067009329796
1751619057679690000,0.35668994140625,-0.009162971749901772,0.0032070400193333626,-0.004123337101191282
1751619057698513400,0.375513427734375,-0.006719512399286032,0.0019853105768561363,-0.002901607658714056
1751619057717336800,0.3943369140625,-0.001832594396546483,0.0007635809597559273,-0.001679878099821508
1751619057736160300,0.41316015625,0.000610864779446274,0.0007635809597559273,-0.001679878099821508
1751619057754983700,0.431983642578125,0.001832594396546483,0.0007635809597559273,-0.001679878099821508
1751619057773807400,0.450807373046875,0.001832594396546483,0.0032070400193333626,-0.002901607658714056
1751619057792630800,0.469630859375,0.0030543238390237093,0.0007635809597559273,-0.001679878099821508
1751619057811454200,0.4884541015625,0.004276053514331579,0.0007635809597559273,-0.00045814859913662076
1751619057830277600,0.507277587890625,0.004276053514331579,0.0007635809597559273,-0.00045814859913662076
1751619057849101000,0.52610107421875,0.0030543238390237093,0.0007635809597559273,-0.00045814859913662076
1751619057867924500,0.544924560546875,0.001832594396546483,-0.00045814859913662076,-0.00045814859913662076
1751619057886748200,0.563748046875,0.001832594396546483,-0.001679878099821508,-0.001679878099821508
1751619057905571600,0.582571533203125,0.000610864779446274,-0.001679878099821508,-0.00045814859913662076
1751619057924395000,0.60139501953125,-0.001832594396546483,-0.001679878099821508,-0.00045814859913662076
1751619057943218400,0.620218505859375,-0.004276053514331579,-0.001679878099821508,-0.00045814859913662076
1751619057962041900,0.639041748046875,-0.004276053514331579,-0.002901607658714056,-0.00045814859913662076
1751619057980865500,0.657865478515625,-0.004276053514331579,-0.004123337101191282,-0.00045814859913662076
1751619057999689000,0.67668896484375,-0.004276053514331579,-0.002901607658714056,-0.00045814859913662076
1751619058018512400,0.695512451171875,-0.0030543238390237093,-0.001679878099821508,-0.00045814859913662076
1751619058037335800,0.714335693359375,-0.001832594396546483,-0.00045814859913662076,-0.00045814859913662076
1751619058056159200,0.7331591796875,-0.000610864779446274,-0.00045814859913662076,-0.00045814859913662076
1751619058074982700,0.751982666015625,-0.000610864779446274,0.0007635809597559273,-0.00045814859913662076
1751619058093806000,0.77080615234375,0.000610864779446274,0.0007635809597559273,-0.00045814859913662076
1751619058112629800,0.789629638671875,0.000610864779446274,0.0007635809597559273,-0.00045814859913662076
1751619058131453200,0.808453125,0.001832594396546483,0.0007635809597559273,-0.00045814859913662076
1751619058150276600,0.827276611328125,0.001832594396546483,-0.00045814859913662076,0.0007635809597559273
1751619058169100000,0.84610009765625,0.000610864779446274,-0.001679878099821508,-0.00045814859913662076
1751619058187923500,0.86492333984375,0.001832594396546483,-0.001679878099821508,-0.00045814859913662076
1751619058206747100,0.8837470703125,0.0030543238390237093,-0.001679878099821508,-0.00045814859913662076
1751619058225570600,0.902570556640625,0.0030543238390237093,-0.001679878099821508,-0.00045814859913662076
1751619058244394000,0.92139404296875,0.001832594396546483,-0.00045814859913662076,-0.00045814859913662076
1751619058263217400,0.940217529296875,-0.000610864779446274,-0.00045814859913662076,-0.00045814859913662076
1751619058282040800,0.959040771484375,-0.001832594396546483,-0.00045814859913662076,-0.00045814859913662076
1751619058300864300,0.9778642578125,-0.001832594396546483,-0.00045814859913662076,0.0007635809597559273
1751619058319688000,0.99668798828125,-0.0030543238390237093,-0.00045814859913662076,-0.00045814859913662076
1751619058338511400,1.015511474609375,-0.0030543238390237093,0.0007635809597559273,-0.00045814859913662076
1751619058357334800,1.034334716796875,-0.0030543238390237093,0.0007635809597559273,-0.00045814859913662076
1751619058376158200,1.053158203125,-0.001832594396546483,0.0007635809597559273,-0.00045814859913662076
1751619058394981600,1.071981689453125,-0.001832594396546483,-0.00045814859913662076,-0.00045814859913662076
1751619058413805000,1.09080517578125,-0.001832594396546483,-0.00045814859913662076,-0.00045814859913662076
1751619058432628700,1.109628662109375,-0.000610864779446274,-0.001679878099821508,0.0007635809597559273
1751619058451452200,1.1284521484375,-0.000610864779446274,-0.001679878099821508,-0.00045814859913662076
1751619058470275600,1.147275634765625,-0.0030543238390237093,-0.001679878099821508,0.0007635809597559273
1751619058489099000,1.16609912109375,-0.0030543238390237093,-0.001679878099821508,-0.00045814859913662076
1751619058507922400,1.18492236328125,-0.0030543238390237093,-0.001679878099821508,-0.00045814859913662076
1751619058526746000,1.20374609375,-0.001832594396546483,-0.00045814859913662076,-0.00045814859913662076
1751619058545569500,1.222569580078125,-0.001832594396546483,-0.00045814859913662076,-0.00045814859913662076
1751619058564393000,1.24139306640625,-0.0030543238390237093,-0.00045814859913662076,-0.00045814859913662076
1751619058583216400,1.26021630859375,-0.0030543238390237093,-0.00045814859913662076,-0.00045814859913662076
1751619058602039800,1.279039794921875,-0.001832594396546483,-0.00045814859913662076,-0.00045814859913662076
1751619058620863500,1.297863525390625,-0.000610864779446274,-0.00045814859913662076,-0.00045814859913662076
1751619058639687000,1.31668701171875,-0.000610864779446274,-0.001679878099821508,-0.00045814859913662076
1751619058658510300,1.33551025390625,-0.000610864779446274,-0.001679878099821508,-0.00045814859913662076
1751619058677333800,1.354333740234375,-0.000610864779446274,-0.001679878099821508,-0.00045814859913662076
1751619058696157200,1.3731572265625,-0.000610864779446274,-0.001679878099821508,-0.00045814859913662076
1751619058714980600,1.391980712890625,-0.000610864779446274,-0.001679878099821508,-0.00045814859913662076
1751619058733804300,1.41080419921875,-0.000610864779446274,-0.001679878099821508,-0.00045814859913662076
1751619058752627700,1.429627685546875,-0.001832594396546483,-0.001679878099821508,-0.00045814859913662076
1751619058771451100,1.448451171875,-0.001832594396546483,-0.00045814859913662076,-0.00045814859913662076
1751619058790274600,1.467274658203125,-0.000610864779446274,-0.00045814859913662076,-0.00045814859913662076
1751619058809098000,1.486097900390625,-0.000610864779446274,0.0007635809597559273,-0.00045814859913662076
1751619058827921700,1.504921630859375,0.000610864779446274,-0.00045814859913662076,-0.00045814859913662076
1751619058846745000,1.5237451171875,-0.000610864779446274,-0.00045814859913662076,-0.00045814859913662076
1751619058865568500,1.542568603515625,0.000610864779446274,-0.00045814859913662076,-0.00045814859913662076
1751619058884392000,1.561391845703125,-0.000610864779446274,-0.001679878099821508,-0.00045814859913662076
1751619058903215400,1.58021533203125,-0.001832594396546483,-0.00045814859913662076,-0.00045814859913662076
1751619058922038800,1.599038818359375,-0.000610864779446274,-0.001679878099821508,0.0007635809597559273
1751619058940862500,1.617862548828125,-0.000610864779446274,-0.001679878099821508,-0.00045814859913662076
1751619058959686000,1.636685791015625,-0.000610864779446274,-0.001679878099821508,-0.00045814859913662076
1751619058978509300,1.65550927734375,-0.000610864779446274,-0.00045814859913662076,-0.00045814859913662076
1751619058997332700,1.674332763671875,-0.000610864779446274,-0.00045814859913662076,-0.00045814859913662076
1751619059016156200,1.69315625,-0.000610864779446274,-0.00045814859913662076,-0.00045814859913662076
1751619059034979800,1.711979736328125,-0.000610864779446274,-0.00045814859913662076,-0.00045814859913662076
1751619059053803300,1.73080322265625,0.000610864779446274,0.0007635809597559273,-0.00045814859913662076
1751619059072626700,1.749626708984375,-0.000610864779446274,-0.00045814859913662076,-0.00045814859913662076
1751619059091450000,1.7684501953125,-0.000610864779446274,-0.00045814859913662076,-0.00045814859913662076
1751619059110273500,1.7872734375,-0.000610864779446274,-0.00045814859913662076,-0.00045814859913662076
1751619059129097200,1.80609716796875,-0.000610864779446274,-0.001679878099821508,-0.00045814859913662076
1751619059147920600,1.824920654296875,-0.000610864779446274,-0.001679878099821508,-0.00045814859913662076
1751619059166744000,1.843744140625,-0.000610864779446274,-0.001679878099821508,-0.00045814859913662076
1751619059185567500,1.8625673828125,-0.000610864779446274,-0.001679878099821508,-0.00045814859913662076
1751619059204391000,1.881390869140625,0.000610864779446274,-0.001679878099821508,0.0007635809597559273
1751619059223214600,1.900214599609375,0.000610864779446274,-0.001679878099821508,-0.00045814859913662076
1751619059242038000,1.9190380859375,-0.000610864779446274,-0.00045814859913662076,-0.00045814859913662076
1751619059260861400,1.937861328125,-0.000610864779446274,0.0007635809597559273,-0.00045814859913662076
1751619059279684900,1.956684814453125,-0.000610864779446274,0.0007635809597559273,-0.00045814859913662076
1751619059298508300,1.97550830078125,-0.000610864779446274,-0.00045814859913662076,-0.00045814859913662076
1751619059317331700,1.994331787109375,-0.000610864779446274,0.0007635809597559273,-0.00045814859913662076
1751619059336155400,2.0131552734375,-0.000610864779446274,-0.00045814859913662076,-0.00045814859913662076
1751619059354978800,2.031978759765625,-0.000610864779446274,-0.00045814859913662076,-0.00045814859913662076
1751619059373802200,2.05080224609375,-0.000610864779446274,-0.001679878099821508,-0.00045814859913662076
1751619059392625700,2.069625732421875,-0.000610864779446274,-0.001679878099821508,-0.00045814859913662076
1751619059411449000,2.088448974609375,-0.000610864779446274,-0.001679878099821508,-0.00045814859913662076
1751619059430272800,2.107272705078125,-0.001832594396546483,-0.001679878099821508,-0.00045814859913662076
1751619059449096200,2.12609619140625,-0.000610864779446274,-0.00045814859913662076,0.0007635809597559273
1751619059467919600,2.144919677734375,-0.000610864779446274,-0.00045814859913662076,-0.00045814859913662076
1751619059486743000,2.163742919921875,-0.001832594396546483,-0.00045814859913662076,-0.00045814859913662076
1751619059505566500,2.18256640625,-0.000610864779446274,-0.00045814859913662076,-0.00045814859913662076
1751619059524390000,2.201389892578125,-0.000610864779446274,-0.00045814859913662076,-0.00045814859913662076
1751619059543213600,2.220213623046875,-0.000610864779446274,-0.00045814859913662076,-0.00045814859913662076
1751619059562037000,2.239037109375,-0.000610864779446274,-0.00045814859913662076,-0.00045814859913662076
1751619059580860400,2.2578603515625,-0.000610864779446274,0.0007635809597559273,-0.00045814859913662076
1751619059599683800,2.276683837890625,-0.000610864779446274,-0.001679878099821508,-0.00045814859913662076
1751619059618507300,2.29550732421875,-0.000610864779446274,-0.00045814859913662076,-0.00045814859913662076
1751619059637331000,2.3143310546875,-0.000610864779446274,-0.001679878099821508,0.0007635809597559273
1751619059656154400,2.333154296875,-0.000610864779446274,-0.001679878099821508,-0.00045814859913662076
1751619059674977800,2.351977783203125,-0.000610864779446274,-0.001679878099821508,-0.00045814859913662076
1751619059693801200,2.37080126953125,-0.000610864779446274,-0.001679878099821508,-0.00045814859913662076
1751619059712624600,2.389624755859375,0.000610864779446274,-0.00045814859913662076,-0.00045814859913662076
1751619059731448000,2.408447998046875,-0.001832594396546483,-0.00045814859913662076,-0.00045814859913662076
1751619059750271700,2.427271728515625,-0.000610864779446274,-0.00045814859913662076,-0.00045814859913662076
1751619059769095200,2.44609521484375,-0.000610864779446274,-0.00045814859913662076,-0.00045814859913662076
1751619059787918600,2.464918701171875,0.000610864779446274,-0.00045814859913662076,-0.00045814859913662076
1751619059806742000,2.483741943359375,-0.000610864779446274,-0.00045814859913662076,-0.00045814859913662076
1751619059825565400,2.5025654296875,-0.000610864779446274,-0.001679878099821508,-0.00045814859913662076
1751619059844388900,2.521388916015625,-0.000610864779446274,-0.001679878099821508,-0.00045814859913662076
1751619059863212500,2.540212646484375,-0.000610864779446274,-0.001679878099821508,-0.00045814859913662076
1751619059882036000,2.559035888671875,-0.000610864779446274,-0.001679878099821508,-0.00045814859913662076
1751619059900859400,2.577859375,-0.000610864779446274,-0.001679878099821508,-0.00045814859913662076
1751619059919682800,2.596682861328125,-0.000610864779446274,-0.001679878099821508,-0.00045814859913662076
1751619059938506200,2.61550634765625,-0.000610864779446274,-0.00045814859913662076,-0.00045814859913662076
1751619059957330000,2.634329833984375,-0.000610864779446274,-0.00045814859913662076,-0.00045814859913662076
1751619059976153300,2.6531533203125,-0.000610864779446274,0.0007635809597559273,-0.00045814859913662076
1751619059994976800,2.671976806640625,-0.000610864779446274,-0.00045814859913662076,0.0007635809597559273
1751619060013800200,2.69080029296875,-0.000610864779446274,0.0007635809597559273,-0.00045814859913662076
1751619060032623600,2.70962353515625,-0.000610864779446274,0.0007635809597559273,-0.00045814859913662076
1751619060051447000,2.728447021484375,-0.001832594396546483,-0.00045814859913662076,-0.00045814859913662076
1751619060070270500,2.7472705078125,0.000610864779446274,-0.001679878099821508,-0.00045814859913662076
1751619060089094100,2.76609423828125,-0.000610864779446274,-0.001679878099821508,-0.00045814859913662076
1751619060107917600,2.78491748046875,-0.000610864779446274,-0.001679878099821508,-0.00045814859913662076
1751619060126741000,2.803740966796875,-0.000610864779446274,-0.001679878099821508,-0.00045814859913662076
1751619060145564400,2.822564453125,0.000610864779446274,-0.001679878099821508,-0.00045814859913662076
1751619060164387800,2.841387939453125,0.000610864779446274,-0.001679878099821508,-0.00045814859913662076
1751619060183211500,2.86021142578125,-0.000610864779446274,-0.00045814859913662076,0.0007635809597559273
1751619060202035000,2.879034912109375,-0.000610864779446274,-0.00045814859913662076,0.0007635809597559273
1751619060220858400,2.8978583984375,-0.000610864779446274,-0.00045814859913662076,-0.00045814859913662076
1751619060239681800,2.916681884765625,-0.001832594396546483,-0.00045814859913662076,-0.00045814859913662076
1751619060258505200,2.935505126953125,-0.001832594396546483,-0.00045814859913662076,-0.00045814859913662076
1751619060277328600,2.95432861328125,-0.000610864779446274,-0.00045814859913662076,-0.00045814859913662076
1751619060296152000,2.973152099609375,-0.000610864779446274,-0.00045814859913662076,-0.00045814859913662076
1751619060314975700,2.991975830078125,-0.000610864779446274,-0.00045814859913662076,0.0007635809597559273
1751619060333799200,3.010799072265625,0.000610864779446274,-0.00045814859913662076,-0.00045814859913662076
1751619060352622600,3.02962255859375,0.000610864779446274,-0.001679878099821508,-0.00045814859913662076
1751619060371446000,3.048446044921875,-0.000610864779446274,-0.001679878099821508,-0.00045814859913662076
1751619060390269400,3.06726953125,-0.001832594396546483,-0.001679878099821508,-0.00045814859913662076
1751619060409092900,3.0860927734375,-0.000610864779446274,-0.001679878099821508,-0.00045814859913662076
1751619060427916500,3.10491650390625,-0.001832594396546483,-0.001679878099821508,-0.00045814859913662076
1751619060446740000,3.123739990234375,-0.000610864779446274,-0.00045814859913662076,-0.00045814859913662076
1751619060465563400,3.1425634765625,0.000610864779446274,-0.00045814859913662076,0.0007635809597559273
1751619060484386800,3.16138671875,0.000610864779446274,0.0007635809597559273,-0.00045814859913662076
1751619060503210200,3.180210205078125,-0.000610864779446274,-0.00045814859913662076,-0.00045814859913662076
1751619060522034000,3.199033935546875,-0.000610864779446274,-0.00045814859913662076,0.0007635809597559273
1751619060540857300,3.217857421875,0.000610864779446274,-0.00045814859913662076,-0.00045814859913662076
1751619060559680800,3.2366806640625,-0.000610864779446274,-0.001679878099821508,-0.00045814859913662076
1751619060578504200,3.255504150390625,-0.001832594396546483,-0.001679878099821508,-0.00045814859913662076
1751619060597327600,3.27432763671875,-0.001832594396546483,-0.00045814859913662076,-0.00045814859913662076
1751619060616151000,3.293151123046875,-0.000610864779446274,-0.001679878099821508,-0.00045814859913662076
1751619060634974500,3.311974365234375,-0.000610864779446274,-0.001679878099821508,0.0007635809597559273
1751619060663209700,3.340209716796875,-0.000610864779446274,-0.00045814859913662076,0.0007635809597559273
1751619060682033200,3.359033203125,-0.000610864779446274,-0.001679878099821508,-0.00045814859913662076
1751619060700856800,3.37785693359375,-0.000610864779446274,-0.001679878099821508,0.0007635809597559273
1751619060719680300,3.39668017578125,0.000610864779446274,-0.001679878099821508,0.0007635809597559273
1751619060738503700,3.415503662109375,-0.000610864779446274,-0.001679878099821508,-0.00045814859913662076
1751619060757327000,3.4343271484375,-0.001832594396546483,-0.001679878099821508,-0.00045814859913662076
1751619060776150500,3.453150634765625,-0.001832594396546483,-0.00045814859913662076,-0.00045814859913662076
1751619060794974000,3.471973876953125,0.000610864779446274,-0.00045814859913662076,0.0007635809597559273
1751619060813797600,3.490797607421875,0.000610864779446274,-0.00045814859913662076,0.0007635809597559273
1751619060832621000,3.50962109375,-0.000610864779446274,-0.00045814859913662076,-0.00045814859913662076
1751619060851444500,3.528444580078125,-0.001832594396546483,0.0007635809597559273,-0.00045814859913662076
1751619060870268000,3.547267822265625,0.000610864779446274,-0.00045814859913662076,-0.00045814859913662076
1751619060889091300,3.56609130859375,-0.000610864779446274,-0.00045814859913662076,0.0007635809597559273
1751619060907914800,3.584914794921875,-0.001832594396546483,-0.00045814859913662076,-0.00045814859913662076
1751619060926738200,3.60373828125,-0.000610864779446274,-0.001679878099821508,-0.00045814859913662076
1751619060945561600,3.6225615234375,-0.000610864779446274,-0.001679878099821508,-0.00045814859913662076
1751619060964385300,3.64138525390625,-0.000610864779446274,-0.001679878099821508,-0.00045814859913662076
1751619060983208700,3.660208740234375,-0.000610864779446274,-0.001679878099821508,0.0007635809597559273
1751619061002032000,3.6790322265625,-0.000610864779446274,-0.001679878099821508,-0.00045814859913662076
1751619061020855600,3.69785546875,-0.000610864779446274,-0.001679878099821508,-0.00045814859913662076
1751619061039679000,3.716678955078125,0.000610864779446274,-0.00045814859913662076,-0.00045814859913662076
1751619061058502400,3.73550244140625,-0.000610864779446274,-0.00045814859913662076,-0.00045814859913662076
1751619061077326000,3.754326171875,-0.000610864779446274,0.0007635809597559273,-0.00045814859913662076
1751619061096149500,3.7731494140625,-0.000610864779446274,-0.00045814859913662076,-0.00045814859913662076
1751619061114973000,3.791972900390625,-0.000610864779446274,-0.00045814859913662076,-0.00045814859913662076
1751619061133796400,3.81079638671875,-0.000610864779446274,-0.00045814859913662076,-0.00045814859913662076
1751619061152619800,3.829619873046875,-0.000610864779446274,-0.00045814859913662076,-0.00045814859913662076
1751619061171443200,3.848443115234375,-0.000610864779446274,-0.001679878099821508,0.0007635809597559273
1751619061190266600,3.8672666015625,-0.000610864779446274,-0.001679878099821508,-0.00045814859913662076
1751619061209090300,3.88609033203125,-0.000610864779446274,-0.001679878099821508,-0.00045814859913662076
1751619061227913700,3.904913818359375,-0.000610864779446274,-0.001679878099821508,-0.00045814859913662076
1751619061246737200,3.923737060546875,-0.000610864779446274,-0.001679878099821508,-0.00045814859913662076
1751619061265560600,3.942560546875,-0.000610864779446274,-0.00045814859913662076,-0.00045814859913662076
1751619061284384000,3.961384033203125,-0.000610864779446274,-0.00045814859913662076,-0.00045814859913662076
1751619061303207400,3.98020751953125,-0.000610864779446274,0.0007635809597559273,-0.00045814859913662076
1751619061322030800,3.99903076171875,-0.000610864779446274,-0.00045814859913662076,-0.00045814859913662076
1751619061340854500,4.0178544921875,-0.000610864779446274,-0.00045814859913662076,-0.00045814859913662076
1751619061359678000,4.036677978515625,-0.000610864779446274,0.0007635809597559273,-0.00045814859913662076
1751619061378501400,4.05550146484375,-0.000610864779446274,-0.00045814859913662076,-0.00045814859913662076
1751619061397324800,4.07432470703125,-0.000610864779446274,-0.00045814859913662076,-0.00045814859913662076
1751619061416148200,4.093148193359375,-0.000610864779446274,-0.001679878099821508,-0.00045814859913662076
1751619061434971600,4.1119716796875,0.000610864779446274,-0.001679878099821508,-0.00045814859913662076
1751619061453795300,4.13079541015625,-0.000610864779446274,-0.001679878099821508,-0.00045814859913662076
1751619061472618800,4.14961865234375,-0.000610864779446274,-0.001679878099821508,-0.00045814859913662076
1751619061491442200,4.168442138671875,-0.000610864779446274,-0.001679878099821508,0.0007635809597559273
1751619061519677200,4.19667724609375,0.000610864779446274,-0.00045814859913662076,-0.00045814859913662076
1751619061538500600,4.21550048828125,-0.000610864779446274,-0.00045814859913662076,-0.00045814859913662076
1751619061557324300,4.23432421875,-0.001832594396546483,-0.001679878099821508,-0.00045814859913662076
1751619061576147700,4.253147705078125,-0.000610864779446274,-0.001679878099821508,-0.00045814859913662076
1751619061594971100,4.27197119140625,-0.000610864779446274,-0.001679878099821508,-0.00045814859913662076
1751619061613794600,4.290794677734375,-0.000610864779446274,-0.00045814859913662076,-0.00045814859913662076
1751619061632618000,4.309617919921875,-0.000610864779446274,-0.00045814859913662076,-0.00045814859913662076
1751619061651441400,4.32844140625,-0.000610864779446274,-0.00045814859913662076,-0.001679878099821508
1751619061670264800,4.347264892578125,-0.000610864779446274,0.0007635809597559273,-0.00045814859913662076
1751619061689088500,4.366088623046875,-0.000610864779446274,0.0007635809597559273,-0.00045814859913662076
1751619061707912000,4.384911865234375,0.000610864779446274,-0.00045814859913662076,-0.00045814859913662076
1751619061726735400,4.4037353515625,-0.000610864779446274,-0.00045814859913662076,-0.00045814859913662076
1751619061745558800,4.422558837890625,-0.000610864779446274,-0.00045814859913662076,-0.00045814859913662076
1751619061764382200,4.44138232421875,-0.000610864779446274,-0.001679878099821508,0.0007635809597559273
1751619061783205600,4.46020556640625,-0.000610864779446274,-0.00045814859913662076,-0.00045814859913662076
1751619061802029000,4.479029052734375,-0.000610864779446274,-0.001679878099821508,-0.00045814859913662076
1751619061820852700,4.497852783203125,-0.000610864779446274,-0.001679878099821508,-0.00045814859913662076
1751619061839676200,4.51667626953125,0.000610864779446274,-0.001679878099821508,-0.00045814859913662076
1751619061858499600,4.53549951171875,-0.000610864779446274,-0.001679878099821508,-0.00045814859913662076
1751619061877323000,4.554322998046875,0.000610864779446274,-0.00045814859913662076,0.0007635809597559273
1751619061896146400,4.573146484375,-0.000610864779446274,-0.00045814859913662076,-0.00045814859913662076
1751619061914969900,4.591969970703125,-0.000610864779446274,-0.00045814859913662076,0.0007635809597559273
1751619061933793300,4.610793212890625,-0.000610864779446274,-0.00045814859913662076,-0.00045814859913662076
1751619061952616700,4.62961669921875,-0.000610864779446274,0.0007635809597559273,-0.00045814859913662076
1751619061971440400,4.6484404296875,0.000610864779446274,-0.00045814859913662076,-0.00045814859913662076
1751619061990263800,4.667263916015625,-0.001832594396546483,-0.001679878099821508,-0.00045814859913662076
1751619062009087200,4.686087158203125,-0.000610864779446274,-0.00045814859913662076,-0.00045814859913662076
1751619062027910700,4.70491064453125,-0.000610864779446274,-0.001679878099821508,-0.00045814859913662076
1751619062046734000,4.723734130859375,0.000610864779446274,-0.001679878099821508,-0.00045814859913662076
1751619062065557500,4.7425576171875,0.000610864779446274,-0.00045814859913662076,-0.00045814859913662076
1751619062084381000,4.761380859375,0.000610864779446274,-0.00045814859913662076,-0.00045814859913662076
1751619062103204600,4.78020458984375,-0.000610864779446274,-0.00045814859913662076,-0.00045814859913662076
1751619062122028000,4.799028076171875,-0.000610864779446274,-0.00045814859913662076,0.0007635809597559273
1751619062140851500,4.8178515625,-0.001832594396546483,-0.00045814859913662076,-0.00045814859913662076
1751619062159675000,4.8366748046875,-0.000610864779446274,-0.00045814859913662076,-0.00045814859913662076
1751619062178498300,4.855498291015625,-0.000610864779446274,-0.00045814859913662076,-0.00045814859913662076
1751619062197321700,4.87432177734375,-0.000610864779446274,-0.00045814859913662076,-0.00045814859913662076
1751619062216145200,4.893145263671875,-0.000610864779446274,-0.00045814859913662076,-0.00045814859913662076
1751619062234968600,4.911968505859375,0.000610864779446274,-0.00045814859913662076,-0.00045814859913662076
1751619062253792000,4.9307919921875,0.000610864779446274,-0.00045814859913662076,-0.00045814859913662076
1751619062272615700,4.94961572265625,-0.000610864779446274,-0.001679878099821508,-0.00045814859913662076
1751619062291439000,4.968439208984375,0.000610864779446274,-0.001679878099821508,-0.00045814859913662076
1751619062310262500,4.987262451171875,-0.001832594396546483,-0.001679878099821508,-0.00045814859913662076
1751619062329086000,5.0060859375,-0.000610864779446274,-0.00045814859913662076,-0.00045814859913662076
1751619062347909400,5.024909423828125,-0.000610864779446274,-0.00045814859913662076,-0.00045814859913662076
1751619062366732800,5.04373291015625,-0.000610864779446274,-0.00045814859913662076,-0.00045814859913662076
1751619062385556200,5.06255615234375,-0.000610864779446274,-0.00045814859913662076,-0.00045814859913662076
1751619062404379600,5.081379638671875,0.000610864779446274,-0.00045814859913662076,-0.00045814859913662076
1751619062423203000,5.100203125,0.000610864779446274,0.0007635809597559273,-0.00045814859913662076
1751619062442026800,5.11902685546875,-0.000610864779446274,-0.00045814859913662076,-0.00045814859913662076
1751619062460850200,5.13785009765625,0.000610864779446274,-0.006566796451807022,0.005650499369949102
1751619062479673600,5.156673583984375,0.001832594396546483,0.006872228812426329,-0.002901607658714056
1751619062498497000,5.1754970703125,0.001832594396546483,0.0007635809597559273,-0.00045814859913662076
1751619062517320400,5.194320556640625,-0.000610864779446274,-0.00045814859913662076,-0.00045814859913662076
1751619062536144000,5.213143798828125,-0.001832594396546483,-0.00045814859913662076,-0.00045814859913662076
1751619062554967300,5.23196728515625,-0.0030543238390237093,-0.00045814859913662076,-0.00045814859913662076
1751619062573790700,5.250790771484375,-0.0030543238390237093,-0.001679878099821508,0.0007635809597559273
1751619062592614400,5.269614501953125,-0.001832594396546483,0.0007635809597559273,0.0007635809597559273
1751619062611437800,5.288437744140625,-0.000610864779446274,0.0007635809597559273,0.0007635809597559273
1751619062630261200,5.30726123046875,-0.000610864779446274,0.0019853105768561363,-0.00045814859913662076
1751619062649084700,5.326084716796875,-0.000610864779446274,0.0019853105768561363,-0.00045814859913662076
1751619062667908000,5.344908203125,0.001832594396546483,0.0019853105768561363,-0.00045814859913662076
1751619062686731500,5.3637314453125,0.001832594396546483,-0.00045814859913662076,-0.00045814859913662076
1751619062705555000,5.382554931640625,-0.000610864779446274,-0.00045814859913662076,0.0007635809597559273
1751619062724378400,5.40137841796875,-0.001832594396546483,-0.00045814859913662076,0.0007635809597559273
1751619062743202000,5.4202021484375,-0.0030543238390237093,-0.001679878099821508,-0.00045814859913662076
1751619062762025500,5.439025390625,-0.001832594396546483,-0.001679878099821508,0.0007635809597559273
1751619062780849000,5.457848876953125,-0.001832594396546483,-0.001679878099821508,-0.00045814859913662076
1751619062799672300,5.47667236328125,-0.000610864779446274,-0.001679878099821508,-0.00045814859913662076
1751619062818495700,5.495495849609375,-0.000610864779446274,-0.00045814859913662076,-0.00045814859913662076
1751619062837319200,5.514319091796875,0.000610864779446274,0.0007635809597559273,-0.00045814859913662076
1751619062856142600,5.533142578125,-0.000610864779446274,-0.00045814859913662076,-0.00045814859913662076
1751619062874966000,5.551966064453125,0.000610864779446274,0.0007635809597559273,-0.00045814859913662076
1751619062893789400,5.57078955078125,-0.000610864779446274,-0.00045814859913662076,-0.00045814859913662076
1751619062912612900,5.58961279296875,-0.000610864779446274,-0.00045814859913662076,-0.00045814859913662076
1751619062931436300,5.608436279296875,-0.001832594396546483,-0.00045814859913662076,-0.00045814859913662076
1751619062950260000,5.627260009765625,-0.000610864779446274,-0.001679878099821508,-0.00045814859913662076
1751619062969083400,5.64608349609375,0.000610864779446274,-0.00045814859913662076,-0.00045814859913662076
1751619062987906800,5.66490673828125,0.000610864779446274,-0.001679878099821508,-0.00045814859913662076
1751619063006730200,5.683730224609375,0.001832594396546483,-0.001679878099821508,-0.00045814859913662076
1751619063025553700,5.7025537109375,0.000610864779446274,-0.001679878099821508,-0.00045814859913662076
1751619063044377000,5.721377197265625,-0.000610864779446274,-0.00045814859913662076,-0.00045814859913662076
1751619063063200500,5.740200439453125,0.000610864779446274,-0.00045814859913662076,0.0007635809597559273
1751619063082024200,5.759024169921875,-0.000610864779446274,-0.00045814859913662076,-0.00045814859913662076
1751619063100847600,5.77784765625,-0.000610864779446274,-0.00045814859913662076,-0.00045814859913662076
1751619063119671000,5.796671142578125,-0.001832594396546483,-0.00045814859913662076,0.0007635809597559273
1751619063138494500,5.815494384765625,-0.001832594396546483,0.0007635809597559273,0.0007635809597559273
1751619063157318000,5.83431787109375,-0.000610864779446274,0.009315688163042068,0.0019853105768561363
1751619063176141300,5.853141357421875,0.000610864779446274,0.010537417605519295,0.0032070400193333626
1751619063194964700,5.87196484375,-0.000610864779446274,0.005650499369949102,0.0019853105768561363
1751619063213788200,5.8907880859375,-0.000610864779446274,-0.002901607658714056,-0.00045814859913662076
1751619063232611600,5.909611572265625,-0.000610864779446274,-0.001679878099821508,-0.001679878099821508
1751619063251435000,5.92843505859375,-0.000610864779446274,0.0032070400193333626,0.0007635809597559273
1751619063270258400,5.947258544921875,-0.000610864779446274,0.005650499369949102,0.0019853105768561363
1751619063289081900,5.966081787109375,-0.000610864779446274,0.009315688163042068,0.0032070400193333626
1751619063307905500,5.984905517578125,-0.000610864779446274,-0.007788525894284248,-0.002901607658714056
1751619063326729000,6.00372900390625,0.000610864779446274,-0.012675444595515728,-0.004123337101191282
1751619063345552400,6.022552490234375,-0.000610864779446274,0.0007635809597559273,-0.00045814859913662076
1751619063364375800,6.041375732421875,0.004276053514331579,0.010537417605519295,0.0019853105768561363
1751619063383199200,6.06019921875,0.13500112295150757,0.011759147047996521,0.0032070400193333626
1751619063402022700,6.079022705078125,0.143553227186203,0.08017600327730179,0.020311253145337105
1751619063420846000,6.09784619140625,0.001832594396546483,0.008093958720564842,0.0019853105768561363
1751619063439669500,6.11666943359375,0.000610864779446274,0.008093958720564842,0.0019853105768561363
1751619063458493000,6.135492919921875,0.19608759880065918,-0.005345067009329796,-0.00045814859913662076
1751619063477316400,6.15431640625,0.7788525819778442,-0.004123337101191282,0.0007635809597559273
1751619063496140000,6.17314013671875,1.4691298007965088,-0.0102319847792387,0.0007635809597559273
1751619063514963500,6.19196337890625,1.748905897140503,0.0007635809597559273,0.008093958720564842
1751619063533787000,6.210786865234375,1.4752384424209595,0.016646064817905426,0.010537417605519295
1751619063552610300,6.2296103515625,0.8106175661087036,0.01908952370285988,0.009315688163042068
1751619063571433700,6.248433837890625,0.19120067358016968,0.017867794260382652,0.005650499369949102
1751619063590257200,6.267257080078125,-0.021380268037319183,-0.00045814859913662076,0.0007635809597559273
1751619063609080600,6.28608056640625,-0.3023780584335327,0.005650499369949102,0.0007635809597559273
1751619063627904000,6.304904052734375,-0.8594867587089539,-0.011453714221715927,-0.004123337101191282
1751619063646727400,6.3237275390625,-1.5607595443725586,-0.02977965772151947,-0.011300998739898205
1751619063665551000,6.342551025390625,-2.389092206954956,-0.05299251899123192,-0.01740964688360691
1751619063684374500,6.36137451171875,-3.0976953506469727,-0.06276635825634003,-0.023518294095993042
1751619063703198000,6.380197998046875,-3.3799147605895996,-0.12996147572994232,-0.03940077871084213
1751619063722021400,6.399021484375,-3.0305001735687256,-0.09697478264570236,-0.032070402055978775
1751619063740844800,6.4178447265625,-2.0445644855499268,-0.08231402933597565,-0.028405211865901947
1751619063759668200,6.436668212890625,-0.7812960743904114,-0.09453132748603821,-0.0308486707508564
1751619063778491600,6.45549169921875,0.11667517572641373,-0.05177079141139984,-0.016187917441129684
1751619063797315000,6.474315185546875,0.7519745230674744,0.1156061589717865,0.0386371985077858
1751619063816138500,6.493138427734375,1.842979073524475,0.09605848789215088,0.03497200831770897
1751619063834962000,6.5119619140625,2.606559991836548,0.04230238497257233,0.020311253145337105
1751619063853785600,6.53078564453125,2.640768527984619,0.04108065739274025,0.020311253145337105
1751619063872609000,6.549609130859375,2.193615436553955,0.0435241162776947,0.02153298258781433
1751619063891432400,6.568432373046875,1.6633847951889038,0.03130681812763214,0.01908952370285988
1751619063910255900,6.587255859375,1.2907572984695435,0.06795870512723923,0.016646064817905426
1751619063929079300,6.606079345703125,0.9462295174598694,0.020311253145337105,0.009315688163042068
1751619063947902700,6.62490283203125,0.5760455131530762,0.004428769461810589,0.005650499369949102
1751619063966726100,6.64372607421875,0.185092031955719,0.006872228812426329,0.0032070400193333626
1751619063985549600,6.662549560546875,0.014049889519810677,-0.021227551624178886,-0.004123337101191282
1751619064004373000,6.681373046875,-0.30482152104377747,-0.034666575491428375,-0.006414080038666725
1751619064023196400,6.700196533203125,-0.963333785533905,-0.04199695214629173,-0.014966187067329884
1751619064042019800,6.719019775390625,-1.8710788488388062,-0.187382772564888,-0.06872228533029556
1751619064060843300,6.73784326171875,-2.6554291248321533,-0.046883873641490936,-0.0308486707508564
1751619064079667000,6.7566669921875,-3.101360559463501,0.011759147047996521,-0.012522728182375431
1751619064098490400,6.775490478515625,-2.9889614582061768,-0.0383317656815052,-0.025961752980947495
1751619064117313800,6.794313720703125,-2.0885467529296875,-0.031001387163996696,-0.018631376326084137
1751619064136137200,6.81313720703125,-0.7544180154800415,-0.02000582218170166,-0.011300998739898205
1751619064154960600,6.831960693359375,0.20341797173023224,0.016646064817905426,0.005650499369949102
1751619064173784000,6.8507841796875,1.592524528503418,0.0032070400193333626,0.008093958720564842
1751619064192607500,6.869607421875,4.133721828460693,-0.22036947309970856,-0.04306596517562866
1751619064211431000,6.888430908203125,5.957764148712158,-0.40607234835624695,-0.04428769648075104
1751619064230254300,6.90725439453125,6.015185356140137,0.22189663350582123,0.20357069373130798
1751619064249077800,6.926077880859375,4.6370744705200195,0.4454731345176697,0.23533566296100616
1751619064267901200,6.944901123046875,3.0353870391845703,0.35873034596443176,0.12904518842697144
1751619064286724900,6.963724853515625,1.57297682762146,-0.011453714221715927,0.009315688163042068
1751619064305548300,6.98254833984375,0.0409279391169548,0.08750637620687485,0.02764163166284561
1751619064324371700,7.001371826171875,-0.5564978122711182,0.0642935186624527,0.0154243353754282
1751619064343195100,7.020195068359375,-0.8985821008682251,0.010537417605519295,-0.002901607658714056
1751619064362018600,7.0390185546875,-1.3359612226486206,-0.005345067009329796,-0.008857538923621178
1751619064380842000,7.057842041015625,-1.92361319065094,-0.031001387163996696,-0.014966187067329884
1751619064399665400,7.07666552734375,-2.447735071182251,-0.09453132748603821,-0.024892739951610565
1751619064418488800,7.09548876953125,-2.95963978767395,-0.06765327602624893,-0.023518294095993042
1751619064437312300,7.114312255859375,-3.579056739807129,-0.12751802802085876,-0.041844237595796585
1751619064456135700,7.1331357421875,-4.026209831237793,-0.17516547441482544,-0.07238747924566269
1751619064474959000,7.151958984375,-4.072635650634766,-0.28267768025398254,-0.12125665694475174
1751619064493782500,7.170782470703125,-3.4605488777160645,-0.08109229803085327,-0.057726722210645676
1751619064512606000,7.18960595703125,-2.1801764965057373,0.03252854943275452,-0.010079269297420979
1751619064531429600,7.2084296875,-0.5442805290222168,0.026419902220368385,0.004428769461810589
1751619064550253000,7.227253173828125,0.1178968995809555,0.02764163166284561,0.008093958720564842
1751619064569076500,7.246076416015625,0.6872228980064392,0.08017600327730179,0.02764163166284561
1751619064587900000,7.26489990234375,2.0824379920959473,0.06551524996757507,0.02764163166284561
1751619064606723300,7.283723388671875,4.100735187530518,0.06307178735733032,0.039858926087617874
1751619064625546800,7.302546630859375,5.637670993804932,0.3721693754196167,0.13271036744117737
1751619064644370200,7.3213701171875,5.579028129577637,0.1204930767416954,0.05085449293255806
1751619064663193600,7.340193603515625,4.220464706420898,0.08384118974208832,0.0386371985077858
1751619064682017000,7.35901708984375,2.3646576404571533,0.04108065739274025,0.022754713892936707
1751619064700840400,7.37784033203125,0.6542361974716187,0.009315688163042068,0.006872228812426329
1751619064719663900,7.396663818359375,-0.06536252796649933,-0.006566796451807022,-0.00045814859913662076
1751619064738487300,7.4154873046875,-0.3536907136440277,-0.013897174037992954,-0.005345067009329796
1751619064757310700,7.434310791015625,-1.2516618967056274,-0.02367101050913334,-0.013744457624852657
1751619064776134400,7.453134521484375,-2.6199989318847656,-0.034666575491428375,-0.024892739951610565
1751619064794957800,7.471957763671875,-4.474584579467773,-0.12018764764070511,-0.05528326332569122
1751619064813781200,7.49078125,-6.312065601348877,-0.43661558628082275,-0.17256930470466614
1751619064832604700,7.509604736328125,-6.998677730560303,-0.49892380833625793,-0.23976442217826843
1751619064851428000,7.528427978515625,-5.5338239669799805,-0.1568395346403122,-0.14340050518512726
1751619064870251500,7.54725146484375,-2.6004514694213867,0.1314886510372162,0.0019853105768561363
1751619064889075000,7.566074951171875,0.06902772188186646,0.022754713892936707,0.005650499369949102
1751619064907898400,7.5848984375,1.3726131916046143,0.0642935186624527,0.03375028073787689
1751619064926721800,7.6037216796875,2.951087713241577,0.23777911067008972,0.0948367565870285
1751619064945545200,7.622545166015625,4.510014533996582,0.2842048406600952,0.1253799945116043
1751619064964368600,7.64136865234375,5.489841938018799,0.0899498388171196,0.07284562289714813
1751619064983192000,7.660192138671875,5.211287498474121,0.21090106666088104,0.09361502528190613
1751619065002015700,7.679015625,4.136165618896484,0.19990549981594086,0.07651081681251526
1751619065020839200,7.697839111328125,2.514930248260498,0.03375028073787689,0.023976443335413933
1751619065039662600,7.71666259765625,0.5381718873977661,0.028863361105322838,0.009315688163042068
1751619065058486000,7.735486083984375,-0.5039634704589844,-0.002901607658714056,-0.005345067009329796
1751619065077309400,7.754309326171875,-1.3518437147140503,-0.054214250296354294,-0.024892739951610565
1751619065096132900,7.7731328125,-2.528369426727295,-0.09941824525594711,-0.04306596517562866
1751619065114956300,7.791956298828125,-4.020101070404053,-0.2240346521139145,-0.09682206809520721
1751619065133779700,7.81077978515625,-5.3212432861328125,-0.24724751710891724,-0.13713914155960083
1751619065152603100,7.82960302734375,-6.0481719970703125,-0.23258677124977112,-0.15668681263923645
1751619065171426600,7.848426513671875,-5.977312088012695,0.039858926087617874,-0.0565049909055233
1751619065190250000,7.86725,-4.9779372215271,-0.03955349326133728,-0.05406153202056885
1751619065209073400,7.886073486328125,-2.855792760848999,0.06673697382211685,0.0019853105768561363
1751619065227896800,7.904896728515625,0.4465421438217163,0.022754713892936707,0.010537417605519295
1751619065246720300,7.92372021484375,3.0109524726867676,0.14981459081172943,0.06307178735733032
1751619065265543700,7.942543701171875,4.990154266357422,0.11316270381212234,0.055741410702466965
1751619065284367400,7.961367431640625,5.9113383293151855,0.1302669197320938,0.06795870512723923
1751619065303190800,7.980190673828125,5.950433731079102,0.14859285950660706,0.07040216773748398
1751619065322014200,7.99901416015625,5.393325328826904,0.12415826320648193,0.05940660089254379
1751619065340837600,8.017837646484375,4.01154899597168,0.14737112820148468,0.05696314200758934
1751619065359661000,8.0366611328125,2.028681993484497,0.0691804364323616,0.026419902220368385
1751619065378484500,8.055484375,0.2254091054201126,0.014202605932950974,0.004428769461810589
1751619065397308000,8.074307861328125,-0.28038692474365234,-0.005345067009329796,-0.002901607658714056
1751619065416131300,8.09313134765625,-0.5992583632469177,-0.021227551624178886,-0.005345067009329796
1751619065434954800,8.111954833984376,-1.5961896181106567,-0.03588830679655075,-0.012522728182375431
1751619065453778200,8.130778076171875,-3.400684118270874,-0.10186170041561127,-0.03940077871084213
1751619065472601600,8.1496015625,-5.278482437133789,-0.3107774555683136,-0.12736530601978302
1751619065491425000,8.168425048828125,-6.34260892868042,-0.15317434072494507,-0.10537417232990265
1751619065510248400,8.18724853515625,-5.9333295822143555,-0.060322895646095276,-0.04428769648075104
1751619065529071900,8.20607177734375,-4.043313980102539,-0.08231402933597565,-0.03695731982588768
1751619065547895300,8.224895263671876,-1.3628393411636353,-0.022449281066656113,-0.010079269297420979
1751619065566719000,8.243718994140625,1.1246020793914795,0.02519817277789116,0.011759147047996521
1751619065585542400,8.26254248046875,3.3371543884277344,0.06062832847237587,0.03130681812763214
1751619065604365800,8.28136572265625,5.400655746459961,0.055741410702466965,0.03741546720266342
1751619065623189200,8.300189208984374,6.619941711425781,0.3196350038051605,0.12660172581672668
1751619065642012700,8.3190126953125,6.7408928871154785,0.15836669504642487,0.0691804364323616
1751619065660836000,8.337836181640625,5.883238792419434,0.14859285950660706,0.05818486958742142
1751619065679659500,8.356659423828125,4.186256408691406,0.24266603589057922,0.06673697382211685
1751619065698483000,8.37548291015625,1.8002184629440308,0.011759147047996521,0.011759147047996521
1751619065717306400,8.394306396484374,-0.3390299379825592,-0.004123337101191282,-0.00045814859913662076
1751619065736129800,8.4131298828125,-1.4617993831634521,-0.02367101050913334,-0.008857538923621178
1751619065754953200,8.431953125,-3.0891432762145996,-0.20570871233940125,-0.0565049909055233
1751619065783188500,8.4601884765625,-5.374999046325684,-0.3938550651073456,-0.1519526094198227
1751619065802012000,8.479011962890626,-6.253422737121582,-0.32910341024398804,-0.17256930470466614
1751619065820835300,8.49783544921875,-6.4476776123046875,0.011759147047996521,-0.06994401663541794
1751619065839658800,8.51665869140625,-5.677988052368164,0.005650499369949102,-0.04062250629067421
1751619065858482200,8.535482177734375,-4.088518142700195,-0.03955349326133728,-0.035735588520765305
1751619065877305600,8.5543056640625,-1.747684121131897,0.01908952370285988,-0.001679878099821508
1751619065896129000,8.57312890625,0.5809323787689209,-0.028557928279042244,-0.004123337101191282
1751619065914952400,8.591952392578126,1.8063271045684814,-0.05299251899123192,-0.007635809946805239
1751619065933776000,8.61077587890625,2.8008151054382324,-0.031001387163996696,0.014202605932950974
1751619065952599300,8.629599365234375,3.7256643772125244,-0.024892739951610565,0.023976443335413933
1751619065971422700,8.648422607421875,4.612639904022217,0.18280129134655,0.10949750989675522
1751619065990246100,8.66724609375,5.133096694946289,0.14859285950660706,0.09117157012224197
1751619066009069600,8.686069580078126,4.512458324432373,0.30863943696022034,0.13393209874629974
1751619066027893200,8.704893310546876,3.227198600769043,0.17302745580673218,0.06795870512723923
1751619066046716700,8.723716552734375,2.171624183654785,0.04718930274248123,0.022754713892936707
1751619066065540000,8.7425400390625,1.4520255327224731,0.03497200831770897,0.0154243353754282
1751619066084363500,8.761363525390625,0.9511164426803589,0.023976443335413933,0.010537417605519295
1751619066103187000,8.78018701171875,0.3659079968929291,0.005650499369949102,0.0032070400193333626
1751619066122010400,8.79901025390625,0.004276053514331579,0.0032070400193333626,0.0007635809597559273
1751619066140833800,8.817833740234375,-0.025045456364750862,-0.00045814859913662076,-0.00045814859913662076
1751619066159657200,8.8366572265625,-0.6811142563819885,-0.02611446939408779,-0.008857538923621178
1751619066178480600,8.855480712890625,-1.9553781747817993,-0.05299251899123192,-0.022296564653515816
1751619066197304000,8.874303955078124,-3.2504115104675293,-0.05177079141139984,-0.028405211865901947
1751619066216127500,8.89312744140625,-4.219243049621582,-0.21670427918434143,-0.06994401663541794
1751619066234951000,8.911950927734376,-4.461145401000977,-0.08231402933597565,-0.04062250629067421
1751619066253774300,8.9307744140625,-3.179551124572754,-0.05787943676114082,-0.028405211865901947
1751619066272597800,8.94959765625,-0.7971785664558411,-0.009010255336761475,-0.006414080038666725
1751619066291421200,8.968421142578125,0.04825831577181816,0.010537417605519295,0.0019853105768561363
1751619066310244600,8.98724462890625,0.0824667438864708,0.012980876490473747,0.004428769461810589
1751619066329068000,9.006068115234376,0.8741474747657776,0.03497200831770897,0.012980876490473747
1751619066347891500,9.024891357421875,2.445291757583618,0.049632761627435684,0.023976443335413933
1751619066366715000,9.04371484375,3.9748971462249756,0.11194097250699997,0.04474584385752678
1751619066385538600,9.06253857421875,4.973050117492676,0.06307178735733032,0.036193739622831345
1751619066404362000,9.081362060546875,5.478846073150635,0.11316270381212234,0.04841103404760361
1751619066423185400,9.100185302734374,5.472737789154053,0.16081015765666962,0.0691804364323616
1751619066442008800,9.1190087890625,4.607752799987793,0.06795870512723923,0.039858926087617874
1751619066460832300,9.137832275390625,2.701854944229126,0.09972367435693741,0.036193739622831345
1751619066479655700,9.15665576171875,0.08491020649671555,0.05940660089254379,0.014202605932950974
1751619066498479000,9.17547900390625,-1.9443825483322144,-0.02611446939408779,-0.01740964688360691
1751619066517302500,9.194302490234374,-3.800189733505249,-0.2032652497291565,-0.057726722210645676
1751619066536126000,9.2131259765625,-5.23694372177124,-0.11285726726055145,-0.0565049909055233
1751619066554949400,9.231949462890626,-6.20333194732666,-0.281455934047699,-0.11514800786972046
1751619066573772800,9.250772705078125,-6.887500286102295,-0.31444263458251953,-0.15668681263923645
1751619066592596200,9.26959619140625,-7.274788856506348,-0.25702136754989624,-0.168904110789299
1751619066611419600,9.288419677734375,-6.878948211669922,-0.17638720571994781,-0.15057817101478577
1751619066630243000,9.3072431640625,-5.557036876678467,0.08628465235233307,-0.03329212963581085
1751619066649066500,9.32606640625,-3.66091251373291,-0.044440411031246185,-0.04428769648075104
1751619066667890000,9.344889892578125,-1.3103049993515015,0.10583232343196869,0.023976443335413933
1751619066686713300,9.36371337890625,0.8142827749252319,-0.028557928279042244,-0.001679878099821508
1751619066705536800,9.382536865234375,2.9804091453552246,0.030085090547800064,0.03252854943275452
1751619066724360200,9.401360107421874,5.724413871765137,0.02153298258781433,0.05818486958742142
1751619066743184000,9.420183837890624,7.588773250579834,0.0691804364323616,0.08628465235233307
1751619066762007300,9.43900732421875,7.747598171234131,0.36361727118492126,0.17058399319648743
1751619066780830700,9.457830810546875,6.319396018981934,0.25610506534576416,0.10461059212684631
1751619066799654100,9.476654052734375,3.895484685897827,0.11927134543657303,0.0435241162776947
1751619066818477600,9.4954775390625,1.0757328271865845,0.01908952370285988,0.011759147047996521
1751619066837301000,9.514301025390624,-0.6236929297447205,-0.017562363296747208,-0.005345067009329796
1751619066856124400,9.53312451171875,-1.5399900674819946,-0.03222311660647392,-0.013744457624852657
1751619066874947800,9.55194775390625,-2.7287330627441406,-0.14462223649024963,-0.04917461425065994
1751619066893771300,9.570771240234375,-4.594314098358154,-0.19349141418933868,-0.0772743970155716
1751619066912594700,9.5895947265625,-6.82274866104126,-0.3474293351173401,-0.16294817626476288
1751619066931418000,9.608418212890625,-8.54050064086914,-0.42684176564216614,-0.23976442217826843
1751619066950241500,9.627241455078124,-8.472084045410156,0.3000873327255249,-0.005345067009329796
1751619066969065000,9.64606494140625,-6.004189968109131,-0.13484840095043182,-0.07849612087011337
1751619066987888400,9.664888427734375,-1.8551963567733765,0.10461059212684631,0.030085090547800064
1751619067006711800,9.6837119140625,1.5008947849273682,-0.02367101050913334,-0.007635809946805239
1751619067025535200,9.70253515625,4.138608932495117,0.030085090547800064,0.02519817277789116
1751619067044358700,9.721358642578124,6.360934734344482,0.07162389904260635,0.06062832847237587
1751619067063182000,9.74018212890625,7.494699954986572,0.06795870512723923,0.07284562289714813
1751619067082005500,9.759005615234376,7.29922342300415,0.2597702443599701,0.13881902396678925
1751619067100829000,9.777828857421875,6.2326531410217285,0.28787001967430115,0.12171480804681778
1751619067119652400,9.79665234375,4.684721946716309,0.24633121490478516,0.0899498388171196
1751619067138475800,9.815475830078125,2.7653849124908447,0.039858926087617874,0.020311253145337105
1751619067157299200,9.83429931640625,0.6114756464958191,0.016646064817905426,0.006872228812426329
1751619067176123000,9.853122802734376,-0.5919279456138611,-0.006566796451807022,-0.002901607658714056
1751619067194946000,9.871946044921875,-1.6157373189926147,-0.10430516302585602,-0.034666575491428375
1751619067213769500,9.89076953125,-2.931540012359619,-0.04810560122132301,-0.02718348242342472
1751619067232593200,9.90959326171875,-4.188699722290039,-0.1360701322555542,-0.05528326332569122
1751619067251416600,9.92841650390625,-5.118435859680176,-0.22647811472415924,-0.09926552325487137
1751619067270240000,9.947239990234374,-5.720748424530029,-0.054214250296354294,-0.05039634555578232
1751619067289063400,9.9660634765625,-5.023140907287598,-0.06887500733137131,-0.03940077871084213
1751619067307886800,9.984886962890625,-2.565021276473999,-0.034666575491428375,-0.02000582218170166
1751619067326710300,10.003710205078125,0.6823359727859497,0.0032070400193333626,0.0032070400193333626
1751619067345533700,10.02253369140625,3.079369306564331,0.04718930274248123,0.02519817277789116
1751619067364357000,10.041357177734374,5.050019264221191,0.16936226189136505,0.061850059777498245
1751619067383180500,10.0601806640625,6.0787153244018555,0.2084576040506363,0.06673697382211685
1751619067402004000,10.07900390625,6.261974811553955,0.1204930767416954,0.05085449293255806
1751619067420827400,10.097827392578125,5.5057244300842285,0.08384118974208832,0.039858926087617874
1751619067439650800,10.11665087890625,3.8062984943389893,0.08872810751199722,0.039858926087617874
1751619067458474200,10.13547412109375,1.2712095975875854,0.04108065739274025,0.016646064817905426
1751619067477297700,10.154297607421874,-0.8338304162025452,-0.004123337101191282,-0.005345067009329796
1751619067496121000,10.17312109375,-2.382983446121216,-0.06520981341600418,-0.02718348242342472
1751619067514944500,10.191944580078125,-4.0921831130981445,-0.07864884287118912,-0.03940077871084213
1751619067533768000,10.210767822265625,-5.554593563079834,-0.37552911043167114,-0.13484840095043182
1751619067552591400,10.22959130859375,-6.495325088500977,-0.011453714221715927,-0.047952886670827866
1751619067571414800,10.248414794921874,-6.883835315704346,-0.09575305134057999,-0.08093958348035812
1751619067590238200,10.26723828125,-6.061611175537109,-0.03955349326133728,-0.03817904740571976
1751619067609061600,10.2860615234375,-3.6755733489990234,-0.040775224566459656,-0.023518294095993042
1751619067627885000,10.304885009765625,-0.07757982611656189,-0.022449281066656113,-0.004123337101191282
1751619067646708500,10.32370849609375,2.5198171138763428,0.07162389904260635,0.02519817277789116
1751619067665532000,10.342531982421875,4.407389163970947,0.05696314200758934,0.02764163166284561
1751619067684355300,10.361355224609374,5.434864044189453,0.0642935186624527,0.0386371985077858
1751619067703178800,10.3801787109375,5.792830467224121,0.10094540566205978,0.05940660089254379
1751619067722002200,10.399002197265625,5.470293998718262,0.22678354382514954,0.09605848789215088
1751619067740825900,10.417825927734375,4.701826095581055,0.17547090351581573,0.06795870512723923
1751619067759649300,10.436649169921875,3.3909103870391846,0.09239330142736435,0.0386371985077858
1751619067778472700,10.45547265625,1.6462805271148682,0.03741546720266342,0.016646064817905426
1751619067797296000,10.474296142578124,0.16554436087608337,0.010537417605519295,0.004428769461810589
1751619067816119600,10.49311962890625,-0.20463970303535461,-0.00045814859913662076,-0.00045814859913662076
1751619067834943000,10.51194287109375,-0.8008437156677246,-0.011453714221715927,-0.005345067009329796
1751619067853766400,10.530766357421875,-2.380540132522583,-0.06520981341600418,-0.02977965772151947
1751619067872589800,10.54958984375,-4.489245414733887,-0.11774418503046036,-0.047952886670827866
1751619067891413200,10.568413330078124,-6.095819473266602,-0.3352120518684387,-0.12492185086011887
1751619067910236700,10.587236572265626,-6.7017974853515625,-0.18860450387001038,-0.10659590363502502
1751619067929060000,10.60606005859375,-6.429351806640625,-0.12385283410549164,-0.07360920310020447
1751619067947883500,10.624883544921875,-5.0976667404174805,0.012980876490473747,-0.018631376326084137
1751619067966707000,10.64370703125,-2.117868185043335,-0.012675444595515728,-0.006414080038666725
1751619067985530400,10.6625302734375,1.2541054487228394,0.039858926087617874,0.014202605932950974
1751619068004353800,10.681353759765624,3.895484685897827,0.030085090547800064,0.022754713892936707
1751619068023177200,10.70017724609375,6.098263263702393,0.1302669197320938,0.06307178735733032
1751619068042000600,10.719000732421875,7.29311466217041,0.18890993297100067,0.08261945843696594
1751619068060824000,10.737823974609375,7.489812850952148,0.16814053058624268,0.08139773458242416
1751619068079647500,10.7566474609375,6.6321587562561035,0.14004075527191162,0.0691804364323616
1751619068098471000,10.775470947265624,4.721374034881592,0.1766926348209381,0.07528908550739288
1751619068117294300,10.79429443359375,1.9639302492141724,0.10949750989675522,0.03375028073787689
1751619068136117800,10.81311767578125,-0.1899789422750473,-0.00045814859913662076,-0.001679878099821508
1751619068154941200,10.831941162109375,-0.5308414697647095,-0.031001387163996696,-0.007635809946805239
1751619068173764600,10.8507646484375,-1.065959095954895,-0.04199695214629173,-0.011300998739898205
1751619068192588000,10.869588134765625,-2.2644758224487305,-0.050549060106277466,-0.02107483521103859
1751619068211411500,10.888411376953124,-4.243677616119385,-0.15928299725055695,-0.0565049909055233
1751619068230235000,10.90723486328125,-6.07382869720459,-0.2130390852689743,-0.09071341902017593
1751619068249058300,10.926058349609375,-7.199041366577148,-0.31810784339904785,-0.145843967795372
1751619068267881700,10.9448818359375,-7.525243282318115,-0.187382772564888,-0.1311832070350647
1751619068286705200,10.963705078125,-6.607724189758301,0.05696314200758934,-0.016187917441129684
1751619068305528600,10.982528564453125,-3.4544403553009033,-0.050549060106277466,-0.02107483521103859
1751619068324352000,11.00135205078125,1.1820234060287476,0.026419902220368385,0.010537417605519295
1751619068343175400,11.020175537109376,4.9217376708984375,0.04841103404760361,0.02764163166284561
1751619068361998800,11.038998779296875,7.62175989151001,0.16814053058624268,0.07773254066705704
1751619068380822300,11.057822265625,8.815389633178711,0.2438877671957016,0.09605848789215088
1751619068399645700,11.076645751953125,8.373123168945312,0.21700970828533173,0.08384118974208832
1751619068418469000,11.09546923828125,6.266861915588379,0.16569706797599792,0.06551524996757507
1751619068437292500,11.11429248046875,2.9962916374206543,0.0850629210472107,0.03252854943275452
1751619068456116200,11.1331162109375,-0.2559523284435272,0.005650499369949102,-0.001679878099821508
1751619068474939600,11.151939697265625,-2.268141031265259,-0.06643154472112656,-0.02000582218170166
1751619068493763000,11.17076318359375,-4.002996921539307,-0.11285726726055145,-0.04428769648075104
1751619068512586200,11.189586181640625,-5.39821195602417,-0.2240346521139145,-0.08093958348035812
1751619068531410000,11.208409912109374,-6.560076713562012,-0.32910341024398804,-0.15057817101478577
1751619068550233300,11.2272333984375,-7.348092555999756,-0.4696022868156433,-0.23976442217826843
1751619068569056800,11.246056884765625,-7.245467185974121,0.05940660089254379,-0.08093958348035812
1751619068587880200,11.264880126953125,-5.697535991668701,-0.06276635825634003,-0.08093958348035812
1751619068606703600,11.28370361328125,-2.0995421409606934,0.17547090351581573,0.0435241162776947
1751619068625527000,11.302527099609375,1.618180751800537,0.11316270381212234,0.04474584385752678
1751619068644350500,11.3213505859375,4.1532697677612305,0.052076224237680435,0.03497200831770897
1751619068663174000,11.340173828125,5.785500526428223,-0.021227551624178886,0.026419902220368385
1751619068681997300,11.358997314453125,6.540529251098633,0.24999640882015228,0.1204930767416954
1751619068700820700,11.37782080078125,6.766549110412598,0.21212279796600342,0.0899498388171196
1751619068719644200,11.39664404296875,6.476999282836914,0.141262486577034,0.06307178735733032
1751619068738467600,11.415467529296874,5.348121166229248,0.2280052751302719,0.07773254066705704
1751619068757291000,11.434291015625,3.059821605682373,0.05329795181751251,0.02764163166284561
1751619068776114400,11.453114501953126,0.4221075773239136,0.045967575162649155,0.010537417605519295
1751619068794937900,11.471937744140625,-0.8448259830474854,-0.001679878099821508,-0.002901607658714056
1751619068813761300,11.49076123046875,-1.7721186876296997,-0.046883873641490936,-0.014966187067329884
1751619068832584700,11.509584716796875,-3.1416776180267334,-0.10186170041561127,-0.03817904740571976
1751619068851408100,11.528408203125,-4.572322845458984,-0.13362666964530945,-0.04917461425065994
1751619068870231600,11.5472314453125,-5.85636043548584,-0.19960007071495056,-0.08826996386051178
1751619068889055000,11.566054931640625,-6.882613658905029,-0.3400989770889282,-0.14813470840454102
1751619068907878400,11.58487841796875,-7.344427108764648,0.09972367435693741,-0.012522728182375431
1751619068926701800,11.603701904296875,-6.825191974639893,-0.09697478264570236,-0.05528326332569122
1751619068945525200,11.622525146484374,-4.541779518127441,-0.07742711156606674,-0.032070402055978775
1751619068964348700,11.6413486328125,-0.4831940531730652,-0.034666575491428375,-0.007635809946805239
1751619068983172000,11.660172119140626,2.643211841583252,0.03497200831770897,0.017867794260382652
1751619069001995500,11.67899560546875,5.395768642425537,0.07284562289714813,0.03497200831770897
1751619069020819000,11.69781884765625,7.080533504486084,0.11804962158203125,0.06551524996757507
1751619069039642400,11.716642333984375,7.7524847984313965,0.2084576040506363,0.09117157012224197
1751619069058465800,11.7354658203125,7.3639750480651855,0.2084576040506363,0.0899498388171196
1751619069077289200,11.754289306640626,5.9809770584106445,0.15836669504642487,0.05940660089254379
1751619069096112600,11.773112548828125,3.7647595405578613,0.10461059212684631,0.04474584385752678
1751619069114936000,11.79193603515625,1.0244202613830566,0.023976443335413933,0.012980876490473747
1751619069133759500,11.810759521484375,-0.8521563410758972,-0.011453714221715927,-0.005345067009329796
1751619069152583000,11.8295830078125,-2.232710838317871,-0.046883873641490936,-0.02000582218170166
1751619069171406300,11.84840625,-3.819737434387207,-0.11163553595542908,-0.04306596517562866
1751619069190229800,11.867229736328126,-5.301695346832275,-0.2631300091743469,-0.10170898586511612
1751619069209053200,11.88605322265625,-6.412247657775879,-0.4402807950973511,-0.18600831925868988
1751619069227876600,11.904876708984375,-7.102524757385254,-0.37064221501350403,-0.20922118425369263
1751619069246700000,11.923699951171875,-6.379261016845703,0.34406960010528564,0.03130681812763214
1751619069265523500,11.9425234375,-3.4458882808685303,-0.022449281066656113,-0.028405211865901947
1751619069284347000,11.961346923828126,0.6224712133407593,0.004428769461810589,0.005650499369949102
1751619069303170300,11.98017041015625,3.4825401306152344,0.08384118974208832,0.0435241162776947
1751619069321993700,11.99899365234375,5.456855297088623,0.13393209874629974,0.0691804364323616
1751619069340817200,12.017817138671875,6.21310567855835,0.18280129134655,0.07651081681251526
1751619069359640600,12.036640625,6.053059101104736,0.1510363221168518,0.0642935186624527
1751619069378464000,12.055464111328124,5.557036876678467,0.11682789027690887,0.05085449293255806
1751619069397287400,12.074287353515626,4.817890644073486,0.13515383005142212,0.052076224237680435
1751619069416110800,12.09311083984375,3.403127670288086,0.0850629210472107,0.03375028073787689
1751619069434934300,12.111934326171875,1.0855066776275635,0.04108065739274025,0.016646064817905426
1751619069453757700,12.1307578125,-0.6688969135284424,-0.02367101050913334,-0.007635809946805239
1751619069472581000,12.1495810546875,-1.8918482065200806,-0.05787943676114082,-0.02107483521103859
1751619069491404500,12.168404541015626,-3.524078845977783,-0.15439607203006744,-0.05528326332569122
1751619069510228000,12.18722802734375,-5.249161243438721,-0.25702136754989624,-0.10659590363502502
1751619069529051400,12.206051513671875,-6.604059219360352,-0.3767508566379547,-0.1750127524137497
1751619069547874800,12.224874755859375,-7.085420608520508,-0.3767508566379547,-0.21777328848838806
1751619069566698200,12.2436982421875,-6.423243045806885,0.3868301212787628,0.039858926087617874
1751619069585521700,12.262521728515624,-4.14716100692749,-0.05787943676114082,-0.03329212963581085
1751619069604345000,12.281344970703126,-0.4685332775115967,-0.028557928279042244,-0.006414080038666725
1751619069623168800,12.300168701171875,2.386648654937744,0.07773254066705704,0.03497200831770897
1751619069641992200,12.3189921875,4.455036640167236,0.04718930274248123,0.036193739622831345
1751619069660815400,12.3378154296875,6.143466949462891,0.08384118974208832,0.055741410702466965
1751619069679638800,12.356638671875,7.5460124015808105,0.09117157012224197,0.0691804364323616
1751619069698462500,12.37546240234375,7.831897258758545,0.26221370697021484,0.1302669197320938
1751619069717286000,12.394285888671876,6.132471561431885,0.23167046904563904,0.07773254066705704
1751619069736109000,12.413109130859375,3.1954336166381836,0.14248420298099518,0.036193739622831345
1751619069754932700,12.4319326171875,0.18142683804035187,0.0154243353754282,0.0019853105768561363
1751619069773756200,12.450756103515625,-0.9193515181541443,-0.013897174037992954,-0.004123337101191282
1751619069792579600,12.46957958984375,-1.805105447769165,-0.060322895646095276,-0.012522728182375431
1751619069811403000,12.488403076171876,-2.649320602416992,-0.14828743040561676,-0.035735588520765305
1751619069830226400,12.507226318359375,-3.884489059448242,-0.11407899856567383,-0.04306596517562866
1751619069849049900,12.5260498046875,-5.224726676940918,-0.2741255760192871,-0.10415244847536087
1751619069867873300,12.544873291015625,-5.8270392417907715,-0.3046688139438629,-0.1311832070350647
1751619069886696700,12.56369677734375,-5.3297953605651855,-0.031001387163996696,-0.06383536756038666
1751619069905520000,12.58252001953125,-4.071413516998291,-0.006566796451807022,-0.02977965772151947
1751619069924343600,12.601343505859376,-2.8509058952331543,-0.001679878099821508,-0.016187917441129684
1751619069943167000,12.6201669921875,-0.8826996088027954,0.05696314200758934,0.014202605932950974
1751619069961990400,12.638990478515625,1.258992314338684,0.05085449293255806,0.022754713892936707
1751619069980813800,12.657813720703125,3.392132043838501,0.04718930274248123,0.03130681812763214
1751619069999637200,12.67663720703125,5.126987934112549,0.0691804364323616,0.052076224237680435
1751619070018460700,12.695460693359376,6.239983558654785,-0.05299251899123192,0.01908952370285988
1751619070037284000,12.7142841796875,6.47211217880249,-0.291229784488678,-0.022296564653515816
1751619070056107500,12.733107421875,5.6511101722717285,0.12660172581672668,0.14859285950660706
1751619070074931000,12.751930908203125,3.7562074661254883,0.8950695991516113,0.3379609286785126
1751619070093754400,12.77075439453125,1.2699878215789795,0.045967575162649155,0.022754713892936707
1751619070112577800,12.789577880859374,-0.4355465769767761,0.01908952370285988,0.005650499369949102
1751619070131401200,12.808401123046876,-1.4459168910980225,-0.04199695214629173,-0.011300998739898205
1751619070150224600,12.827224609375,-2.766606569290161,-0.11407899856567383,-0.03817904740571976
1751619070169048000,12.846048095703125,-4.224130153656006,-0.15317434072494507,-0.06017018109560013
1751619070187871500,12.86487158203125,-5.3578948974609375,-0.2643517255783081,-0.10903936624526978
1751619070206695000,12.88369482421875,-5.871021270751953,-0.3315468728542328,-0.15439607203006744
1751619070225518300,12.902518310546874,-5.999302864074707,-0.342542439699173,-0.18723005056381226
1751619070244341800,12.921341796875,-5.741518020629883,-0.187382772564888,-0.16646064817905426
1751619070263165200,12.940165283203125,-4.847211837768555,0.1925751268863678,-0.00045814859913662076
1751619070281988600,12.958988525390625,-3.1453428268432617,0.08750637620687485,-0.00045814859913662076
1751619070300812000,12.97781201171875,-0.8106175661087036,0.009315688163042068,0.0007635809597559273
1751619070319635500,12.996635498046874,0.9963204264640808,-0.05177079141139984,-0.008857538923621178
1751619070338459000,13.015458984375,2.838688611984253,-0.07009673118591309,0.010537417605519295
1751619070376105700,13.053105712890625,6.281522750854492,0.23533566296100616,0.17424917221069336
1751619070394929200,13.07192919921875,6.665145397186279,0.3159697949886322,0.16814053058624268
1751619070413752600,13.090752685546875,5.886903762817383,0.31352636218070984,0.14004075527191162
1751619070432576000,13.109575927734374,4.186256408691406,0.1766926348209381,0.07651081681251526
1751619070451399400,13.1283994140625,2.056781768798828,0.09239330142736435,0.03741546720266342
1751619070470222800,13.147222900390625,0.27916520833969116,0.04230238497257233,0.014202605932950974
1751619070489046300,13.16604638671875,-0.45509424805641174,0.008093958720564842,-0.00045814859913662076
1751619070507869700,13.18486962890625,-1.2076796293258667,-0.050549060106277466,-0.01740964688360691
1751619070526693000,13.203693115234374,-2.347553253173828,-0.14217877388000488,-0.05039634555578232
1751619070545516500,13.2225166015625,-3.8209590911865234,-0.20937390625476837,-0.0870482325553894
1751619070564340000,13.241340087890626,-5.287034511566162,-0.360868364572525,-0.168904110789299
1751619070583163400,13.260163330078125,-6.4110260009765625,-0.37064221501350403,-0.2153298407793045
1751619070601986800,13.27898681640625,-6.858179092407227,-0.1409570425748825,-0.18600831925868988
1751619070620810200,13.297810302734375,-5.719526767730713,0.41004297137260437,0.06795870512723923
1751619070639633700,13.316633544921874,-2.6505422592163086,0.03497200831770897,0.0032070400193333626
1751619070658457000,13.33545703125,0.6212494969367981,0.0154243353754282,0.009315688163042068
1751619070677280500,13.354280517578125,2.3732097148895264,0.049632761627435684,0.023976443335413933
1751619070696104000,13.37310400390625,3.915032386779785,0.0154243353754282,0.02764163166284561
1751619070714927400,13.39192724609375,5.311469078063965,0.12904518842697144,0.07773254066705704
1751619070733750800,13.410750732421874,6.479442596435547,0.1766926348209381,0.0899498388171196
1751619070752574200,13.42957421875,6.5002121925354,0.15836669504642487,0.06551524996757507
1751619070771397600,13.448397705078126,5.084227561950684,0.13881902396678925,0.05329795181751251
1751619070790221000,13.467220947265625,3.0524911880493164,0.09117157012224197,0.02764163166284561
1751619070809044500,13.48604443359375,1.0219768285751343,0.012980876490473747,0.005650499369949102
1751619070827868000,13.504867919921875,-0.03237583488225937,-0.002901607658714056,0.0007635809597559273
1751619070846691300,13.52369140625,-0.12400554865598679,0.005650499369949102,0.0032070400193333626
1751619070865514800,13.5425146484375,-0.6029235124588013,0.0032070400193333626,0.0032070400193333626
1751619070884338200,13.561338134765625,-1.6597195863723755,-0.05543597787618637,-0.014966187067329884
1751619070903161600,13.58016162109375,-3.138012409210205,-0.10063996911048889,-0.034666575491428375
1751619070921985000,13.598985107421875,-4.7372565269470215,-0.1568395346403122,-0.06017018109560013
1751619070940808400,13.617808349609374,-5.908895015716553,-0.19471314549446106,-0.07849612087011337
1751619070959632000,13.6366318359375,-6.192336082458496,-0.2863428592681885,-0.12614357471466064
1751619070978455300,13.655455322265626,-5.596132278442383,0.19624030590057373,0.02764163166284561
1751619070997278700,13.67427880859375,-3.800189733505249,-0.07498364895582199,-0.032070402055978775
1751619071016102100,13.69310205078125,-0.7812960743904114,-0.02367101050913334,-0.006414080038666725
1751619071034925600,13.711925537109375,1.2724313735961914,0.016646064817905426,0.009315688163042068
1751619071053749000,13.7307490234375,2.291353702545166,0.010537417605519295,0.011759147047996521
1751619071072572400,13.749572509765626,3.5167484283447266,0.06551524996757507,0.03741546720266342
1751619071091395800,13.768395751953125,4.9608330726623535,0.11927134543657303,0.05940660089254379
1751619071110219300,13.78721923828125,5.635227680206299,0.16814053058624268,0.06673697382211685
1751619071129042700,13.806042724609375,5.271152019500732,0.16447533667087555,0.05696314200758934
1751619071147866000,13.8248662109375,4.280329704284668,0.12171480804681778,0.0386371985077858
1751619071166689500,13.843689453125,3.2320854663848877,0.05696314200758934,0.02153298258781433
1751619071185513000,13.862512939453126,1.8613049983978271,0.03252854943275452,0.012980876490473747
1751619071204336400,13.88133642578125,0.19608759880065918,0.022754713892936707,0.006872228812426329
1751619071223159800,13.900159912109375,-0.7312051653862,-0.017562363296747208,-0.004123337101191282
1751619071241983200,13.918983154296875,-2.324340581893921,-0.07864884287118912,-0.024892739951610565
1751619071260806700,13.937806640625,-4.349967956542969,-0.13973531126976013,-0.047952886670827866
1751619071279630000,13.956630126953126,-5.928442478179932,-0.16905683279037476,-0.06994401663541794
1751619071298453500,13.97545361328125,-6.903382778167725,-0.2338084876537323,-0.09682206809520721
1751619071317277000,13.99427685546875,-7.096415996551514,-0.3168860971927643,-0.17623448371887207
1751619071336100400,14.013100341796875,-6.136136531829834,-0.3669770061969757,-0.19822561740875244
1751619071354923800,14.031923828125,-3.574169874191284,-0.11285726726055145,-0.09071341902017593
1751619071373747200,14.050747314453124,-0.6701186895370483,0.38072147965431213,0.12415826320648193
1751619071392570600,14.069570556640626,1.0989457368850708,0.23044873774051666,0.07651081681251526
1751619071411394000,14.08839404296875,2.2058327198028564,-0.2130390852689743,-0.057726722210645676
1751619071430217500,14.107217529296875,3.570504665374756,-0.23991714417934418,-0.03817904740571976
1751619071449041000,14.126041015625,5.647444725036621,-0.15561780333518982,0.05451968312263489
1751619071467864300,14.1448642578125,7.781806468963623,0.12782345712184906,0.20357069373130798
1751619071486687700,14.163687744140624,8.579595565795898,0.4760163724422455,0.3000873327255249
1751619071505511200,14.18251123046875,7.164833068847656,0.15592323243618011,0.12660172581672668
1751619071524334600,14.20133447265625,4.4049458503723145,0.7484620809555054,0.29275694489479065
1751619071543158000,14.220157958984375,1.5937461853027344,-0.0383317656815052,-0.001679878099821508
1751619071561981400,14.2389814453125,0.03481929376721382,0.026419902220368385,0.008093958720564842
1751619071580804900,14.257804931640624,-0.010384701192378998,0.008093958720564842,0.004428769461810589
1751619071599628300,14.276628173828126,-0.06291907280683517,0.010537417605519295,0.0032070400193333626
1751619071618451700,14.29545166015625,-0.09957095980644226,0.006872228812426329,0.0019853105768561363
1751619071637275100,14.314275146484375,-0.9584468603134155,-0.02977965772151947,-0.007635809946805239
1751619071656098600,14.3330986328125,-2.7812674045562744,-0.10430516302585602,-0.035735588520765305
1751619071674922000,14.351921875,-5.151422500610352,-0.19104796648025513,-0.07849612087011337
1751619071693745400,14.370745361328124,-6.888721942901611,-0.49892380833625793,-0.20448698103427887
1751619071712568800,14.38956884765625,-7.189267635345459,-0.503810703754425,-0.2666424810886383
1751619071731392300,14.408392333984375,-6.02984619140625,-0.13484840095043182,-0.17256930470466614
1751619071750215700,14.427215576171875,-3.7965245246887207,-0.1311832070350647,-0.12614357471466064
1751619071769039000,14.4460390625,-1.2675443887710571,-0.034666575491428375,-0.03817904740571976
1751619071787862500,14.464862548828124,0.6542361974716187,0.005650499369949102,0.0154243353754282
1751619071806686000,14.48368603515625,1.4104868173599243,0.030085090547800064,0.04230238497257233
1751619071825509400,14.50250927734375,2.03723406791687,0.03741546720266342,0.05696314200758934
1751619071844332800,14.521332763671875,2.3438880443573,0.026419902220368385,0.05818486958742142
1751619071863156200,14.54015625,2.775158643722534,0.0435241162776947,0.07284562289714813
1751619071881979600,14.558979736328125,3.5534005165100098,0.07773254066705704,0.10216713696718216
1751619071900803000,14.577802978515624,4.380511283874512,0.2854265570640564,0.17424917221069336
1751619071919626500,14.59662646484375,4.760469436645508,0.5713112950325012,0.2292270064353943
1751619071938450000,14.615449951171875,4.544223308563232,0.09239330142736435,0.049632761627435684
1751619071957273300,14.6342734375,3.9529058933258057,0.08017600327730179,0.045967575162649155
1751619071976096800,14.6530966796875,3.0109524726867676,0.09850194305181503,0.04108065739274025
1751619071994920200,14.671920166015624,1.2577705383300781,0.0435241162776947,0.02153298258781433
1751619072013743600,14.69074365234375,-0.2926042377948761,-0.00045814859913662076,-0.00045814859913662076
1751619072032567000,14.709567138671876,-1.2760965824127197,-0.017562363296747208,-0.010079269297420979
1751619072051390500,14.728390380859375,-3.009730815887451,-0.07254019379615784,-0.03329212963581085
1751619072070214000,14.7472138671875,-4.802008152008057,-0.15928299725055695,-0.06994401663541794
1751619072089037300,14.766037353515625,-5.951655387878418,-0.19349141418933868,-0.09437860548496246
1751619072107860700,14.78486083984375,-6.009077072143555,-0.3107774555683136,-0.13958260416984558
1751619072126684200,14.80368408203125,-5.1062188148498535,0.049632761627435684,-0.034666575491428375
1751619072145507600,14.822507568359375,-4.1508259773254395,-0.007788525894284248,-0.024892739951610565
1751619072164331000,14.8413310546875,-3.403127670288086,-0.022449281066656113,-0.02000582218170166
1751619072183154400,14.860154541015625,-2.1704025268554688,0.011759147047996521,-0.002901607658714056
1751619072201977900,14.878977783203124,0.16187916696071625,-0.054214250296354294,-0.001679878099821508
1751619072220801300,14.89780126953125,2.191171884536743,0.0154243353754282,0.01908952370285988
1751619072239624700,14.916624755859376,4.594314098358154,0.1253799945116043,0.04474584385752678
1751619072258448100,14.9354482421875,6.054280757904053,0.05818486958742142,0.0386371985077858
1751619072277271600,14.954271484375,6.21921443939209,0.25732678174972534,0.10094540566205978
1751619072296095000,14.973094970703125,5.031692981719971,0.07773254066705704,0.03130681812763214
1751619072314918400,14.99191845703125,3.034165382385254,0.05329795181751251,0.02764163166284561
1751619072333741800,15.010741943359376,1.4935643672943115,0.10338886082172394,0.03375028073787689
1751619072352565200,15.029565185546875,0.5137372612953186,0.004428769461810589,0.0032070400193333626
1751619072371388700,15.048388671875,0.04459312930703163,0.0032070400193333626,0.0007635809597559273
1751619072390212000,15.067212158203125,-0.02260199747979641,0.028863361105322838,0.006872228812426329
1751619072409035500,15.086035400390625,-0.5882627964019775,0.017867794260382652,0.0019853105768561363
1751619072427859000,15.10485888671875,-2.2204935550689697,-0.07498364895582199,-0.024892739951610565
1751619072446682600,15.1236826171875,-4.381732940673828,-0.09941824525594711,-0.03817904740571976
1751619072465506000,15.142506103515625,-5.989529132843018,-0.15561780333518982,-0.05894844979047775
1751619072484329500,15.16132958984375,-6.883835315704346,-0.2643517255783081,-0.09926552325487137
1751619072503153000,15.18015283203125,-7.007229804992676,-0.17516547441482544,-0.07849612087011337
1751619072521976300,15.198976318359374,-6.1960015296936035,-0.16905683279037476,-0.07605266571044922
1751619072540799700,15.2177998046875,-4.296212196350098,-0.22647811472415924,-0.09193515032529831
1751619072559623200,15.236623046875,-1.1038326025009155,0.2023489624261856,0.06062832847237587
1751619072578446600,15.255446533203125,1.6475023031234741,0.06062832847237587,0.02519817277789116
1751619072597270000,15.27427001953125,4.03964900970459,0.0850629210472107,0.03252854943275452
1751619072616093400,15.293093505859375,5.998081207275391,0.11927134543657303,0.049632761627435684
1751619072634916900,15.311916748046874,6.889944076538086,0.2023489624261856,0.0642935186624527
1751619072653740300,15.330740234375,6.659037113189697,0.14004075527191162,0.05451968312263489
1751619072672563700,15.349563720703125,5.798939228057861,0.11804962158203125,0.04474584385752678
1751619072691387100,15.36838720703125,4.323090076446533,0.08628465235233307,0.036193739622831345
1751619072710210600,15.38721044921875,2.606559991836548,0.05818486958742142,0.023976443335413933
1751619072729034200,15.4060341796875,1.0757328271865845,0.03252854943275452,0.010537417605519295
1751619072747857700,15.424857666015624,0.3121519088745117,0.01908952370285988,0.005650499369949102
1751619072766681000,15.44368115234375,0.20219624042510986,0.014202605932950974,0.004428769461810589
1751619072785504500,15.46250439453125,0.08368847519159317,0.012980876490473747,0.0019853105768561363
1751619072804328000,15.481327880859375,-0.27916520833969116,-0.002901607658714056,-0.004123337101191282
1751619072823151400,15.5001513671875,-1.3384047746658325,-0.05299251899123192,-0.013744457624852657
1751619072841974800,15.518974853515624,-3.0940301418304443,-0.0896444097161293,-0.0308486707508564
1751619072860798200,15.537798095703126,-4.991375923156738,-0.1360701322555542,-0.047952886670827866
1751619072879621600,15.55662158203125,-6.248535633087158,-0.22525638341903687,-0.0870482325553894
1751619072898445000,15.575445068359375,-6.754332065582275,-0.20937390625476837,-0.10903936624526978
1751619072917268500,15.5942685546875,-6.216770648956299,-0.27779075503349304,-0.12736530601978302
1751619072936092000,15.613091796875,-4.6285223960876465,-0.18005239963531494,-0.09804379940032959
1751619072954915600,15.63191552734375,-1.5497639179229736,0.10583232343196869,0.02519817277789116
1751619072973739000,15.650739013671876,1.9199479818344116,0.1510363221168518,0.06062832847237587
1751619072992562400,15.6695625,5.064680099487305,0.12415826320648193,0.049632761627435684
1751619073011385900,15.6883857421875,7.341983795166016,0.1815795600414276,0.0691804364323616
1751619073030209300,15.707209228515625,8.203303337097168,0.19624030590057373,0.07040216773748398
1751619073049032700,15.72603271484375,7.555786609649658,0.1510363221168518,0.05451968312263489
1751619073067856100,15.744856201171874,6.22532320022583,0.15592323243618011,0.06307178735733032
1751619073086679600,15.763679443359376,4.494132041931152,0.11682789027690887,0.052076224237680435
1751619073105503000,15.7825029296875,2.49538254737854,0.0435241162776947,0.02153298258781433
1751619073124326400,15.801326416015625,0.721431314945221,0.005650499369949102,0.006872228812426329
1751619073143150000,15.820150146484375,-0.07269290834665298,0.014202605932950974,0.008093958720564842
1751619073161973500,15.838973388671874,-0.46486809849739075,-0.0102319847792387,-0.004123337101191282
1751619073180797000,15.857796875,-1.7354668378829956,-0.0591011680662632,-0.022296564653515816
1751619073199620400,15.876620361328126,-3.504531145095825,-0.09330959618091583,-0.04062250629067421
1751619073218443800,15.89544384765625,-5.1062188148498535,-0.1617264449596405,-0.07116574794054031
1751619073237267200,15.91426708984375,-6.299848556518555,-0.228921577334404,-0.10170898586511612
1751619073256090600,15.933090576171875,-7.013338565826416,-0.31932955980300903,-0.15546508133411407
1751619073274914000,15.9519140625,-7.279675483703613,-0.48914995789527893,-0.2678641974925995
1751619073293737700,15.97073779296875,-6.51609468460083,-0.05299251899123192,-0.11148282140493393
1751619073312561200,15.98956103515625,-4.086074352264404,0.6458367705345154,0.18035782873630524
1751619073331384600,16.008384521484373,0.049480047076940536,0.04230238497257233,0.010537417605519295
1751619073350208000,16.0272080078125,2.771493434906006,0.0899498388171196,0.030085090547800064
1751619073387854800,16.064854736328126,5.271152019500732,0.1461493968963623,0.0435241162776947
1751619073406678300,16.08367822265625,5.381107807159424,0.10338886082172394,0.0435241162776947
1751619073425502000,16.102501953125,5.626675605773926,0.12415826320648193,0.04108065739274025
1751619073444325400,16.121325439453123,5.6486663818359375,0.09850194305181503,0.0386371985077858
1751619073463148800,16.140148681640625,4.861872673034668,0.1302669197320938,0.05085449293255806
1751619073481972200,16.15897216796875,2.9889614582061768,0.04230238497257233,0.023976443335413933
1751619073500795600,16.177795654296876,0.6163625717163086,0.02519817277789116,0.009315688163042068
1751619073519619000,16.196619140625,-0.17531819641590118,0.009315688163042068,0.0019853105768561363
1751619073538442500,16.2154423828125,-0.8460476994514465,-0.0102319847792387,-0.005345067009329796
1751619073557266000,16.234265869140625,-2.1300854682922363,-0.056657709181308746,-0.022296564653515816
1751619073576089600,16.253089599609375,-3.5717263221740723,-0.10674861818552017,-0.041844237595796585
1751619073594913000,16.2719130859375,-5.054905891418457,-0.06154462695121765,-0.03817904740571976
1751619073613736400,16.290736328125,-6.359713077545166,-0.15073087811470032,-0.05528326332569122
1751619073632559900,16.309559814453124,-7.159945964813232,-0.17394374310970306,-0.06750056147575378
1751619073651383300,16.32838330078125,-6.8862786293029785,-0.18616104125976562,-0.06994401663541794
1751619073670207000,16.34720703125,-4.5613274574279785,-0.10186170041561127,-0.03817904740571976
1751619073689030400,16.366030517578125,-0.23396120965480804,0.010537417605519295,0.004428769461810589
1751619073707853800,16.384853759765626,2.6273293495178223,0.06795870512723923,0.02519817277789116
1751619073726677200,16.40367724609375,4.707934856414795,0.1204930767416954,0.0386371985077858
1751619073745500700,16.422500732421874,5.8245954513549805,0.1204930767416954,0.049632761627435684
1751619073764324400,16.441324462890623,6.287631034851074,0.15225805342197418,0.05451968312263489
1751619073783147800,16.460147705078125,6.220436096191406,0.12782345712184906,0.049632761627435684
1751619073801971200,16.47897119140625,5.488620281219482,0.08384118974208832,0.0386371985077858
1751619073820794600,16.497794677734376,3.8551676273345947,0.09239330142736435,0.039858926087617874
1751619073839618000,16.5166181640625,1.978590965270996,0.05818486958742142,0.02153298258781433
1751619073858441500,16.53544140625,0.3634645342826843,0.01908952370285988,0.006872228812426329
1751619073877265000,16.554264892578125,-0.001832594396546483,0.0007635809597559273,0.0007635809597559273
1751619073896088600,16.573088623046875,-0.049480047076940536,-0.011453714221715927,-0.002901607658714056
1751619073914912000,16.591912109375,-0.8399390578269958,-0.03588830679655075,-0.010079269297420979
1751619073933735400,16.6107353515625,-2.5442519187927246,-0.06887500733137131,-0.028405211865901947
1751619073952558800,16.629558837890624,-4.596757411956787,-0.10063996911048889,-0.041844237595796585
1751619073971382500,16.648382568359374,-6.19111442565918,-0.13851359486579895,-0.05283980444073677
1751619073990206000,16.6672060546875,-7.290671348571777,-0.208152174949646,-0.07238747924566269
1751619074009029400,16.686029296875,-7.514247417449951,-0.24236060678958893,-0.09193515032529831
1751619074027852800,16.704852783203126,-6.444012641906738,-0.16661337018013,-0.061391908675432205
1751619074046676200,16.72367626953125,-3.4373362064361572,-0.05787943676114082,-0.02718348242342472
1751619074065499600,16.742499755859374,0.6713404059410095,0.03375028073787689,0.012980876490473747
1751619074084323300,16.7613232421875,3.428783893585205,0.08139773458242416,0.03130681812763214
1751619074103146800,16.780146728515625,5.515498161315918,0.13271036744117737,0.04841103404760361
1751619074121970200,16.79897021484375,6.5869550704956055,0.16569706797599792,0.0642935186624527
1751619074140793600,16.817793701171876,6.78487491607666,0.1571449637413025,0.06062832847237587
1751619074159617000,16.836616943359374,6.457451820373535,0.14981459081172943,0.055741410702466965
1751619074178440700,16.855440673828124,5.443416118621826,0.07895427197217941,0.03252854943275452
1751619074197264100,16.87426416015625,3.626704216003418,0.07651081681251526,0.03741546720266342
1751619074216087600,16.893087646484375,1.553429126739502,0.07040216773748398,0.02519817277789116
1751619074234911000,16.911910888671876,0.04214967042207718,0.02519817277789116,0.005650499369949102
1751619074253734700,16.930734619140626,-0.000610864779446274,-0.002901607658714056,-0.001679878099821508
1751619074272558000,16.94955810546875,-0.13133592903614044,-0.011453714221715927,-0.002901607658714056
1751619074291381500,16.968381591796874,-1.0916153192520142,-0.056657709181308746,-0.016187917441129684
1751619074310205000,16.987204833984375,-2.7922627925872803,-0.054214250296354294,-0.025961752980947495
1751619074329028400,17.0060283203125,-4.802008152008057,-0.12751802802085876,-0.04673115536570549
1751619074347852000,17.02485205078125,-6.35849142074585,-0.18127411603927612,-0.06994401663541794
1751619074366675500,17.043675537109376,-7.295557975769043,-0.21914774179458618,-0.09071341902017593
1751619074385499000,17.062498779296874,-7.699950695037842,-0.41095927357673645,-0.16768237948417664
1751619074404322300,17.081322265625,-6.820305347442627,0.08628465235233307,-0.02000582218170166
1751619074423146000,17.10014599609375,-3.448331594467163,0.01908952370285988,-0.006414080038666725
1751619074441969400,17.118969482421875,1.073289394378662,0.04474584385752678,0.01908952370285988
1751619074460792800,17.137792724609376,4.154491424560547,0.08750637620687485,0.03375028073787689
1751619074479616300,17.1566162109375,6.431795120239258,0.17058399319648743,0.0642935186624527
1751619074498439700,17.175439697265624,7.221032619476318,0.21945317089557648,0.07528908550739288
1751619074517263400,17.194263427734374,6.937591075897217,0.14492766559123993,0.05818486958742142
1751619074536086800,17.213086669921875,6.177675724029541,0.16569706797599792,0.05451968312263489
1751619074554910200,17.23191015625,4.973050117492676,0.07651081681251526,0.03130681812763214
1751619074573733600,17.250733642578126,3.274846076965332,0.09117157012224197,0.03497200831770897
1751619074592557300,17.269557373046876,1.3469568490982056,0.05818486958742142,0.020311253145337105
1751619074611380700,17.288380615234374,-0.020158538594841957,0.023976443335413933,0.005650499369949102
1751619074630204200,17.3072041015625,-0.29016077518463135,-0.005345067009329796,-0.001679878099821508
1751619074649027800,17.32602783203125,-0.9669989347457886,-0.027336198836565018,-0.007635809946805239
1751619074667851300,17.344851318359375,-2.03112530708313,-0.09453132748603821,-0.025961752980947495
1751619074686674700,17.3636748046875,-3.1917684078216553,-0.06887500733137131,-0.032070402055978775
1751619074705498000,17.382498046875,-4.274220943450928,-0.1153007298707962,-0.03940077871084213
1751619074724321800,17.40132177734375,-5.117214202880859,-0.15561780333518982,-0.05528326332569122
1751619074743145200,17.420145263671873,-5.680431365966797,-0.12751802802085876,-0.051618073135614395
1751619074761968600,17.43896875,-5.557036876678467,-0.1617264449596405,-0.06017018109560013
1751619074780792000,17.4577919921875,-4.319424629211426,-0.10674861818552017,-0.03940077871084213
1751619074799615700,17.47661572265625,-1.6829324960708618,-0.04810560122132301,-0.02000582218170166
1751619074818439200,17.495439208984376,1.026863694190979,0.02153298258781433,0.008093958720564842
1751619074837262600,17.5142626953125,3.205207586288452,0.05818486958742142,0.03130681812763214
1751619074856086000,17.5330859375,5.2687087059021,0.15958842635154724,0.06307178735733032
1751619074874909700,17.55190966796875,6.363378524780273,0.14370593428611755,0.05818486958742142
1751619074893733000,17.570733154296875,6.390256404876709,0.19013166427612305,0.06307178735733032
1751619074912556500,17.589556640625,5.69509220123291,0.12660172581672668,0.0435241162776947
1751619074931380200,17.608380126953126,4.364628791809082,0.1461493968963623,0.04841103404760361
1751619074950203600,17.62720361328125,2.760498046875,0.07162389904260635,0.028863361105322838
1751619074969027000,17.646027099609373,1.173471212387085,0.06551524996757507,0.0154243353754282
1751619074987850500,17.6648505859375,0.06780599057674408,0.030085090547800064,0.006872228812426329
1751619075006674200,17.683674072265624,-0.40378162264823914,-0.021227551624178886,-0.004123337101191282
1751619075025497600,17.70249755859375,-1.4104868173599243,-0.06276635825634003,-0.012522728182375431
1751619075044321000,17.721321044921876,-2.8240277767181396,-0.09330959618091583,-0.0308486707508564
1751619075063144400,17.74014453125,-4.5613274574279785,-0.13362666964530945,-0.05039634555578232
1751619075081968000,17.758968017578123,-6.150797367095947,-0.15317434072494507,-0.06017018109560013
1751619075100791600,17.77779150390625,-7.014560222625732,-0.2130390852689743,-0.08093958348035812
1751619075119615000,17.796614990234374,-6.903382778167725,-0.21670427918434143,-0.0821613147854805
1751619075138438700,17.815438720703124,-6.043285369873047,-0.12873975932598114,-0.07238747924566269
1751619075157262000,17.834261962890626,-4.688387393951416,-0.0896444097161293,-0.04062250629067421
1751619075176085500,17.85308544921875,-2.4966044425964355,0.03741546720266342,-0.00045814859913662076
1751619075194909200,17.8719091796875,0.3646862804889679,0.05696314200758934,0.0154243353754282
1751619075213732600,17.890732666015627,1.8991786241531372,0.02519817277789116,0.011759147047996521
1751619075232556000,17.90955615234375,4.149604320526123,0.08017600327730179,0.022754713892936707
1751619075251379500,17.92837939453125,6.566185474395752,0.1461493968963623,0.049632761627435684
1751619075270203100,17.947203125,8.208189964294434,0.18646647036075592,0.06551524996757507
1751619075289026600,17.966026611328125,8.74941635131836,0.14737112820148468,0.06795870512723923
1751619075307850000,17.98485009765625,7.842893123626709,0.1718057245016098,0.07162389904260635
1751619075326673700,18.003673583984376,5.499615669250488,0.13759729266166687,0.049632761627435684
1751619075345497000,18.0224970703125,2.6309945583343506,0.1204930767416954,0.03130681812763214
1751619075364320500,18.041320556640624,0.2779434621334076,0.02519817277789116,0.006872228812426329
1751619075383144200,18.060144287109374,-0.3659079968929291,0.006872228812426329,-0.00045814859913662076
1751619075401967600,18.078967529296875,-0.7128791809082031,0.008093958720564842,-0.002901607658714056
1751619075420791000,18.097791015625,-1.795331597328186,-0.04321868345141411,-0.007635809946805239
1751619075439614500,18.116614501953126,-3.403127670288086,-0.1360701322555542,-0.02718348242342472
1751619075458438100,18.135438232421876,-5.239387035369873,-0.11774418503046036,-0.04917461425065994
1751619075477261600,18.154261474609374,-6.827635765075684,-0.1971566081047058,-0.07605266571044922
1751619075496085000,18.1730849609375,-7.718276500701904,-0.23136503994464874,-0.0821613147854805
1751619075514908700,18.19190869140625,-7.598546981811523,-0.20204351842403412,-0.0772743970155716
1751619075533732000,18.210732177734375,-6.578402996063232,-0.1153007298707962,-0.06627883017063141
1751619075552555500,18.229555419921876,-4.748251914978027,-0.09086613357067108,-0.034666575491428375
1751619075571379200,18.248379150390626,-1.805105447769165,0.0154243353754282,-0.002901607658714056
1751619075590202600,18.26720263671875,0.9755510687828064,0.05940660089254379,0.016646064817905426
1751619075609026000,18.286026123046874,2.598007917404175,0.04841103404760361,0.0154243353754282
1751619075627849700,18.304849609375,4.5613274574279785,0.08384118974208832,0.028863361105322838
1751619075646673200,18.323673095703125,6.1850056648254395,0.10583232343196869,0.04841103404760361
1751619075665496600,18.34249658203125,7.124516010284424,0.19501857459545135,0.0642935186624527
1751619075684320300,18.3613203125,7.473930358886719,0.14492766559123993,0.05818486958742142
1751619075703143700,18.380143798828126,6.832522392272949,0.13881902396678925,0.055741410702466965
1751619075721967000,18.398967041015624,5.029249668121338,0.10827577859163284,0.04841103404760361
1751619075740790800,18.417790771484373,2.347553253173828,0.07895427197217941,0.02764163166284561
1751619075759614200,18.4366142578125,-0.056810423731803894,0.055741410702466965,0.011759147047996521
1751619075778438000,18.45543798828125,-0.8460476994514465,0.010537417605519295,-0.00045814859913662076
1751619075797261300,18.47426123046875,-1.433699607849121,-0.05299251899123192,-0.011300998739898205
1751619075816084700,18.493084716796876,-2.6761984825134277,-0.09086613357067108,-0.025961752980947495
1751619075834908200,18.511908203125,-4.445262908935547,-0.09086613357067108,-0.034666575491428375
1751619075853731800,18.53073193359375,-6.0567240715026855,-0.16661337018013,-0.06017018109560013
1751619075872555300,18.54955517578125,-7.291893005371094,-0.15317434072494507,-0.061391908675432205
1751619075891378700,18.568378662109374,-7.922305107116699,-0.19471314549446106,-0.07605266571044922
1751619075910202400,18.587202392578124,-7.932079315185547,-0.18860450387001038,-0.07116574794054031
1751619075929025800,18.60602587890625,-7.1794939041137695,-0.1568395346403122,-0.05283980444073677
1751619075947849200,18.62484912109375,-5.249161243438721,-0.11652245372533798,-0.047952886670827866
1751619075966673000,18.6436728515625,-1.3139700889587402,-0.024892739951610565,-0.005345067009329796
1751619075985496300,18.662496337890627,2.288910388946533,0.07284562289714813,0.020311253145337105
1751619076004320000,18.681320068359376,5.177079200744629,0.13271036744117737,0.05085449293255806
1751619076023143400,18.700143310546874,6.563742160797119,0.13515383005142212,0.0435241162776947
1751619076041966800,18.718966796875,6.717679977416992,0.17058399319648743,0.049632761627435684
1751619076060790500,18.73779052734375,6.0481719970703125,0.1510363221168518,0.05085449293255806
1751619076079614000,18.756614013671875,5.081784248352051,0.14248420298099518,0.0435241162776947
1751619076098437400,18.775437255859377,3.685347318649292,0.06062832847237587,0.022754713892936707
1751619076117261000,18.794260986328126,2.3536620140075684,0.061850059777498245,0.01908952370285988
1751619076136084500,18.81308447265625,1.1087195873260498,0.026419902220368385,0.010537417605519295
1751619076154908000,18.831907958984374,0.3194822669029236,0.004428769461810589,0.004428769461810589
1751619076173731600,18.850731689453124,0.001832594396546483,0.0019853105768561363,0.0007635809597559273
1751619076192555000,18.869554931640625,-0.000610864779446274,0.0007635809597559273,-0.00045814859913662076
1751619076211378400,18.88837841796875,0.001832594396546483,0.005650499369949102,0.0007635809597559273
1751619076230202000,18.9072021484375,0.004276053514331579,-0.004123337101191282,-0.001679878099821508
1751619076249025500,18.926025634765626,-0.17653992772102356,-0.02611446939408779,-0.006414080038666725
1751619076267849200,18.94484912109375,-1.073289394378662,-0.05177079141139984,-0.016187917441129684
1751619076286672600,18.963672607421874,-2.6590943336486816,-0.0591011680662632,-0.023518294095993042
1751619076305496000,18.98249609375,-4.251008033752441,-0.11163553595542908,-0.03695731982588768
1751619076324319700,19.00131982421875,-5.487398147583008,-0.09941824525594711,-0.04673115536570549
1751619076343143200,19.02014306640625,-6.286409378051758,-0.13362666964530945,-0.06383536756038666
1751619076361966800,19.038966796875,-6.433016777038574,-0.1311832070350647,-0.05528326332569122
1751619076380790300,19.057790283203126,-5.210065841674805,-0.10797034949064255,-0.034666575491428375
1751619076399613700,19.07661376953125,-1.7696752548217773,-0.050549060106277466,-0.011300998739898205
1751619076418437000,19.09543701171875,1.4740166664123535,0.03252854943275452,0.012980876490473747
1751619076437260800,19.1142607421875,4.0921831130981445,0.11194097250699997,0.03497200831770897
1751619076456084200,19.133084228515624,6.114145755767822,0.14492766559123993,0.04841103404760361
1751619076474908000,19.151907958984374,7.12573766708374,0.1461493968963623,0.05696314200758934
1751619076493731300,19.1707314453125,7.486147880554199,0.14859285950660706,0.05818486958742142
1751619076512554800,19.1895546875,7.0011210441589355,0.09972367435693741,0.0435241162776947
1751619076531378400,19.20837841796875,5.621788501739502,0.0642935186624527,0.04108065739274025
1751619076550201900,19.227201904296876,3.7012298107147217,0.08139773458242416,0.0435241162776947
1751619076569025500,19.246025634765626,1.7452406883239746,0.16814053058624268,0.05451968312263489
1751619076587849000,19.264848876953124,0.25350889563560486,0.039858926087617874,0.010537417605519295
1751619076606672400,19.28367236328125,-0.0030543238390237093,0.016646064817905426,0.0032070400193333626
1751619076625496000,19.30249609375,-0.15821397304534912,-0.011453714221715927,-0.00045814859913662076
1751619076644319500,19.321319580078125,-1.3432916402816772,-0.04810560122132301,-0.011300998739898205
1751619076663143000,19.340142822265626,-3.4190101623535156,-0.1055268943309784,-0.03695731982588768
1751619076681966600,19.358966552734376,-5.627897262573242,-0.187382772564888,-0.06750056147575378
1751619076700790000,19.3777900390625,-7.310218811035156,-0.20570871233940125,-0.08338304609060287
1751619076719613400,19.396613525390624,-8.348689079284668,-0.30833399295806885,-0.12980876863002777
1751619076738437000,19.41543701171875,-8.534391403198242,-0.20082180202007294,-0.11881320178508759
1751619076757260500,19.434260498046875,-7.746376037597656,-0.12751802802085876,-0.05894844979047775
1751619076776084200,19.453084228515625,-5.257713317871094,-0.08842267841100693,-0.04306596517562866
1751619076794907600,19.47190771484375,-1.4104868173599243,-0.031001387163996696,-0.011300998739898205
1751619076813731000,19.49073095703125,1.6841541528701782,0.05940660089254379,0.02519817277789116
1751619076832554800,19.5095546875,3.8429503440856934,0.1156061589717865,0.03741546720266342
1751619076851378200,19.528378173828123,5.560702323913574,0.17058399319648743,0.04108065739274025
1751619076870201600,19.54720166015625,6.5564117431640625,0.14004075527191162,0.04474584385752678
1751619076889025300,19.566025390625,6.9950127601623535,0.10338886082172394,0.0435241162776947
1751619076907848700,19.5848486328125,6.852070331573486,0.1363755613565445,0.052076224237680435
1751619076926672400,19.60367236328125,5.677988052368164,0.1461493968963623,0.045967575162649155
1751619076945495800,19.622495849609376,3.772089958190918,0.12782345712184906,0.0386371985077858
1751619076964319200,19.6413193359375,2.056781768798828,0.04230238497257233,0.0154243353754282
1751619076983143000,19.660142822265627,0.8289434909820557,0.004428769461810589,0.005650499369949102
1751619077001966300,19.67896630859375,0.10934479534626007,0.006872228812426329,0.0032070400193333626
1751619077020790000,19.6977900390625,0.053145237267017365,0.005650499369949102,0.0032070400193333626
1751619077039613400,19.716613525390624,-0.21441353857517242,-0.004123337101191282,-0.00045814859913662076
1751619077058436900,19.735436767578125,-1.3408482074737549,-0.021227551624178886,-0.008857538923621178
1751619077077260500,19.754260498046875,-3.235750675201416,-0.08231402933597565,-0.02977965772151947
1751619077096084000,19.773083984375,-5.131875038146973,-0.14340050518512726,-0.04306596517562866
1751619077114907600,19.79190771484375,-6.369487285614014,-0.16661337018013,-0.05528326332569122
1751619077133731000,19.81073095703125,-6.905826568603516,-0.20448698103427887,-0.06627883017063141
1751619077152554500,19.829554443359374,-6.61749792098999,-0.19349141418933868,-0.07116574794054031
1751619077171378200,19.848378173828124,-5.241830825805664,-0.08842267841100693,-0.04550942778587341
1751619077190201600,19.86720166015625,-2.489274024963379,-0.04932733252644539,-0.012522728182375431
1751619077209025300,19.886025390625,0.8533781170845032,0.03497200831770897,0.009315688163042068
1751619077227848700,19.9048486328125,3.6303694248199463,0.09605848789215088,0.02764163166284561
1751619077246672100,19.923672119140626,5.741518020629883,0.1571449637413025,0.04841103404760361
1751619077265495800,19.942495849609376,6.5845112800598145,0.13515383005142212,0.055741410702466965
1751619077284319200,19.9613193359375,6.357269763946533,0.13393209874629974,0.049632761627435684
1751619077303142700,19.980142578125,5.8575825691223145,0.11316270381212234,0.045967575162649155
1751619077321966300,19.99896630859375,5.241830825805664,0.07406735420227051,0.03130681812763214
1751619077340789800,20.017789794921875,4.10317850112915,0.028863361105322838,0.02519817277789116
1751619077359613400,20.036613525390624,2.4184136390686035,0.11927134543657303,0.04718930274248123
1751619077378436900,20.055436767578126,0.8265000581741333,0.09850194305181503,0.028863361105322838
1751619077397260500,20.074260498046876,0.08368847519159317,0.03497200831770897,0.006872228812426329
1751619077416084000,20.093083984375,-0.29626941680908203,0.004428769461810589,-0.00045814859913662076
1751619077434907400,20.111907470703127,-1.3286309242248535,-0.03222311660647392,-0.008857538923621178
1751619077453731000,20.13073095703125,-3.1392340660095215,-0.09819651395082474,-0.02977965772151947
1751619077472554500,20.149554443359374,-5.159974575042725,-0.1153007298707962,-0.04550942778587341
1751619077491378000,20.1683779296875,-6.640710830688477,-0.18982623517513275,-0.057726722210645676
1751619077510201600,20.18720166015625,-7.43239164352417,-0.2179260104894638,-0.07116574794054031
1751619077529025000,20.20602490234375,-7.5765557289123535,-0.20204351842403412,-0.08460476994514465
1751619077547848700,20.2248486328125,-6.709127902984619,-0.060322895646095276,-0.04917461425065994
1751619077566672100,20.243672119140626,-3.8062984943389893,-0.0798705667257309,-0.02107483521103859
1751619077585495800,20.262495849609376,0.5674933791160583,0.017867794260382652,0.005650499369949102
1751619077604319200,20.2813193359375,3.7867507934570312,0.11194097250699997,0.02764163166284561
1751619077623142700,20.300142578125,6.578402996063232,0.14370593428611755,0.05451968312263489
1751619077641966300,20.31896630859375,7.74515438079834,0.17424917221069336,0.06795870512723923
1751619077660789800,20.337789794921875,7.698729038238525,0.1461493968963623,0.05940660089254379
1751619077679613200,20.35661328125,6.975464820861816,0.1156061589717865,0.0435241162776947
1751619077698436900,20.375436767578126,5.580249786376953,0.01908952370285988,0.02764163166284561
1751619077717260300,20.39426025390625,3.9382452964782715,0.30253079533576965,0.10583232343196869
1751619077736084000,20.413083984375,2.402531147003174,0.08139773458242416,0.028863361105322838
1751619077754907400,20.431907470703123,1.2651009559631348,0.06673697382211685,0.01908952370285988
1751619077773730800,20.450730712890625,0.5467239618301392,0.04841103404760361,0.009315688163042068
1751619077792554500,20.469554443359375,-0.023823726922273636,0.0386371985077858,0.0019853105768561363
1751619077811378000,20.4883779296875,-0.24495677649974823,-0.01511890348047018,-0.004123337101191282
1751619077830201600,20.50720166015625,-1.6218459606170654,-0.07009673118591309,-0.010079269297420979
1751619077849025000,20.52602490234375,-3.9822275638580322,-0.11774418503046036,-0.032070402055978775
1751619077867848700,20.5448486328125,-5.90645170211792,-0.14950916171073914,-0.05283980444073677
1751619077886672100,20.563672119140627,-7.1575026512146,-0.19349141418933868,-0.06750056147575378
1751619077905495600,20.58249560546875,-7.632755279541016,-0.2435823380947113,-0.07849612087011337
1751619077924319200,20.6013193359375,-7.124516010284424,-0.22769984602928162,-0.0821613147854805
1751619077943142700,20.620142578125,-6.093376159667969,-0.1409570425748825,-0.06994401663541794
1751619077961966300,20.63896630859375,-3.928471326828003,-0.02977965772151947,-0.02718348242342472
1751619077980789800,20.657789794921875,-0.04581485688686371,0.022754713892936707,0.008093958720564842
1751619077999613200,20.67661328125,3.014617681503296,0.07773254066705704,0.030085090547800064
1751619078018436900,20.695436767578126,5.969981670379639,0.16569706797599792,0.049632761627435684
1751619078037260300,20.71426025390625,7.977283000946045,0.16447533667087555,0.06062832847237587
1751619078056084000,20.733083984375,8.942449569702148,0.16936226189136505,0.0691804364323616
1751619078074907400,20.751907470703124,8.848376274108887,0.10094540566205978,0.061850059777498245
1751619078093730800,20.770730712890625,6.51609468460083,0.41004297137260437,0.14859285950660706
1751619078112554500,20.789554443359375,2.791041135787964,0.0899498388171196,0.026419902220368385
1751619078131378000,20.8083779296875,-0.047036588191986084,0.02764163166284561,0.008093958720564842
1751619078150201600,20.82720166015625,-0.8741474747657776,-0.011453714221715927,-0.006414080038666725
1751619078169025000,20.84602490234375,-1.3616175651550293,-0.03711003437638283,-0.010079269297420979
1751619078187848700,20.8648486328125,-2.271806001663208,-0.05787943676114082,-0.014966187067329884
1751619078206672100,20.883672119140623,-3.6755733489990234,-0.09086613357067108,-0.02977965772151947
1751619078225495600,20.90249560546875,-5.320021152496338,-0.12385283410549164,-0.04673115536570549
1751619078244319200,20.9213193359375,-6.8190836906433105,-0.20570871233940125,-0.06505709886550903
1751619078263142700,20.940142578125,-7.082977294921875,-0.21548254787921906,-0.06383536756038666
1751619078281966300,20.95896630859375,-5.040245532989502,-0.11774418503046036,-0.03940077871084213
1751619078300789800,20.977789794921875,-1.8380920886993408,-0.0591011680662632,-0.022296564653515816
1751619078319613200,20.99661328125,0.12034036219120026,-0.02611446939408779,-0.008857538923621178
1751619078338436900,21.015436767578127,1.0427461862564087,0.03497200831770897,0.016646064817905426
1751619078357260300,21.03426025390625,2.5552473068237305,0.06551524996757507,0.028863361105322838
1751619078376084000,21.053083984375,3.604712963104248,0.0642935186624527,0.03252854943275452
1751619078394907400,21.071907470703124,3.070817232131958,0.061850059777498245,0.01908952370285988
1751619078413730800,21.090730712890625,1.028085470199585,0.026419902220368385,0.009315688163042068
1751619078432554500,21.109554443359375,-0.2364046722650528,0.02153298258781433,0.006872228812426329
1751619078451378000,21.1283779296875,-0.6224712133407593,-0.009010255336761475,-0.004123337101191282
1751619078470201600,21.14720166015625,-0.7776308655738831,-0.022449281066656113,-0.007635809946805239
1751619078489025000,21.16602490234375,-0.49541133642196655,-0.016340631991624832,-0.005345067009329796
1751619078507848700,21.1848486328125,-0.0824667438864708,-0.006566796451807022,-0.00045814859913662076
1751619078526672100,21.203672119140624,0.004276053514331579,-0.018784092739224434,-0.004123337101191282
1751619078545495800,21.222495849609373,0.004276053514331579,-0.02977965772151947,-0.008857538923621178
1751619078564319200,21.2413193359375,0.03481929376721382,-0.0102319847792387,-0.004123337101191282
1751619078583142700,21.260142578125,0.29504770040512085,0.010537417605519295,0.0032070400193333626
1751619078601966300,21.27896630859375,0.258395791053772,0.02519817277789116,0.006872228812426329
1751619078620789800,21.297789794921876,0.05192350596189499,0.006872228812426329,0.0019853105768561363
1751619078639613400,21.316613525390625,0.04214967042207718,0.0019853105768561363,-0.00045814859913662076
1751619078658436900,21.335436767578123,0.006719512399286032,0.0019853105768561363,-0.00045814859913662076
1751619078677260300,21.35426025390625,-0.000610864779446274,0.004428769461810589,0.0019853105768561363
1751619078696084000,21.373083984375,-0.000610864779446274,0.0007635809597559273,0.0007635809597559273
1751619078714907400,21.391907470703124,-0.000610864779446274,-0.005345067009329796,-0.001679878099821508
1751619078733731000,21.41073095703125,0.09346231073141098,0.0007635809597559273,0.0007635809597559273
1751619078752554500,21.429554443359375,0.14110976457595825,0.006872228812426329,0.0019853105768561363
1751619078771378000,21.4483779296875,0.07269290834665298,0.008093958720564842,0.0019853105768561363
1751619078790201600,21.46720166015625,0.03237583488225937,0.004428769461810589,0.0007635809597559273
1751619078809025000,21.48602490234375,0.01893680728971958,-0.00045814859913662076,-0.00045814859913662076
1751619078827848700,21.5048486328125,0.000610864779446274,-0.007788525894284248,-0.002901607658714056
1751619078846672100,21.523672119140624,0.07024945318698883,-0.005345067009329796,-0.001679878099821508
1751619078865495800,21.542495849609374,0.07391463965177536,0.0019853105768561363,-0.00045814859913662076
1751619078884319200,21.5613193359375,-0.0030543238390237093,0.006872228812426329,0.0007635809597559273
1751619078903142700,21.580142578125,-0.0030543238390237093,-0.00045814859913662076,-0.00045814859913662076
1751619078921966300,21.59896630859375,-0.001832594396546483,-0.009010255336761475,-0.002901607658714056
1751619078940789800,21.617789794921876,0.004276053514331579,-0.0102319847792387,-0.002901607658714056
1751619078959613400,21.636613525390626,0.05925388261675835,-0.00045814859913662076,-0.00045814859913662076
1751619078978436900,21.655436767578124,0.09590577334165573,0.010537417605519295,0.0032070400193333626
1751619078997260500,21.674260498046873,0.06047561392188072,0.010537417605519295,0.0019853105768561363
1751619079016084000,21.693083984375,0.056810423731803894,0.005650499369949102,0.0019853105768561363
1751619079034907400,21.711907470703125,0.0616973415017128,0.0007635809597559273,-0.00045814859913662076
1751619079053731000,21.73073095703125,0.17653992772102356,0.0007635809597559273,0.0007635809597559273
1751619079072554500,21.749554443359376,0.30604326725006104,0.008093958720564842,0.0032070400193333626
1751619079091378200,21.768378173828125,0.24862197041511536,0.014202605932950974,0.004428769461810589
1751619079110201600,21.78720166015625,0.05925388261675835,0.016646064817905426,0.0032070400193333626
1751619079129025300,21.806025390625,-0.0030543238390237093,0.006872228812426329,0.0019853105768561363
1751619079147848700,21.8248486328125,-0.000610864779446274,-0.00045814859913662076,0.0007635809597559273
1751619079166672100,21.843672119140624,0.0030543238390237093,-0.002901607658714056,-0.00045814859913662076
1751619079185495800,21.862495849609374,0.0054977829568088055,-0.006566796451807022,-0.001679878099821508
1751619079204319200,21.8813193359375,0.001832594396546483,-0.002901607658714056,-0.00045814859913662076
1751619079223143000,21.900142822265625,-0.000610864779446274,0.0032070400193333626,0.0007635809597559273
1751619079241966300,21.91896630859375,0.000610864779446274,0.0019853105768561363,0.0007635809597559273
1751619079260790000,21.9377900390625,-0.000610864779446274,-0.005345067009329796,-0.00045814859913662076
1751619079279613400,21.956613525390626,0.001832594396546483,-0.009010255336761475,-0.002901607658714056
1751619079298436900,21.975436767578124,0.037262752652168274,0.0019853105768561363,0.0007635809597559273
1751619079317260500,21.994260498046874,-0.001832594396546483,0.005650499369949102,0.0019853105768561363
1751619079336084000,22.013083984375,-0.0030543238390237093,0.0032070400193333626,0.0019853105768561363
1751619079354907600,22.03190771484375,-0.000610864779446274,-0.001679878099821508,-0.00045814859913662076
1751619079373731000,22.05073095703125,-0.000610864779446274,0.0007635809597559273,-0.00045814859913662076
1751619079392554500,22.069554443359376,0.000610864779446274,-0.00045814859913662076,-0.00045814859913662076
1751619079411378200,22.088378173828126,0.000610864779446274,0.004428769461810589,0.0019853105768561363
1751619079430201600,22.10720166015625,-0.000610864779446274,0.0007635809597559273,0.0007635809597559273
1751619079449025300,22.126025390625,-0.000610864779446274,-0.001679878099821508,-0.00045814859913662076
1751619079467848700,22.1448486328125,-0.000610864779446274,0.0019853105768561363,0.0007635809597559273
1751619079486672400,22.16367236328125,0.000610864779446274,0.004428769461810589,0.0007635809597559273
1751619079505495800,22.182495849609374,-0.000610864779446274,0.0007635809597559273,0.0007635809597559273
1751619079524319200,22.2013193359375,-0.001832594396546483,-0.012675444595515728,-0.002901607658714056
1751619079552554800,22.2295546875,-0.000610864779446274,-0.0102319847792387,-0.001679878099821508
1751619079571378200,22.248378173828126,-0.000610864779446274,-0.00045814859913662076,-0.00045814859913662076
1751619079590201600,22.26720166015625,-0.000610864779446274,0.0019853105768561363,0.0007635809597559273
1751619079609025300,22.286025390625,-0.000610864779446274,-0.007788525894284248,-0.002901607658714056
1751619079627848700,22.3048486328125,-0.001832594396546483,-0.0102319847792387,-0.004123337101191282
1751619079646672400,22.32367236328125,0.000610864779446274,-0.005345067009329796,-0.002901607658714056
1751619079665495800,22.342495849609374,0.000610864779446274,0.0019853105768561363,-0.00045814859913662076
1751619079684319500,22.361319580078124,-0.004276053514331579,0.0019853105768561363,-0.00045814859913662076
1751619079703143000,22.380142822265626,-0.0873536616563797,-0.004123337101191282,-0.002901607658714056
1751619079721966300,22.39896630859375,-0.14110976457595825,-0.002901607658714056,-0.001679878099821508
1751619079740790000,22.4177900390625,-0.11667517572641373,-0.00045814859913662076,-0.00045814859913662076
1751619079759613400,22.436613525390626,-0.06047561392188072,0.0019853105768561363,0.0019853105768561363
1751619079778437000,22.45543701171875,-0.01893680728971958,-0.001679878099821508,0.0007635809597559273
1751619079797260500,22.474260498046874,-0.02626718580722809,-0.0102319847792387,-0.002901607658714056
1751619079816084200,22.493084228515624,-0.0030543238390237093,-0.0102319847792387,-0.002901607658714056
1751619079834907600,22.51190771484375,0.000610864779446274,-0.009010255336761475,-0.001679878099821508
1751619079853731000,22.53073095703125,0.001832594396546483,0.005650499369949102,0.0019853105768561363
1751619079872554800,22.5495546875,0.000610864779446274,0.006872228812426329,0.0019853105768561363
1751619079891378200,22.568378173828126,-0.000610864779446274,0.0019853105768561363,-0.00045814859913662076
1751619079910201900,22.587201904296876,-0.001832594396546483,-0.00045814859913662076,-0.00045814859913662076
1751619079929025300,22.606025390625,-0.001832594396546483,-0.001679878099821508,-0.001679878099821508
1751619079947849000,22.624848876953124,-0.001832594396546483,-0.002901607658714056,-0.00045814859913662076
1751619079966672400,22.64367236328125,-0.001832594396546483,-0.002901607658714056,-0.00045814859913662076
1751619079985496000,22.66249609375,-0.001832594396546483,-0.001679878099821508,-0.00045814859913662076
1751619080004319500,22.681319580078124,0.000610864779446274,-0.005345067009329796,-0.00045814859913662076
1751619080023143000,22.700142822265626,0.000610864779446274,-0.004123337101191282,-0.001679878099821508
1751619080041966600,22.718966552734376,0.000610864779446274,0.0019853105768561363,0.0007635809597559273
1751619080060790000,22.7377900390625,0.000610864779446274,0.0032070400193333626,0.0007635809597559273
1751619080079613700,22.75661376953125,-0.000610864779446274,0.004428769461810589,0.0007635809597559273
1751619080098437000,22.77543701171875,-0.000610864779446274,-0.00045814859913662076,-0.001679878099821508
1751619080117260800,22.7942607421875,-0.001832594396546483,-0.002901607658714056,-0.001679878099821508
