time,seconds_elapsed,z,y,x
1751619057623219700,0.3002197265625,-0.010384701192378998,0.008399390615522861,-0.001679878099821508
1751619057642043100,0.319043212890625,-0.010384701192378998,0.008399390615522861,-0.001679878099821508
1751619057660866600,0.337866455078125,-0.01282816007733345,0.007177661173045635,-0.001679878099821508
1751619057679690000,0.35668994140625,-0.01282816007733345,0.005955931730568409,-0.00045814859913662076
1751619057698513400,0.375513427734375,-0.010384701192378998,0.004734201822429895,0.0007635809597559273
1751619057717336800,0.3943369140625,-0.0054977829568088055,0.003512472379952669,0.0019853105768561363
1751619057736160300,0.41316015625,-0.0030543238390237093,0.003512472379952669,0.0019853105768561363
1751619057754983700,0.431983642578125,-0.001832594396546483,0.003512472379952669,0.0019853105768561363
1751619057773807400,0.450807373046875,-0.001832594396546483,0.005955931730568409,0.0007635809597559273
1751619057792630800,0.469630859375,-0.000610864779446274,0.003512472379952669,0.0019853105768561363
1751619057811454200,0.4884541015625,0.000610864779446274,0.003512472379952669,0.0032070400193333626
1751619057830277600,0.507277587890625,0.000610864779446274,0.003512472379952669,0.0032070400193333626
1751619057849101000,0.52610107421875,-0.000610864779446274,0.003512472379952669,0.0032070400193333626
1751619057867924500,0.544924560546875,-0.001832594396546483,0.002290742937475443,0.0032070400193333626
1751619057886748200,0.563748046875,-0.001832594396546483,0.0010690133785828948,0.0019853105768561363
1751619057905571600,0.582571533203125,-0.0030543238390237093,0.0010690133785828948,0.0032070400193333626
1751619057924395000,0.60139501953125,-0.0054977829568088055,0.0010690133785828948,0.0032070400193333626
1751619057943218400,0.620218505859375,-0.007941242307424545,0.0010690133785828948,0.0032070400193333626
1751619057962041900,0.639041748046875,-0.007941242307424545,-0.0001527161948615685,0.0032070400193333626
1751619057980865500,0.657865478515625,-0.007941242307424545,-0.0013744457392022014,0.0032070400193333626
1751619057999689000,0.67668896484375,-0.007941242307424545,-0.0001527161948615685,0.0032070400193333626
1751619058018512400,0.695512451171875,-0.006719512399286032,0.0010690133785828948,0.0032070400193333626
1751619058037335800,0.714335693359375,-0.0054977829568088055,0.002290742937475443,0.0032070400193333626
1751619058056159200,0.7331591796875,-0.004276053514331579,0.002290742937475443,0.0032070400193333626
1751619058074982700,0.751982666015625,-0.004276053514331579,0.003512472379952669,0.0032070400193333626
1751619058093806000,0.77080615234375,-0.0030543238390237093,0.003512472379952669,0.0032070400193333626
1751619058112629800,0.789629638671875,-0.0030543238390237093,0.003512472379952669,0.0032070400193333626
1751619058131453200,0.808453125,-0.001832594396546483,0.003512472379952669,0.0032070400193333626
1751619058150276600,0.827276611328125,-0.001832594396546483,0.002290742937475443,0.004428769461810589
1751619058169100000,0.84610009765625,-0.0030543238390237093,0.0010690133785828948,0.0032070400193333626
1751619058187923500,0.86492333984375,-0.001832594396546483,0.0010690133785828948,0.0032070400193333626
1751619058206747100,0.8837470703125,-0.000610864779446274,0.0010690133785828948,0.0032070400193333626
1751619058225570600,0.902570556640625,-0.000610864779446274,0.0010690133785828948,0.0032070400193333626
1751619058244394000,0.92139404296875,-0.001832594396546483,0.002290742937475443,0.0032070400193333626
1751619058263217400,0.940217529296875,-0.004276053514331579,0.002290742937475443,0.0032070400193333626
1751619058282040800,0.959040771484375,-0.0054977829568088055,0.002290742937475443,0.0032070400193333626
1751619058300864300,0.9778642578125,-0.0054977829568088055,0.002290742937475443,0.004428769461810589
1751619058319688000,0.99668798828125,-0.006719512399286032,0.002290742937475443,0.0032070400193333626
1751619058338511400,1.015511474609375,-0.006719512399286032,0.003512472379952669,0.0032070400193333626
1751619058357334800,1.034334716796875,-0.006719512399286032,0.003512472379952669,0.0032070400193333626
1751619058376158200,1.053158203125,-0.0054977829568088055,0.003512472379952669,0.0032070400193333626
1751619058394981600,1.071981689453125,-0.0054977829568088055,0.002290742937475443,0.0032070400193333626
1751619058413805000,1.09080517578125,-0.0054977829568088055,0.002290742937475443,0.0032070400193333626
1751619058432628700,1.109628662109375,-0.004276053514331579,0.0010690133785828948,0.004428769461810589
1751619058451452200,1.1284521484375,-0.004276053514331579,0.0010690133785828948,0.0032070400193333626
1751619058470275600,1.147275634765625,-0.006719512399286032,0.0010690133785828948,0.004428769461810589
1751619058489099000,1.16609912109375,-0.006719512399286032,0.0010690133785828948,0.0032070400193333626
1751619058507922400,1.18492236328125,-0.006719512399286032,0.0010690133785828948,0.0032070400193333626
1751619058526746000,1.20374609375,-0.0054977829568088055,0.002290742937475443,0.0032070400193333626
1751619058545569500,1.222569580078125,-0.0054977829568088055,0.002290742937475443,0.0032070400193333626
1751619058564393000,1.24139306640625,-0.006719512399286032,0.002290742937475443,0.0032070400193333626
1751619058583216400,1.26021630859375,-0.006719512399286032,0.002290742937475443,0.0032070400193333626
1751619058602039800,1.279039794921875,-0.0054977829568088055,0.002290742937475443,0.0032070400193333626
1751619058620863500,1.297863525390625,-0.004276053514331579,0.002290742937475443,0.0032070400193333626
1751619058639687000,1.31668701171875,-0.004276053514331579,0.0010690133785828948,0.0032070400193333626
1751619058658510300,1.33551025390625,-0.004276053514331579,0.0010690133785828948,0.0032070400193333626
1751619058677333800,1.354333740234375,-0.004276053514331579,0.0010690133785828948,0.0032070400193333626
1751619058696157200,1.3731572265625,-0.004276053514331579,0.0010690133785828948,0.0032070400193333626
1751619058714980600,1.391980712890625,-0.004276053514331579,0.0010690133785828948,0.0032070400193333626
1751619058733804300,1.41080419921875,-0.004276053514331579,0.0010690133785828948,0.0032070400193333626
1751619058752627700,1.429627685546875,-0.0054977829568088055,0.0010690133785828948,0.0032070400193333626
1751619058771451100,1.448451171875,-0.0054977829568088055,0.002290742937475443,0.0032070400193333626
1751619058790274600,1.467274658203125,-0.004276053514331579,0.002290742937475443,0.0032070400193333626
1751619058809098000,1.486097900390625,-0.004276053514331579,0.003512472379952669,0.0032070400193333626
1751619058827921700,1.504921630859375,-0.0030543238390237093,0.002290742937475443,0.0032070400193333626
1751619058846745000,1.5237451171875,-0.004276053514331579,0.002290742937475443,0.0032070400193333626
1751619058865568500,1.542568603515625,-0.0030543238390237093,0.002290742937475443,0.0032070400193333626
1751619058884392000,1.561391845703125,-0.004276053514331579,0.0010690133785828948,0.0032070400193333626
1751619058903215400,1.58021533203125,-0.0054977829568088055,0.002290742937475443,0.0032070400193333626
1751619058922038800,1.599038818359375,-0.004276053514331579,0.0010690133785828948,0.004428769461810589
1751619058940862500,1.617862548828125,-0.004276053514331579,0.0010690133785828948,0.0032070400193333626
1751619058959686000,1.636685791015625,-0.004276053514331579,0.0010690133785828948,0.0032070400193333626
1751619058978509300,1.65550927734375,-0.004276053514331579,0.002290742937475443,0.0032070400193333626
1751619058997332700,1.674332763671875,-0.004276053514331579,0.002290742937475443,0.0032070400193333626
1751619059016156200,1.69315625,-0.004276053514331579,0.002290742937475443,0.0032070400193333626
1751619059034979800,1.711979736328125,-0.004276053514331579,0.002290742937475443,0.0032070400193333626
1751619059053803300,1.73080322265625,-0.0030543238390237093,0.003512472379952669,0.0032070400193333626
1751619059072626700,1.749626708984375,-0.004276053514331579,0.002290742937475443,0.0032070400193333626
1751619059091450000,1.7684501953125,-0.004276053514331579,0.002290742937475443,0.0032070400193333626
1751619059110273500,1.7872734375,-0.004276053514331579,0.002290742937475443,0.0032070400193333626
1751619059129097200,1.80609716796875,-0.004276053514331579,0.0010690133785828948,0.0032070400193333626
1751619059147920600,1.824920654296875,-0.004276053514331579,0.0010690133785828948,0.0032070400193333626
1751619059166744000,1.843744140625,-0.004276053514331579,0.0010690133785828948,0.0032070400193333626
1751619059185567500,1.8625673828125,-0.004276053514331579,0.0010690133785828948,0.0032070400193333626
1751619059204391000,1.881390869140625,-0.0030543238390237093,0.0010690133785828948,0.004428769461810589
1751619059223214600,1.900214599609375,-0.0030543238390237093,0.0010690133785828948,0.0032070400193333626
1751619059242038000,1.9190380859375,-0.004276053514331579,0.002290742937475443,0.0032070400193333626
1751619059260861400,1.937861328125,-0.004276053514331579,0.003512472379952669,0.0032070400193333626
1751619059279684900,1.956684814453125,-0.004276053514331579,0.003512472379952669,0.0032070400193333626
1751619059298508300,1.97550830078125,-0.004276053514331579,0.002290742937475443,0.0032070400193333626
1751619059317331700,1.994331787109375,-0.004276053514331579,0.003512472379952669,0.0032070400193333626
1751619059336155400,2.0131552734375,-0.004276053514331579,0.002290742937475443,0.0032070400193333626
1751619059354978800,2.031978759765625,-0.004276053514331579,0.002290742937475443,0.0032070400193333626
1751619059373802200,2.05080224609375,-0.004276053514331579,0.0010690133785828948,0.0032070400193333626
1751619059392625700,2.069625732421875,-0.004276053514331579,0.0010690133785828948,0.0032070400193333626
1751619059411449000,2.088448974609375,-0.004276053514331579,0.0010690133785828948,0.0032070400193333626
1751619059430272800,2.107272705078125,-0.0054977829568088055,0.0010690133785828948,0.0032070400193333626
1751619059449096200,2.12609619140625,-0.004276053514331579,0.002290742937475443,0.004428769461810589
1751619059467919600,2.144919677734375,-0.004276053514331579,0.002290742937475443,0.0032070400193333626
1751619059486743000,2.163742919921875,-0.0054977829568088055,0.002290742937475443,0.0032070400193333626
1751619059505566500,2.18256640625,-0.004276053514331579,0.002290742937475443,0.0032070400193333626
1751619059524390000,2.201389892578125,-0.004276053514331579,0.002290742937475443,0.0032070400193333626
1751619059543213600,2.220213623046875,-0.004276053514331579,0.002290742937475443,0.0032070400193333626
1751619059562037000,2.239037109375,-0.004276053514331579,0.002290742937475443,0.0032070400193333626
1751619059580860400,2.2578603515625,-0.004276053514331579,0.003512472379952669,0.0032070400193333626
1751619059599683800,2.276683837890625,-0.004276053514331579,0.0010690133785828948,0.0032070400193333626
1751619059618507300,2.29550732421875,-0.004276053514331579,0.002290742937475443,0.0032070400193333626
1751619059637331000,2.3143310546875,-0.004276053514331579,0.0010690133785828948,0.004428769461810589
1751619059656154400,2.333154296875,-0.004276053514331579,0.0010690133785828948,0.0032070400193333626
1751619059674977800,2.351977783203125,-0.004276053514331579,0.0010690133785828948,0.0032070400193333626
1751619059693801200,2.37080126953125,-0.004276053514331579,0.0010690133785828948,0.0032070400193333626
1751619059712624600,2.389624755859375,-0.0030543238390237093,0.002290742937475443,0.0032070400193333626
1751619059731448000,2.408447998046875,-0.0054977829568088055,0.002290742937475443,0.0032070400193333626
1751619059750271700,2.427271728515625,-0.004276053514331579,0.002290742937475443,0.0032070400193333626
1751619059769095200,2.44609521484375,-0.004276053514331579,0.002290742937475443,0.0032070400193333626
1751619059787918600,2.464918701171875,-0.0030543238390237093,0.002290742937475443,0.0032070400193333626
1751619059806742000,2.483741943359375,-0.004276053514331579,0.002290742937475443,0.0032070400193333626
1751619059825565400,2.5025654296875,-0.004276053514331579,0.0010690133785828948,0.0032070400193333626
1751619059844388900,2.521388916015625,-0.004276053514331579,0.0010690133785828948,0.0032070400193333626
1751619059863212500,2.540212646484375,-0.004276053514331579,0.0010690133785828948,0.0032070400193333626
1751619059882036000,2.559035888671875,-0.004276053514331579,0.0010690133785828948,0.0032070400193333626
1751619059900859400,2.577859375,-0.004276053514331579,0.0010690133785828948,0.0032070400193333626
1751619059919682800,2.596682861328125,-0.004276053514331579,0.0010690133785828948,0.0032070400193333626
1751619059938506200,2.61550634765625,-0.004276053514331579,0.002290742937475443,0.0032070400193333626
1751619059957330000,2.634329833984375,-0.004276053514331579,0.002290742937475443,0.0032070400193333626
1751619059976153300,2.6531533203125,-0.004276053514331579,0.003512472379952669,0.0032070400193333626
1751619059994976800,2.671976806640625,-0.004276053514331579,0.002290742937475443,0.004428769461810589
1751619060013800200,2.69080029296875,-0.004276053514331579,0.003512472379952669,0.0032070400193333626
1751619060032623600,2.70962353515625,-0.004276053514331579,0.003512472379952669,0.0032070400193333626
1751619060051447000,2.728447021484375,-0.0054977829568088055,0.002290742937475443,0.0032070400193333626
1751619060070270500,2.7472705078125,-0.0030543238390237093,0.0010690133785828948,0.0032070400193333626
1751619060089094100,2.76609423828125,-0.004276053514331579,0.0010690133785828948,0.0032070400193333626
1751619060107917600,2.78491748046875,-0.004276053514331579,0.0010690133785828948,0.0032070400193333626
1751619060126741000,2.803740966796875,-0.004276053514331579,0.0010690133785828948,0.0032070400193333626
1751619060145564400,2.822564453125,-0.0030543238390237093,0.0010690133785828948,0.0032070400193333626
1751619060164387800,2.841387939453125,-0.0030543238390237093,0.0010690133785828948,0.0032070400193333626
1751619060183211500,2.86021142578125,-0.004276053514331579,0.002290742937475443,0.004428769461810589
1751619060202035000,2.879034912109375,-0.004276053514331579,0.002290742937475443,0.004428769461810589
1751619060220858400,2.8978583984375,-0.004276053514331579,0.002290742937475443,0.0032070400193333626
1751619060239681800,2.916681884765625,-0.0054977829568088055,0.002290742937475443,0.0032070400193333626
1751619060258505200,2.935505126953125,-0.0054977829568088055,0.002290742937475443,0.0032070400193333626
1751619060277328600,2.95432861328125,-0.004276053514331579,0.002290742937475443,0.0032070400193333626
1751619060296152000,2.973152099609375,-0.004276053514331579,0.002290742937475443,0.0032070400193333626
1751619060314975700,2.991975830078125,-0.004276053514331579,0.002290742937475443,0.004428769461810589
1751619060333799200,3.010799072265625,-0.0030543238390237093,0.002290742937475443,0.0032070400193333626
1751619060352622600,3.02962255859375,-0.0030543238390237093,0.0010690133785828948,0.0032070400193333626
1751619060371446000,3.048446044921875,-0.004276053514331579,0.0010690133785828948,0.0032070400193333626
1751619060390269400,3.06726953125,-0.0054977829568088055,0.0010690133785828948,0.0032070400193333626
1751619060409092900,3.0860927734375,-0.004276053514331579,0.0010690133785828948,0.0032070400193333626
1751619060427916500,3.10491650390625,-0.0054977829568088055,0.0010690133785828948,0.0032070400193333626
1751619060446740000,3.123739990234375,-0.004276053514331579,0.002290742937475443,0.0032070400193333626
1751619060465563400,3.1425634765625,-0.0030543238390237093,0.002290742937475443,0.004428769461810589
1751619060484386800,3.16138671875,-0.0030543238390237093,0.003512472379952669,0.0032070400193333626
1751619060503210200,3.180210205078125,-0.004276053514331579,0.002290742937475443,0.0032070400193333626
1751619060522034000,3.199033935546875,-0.004276053514331579,0.002290742937475443,0.004428769461810589
1751619060540857300,3.217857421875,-0.0030543238390237093,0.002290742937475443,0.0032070400193333626
1751619060559680800,3.2366806640625,-0.004276053514331579,0.0010690133785828948,0.0032070400193333626
1751619060578504200,3.255504150390625,-0.0054977829568088055,0.0010690133785828948,0.0032070400193333626
1751619060597327600,3.27432763671875,-0.0054977829568088055,0.002290742937475443,0.0032070400193333626
1751619060616151000,3.293151123046875,-0.004276053514331579,0.0010690133785828948,0.0032070400193333626
1751619060634974500,3.311974365234375,-0.004276053514331579,0.0010690133785828948,0.004428769461810589
1751619060653798100,3.330798095703125,-0.0030543238390237093,0.0010690133785828948,0.0032070400193333626
1751619060672621600,3.34962158203125,-0.004276053514331579,0.002290742937475443,0.0032070400193333626
1751619060691445000,3.368445068359375,-0.004276053514331579,0.002290742937475443,0.004428769461810589
1751619060710268400,3.387268310546875,-0.0030543238390237093,0.002290742937475443,0.0032070400193333626
1751619060729091800,3.406091796875,-0.0030543238390237093,0.003512472379952669,0.0032070400193333626
1751619060747915300,3.424915283203125,-0.0054977829568088055,0.002290742937475443,0.0032070400193333626
1751619060766739000,3.443739013671875,-0.0054977829568088055,0.0010690133785828948,0.0032070400193333626
1751619060785562400,3.462562255859375,-0.0030543238390237093,0.002290742937475443,0.0032070400193333626
1751619060804385800,3.4813857421875,-0.0030543238390237093,0.002290742937475443,0.004428769461810589
1751619060823209200,3.500209228515625,-0.004276053514331579,0.002290742937475443,0.004428769461810589
1751619060842032600,3.51903271484375,-0.004276053514331579,0.0010690133785828948,0.0032070400193333626
1751619060860856000,3.53785595703125,-0.004276053514331579,0.0010690133785828948,0.0032070400193333626
1751619060879679500,3.556679443359375,-0.004276053514331579,0.0010690133785828948,0.004428769461810589
1751619060898503200,3.575503173828125,-0.004276053514331579,0.002290742937475443,0.0032070400193333626
1751619060917326600,3.59432666015625,-0.004276053514331579,0.002290742937475443,0.0032070400193333626
1751619060936150000,3.61314990234375,-0.004276053514331579,0.002290742937475443,0.004428769461810589
1751619060954973400,3.631973388671875,-0.004276053514331579,0.003512472379952669,0.0032070400193333626
1751619060973796900,3.650796875,-0.004276053514331579,0.003512472379952669,0.0032070400193333626
1751619060992620300,3.669620361328125,-0.004276053514331579,0.002290742937475443,0.0032070400193333626
1751619061011444000,3.68844384765625,-0.004276053514331579,0.002290742937475443,0.0032070400193333626
1751619061030267400,3.707267333984375,-0.0030543238390237093,0.002290742937475443,0.0032070400193333626
1751619061049090800,3.7260908203125,-0.004276053514331579,0.0010690133785828948,0.0032070400193333626
1751619061067914200,3.744914306640625,-0.004276053514331579,0.0010690133785828948,0.0032070400193333626
1751619061086737700,3.763737548828125,-0.004276053514331579,0.0010690133785828948,0.004428769461810589
1751619061105561000,3.78256103515625,-0.004276053514331579,0.0010690133785828948,0.0032070400193333626
1751619061124384800,3.801384765625,-0.0030543238390237093,0.002290742937475443,0.004428769461810589
1751619061143208200,3.820208251953125,-0.004276053514331579,0.0010690133785828948,0.0032070400193333626
1751619061162031600,3.839031494140625,-0.0054977829568088055,0.002290742937475443,0.004428769461810589
1751619061180855000,3.85785498046875,-0.0030543238390237093,0.002290742937475443,0.0032070400193333626
1751619061199678500,3.876678466796875,-0.004276053514331579,0.002290742937475443,0.0032070400193333626
1751619061218502000,3.895501953125,-0.004276053514331579,0.002290742937475443,0.0032070400193333626
1751619061237325300,3.9143251953125,-0.004276053514331579,0.002290742937475443,0.0019853105768561363
1751619061256148700,3.933148681640625,-0.004276053514331579,0.0010690133785828948,0.0032070400193333626
1751619061274972400,3.951972412109375,-0.004276053514331579,0.002290742937475443,0.0032070400193333626
1751619061293795800,3.9707958984375,-0.004276053514331579,0.0010690133785828948,0.0032070400193333626
1751619061312619300,3.989619384765625,-0.004276053514331579,0.0010690133785828948,0.0032070400193333626
1751619061331442700,4.008442626953125,-0.004276053514331579,0.0010690133785828948,0.0032070400193333626
1751619061350266000,4.02726611328125,-0.004276053514331579,0.0010690133785828948,0.0032070400193333626
1751619061369089500,4.046089599609375,-0.004276053514331579,0.0010690133785828948,0.0032070400193333626
1751619061387913000,4.064912841796875,-0.004276053514331579,0.002290742937475443,0.0032070400193333626
1751619061406736600,4.083736572265625,-0.004276053514331579,0.002290742937475443,0.0032070400193333626
1751619061425560000,4.10256005859375,-0.004276053514331579,0.003512472379952669,0.0032070400193333626
1751619061444383500,4.121383544921875,-0.0030543238390237093,0.002290742937475443,0.0032070400193333626
1751619061463207000,4.14020703125,-0.004276053514331579,0.002290742937475443,0.0032070400193333626
1751619061482030300,4.1590302734375,-0.004276053514331579,0.002290742937475443,0.0032070400193333626
1751619061500853800,4.177853759765625,-0.004276053514331579,0.002290742937475443,0.0032070400193333626
1751619061519677200,4.19667724609375,-0.0030543238390237093,0.002290742937475443,0.0032070400193333626
1751619061538500600,4.21550048828125,-0.004276053514331579,0.002290742937475443,0.0032070400193333626
1751619061557324300,4.23432421875,-0.0054977829568088055,0.0010690133785828948,0.0032070400193333626
1751619061576147700,4.253147705078125,-0.004276053514331579,0.0010690133785828948,0.0032070400193333626
1751619061594971100,4.27197119140625,-0.004276053514331579,0.0010690133785828948,0.0032070400193333626
1751619061613794600,4.290794677734375,-0.004276053514331579,0.002290742937475443,0.0032070400193333626
1751619061632618000,4.309617919921875,-0.004276053514331579,0.002290742937475443,0.0032070400193333626
1751619061651441400,4.32844140625,-0.004276053514331579,0.002290742937475443,0.0019853105768561363
1751619061670264800,4.347264892578125,-0.004276053514331579,0.003512472379952669,0.0032070400193333626
1751619061689088500,4.366088623046875,-0.004276053514331579,0.003512472379952669,0.0032070400193333626
1751619061707912000,4.384911865234375,-0.0030543238390237093,0.002290742937475443,0.0032070400193333626
1751619061726735400,4.4037353515625,-0.004276053514331579,0.002290742937475443,0.0032070400193333626
1751619061745558800,4.422558837890625,-0.004276053514331579,0.002290742937475443,0.0032070400193333626
1751619061764382200,4.44138232421875,-0.004276053514331579,0.0010690133785828948,0.004428769461810589
1751619061783205600,4.46020556640625,-0.004276053514331579,0.002290742937475443,0.0032070400193333626
1751619061802029000,4.479029052734375,-0.004276053514331579,0.0010690133785828948,0.0032070400193333626
1751619061820852700,4.497852783203125,-0.004276053514331579,0.0010690133785828948,0.0032070400193333626
1751619061839676200,4.51667626953125,-0.0030543238390237093,0.0010690133785828948,0.0032070400193333626
1751619061858499600,4.53549951171875,-0.004276053514331579,0.0010690133785828948,0.0032070400193333626
1751619061877323000,4.554322998046875,-0.0030543238390237093,0.002290742937475443,0.004428769461810589
1751619061896146400,4.573146484375,-0.004276053514331579,0.002290742937475443,0.0032070400193333626
1751619061914969900,4.591969970703125,-0.004276053514331579,0.002290742937475443,0.004428769461810589
1751619061933793300,4.610793212890625,-0.004276053514331579,0.002290742937475443,0.0032070400193333626
1751619061952616700,4.62961669921875,-0.004276053514331579,0.003512472379952669,0.0032070400193333626
1751619061971440400,4.6484404296875,-0.0030543238390237093,0.002290742937475443,0.0032070400193333626
1751619061990263800,4.667263916015625,-0.0054977829568088055,0.0010690133785828948,0.0032070400193333626
1751619062009087200,4.686087158203125,-0.004276053514331579,0.002290742937475443,0.0032070400193333626
1751619062027910700,4.70491064453125,-0.004276053514331579,0.0010690133785828948,0.0032070400193333626
1751619062046734000,4.723734130859375,-0.0030543238390237093,0.0010690133785828948,0.0032070400193333626
1751619062065557500,4.7425576171875,-0.0030543238390237093,0.002290742937475443,0.0032070400193333626
1751619062084381000,4.761380859375,-0.0030543238390237093,0.002290742937475443,0.0032070400193333626
1751619062103204600,4.78020458984375,-0.004276053514331579,0.002290742937475443,0.0032070400193333626
1751619062122028000,4.799028076171875,-0.004276053514331579,0.002290742937475443,0.004428769461810589
1751619062140851500,4.8178515625,-0.0054977829568088055,0.002290742937475443,0.0032070400193333626
1751619062159675000,4.8366748046875,-0.004276053514331579,0.002290742937475443,0.0032070400193333626
1751619062178498300,4.855498291015625,-0.004276053514331579,0.002290742937475443,0.0032070400193333626
1751619062197321700,4.87432177734375,-0.004276053514331579,0.002290742937475443,0.0032070400193333626
1751619062216145200,4.893145263671875,-0.004276053514331579,0.002290742937475443,0.0032070400193333626
1751619062234968600,4.911968505859375,-0.0030543238390237093,0.002290742937475443,0.0032070400193333626
1751619062253792000,4.9307919921875,-0.0030543238390237093,0.002290742937475443,0.0032070400193333626
1751619062272615700,4.94961572265625,-0.004276053514331579,0.0010690133785828948,0.0032070400193333626
1751619062291439000,4.968439208984375,-0.0030543238390237093,0.0010690133785828948,0.0032070400193333626
1751619062310262500,4.987262451171875,-0.0054977829568088055,0.0010690133785828948,0.0032070400193333626
1751619062329086000,5.0060859375,-0.004276053514331579,0.002290742937475443,0.0032070400193333626
1751619062347909400,5.024909423828125,-0.004276053514331579,0.002290742937475443,0.0032070400193333626
1751619062366732800,5.04373291015625,-0.004276053514331579,0.002290742937475443,0.0032070400193333626
1751619062385556200,5.06255615234375,-0.004276053514331579,0.002290742937475443,0.0032070400193333626
1751619062404379600,5.081379638671875,-0.0030543238390237093,0.002290742937475443,0.0032070400193333626
1751619062423203000,5.100203125,-0.0030543238390237093,0.003512472379952669,0.0032070400193333626
1751619062442026800,5.11902685546875,-0.004276053514331579,0.002290742937475443,0.0032070400193333626
1751619062460850200,5.13785009765625,-0.0030543238390237093,-0.0038179049734026194,0.009315688163042068
1751619062479673600,5.156673583984375,-0.001832594396546483,0.009621120058000088,0.0007635809597559273
1751619062498497000,5.1754970703125,-0.001832594396546483,0.003512472379952669,0.0032070400193333626
1751619062517320400,5.194320556640625,-0.004276053514331579,0.002290742937475443,0.0032070400193333626
1751619062536144000,5.213143798828125,-0.0054977829568088055,0.002290742937475443,0.0032070400193333626
1751619062554967300,5.23196728515625,-0.006719512399286032,0.002290742937475443,0.0032070400193333626
1751619062573790700,5.250790771484375,-0.006719512399286032,0.0010690133785828948,0.004428769461810589
1751619062592614400,5.269614501953125,-0.0054977829568088055,0.003512472379952669,0.004428769461810589
1751619062611437800,5.288437744140625,-0.004276053514331579,0.003512472379952669,0.004428769461810589
1751619062630261200,5.30726123046875,-0.004276053514331579,0.004734201822429895,0.0032070400193333626
1751619062649084700,5.326084716796875,-0.004276053514331579,0.004734201822429895,0.0032070400193333626
1751619062667908000,5.344908203125,-0.001832594396546483,0.004734201822429895,0.0032070400193333626
1751619062686731500,5.3637314453125,-0.001832594396546483,0.002290742937475443,0.0032070400193333626
1751619062705555000,5.382554931640625,-0.004276053514331579,0.002290742937475443,0.004428769461810589
1751619062724378400,5.40137841796875,-0.0054977829568088055,0.002290742937475443,0.004428769461810589
1751619062743202000,5.4202021484375,-0.006719512399286032,0.0010690133785828948,0.0032070400193333626
1751619062762025500,5.439025390625,-0.0054977829568088055,0.0010690133785828948,0.004428769461810589
1751619062780849000,5.457848876953125,-0.0054977829568088055,0.0010690133785828948,0.0032070400193333626
1751619062799672300,5.47667236328125,-0.004276053514331579,0.0010690133785828948,0.0032070400193333626
1751619062818495700,5.495495849609375,-0.004276053514331579,0.002290742937475443,0.0032070400193333626
1751619062837319200,5.514319091796875,-0.0030543238390237093,0.003512472379952669,0.0032070400193333626
1751619062856142600,5.533142578125,-0.004276053514331579,0.002290742937475443,0.0032070400193333626
1751619062874966000,5.551966064453125,-0.0030543238390237093,0.003512472379952669,0.0032070400193333626
1751619062893789400,5.57078955078125,-0.004276053514331579,0.002290742937475443,0.0032070400193333626
1751619062912612900,5.58961279296875,-0.004276053514331579,0.002290742937475443,0.0032070400193333626
1751619062931436300,5.608436279296875,-0.0054977829568088055,0.002290742937475443,0.0032070400193333626
1751619062950260000,5.627260009765625,-0.004276053514331579,0.0010690133785828948,0.0032070400193333626
1751619062969083400,5.64608349609375,-0.0030543238390237093,0.002290742937475443,0.0032070400193333626
1751619062987906800,5.66490673828125,-0.0030543238390237093,0.0010690133785828948,0.0032070400193333626
1751619063006730200,5.683730224609375,-0.001832594396546483,0.0010690133785828948,0.0032070400193333626
1751619063025553700,5.7025537109375,-0.0030543238390237093,0.0010690133785828948,0.0032070400193333626
1751619063044377000,5.721377197265625,-0.004276053514331579,0.002290742937475443,0.0032070400193333626
1751619063063200500,5.740200439453125,-0.0030543238390237093,0.002290742937475443,0.004428769461810589
1751619063082024200,5.759024169921875,-0.004276053514331579,0.002290742937475443,0.0032070400193333626
1751619063100847600,5.77784765625,-0.004276053514331579,0.002290742937475443,0.0032070400193333626
1751619063119671000,5.796671142578125,-0.0054977829568088055,0.002290742937475443,0.004428769461810589
1751619063138494500,5.815494384765625,-0.0054977829568088055,0.003512472379952669,0.004428769461810589
1751619063157318000,5.83431787109375,-0.004276053514331579,0.01206457894295454,0.005650499369949102
1751619063176141300,5.853141357421875,-0.0030543238390237093,0.013286309316754341,0.006872228812426329
1751619063194964700,5.87196484375,-0.004276053514331579,0.008399390615522861,0.005650499369949102
1751619063213788200,5.8907880859375,-0.004276053514331579,-0.0001527161948615685,0.0032070400193333626
1751619063232611600,5.909611572265625,-0.004276053514331579,0.0010690133785828948,0.0019853105768561363
1751619063251435000,5.92843505859375,-0.004276053514331579,0.005955931730568409,0.004428769461810589
1751619063270258400,5.947258544921875,-0.004276053514331579,0.008399390615522861,0.005650499369949102
1751619063289081900,5.966081787109375,-0.004276053514331579,0.01206457894295454,0.006872228812426329
1751619063307905500,5.984905517578125,-0.004276053514331579,-0.005039634648710489,0.0007635809597559273
1751619063326729000,6.00372900390625,-0.0030543238390237093,-0.009926552884280682,-0.00045814859913662076
1751619063345552400,6.022552490234375,-0.004276053514331579,0.003512472379952669,0.0032070400193333626
1751619063364375800,6.041375732421875,0.000610864779446274,0.013286309316754341,0.005650499369949102
1751619063383199200,6.06019921875,0.13133592903614044,0.014508038759231567,0.006872228812426329
1751619063402022700,6.079022705078125,0.13988803327083588,0.08277218043804169,0.023976443335413933
1751619063420846000,6.09784619140625,-0.001832594396546483,0.010842849500477314,0.005650499369949102
1751619063439669500,6.11666943359375,-0.0030543238390237093,0.010842849500477314,0.005650499369949102
1751619063458493000,6.135492919921875,0.19242240488529205,-0.0025961752980947495,0.0032070400193333626
1751619063477316400,6.15431640625,0.7751874327659607,-0.0013744457392022014,0.004428769461810589
1751619063496140000,6.17314013671875,1.4654645919799805,-0.007483093533664942,0.004428769461810589
1751619063514963500,6.19196337890625,1.7452406883239746,0.003512472379952669,0.011759147047996521
1751619063533787000,6.210786865234375,1.4715732336044312,0.019394956529140472,0.014202605932950974
1751619063552610300,6.2296103515625,0.8069523572921753,0.021838415414094925,0.012980876490473747
1751619063571433700,6.248433837890625,0.18753549456596375,0.0206166859716177,0.009315688163042068
1751619063590257200,6.267257080078125,-0.025045456364750862,0.002290742937475443,0.004428769461810589
1751619063609080600,6.28608056640625,-0.30604326725006104,0.008399390615522861,0.004428769461810589
1751619063627904000,6.304904052734375,-0.8631519079208374,-0.008704823441803455,-0.00045814859913662076
1751619063646727400,6.3237275390625,-1.564424753189087,-0.027030766010284424,-0.007788525894284248
1751619063665551000,6.342551025390625,-2.3927574157714844,-0.05024362727999687,-0.013744457624852657
1751619063684374500,6.36137451171875,-3.101360559463501,-0.06001746281981468,-0.019853105768561363
1751619063703198000,6.380197998046875,-3.383579969406128,-0.12721258401870728,-0.035735588520765305
1751619063722021400,6.399021484375,-3.034165382385254,-0.09422589093446732,-0.028405211865901947
1751619063740844800,6.4178447265625,-2.048229694366455,-0.0795651376247406,-0.024740023538470268
1751619063759668200,6.436668212890625,-0.7849612236022949,-0.09178243577480316,-0.02718348242342472
1751619063778491600,6.45549169921875,0.1130099818110466,-0.049021899700164795,-0.012675444595515728
1751619063797315000,6.474315185546875,0.7483093738555908,0.1182023361325264,0.04230238497257233
1751619063816138500,6.493138427734375,1.8393138647079468,0.09865466505289078,0.0386371985077858
1751619063834962000,6.5119619140625,2.6028947830200195,0.04505127668380737,0.023976443335413933
1751619063853785600,6.53078564453125,2.637103319168091,0.04367683082818985,0.023976443335413933
1751619063872609000,6.549609130859375,2.1899502277374268,0.0461202897131443,0.02519817277789116
1751619063891432400,6.568432373046875,1.6597195863723755,0.03390299528837204,0.022754713892936707
1751619063910255900,6.587255859375,1.2870920896530151,0.07055488228797913,0.020311253145337105
1751619063929079300,6.606079345703125,0.9425643682479858,0.02306014485657215,0.012980876490473747
1751619063947902700,6.62490283203125,0.5723803043365479,0.007177661173045635,0.009315688163042068
1751619063966726100,6.64372607421875,0.18142683804035187,0.009621120058000088,0.006872228812426329
1751619063985549600,6.662549560546875,0.010384701192378998,-0.01847865991294384,-0.00045814859913662076
1751619064004373000,6.681373046875,-0.3084867000579834,-0.03191768378019333,-0.002901607658714056
1751619064023196400,6.700196533203125,-0.9669989347457886,-0.039248060435056686,-0.011453714221715927
1751619064042019800,6.719019775390625,-1.8747440576553345,-0.18463388085365295,-0.06505709886550903
1751619064060843300,6.73784326171875,-2.6590943336486816,-0.04413498193025589,-0.02718348242342472
1751619064079667000,6.7566669921875,-3.1050257682800293,0.014508038759231567,-0.009010255336761475
1751619064098490400,6.775490478515625,-2.992626667022705,-0.03558287397027016,-0.022296564653515816
1751619064117313800,6.794313720703125,-2.092211961746216,-0.02825249545276165,-0.01511890348047018
1751619064136137200,6.81313720703125,-0.758083164691925,-0.017256930470466614,-0.007788525894284248
1751619064154960600,6.831960693359375,0.1997527778148651,0.019394956529140472,0.009315688163042068
1751619064173784000,6.8507841796875,1.5888593196868896,0.005955931730568409,0.011759147047996521
1751619064192607500,6.869607421875,4.130056858062744,-0.2176205813884735,-0.03940077871084213
1751619064211431000,6.888430908203125,5.954099178314209,-0.4033234715461731,-0.04062250629067421
1751619064230254300,6.90725439453125,6.0115203857421875,0.22449280321598053,0.20723587274551392
1751619064249077800,6.926077880859375,4.63340950012207,0.448069304227829,0.2390008419752121
1751619064267901200,6.944901123046875,3.031721830368042,0.36132651567459106,0.13271036744117737
1751619064286724900,6.963724853515625,1.5693116188049316,-0.008704823441803455,0.012980876490473747
1751619064305548300,6.98254833984375,0.037262752652168274,0.09010255336761475,0.03130681812763214
1751619064324371700,7.001371826171875,-0.5601630210876465,0.0668896958231926,0.01908952370285988
1751619064343195100,7.020195068359375,-0.9022472500801086,0.013286309316754341,0.0007635809597559273
1751619064362018600,7.0390185546875,-1.339626431465149,-0.0025961752980947495,-0.005345067009329796
1751619064380842000,7.057842041015625,-1.9272783994674683,-0.02825249545276165,-0.011453714221715927
1751619064399665400,7.07666552734375,-2.4514002799987793,-0.09178243577480316,-0.021227551624178886
1751619064418488800,7.09548876953125,-2.9633049964904785,-0.06490438431501389,-0.019853105768561363
1751619064437312300,7.114312255859375,-3.5827219486236572,-0.12476912885904312,-0.03817904740571976
1751619064456135700,7.1331357421875,-4.029874801635742,-0.1724165827035904,-0.06872228533029556
1751619064474959000,7.151958984375,-4.076300621032715,-0.2799287736415863,-0.11759147047996521
1751619064493782500,7.170782470703125,-3.4642140865325928,-0.07834340631961823,-0.05406153202056885
1751619064512606000,7.18960595703125,-2.1838417053222656,0.03527744114398956,-0.006566796451807022
1751619064531429600,7.2084296875,-0.5479456782341003,0.029016077518463135,0.008093958720564842
1751619064550253000,7.227253173828125,0.11423171311616898,0.030390523374080658,0.011759147047996521
1751619064569076500,7.246076416015625,0.6835576891899109,0.08277218043804169,0.03130681812763214
1751619064587900000,7.26489990234375,2.078772783279419,0.06811141967773438,0.03130681812763214
1751619064606723300,7.283723388671875,4.097070217132568,0.06566796451807022,0.0435241162776947
1751619064625546800,7.302546630859375,5.634006023406982,0.374765545129776,0.1363755613565445
1751619064644370200,7.3213701171875,5.575362682342529,0.1230892539024353,0.05451968312263489
1751619064663193600,7.340193603515625,4.216799736022949,0.08643736690282822,0.04230238497257233
1751619064682017000,7.35901708984375,2.360992431640625,0.04367683082818985,0.026419902220368385
1751619064700840400,7.37784033203125,0.6505709886550903,0.01206457894295454,0.010537417605519295
1751619064719663900,7.396663818359375,-0.06902772188186646,-0.0038179049734026194,0.0032070400193333626
1751619064738487300,7.4154873046875,-0.35735589265823364,-0.011148282326757908,-0.001679878099821508
1751619064757310700,7.434310791015625,-1.2553271055221558,-0.020922118797898293,-0.0102319847792387
1751619064776134400,7.453134521484375,-2.623664140701294,-0.03191768378019333,-0.021227551624178886
1751619064794957800,7.471957763671875,-4.478249549865723,-0.11743875592947006,-0.051618073135614395
1751619064813781200,7.49078125,-6.315731048583984,-0.4338667094707489,-0.168904110789299
1751619064832604700,7.509604736328125,-7.00234317779541,-0.4961749315261841,-0.2360992431640625
1751619064851428000,7.528427978515625,-5.537489414215088,-0.15409064292907715,-0.13958260416984558
1751619064870251500,7.54725146484375,-2.604116439819336,0.1340848207473755,0.005650499369949102
1751619064889075000,7.566074951171875,0.06536252796649933,0.025503603741526604,0.009315688163042068
1751619064907898400,7.5848984375,1.368947982788086,0.0668896958231926,0.03741546720266342
1751619064926721800,7.6037216796875,2.947422504425049,0.24037529528141022,0.09850194305181503
1751619064945545200,7.622545166015625,4.506349563598633,0.2868010103702545,0.12904518842697144
1751619064964368600,7.64136865234375,5.486176490783691,0.0925460159778595,0.07651081681251526
1751619064983192000,7.660192138671875,5.207622051239014,0.21349723637104034,0.09728021919727325
1751619065002015700,7.679015625,4.132500171661377,0.20250166952610016,0.08017600327730179
1751619065020839200,7.697839111328125,2.5112650394439697,0.03634645417332649,0.02764163166284561
1751619065039662600,7.71666259765625,0.5345066785812378,0.03145953640341759,0.012980876490473747
1751619065058486000,7.735486083984375,-0.5076286196708679,-0.0001527161948615685,-0.001679878099821508
1751619065077309400,7.754309326171875,-1.3555089235305786,-0.05146535858511925,-0.021227551624178886
1751619065096132900,7.7731328125,-2.532034397125244,-0.09666935354471207,-0.03940077871084213
1751619065114956300,7.791956298828125,-4.02376651763916,-0.22128576040267944,-0.09315688163042068
1751619065133779700,7.81077978515625,-5.324908256530762,-0.2444986253976822,-0.1334739476442337
1751619065152603100,7.82960302734375,-6.05183744430542,-0.22983787953853607,-0.15302163362503052
1751619065171426600,7.848426513671875,-5.9809770584106445,0.04245510324835777,-0.05283980444073677
1751619065190250000,7.86725,-4.981602191925049,-0.036804601550102234,-0.05039634555578232
1751619065209073400,7.886073486328125,-2.8594579696655273,0.06933315098285675,0.005650499369949102
1751619065227896800,7.904896728515625,0.4428769648075104,0.025503603741526604,0.014202605932950974
1751619065246720300,7.92372021484375,3.0072872638702393,0.15241076052188873,0.06673697382211685
1751619065265543700,7.942543701171875,4.986489295959473,0.11575887352228165,0.05940660089254379
1751619065284367400,7.961367431640625,5.907673358917236,0.1328630894422531,0.07162389904260635
1751619065303190800,7.980190673828125,5.946768760681152,0.15118902921676636,0.07406735420227051
1751619065322014200,7.99901416015625,5.389659881591797,0.12675444781780243,0.06307178735733032
1751619065340837600,8.017837646484375,4.0078840255737305,0.14996729791164398,0.06062832847237587
1751619065359661000,8.0366611328125,2.0250167846679688,0.0717766135931015,0.030085090547800064
1751619065378484500,8.055484375,0.22174391150474548,0.01695149764418602,0.008093958720564842
1751619065397308000,8.074307861328125,-0.28405213356018066,-0.0025961752980947495,0.0007635809597559273
1751619065416131300,8.09313134765625,-0.6029235124588013,-0.01847865991294384,-0.001679878099821508
1751619065434954800,8.111954833984376,-1.599854826927185,-0.033139415085315704,-0.009010255336761475
1751619065453778200,8.130778076171875,-3.4043493270874023,-0.09911280870437622,-0.035735588520765305
1751619065472601600,8.1496015625,-5.2821478843688965,-0.30802857875823975,-0.12370011955499649
1751619065491425000,8.168425048828125,-6.346274375915527,-0.15042544901371002,-0.10170898586511612
1751619065510248400,8.18724853515625,-5.936995029449463,-0.05757400393486023,-0.04062250629067421
1751619065529071900,8.20607177734375,-4.046978950500488,-0.0795651376247406,-0.03329212963581085
1751619065547895300,8.224895263671876,-1.3665045499801636,-0.019700389355421066,-0.006566796451807022
1751619065566719000,8.243718994140625,1.1209368705749512,0.02779434807598591,0.0154243353754282
1751619065585542400,8.26254248046875,3.333489179611206,0.06322450190782547,0.03497200831770897
1751619065604365800,8.28136572265625,5.3969902992248535,0.05833758786320686,0.04108065739274025
1751619065623189200,8.300189208984374,6.616276264190674,0.3222311735153198,0.1302669197320938
1751619065642012700,8.3190126953125,6.737227439880371,0.16096286475658417,0.07284562289714813
1751619065660836000,8.337836181640625,5.879573345184326,0.15118902921676636,0.061850059777498245
1751619065679659500,8.356659423828125,4.182590961456299,0.24526220560073853,0.07040216773748398
1751619065698483000,8.37548291015625,1.796553373336792,0.014508038759231567,0.0154243353754282
1751619065717306400,8.394306396484374,-0.3426951467990875,-0.0013744457392022014,0.0032070400193333626
1751619065736129800,8.4131298828125,-1.4654645919799805,-0.020922118797898293,-0.005345067009329796
1751619065754953200,8.431953125,-3.092808485031128,-0.2029598206281662,-0.05283980444073677
1751619065783188500,8.4601884765625,-5.378664493560791,-0.39110618829727173,-0.14813470840454102
1751619065802012000,8.479011962890626,-6.257087707519531,-0.3263545036315918,-0.168904110789299
1751619065820835300,8.49783544921875,-6.451343059539795,0.014508038759231567,-0.06627883017063141
1751619065839658800,8.51665869140625,-5.6816534996032715,0.008399390615522861,-0.03695731982588768
1751619065858482200,8.535482177734375,-4.0921831130981445,-0.036804601550102234,-0.03222311660647392
1751619065877305600,8.5543056640625,-1.7513493299484253,0.021838415414094925,0.0019853105768561363
1751619065896129000,8.57312890625,0.5772672295570374,-0.025809036567807198,-0.00045814859913662076
1751619065914952400,8.591952392578126,1.8026620149612427,-0.05024362727999687,-0.004123337101191282
1751619065933776000,8.61077587890625,2.797149896621704,-0.02825249545276165,0.017867794260382652
1751619065952599300,8.629599365234375,3.721999168395996,-0.02214384824037552,0.02764163166284561
1751619065971422700,8.648422607421875,4.608974933624268,0.1853974610567093,0.11316270381212234
1751619065990246100,8.66724609375,5.12943172454834,0.15118902921676636,0.0948367565870285
1751619066009069600,8.686069580078126,4.508792877197266,0.31123560667037964,0.13759729266166687
1751619066027893200,8.704893310546876,3.2235333919525146,0.17562362551689148,0.07162389904260635
1751619066046716700,8.723716552734375,2.167959213256836,0.04978547990322113,0.026419902220368385
1751619066065540000,8.7425400390625,1.4483604431152344,0.03756818547844887,0.01908952370285988
1751619066084363500,8.761363525390625,0.9474512934684753,0.026572618633508682,0.014202605932950974
1751619066103187000,8.78018701171875,0.36224281787872314,0.008399390615522861,0.006872228812426329
1751619066122010400,8.79901025390625,0.000610864779446274,0.005955931730568409,0.004428769461810589
1751619066140833800,8.817833740234375,-0.02871064469218254,0.002290742937475443,0.0032070400193333626
1751619066159657200,8.8366572265625,-0.6847794055938721,-0.023365577682852745,-0.005345067009329796
1751619066178480600,8.855480712890625,-1.9590433835983276,-0.05024362727999687,-0.018631376326084137
1751619066197304000,8.874303955078124,-3.2540767192840576,-0.049021899700164795,-0.024740023538470268
1751619066216127500,8.89312744140625,-4.222908020019531,-0.21395538747310638,-0.06627883017063141
1751619066234951000,8.911950927734376,-4.464810848236084,-0.0795651376247406,-0.03695731982588768
1751619066253774300,8.9307744140625,-3.1832163333892822,-0.05513054504990578,-0.024740023538470268
1751619066272597800,8.94959765625,-0.8008437156677246,-0.0062613640911877155,-0.002901607658714056
1751619066291421200,8.968421142578125,0.04459312930703163,0.013286309316754341,0.005650499369949102
1751619066310244600,8.98724462890625,0.07880155742168427,0.015729768201708794,0.008093958720564842
1751619066329068000,9.006068115234376,0.870482325553894,0.03756818547844887,0.016646064817905426
1751619066347891500,9.024891357421875,2.44162654876709,0.05222893878817558,0.02764163166284561
1751619066366715000,9.04371484375,3.9712319374084473,0.11453714966773987,0.04841103404760361
1751619066385538600,9.06253857421875,4.969385147094727,0.06566796451807022,0.039858926087617874
1751619066404362000,9.081362060546875,5.4751811027526855,0.11575887352228165,0.052076224237680435
1751619066423185400,9.100185302734374,5.469072341918945,0.16340632736682892,0.07284562289714813
1751619066442008800,9.1190087890625,4.604087829589844,0.07055488228797913,0.0435241162776947
1751619066460832300,9.137832275390625,2.6981897354125977,0.10231985151767731,0.039858926087617874
1751619066479655700,9.15665576171875,0.08124501258134842,0.06200277432799339,0.017867794260382652
1751619066498479000,9.17547900390625,-1.9480477571487427,-0.023365577682852745,-0.013744457624852657
1751619066517302500,9.194302490234374,-3.8038549423217773,-0.20051635801792145,-0.05406153202056885
1751619066536126000,9.2131259765625,-5.240609169006348,-0.1101083755493164,-0.05283980444073677
1751619066554949400,9.231949462890626,-6.206996917724609,-0.2787070572376251,-0.11148282140493393
1751619066573772800,9.250772705078125,-6.891165733337402,-0.3116937577724457,-0.15302163362503052
1751619066592596200,9.26959619140625,-7.278453826904297,-0.2542724609375,-0.16523891687393188
1751619066611419600,9.288419677734375,-6.882613658905029,-0.17363831400871277,-0.14691297709941864
1751619066630243000,9.3072431640625,-5.560702323913574,0.08888082206249237,-0.029626941308379173
1751619066649066500,9.32606640625,-3.6645777225494385,-0.04169152304530144,-0.04062250629067421
1751619066667890000,9.344889892578125,-1.3139700889587402,0.10842850059270859,0.02764163166284561
1751619066686713300,9.36371337890625,0.8106175661087036,-0.025809036567807198,0.0019853105768561363
1751619066705536800,9.382536865234375,2.9767441749572754,0.032681263983249664,0.036193739622831345
1751619066724360200,9.401360107421874,5.720748424530029,0.024281874299049377,0.061850059777498245
1751619066743184000,9.420183837890624,7.585107803344727,0.0717766135931015,0.0899498388171196
1751619066762007300,9.43900732421875,7.743932723999023,0.36621344089508057,0.17424917221069336
1751619066780830700,9.457830810546875,6.315731048583984,0.25870123505592346,0.10827577859163284
1751619066799654100,9.476654052734375,3.891819477081299,0.12186752259731293,0.04718930274248123
1751619066818477600,9.4954775390625,1.0720677375793457,0.021838415414094925,0.0154243353754282
1751619066837301000,9.514301025390624,-0.6273581385612488,-0.014813470654189587,-0.001679878099821508
1751619066856124400,9.53312451171875,-1.543655276298523,-0.029474224895238876,-0.0102319847792387
1751619066874947800,9.55194775390625,-2.732398271560669,-0.1418733447790146,-0.04550942778587341
1751619066893771300,9.570771240234375,-4.5979790687561035,-0.19074252247810364,-0.07360920310020447
1751619066912594700,9.5895947265625,-6.826414108276367,-0.34468045830726624,-0.1591302752494812
1751619066931418000,9.608418212890625,-8.54416561126709,-0.4240928590297699,-0.2360992431640625
1751619066950241500,9.627241455078124,-8.475749015808105,0.3026835024356842,-0.001679878099821508
1751619066969065000,9.64606494140625,-6.00785493850708,-0.13209950923919678,-0.07483093440532684
1751619066987888400,9.664888427734375,-1.8588615655899048,0.10720676928758621,0.03375028073787689
1751619067006711800,9.6837119140625,1.4972295761108398,-0.020922118797898293,-0.004123337101191282
1751619067025535200,9.70253515625,4.13494348526001,0.032681263983249664,0.028863361105322838
1751619067044358700,9.721358642578124,6.357269763946533,0.07422006875276566,0.0642935186624527
1751619067063182000,9.74018212890625,7.491034984588623,0.07055488228797913,0.07651081681251526
1751619067082005500,9.759005615234376,7.295557975769043,0.2623664140701294,0.14248420298099518
1751619067100829000,9.777828857421875,6.228988170623779,0.29046618938446045,0.1253799945116043
1751619067119652400,9.79665234375,4.681056976318359,0.24892739951610565,0.09361502528190613
1751619067138475800,9.815475830078125,2.7617197036743164,0.04245510324835777,0.023976443335413933
1751619067157299200,9.83429931640625,0.6078104376792908,0.019394956529140472,0.010537417605519295
1751619067176123000,9.853122802734376,-0.5955931544303894,-0.0038179049734026194,0.0007635809597559273
1751619067194946000,9.871946044921875,-1.619402527809143,-0.10155627131462097,-0.031001387163996696
1751619067213769500,9.89076953125,-2.9352052211761475,-0.04535670951008797,-0.023518294095993042
1751619067232593200,9.90959326171875,-4.1923651695251465,-0.13332124054431915,-0.051618073135614395
1751619067251416600,9.92841650390625,-5.122101306915283,-0.2237292230129242,-0.09560033679008484
1751619067270240000,9.947239990234374,-5.724413871765137,-0.05146535858511925,-0.04673115536570549
1751619067289063400,9.9660634765625,-5.026806354522705,-0.06612611562013626,-0.035735588520765305
1751619067307886800,9.984886962890625,-2.5686864852905273,-0.03191768378019333,-0.016340631991624832
1751619067326710300,10.003710205078125,0.6786707639694214,0.005955931730568409,0.006872228812426329
1751619067345533700,10.02253369140625,3.0757040977478027,0.04978547990322113,0.028863361105322838
1751619067364357000,10.041357177734374,5.046353816986084,0.17195843160152435,0.06551524996757507
1751619067383180500,10.0601806640625,6.075050354003906,0.2110537886619568,0.07040216773748398
1751619067402004000,10.07900390625,6.258309841156006,0.1230892539024353,0.05451968312263489
1751619067420827400,10.097827392578125,5.502058982849121,0.08643736690282822,0.0435241162776947
1751619067439650800,10.11665087890625,3.802633285522461,0.09132428467273712,0.0435241162776947
1751619067458474200,10.13547412109375,1.2675443887710571,0.04367683082818985,0.020311253145337105
1751619067477297700,10.154297607421874,-0.8374956250190735,-0.0013744457392022014,-0.001679878099821508
1751619067496121000,10.17312109375,-2.386648654937744,-0.06246092543005943,-0.023518294095993042
1751619067514944500,10.191944580078125,-4.095848560333252,-0.07589995115995407,-0.035735588520765305
1751619067533768000,10.210767822265625,-5.558258533477783,-0.3727802336215973,-0.1311832070350647
1751619067552591400,10.22959130859375,-6.498990535736084,-0.008704823441803455,-0.04428769648075104
1751619067571414800,10.248414794921874,-6.887500286102295,-0.09300415962934494,-0.0772743970155716
1751619067590238200,10.26723828125,-6.065276622772217,-0.036804601550102234,-0.03451386094093323
1751619067609061600,10.2860615234375,-3.6792385578155518,-0.03802633285522461,-0.019853105768561363
1751619067627885000,10.304885009765625,-0.08124501258134842,-0.019700389355421066,-0.00045814859913662076
1751619067646708500,10.32370849609375,2.5161521434783936,0.07422006875276566,0.028863361105322838
1751619067665532000,10.342531982421875,4.403724193572998,0.05955931544303894,0.03130681812763214
1751619067684355300,10.361355224609374,5.431198596954346,0.0668896958231926,0.04230238497257233
1751619067703178800,10.3801787109375,5.789165496826172,0.10354158282279968,0.06307178735733032
1751619067722002200,10.399002197265625,5.4666290283203125,0.22937972843647003,0.09972367435693741
1751619067740825900,10.417825927734375,4.6981611251831055,0.17806708812713623,0.07162389904260635
1751619067759649300,10.436649169921875,3.3872451782226562,0.09498947113752365,0.04230238497257233
1751619067778472700,10.45547265625,1.6426154375076294,0.04016435891389847,0.020311253145337105
1751619067797296000,10.474296142578124,0.16187916696071625,0.013286309316754341,0.008093958720564842
1751619067816119600,10.49311962890625,-0.20830489695072174,0.002290742937475443,0.0032070400193333626
1751619067834943000,10.51194287109375,-0.8045089244842529,-0.008704823441803455,-0.001679878099821508
1751619067853766400,10.530766357421875,-2.3842053413391113,-0.06246092543005943,-0.02611446939408779
1751619067872589800,10.54958984375,-4.492910385131836,-0.11499529331922531,-0.04428769648075104
1751619067891413200,10.568413330078124,-6.099484920501709,-0.3324631452560425,-0.12125665694475174
1751619067910236700,10.587236572265626,-6.705462455749512,-0.18585561215877533,-0.1029307171702385
1751619067929060000,10.60606005859375,-6.433016777038574,-0.12110394239425659,-0.06994401663541794
1751619067947883500,10.624883544921875,-5.10133171081543,0.015729768201708794,-0.01511890348047018
1751619067966707000,10.64370703125,-2.1215333938598633,-0.009926552884280682,-0.002901607658714056
1751619067985530400,10.6625302734375,1.250440239906311,0.04245510324835777,0.017867794260382652
1751619068004353800,10.681353759765624,3.891819477081299,0.032681263983249664,0.026419902220368385
1751619068023177200,10.70017724609375,6.094597816467285,0.1328630894422531,0.06673697382211685
1751619068042000600,10.719000732421875,7.289449214935303,0.19150610268115997,0.08628465235233307
1751619068060824000,10.737823974609375,7.486147880554199,0.17073670029640198,0.0850629210472107
1751619068079647500,10.7566474609375,6.628493785858154,0.14263692498207092,0.07284562289714813
1751619068098471000,10.775470947265624,4.717708587646484,0.1792888194322586,0.07895427197217941
1751619068117294300,10.79429443359375,1.960265040397644,0.11209368705749512,0.03741546720266342
1751619068136117800,10.81311767578125,-0.19364413619041443,0.002290742937475443,0.0019853105768561363
1751619068154941200,10.831941162109375,-0.5345066785812378,-0.02825249545276165,-0.004123337101191282
1751619068173764600,10.8507646484375,-1.0696241855621338,-0.039248060435056686,-0.007788525894284248
1751619068192588000,10.869588134765625,-2.268141031265259,-0.04780016839504242,-0.01740964688360691
1751619068211411500,10.888411376953124,-4.247342586517334,-0.1565341055393219,-0.05283980444073677
1751619068230235000,10.90723486328125,-6.077493667602539,-0.21029019355773926,-0.0870482325553894
1751619068249058300,10.926058349609375,-7.202706813812256,-0.3153589367866516,-0.14217877388000488
1751619068267881700,10.9448818359375,-7.5289082527160645,-0.18463388085365295,-0.12736530601978302
1751619068286705200,10.963705078125,-6.611389636993408,0.05955931544303894,-0.012675444595515728
1751619068305528600,10.982528564453125,-3.4581055641174316,-0.04780016839504242,-0.01740964688360691
1751619068324352000,11.00135205078125,1.1783581972122192,0.029016077518463135,0.014202605932950974
1751619068343175400,11.020175537109376,4.91807222366333,0.05100720748305321,0.03130681812763214
1751619068361998800,11.038998779296875,7.618094444274902,0.17073670029640198,0.08139773458242416
1751619068380822300,11.057822265625,8.811724662780762,0.2464839369058609,0.09972367435693741
1751619068399645700,11.076645751953125,8.369458198547363,0.21960589289665222,0.08750637620687485
1751619068418469000,11.09546923828125,6.2631964683532715,0.16829325258731842,0.0691804364323616
1751619068437292500,11.11429248046875,2.992626667022705,0.08765909820795059,0.036193739622831345
1751619068456116200,11.1331162109375,-0.25961753726005554,0.008399390615522861,0.0019853105768561363
1751619068474939600,11.151939697265625,-2.271806001663208,-0.06368265300989151,-0.016340631991624832
1751619068493763000,11.17076318359375,-4.006661891937256,-0.1101083755493164,-0.04062250629067421
1751619068512586200,11.189586181640625,-5.401877403259277,-0.22128576040267944,-0.0772743970155716
1751619068531410000,11.208409912109374,-6.563742160797119,-0.3263545036315918,-0.14691297709941864
1751619068550233300,11.2272333984375,-7.351757526397705,-0.46685341000556946,-0.2360992431640625
1751619068569056800,11.246056884765625,-7.24913215637207,0.06200277432799339,-0.0772743970155716
1751619068597291800,11.274291748046876,-4.177704334259033,0.0668896958231926,-0.016340631991624832
1751619068616115200,11.293115234375,0.05436696484684944,0.10354158282279968,0.0386371985077858
1751619068634938600,11.311938720703125,2.95963978767395,0.19761475920677185,0.08261945843696594
1751619068653762000,11.330761962890625,5.089114665985107,0.01695149764418602,0.02764163166284561
1751619068672585500,11.34958544921875,6.242427349090576,0.09132428467273712,0.07284562289714813
1751619068691409000,11.368408935546874,6.7103495597839355,0.28924447298049927,0.12782345712184906
1751619068710232300,11.387232421875,6.6932454109191895,0.1951712965965271,0.08628465235233307
1751619068729055700,11.4060556640625,6.040841579437256,0.19883649051189423,0.08261945843696594
1751619068747879200,11.424879150390625,4.334085464477539,0.10109812021255493,0.04474584385752678
1751619068766702600,11.44370263671875,1.6633847951889038,0.048563748598098755,0.02153298258781433
1751619068785526000,11.462526123046874,-0.37690356373786926,0.008399390615522861,0.004428769461810589
1751619068804349400,11.481349365234376,-1.2541054487228394,-0.02825249545276165,-0.005345067009329796
1751619068823172900,11.5001728515625,-2.413526773452759,-0.0844520553946495,-0.022296564653515816
1751619068841996300,11.518996337890625,-3.8710501194000244,-0.11133010685443878,-0.041844237595796585
1751619068860819700,11.53781982421875,-5.235722064971924,-0.25549420714378357,-0.08826996386051178
1751619068879643100,11.55664306640625,-6.437903881072998,-0.24205516278743744,-0.10415244847536087
1751619068898466600,11.575466552734374,-7.206371784210205,-0.13332124054431915,-0.09193515032529831
1751619068917290000,11.5942900390625,-7.284562587738037,-0.1052214577794075,-0.057726722210645676
1751619068936113700,11.61311376953125,-5.925999164581299,-0.05635227635502815,-0.028405211865901947
1751619068954936800,11.631936767578125,-2.6334381103515625,-0.023365577682852745,-0.013744457624852657
1751619068973760300,11.65076025390625,1.1490366458892822,0.014508038759231567,0.012980876490473747
1751619068992583700,11.669583740234375,4.1227264404296875,0.054672397673130035,0.030085090547800064
1751619069011407400,11.688407470703124,6.382925987243652,0.07055488228797913,0.049632761627435684
1751619069030230800,11.707230712890626,7.550899505615234,0.22327107191085815,0.10583232343196869
1751619069049054200,11.72605419921875,7.671850681304932,0.21349723637104034,0.09605848789215088
1751619069067877600,11.744877685546875,6.781209945678711,0.22937972843647003,0.08750637620687485
1751619069086701000,11.763701171875,4.973050117492676,0.11698060482740402,0.05451968312263489
1751619069105524500,11.7825244140625,2.4355177879333496,0.06322450190782547,0.02764163166284561
1751619069124348000,11.801347900390626,-0.13255766034126282,0.014508038759231567,0.006872228812426329
1751619069143171300,11.82017138671875,-1.5167772769927979,-0.06123919412493706,-0.016340631991624832
1751619069161994800,11.838994873046875,-3.0219480991363525,-0.06856957077980042,-0.028405211865901947
1751619069180818200,11.857818115234375,-4.585762023925781,-0.212733656167984,-0.07360920310020447
1751619069199641600,11.8766416015625,-5.943103313446045,-0.2860374450683594,-0.12492185086011887
1751619069218465000,11.895465087890624,-6.869174480438232,-0.44241881370544434,-0.2055560052394867
1751619069237288400,11.914288330078126,-6.981573581695557,-0.14431680738925934,-0.1444695144891739
1751619069256111900,11.93311181640625,-5.205178737640381,0.2415970265865326,0.045967575162649155
1751619069274935300,11.951935302734375,-1.3090832233428955,0.008399390615522861,-0.00045814859913662076
1751619069293758700,11.9707587890625,2.126420259475708,0.08521563559770584,0.04230238497257233
1751619069312582100,11.98958203125,4.612639904022217,0.07055488228797913,0.04841103404760361
1751619069331405600,12.008405517578124,5.985864162445068,0.2660316228866577,0.11194097250699997
1751619069350229000,12.02722900390625,6.21310567855835,0.2000582218170166,0.08384118974208832
1751619069369052400,12.046052490234375,5.813600063323975,0.13041962683200836,0.05940660089254379
1751619069387875800,12.064875732421875,5.2308349609375,0.15729768574237823,0.061850059777498245
1751619069406699300,12.08369921875,4.222908020019531,0.11942406743764877,0.05085449293255806
1751619069425522700,12.102522705078124,2.328005790710449,0.0717766135931015,0.030085090547800064
1751619069444346000,12.12134619140625,-0.009162971749901772,0.019394956529140472,0.008093958720564842
1751619069463169500,12.14016943359375,-1.2370011806488037,-0.04657844081521034,-0.012675444595515728
1751619069481993000,12.158992919921875,-2.6639811992645264,-0.09666935354471207,-0.031001387163996696
1751619069500816400,12.17781640625,-4.4159417152404785,-0.20906847715377808,-0.0772743970155716
1751619069519639800,12.196639892578125,-6.018850803375244,-0.30314165353775024,-0.13225223124027252
1751619069538463200,12.215463134765624,-6.981573581695557,-0.3825540542602539,-0.1945604383945465
1751619069557286700,12.23428662109375,-6.927817344665527,-0.16997312009334564,-0.16157373785972595
1751619069576110000,12.253110107421875,-5.513054847717285,0.4321868419647217,0.10338886082172394
1751619069594933500,12.27193359375,-2.3988659381866455,-0.02458730712532997,-0.011453714221715927
1751619069613757000,12.2907568359375,1.1038326025009155,-0.058795735239982605,-0.012675444595515728
1751619069632580400,12.309580322265624,3.504531145095825,0.07299833744764328,0.04108065739274025
1751619069651403800,12.32840380859375,5.322464942932129,0.14630211889743805,0.07773254066705704
1751619069670227200,12.347227294921876,6.904604434967041,0.12186752259731293,0.07773254066705704
1751619069689050600,12.366050537109375,7.90275764465332,0.12675444781780243,0.09117157012224197
1751619069707874000,12.3848740234375,7.219810962677002,0.4529562294483185,0.17058399319648743
1751619069726697500,12.403697509765625,4.739699840545654,0.1744018942117691,0.05818486958742142
1751619069745521000,12.42252099609375,1.591302752494812,0.0412333719432354,0.016646064817905426
1751619069764344300,12.44134423828125,-0.5112938284873962,0.002290742937475443,0.0007635809597559273
1751619069783167700,12.460167724609375,-1.3567306995391846,-0.025809036567807198,-0.005345067009329796
1751619069801991200,12.4789912109375,-2.2119414806365967,-0.09422589093446732,-0.019853105768561363
1751619069820814600,12.497814697265625,-3.2064292430877686,-0.10155627131462097,-0.03329212963581085
1751619069839638000,12.516637939453124,-4.60530948638916,-0.19929464161396027,-0.07238747924566269
1751619069858461400,12.53546142578125,-5.665771007537842,-0.2444986253976822,-0.10903936624526978
1751619069877284900,12.554284912109376,-5.699979305267334,-0.31413722038269043,-0.14691297709941864
1751619069896108300,12.5731083984375,-4.7568039894104,0.12064579129219055,0.005650499369949102
1751619069914931700,12.591931640625,-3.4605488777160645,-0.0539088174700737,-0.035735588520765305
1751619069933755100,12.610755126953125,-2.0360124111175537,0.038789913058280945,0.008093958720564842
1751619069952578600,12.62957861328125,0.25961753726005554,-0.042913250625133514,-0.006566796451807022
1751619069971402000,12.648402099609376,2.339001178741455,0.03145953640341759,0.022754713892936707
1751619069990225400,12.667225341796875,4.327977180480957,0.01695149764418602,0.03375028073787689
1751619070009048800,12.686048828125,5.772061347961426,0.13530655205249786,0.07406735420227051
1751619070027872300,12.704872314453125,6.470890522003174,-0.19929464161396027,-0.006566796451807022
1751619070046695700,12.72369580078125,6.202110290527344,-0.19440771639347076,0.03252854943275452
1751619070065519000,12.74251904296875,4.789790630340576,0.5042688846588135,0.2548833191394806
1751619070084342500,12.761342529296876,2.582125425338745,0.3894262909889221,0.1302669197320938
1751619070103166000,12.780166015625,0.19608759880065918,0.021838415414094925,0.011759147047996521
1751619070121989400,12.7989892578125,-0.9120211005210876,0.024281874299049377,0.004428769461810589
1751619070140812800,12.817812744140625,-2.0885467529296875,-0.06734783947467804,-0.018631376326084137
1751619070169048000,12.846048095703125,-4.227795124053955,-0.15042544901371002,-0.0565049909055233
1751619070187871500,12.86487158203125,-5.361560344696045,-0.26160284876823425,-0.10537417232990265
1751619070206695000,12.88369482421875,-5.8746867179870605,-0.32879796624183655,-0.15057817101478577
1751619070225518300,12.902518310546874,-6.0029683113098145,-0.33979353308677673,-0.18356487154960632
1751619070244341800,12.921341796875,-5.74518346786499,-0.18463388085365295,-0.16279546916484833
1751619070263165200,12.940165283203125,-4.850877285003662,0.1951712965965271,0.0032070400193333626
1751619070281988600,12.958988525390625,-3.14900803565979,0.09010255336761475,0.0032070400193333626
1751619070300812000,12.97781201171875,-0.8142827749252319,0.01206457894295454,0.004428769461810589
1751619070319635500,12.996635498046874,0.9926552772521973,-0.049021899700164795,-0.005345067009329796
1751619070338459000,13.015458984375,2.8350234031677246,-0.06734783947467804,0.014202605932950974
1751619070357282300,13.0342822265625,4.849655628204346,-0.0746782198548317,0.04718930274248123
1751619070376105700,13.053105712890625,6.277857303619385,0.23793183267116547,0.17791436612606049
1751619070394929200,13.07192919921875,6.66148042678833,0.3185659945011139,0.1718057245016098
1751619070413752600,13.090752685546875,5.883238792419434,0.31612253189086914,0.14370593428611755
1751619070432576000,13.109575927734374,4.182590961456299,0.1792888194322586,0.08017600327730179
1751619070451399400,13.1283994140625,2.0531165599823,0.09498947113752365,0.04108065739274025
1751619070470222800,13.147222900390625,0.27550002932548523,0.04505127668380737,0.017867794260382652
1751619070489046300,13.16604638671875,-0.45875945687294006,0.010842849500477314,0.0032070400193333626
1751619070507869700,13.18486962890625,-1.211344838142395,-0.04780016839504242,-0.013744457624852657
1751619070526693000,13.203693115234374,-2.3512184619903564,-0.13942988216876984,-0.04673115536570549
1751619070545516500,13.2225166015625,-3.8246243000030518,-0.20662501454353333,-0.08338304609060287
1751619070564340000,13.241340087890626,-5.2906999588012695,-0.35811948776245117,-0.16523891687393188
1751619070583163400,13.260163330078125,-6.414690971374512,-0.3678933084011078,-0.21166464686393738
1751619070601986800,13.27898681640625,-6.861844062805176,-0.13820815086364746,-0.18234314024448395
1751619070620810200,13.297810302734375,-5.72319221496582,0.41263917088508606,0.07162389904260635
1751619070639633700,13.316633544921874,-2.654207468032837,0.03756818547844887,0.006872228812426329
1751619070658457000,13.33545703125,0.6175842881202698,0.018173227086663246,0.012980876490473747
1751619070677280500,13.354280517578125,2.369544506072998,0.05222893878817558,0.02764163166284561
1751619070696104000,13.37310400390625,3.911367177963257,0.018173227086663246,0.03130681812763214
1751619070714927400,13.39192724609375,5.307804107666016,0.13164135813713074,0.08139773458242416
1751619070733750800,13.410750732421874,6.475777626037598,0.1792888194322586,0.09361502528190613
1751619070752574200,13.42957421875,6.496546745300293,0.16096286475658417,0.0691804364323616
1751619070771397600,13.448397705078126,5.080562591552734,0.14141519367694855,0.05696314200758934
1751619070799632600,13.476632568359374,2.011577606201172,0.038789913058280945,0.016646064817905426
1751619070818456000,13.4954560546875,0.21197007596492767,0.005955931730568409,0.004428769461810589
1751619070837279500,13.514279541015625,-0.06902772188186646,0.005955931730568409,0.005650499369949102
1751619070856103000,13.53310302734375,-0.29016077518463135,0.010842849500477314,0.006872228812426329
1751619070874926300,13.55192626953125,-1.064737319946289,-0.0001527161948615685,0.0032070400193333626
1751619070893749800,13.570749755859374,-2.367100954055786,-0.07345648854970932,-0.021227551624178886
1751619070912573200,13.5895732421875,-3.945575714111328,-0.1357647031545639,-0.04306596517562866
1751619070931396600,13.608396728515626,-5.429976940155029,-0.17486004531383514,-0.06627883017063141
1751619070950220000,13.627219970703125,-6.163014888763428,-0.2652680277824402,-0.1029307171702385
1751619070969043500,13.64604345703125,-6.012742042541504,-0.12721258401870728,-0.08582650125026703
1751619070987867000,13.664866943359375,-4.899746417999268,-0.06246092543005943,-0.03329212963581085
1751619071006690300,13.683690185546874,-2.3707661628723145,-0.042913250625133514,-0.01511890348047018
1751619071025513700,13.702513671875,0.45509424805641174,0.0010690133785828948,0.005650499369949102
1751619071044337200,13.721337158203125,1.8393138647079468,0.025503603741526604,0.0154243353754282
1751619071063160600,13.74016064453125,2.821584463119507,0.04245510324835777,0.028863361105322838
1751619071081984000,13.75898388671875,4.271777629852295,0.10109812021255493,0.055741410702466965
1751619071100807400,13.777807373046874,5.428755283355713,0.18173226714134216,0.07773254066705704
1751619071119630800,13.796630859375,5.5729193687438965,0.18417572975158691,0.06795870512723923
1751619071138454300,13.815454345703126,4.789790630340576,0.15607595443725586,0.055741410702466965
1751619071157277700,13.834277587890625,3.7733118534088135,0.08521563559770584,0.030085090547800064
1751619071176101000,13.85310107421875,2.604116439819336,0.05955931544303894,0.022754713892936707
1751619071194924500,13.871924560546875,0.9926552772521973,0.029016077518463135,0.012980876490473747
1751619071213748000,13.890748046875,-0.25350889563560486,0.013286309316754341,0.006872228812426329
1751619071232571400,13.9095712890625,-1.433699607849121,-0.04780016839504242,-0.0102319847792387
1751619071251394800,13.928394775390625,-3.335932493209839,-0.09300415962934494,-0.028405211865901947
1751619071270218200,13.94721826171875,-5.2308349609375,-0.18952079117298126,-0.06627883017063141
1751619071289041700,13.966041748046875,-6.492881774902344,-0.1980729103088379,-0.07849612087011337
1751619071307865000,13.984864990234374,-7.104968070983887,-0.43020153045654297,-0.18234314024448395
1751619071326688500,14.0036884765625,-6.831300735473633,-0.3202458620071411,-0.17745621502399445
1751619071345512000,14.022511962890626,-5.001150131225586,-0.3104720115661621,-0.168904110789299
1751619071364335400,14.04133544921875,-2.081216335296631,0.1805105358362198,0.03497200831770897
1751619071383158800,14.06015869140625,0.3952295184135437,0.4712821841239929,0.16569706797599792
1751619071401982200,14.078982177734375,1.6829324960708618,-0.2701549530029297,-0.07849612087011337
1751619071420805600,14.0978056640625,2.794706344604492,-0.12110394239425659,-0.011453714221715927
1751619071439629000,14.116629150390626,4.525897026062012,-0.23105959594249725,-0.00045814859913662076
1751619071458452500,14.135452392578125,6.789762020111084,0.08888082206249237,0.17058399319648743
1751619071477276000,14.15427587890625,8.44276237487793,0.2464839369058609,0.2536616027355194
1751619071496099300,14.173099365234375,8.12022590637207,0.48105600476264954,0.26710063219070435
1751619071514922800,14.1919228515625,5.831925868988037,0.10354158282279968,0.1107192412018776
1751619071533746200,14.21074609375,2.9743006229400635,0.3943132162094116,0.12904518842697144
1751619071552569600,14.229569580078126,0.49052441120147705,0.1182023361325264,0.03741546720266342
1751619071571393000,14.24839306640625,-0.009162971749901772,0.015729768201708794,0.008093958720564842
1751619071590216400,14.267216552734375,-0.043371398001909256,0.0206166859716177,0.009315688163042068
1751619071609040000,14.286039794921875,-0.05192350596189499,0.009621120058000088,0.006872228812426329
1751619071627863300,14.30486328125,-0.38789913058280945,0.004734201822429895,0.005650499369949102
1751619071646686700,14.323686767578126,-1.7623448371887207,-0.07589995115995407,-0.021227551624178886
1751619071665510100,14.34251025390625,-3.962679862976074,-0.18829907476902008,-0.061391908675432205
1751619071684333600,14.36133349609375,-6.17523193359375,-0.2738201320171356,-0.11026109009981155
1751619071703157000,14.380156982421875,-7.232028007507324,-0.5450441241264343,-0.24831652641296387
1751619071721980400,14.39898046875,-6.7799882888793945,-0.40698865056037903,-0.25320345163345337
1751619071740803800,14.417803955078124,-5.010923862457275,-0.06001746281981468,-0.11881320178508759
1751619071759627300,14.436627197265626,-2.5405867099761963,-0.04657844081521034,-0.06505709886550903
1751619071778450700,14.45545068359375,-0.11423171311616898,0.002290742937475443,0.0007635809597559273
1751619071797274000,14.474274169921875,1.0781763792037964,0.03390299528837204,0.03741546720266342
1751619071816097500,14.49309765625,1.7440189123153687,0.03634645417332649,0.05329795181751251
1751619071834921000,14.5119208984375,2.2204935550689697,0.03527744114398956,0.06062832847237587
1751619071853744400,14.530744384765624,2.5100433826446533,0.03390299528837204,0.0642935186624527
1751619071872567800,14.54956787109375,3.131903648376465,0.06811141967773438,0.0948367565870285
1751619071891391200,14.56839111328125,3.978562355041504,0.10109812021255493,0.1156061589717865
1751619071910214700,14.587214599609375,4.661509037017822,0.5910117030143738,0.2646571695804596
1751619071929038000,14.6060380859375,4.701826095581055,0.3955349326133728,0.1571449637413025
1751619071947861500,14.624861572265624,4.2986555099487305,0.10598503798246384,0.05696314200758934
1751619071966685000,14.643684814453126,3.554622173309326,0.15241076052188873,0.0642935186624527
1751619071985508400,14.66250830078125,2.232710838317871,0.06444623321294785,0.030085090547800064
1751619072004331800,14.681331787109375,0.29504770040512085,0.030390523374080658,0.0154243353754282
1751619072023155200,14.7001552734375,-0.7165443897247314,-0.007483093533664942,-0.002901607658714056
1751619072041978600,14.718978515625,-2.0714423656463623,-0.023365577682852745,-0.011453714221715927
1751619072060802000,14.737802001953124,-3.9639015197753906,-0.11377356201410294,-0.04673115536570549
1751619072079625500,14.75662548828125,-5.487398147583008,-0.27626359462738037,-0.10659590363502502
1751619072098449000,14.775448974609375,-6.145910739898682,-0.26771149039268494,-0.11881320178508759
1751619072117272600,14.7942724609375,-5.625453948974609,-0.17363831400871277,-0.1029307171702385
1751619072136095700,14.813095703125,-4.607752799987793,0.12675444781780243,0.009315688163042068
1751619072154919200,14.831919189453124,-3.7733118534088135,-0.029474224895238876,-0.022296564653515816
1751619072173742600,14.85074267578125,-2.908327102661133,-0.020922118797898293,-0.013744457624852657
1751619072192566300,14.869566162109376,-1.1074978113174438,0.05589412897825241,0.0154243353754282
1751619072211389700,14.8883896484375,1.1478148698806763,0.038789913058280945,0.012980876490473747
1751619072230213000,14.907213134765625,3.4214537143707275,0.08643736690282822,0.0386371985077858
1751619072249036500,14.92603662109375,5.473959445953369,0.07055488228797913,0.039858926087617874
1751619072267860000,14.94485986328125,6.301070213317871,0.06811141967773438,0.04841103404760361
1751619072286683400,14.963683349609376,5.803826332092285,0.2257145345211029,0.08017600327730179
1751619072305506800,14.9825068359375,3.998110055923462,0.05589412897825241,0.030085090547800064
1751619072324330200,15.001330322265625,2.193615436553955,0.08888082206249237,0.0386371985077858
1751619072343153700,15.020153564453125,0.9291253089904785,0.014508038759231567,0.011759147047996521
1751619072361977000,15.03897705078125,0.22174391150474548,0.0010690133785828948,0.004428769461810589
1751619072380800500,15.057800537109374,-0.007941242307424545,0.014508038759231567,0.008093958720564842
1751619072399624000,15.0766240234375,-0.1740964651107788,0.04734202101826668,0.012980876490473747
1751619072418447400,15.095447265625,-1.2919789552688599,-0.033139415085315704,-0.006566796451807022
1751619072437270800,15.114270751953125,-3.322493553161621,-0.12721258401870728,-0.035735588520765305
1751619072456094200,15.13309423828125,-5.289478302001953,-0.1516471803188324,-0.047952886670827866
1751619072474917600,15.151917724609374,-6.518537998199463,-0.17608177661895752,-0.06261363625526428
1751619072493741000,15.170740966796876,-7.064651012420654,-0.1308777779340744,-0.07605266571044922
1751619072512564500,15.189564453125,-6.733562469482422,-0.12232567369937897,-0.057726722210645676
1751619072531388000,15.208387939453125,-5.395768642425537,-0.26160284876823425,-0.1029307171702385
1751619072550211300,15.22721142578125,-2.8545711040496826,0.1366809904575348,0.03741546720266342
1751619072569034800,15.24603466796875,0.47097674012184143,0.04505127668380737,0.02153298258781433
1751619072587858200,15.264858154296874,2.8545711040496826,0.0668896958231926,0.03375028073787689
1751619072606681600,15.283681640625,5.1062188148498535,0.10354158282279968,0.0435241162776947
1751619072625505300,15.30250537109375,6.616276264190674,0.15729768574237823,0.06551524996757507
1751619072644328700,15.32132861328125,6.876504898071289,0.18661919236183167,0.0642935186624527
1751619072663152000,15.340152099609375,6.287631034851074,0.1340848207473755,0.05085449293255806
1751619072681975600,15.3589755859375,5.126987934112549,0.10720676928758621,0.045967575162649155
1751619072700799000,15.377799072265624,3.4605488777160645,0.07788526266813278,0.03375028073787689
1751619072719622400,15.396622314453126,1.7904446125030518,0.05100720748305321,0.022754713892936707
1751619072738445800,15.41544580078125,0.5540543794631958,0.025503603741526604,0.009315688163042068
1751619072757269200,15.434269287109375,0.24373504519462585,0.018173227086663246,0.009315688163042068
1751619072776092700,15.4530927734375,0.1386663019657135,0.015729768201708794,0.008093958720564842
1751619072794916000,15.471916015625,-0.04825831577181816,0.013286309316754341,0.0032070400193333626
1751619072813739500,15.490739501953126,-0.6994401812553406,-0.030695954337716103,-0.005345067009329796
1751619072832563000,15.50956298828125,-2.1618504524230957,-0.07589995115995407,-0.018631376326084137
1751619072851386400,15.528386474609375,-4.084852695465088,-0.10766492038965225,-0.035735588520765305
1751619072870210000,15.5472099609375,-5.709753036499023,-0.16019928455352783,-0.05894844979047775
1751619072889033500,15.566033447265625,-6.619941711425781,-0.3092502951622009,-0.12003492563962936
1751619072907857000,15.58485693359375,-6.610167980194092,-0.11255183815956116,-0.07360920310020447
1751619072926680300,15.603680419921876,-5.580249786376953,-0.26160284876823425,-0.12370011955499649
1751619072945503700,15.622503662109375,-3.274846076965332,-0.04535670951008797,-0.041844237595796585
1751619072964327200,15.6413271484375,0.2571740746498108,0.3698786199092865,0.12660172581672668
1751619072983150600,15.660150634765625,3.509418249130249,0.10109812021255493,0.049632761627435684
1751619073001974000,15.67897412109375,6.369487285614014,0.17684535682201385,0.06673697382211685
1751619073020797400,15.69779736328125,7.952848434448242,0.2159406989812851,0.08139773458242416
1751619073039621000,15.71662109375,8.028595924377441,0.1853974610567093,0.0691804364323616
1751619073058444500,15.735444580078125,6.927817344665527,0.14752385020256042,0.06307178735733032
1751619073077268000,15.75426806640625,5.42020320892334,0.05955931544303894,0.0386371985077858
1751619073096091400,15.77309130859375,3.4642140865325928,0.10598503798246384,0.04474584385752678
1751619073114914800,15.791914794921874,1.6022982597351074,0.02306014485657215,0.017867794260382652
1751619073133738200,15.81073828125,0.06414080411195755,0.019394956529140472,0.011759147047996521
1751619073152561700,15.829561767578125,-0.18142683804035187,0.005955931730568409,0.005650499369949102
1751619073171385000,15.848385009765625,-0.9877683520317078,-0.030695954337716103,-0.0102319847792387
1751619073190208500,15.86720849609375,-2.6248860359191895,-0.06734783947467804,-0.024740023538470268
1751619073209032200,15.8860322265625,-4.3463029861450195,-0.13820815086364746,-0.061391908675432205
1751619073227855600,15.904855712890624,-5.763509273529053,-0.20662501454353333,-0.08826996386051178
1751619073246679000,15.923678955078126,-6.715236663818359,-0.2701549530029297,-0.12247838824987411
1751619073265502500,15.94250244140625,-7.230806350708008,-0.4741837978363037,-0.21655155718326569
1751619073284326000,15.961325927734375,-7.078090190887451,-0.19562944769859314,-0.17623448371887207
1751619073303149300,15.9801494140625,-5.5448198318481445,0.3955349326133728,0.06795870512723923
1751619073321972700,15.99897265625,-2.0751075744628906,-0.09666935354471207,-0.01740964688360691
1751619073340796200,16.017796142578124,1.5583161115646362,0.06811141967773438,0.02519817277789116
1751619073359619800,16.036619873046874,3.7867507934570312,0.11209368705749512,0.039858926087617874
1751619073378443300,16.055443359375,5.019475936889648,0.14141519367694855,0.045967575162649155
1751619073397266700,16.0742666015625,5.3578948974609375,0.1340848207473755,0.055741410702466965
1751619073416090000,16.093090087890626,5.461741924285889,0.1182023361325264,0.045967575162649155
1751619073434913500,16.11191357421875,5.731744289398193,0.13041962683200836,0.052076224237680435
1751619073453737000,16.130737060546874,5.372555732727051,0.07055488228797913,0.0386371985077858
1751619073472560400,16.149560302734375,4.03354024887085,0.08155044913291931,0.04108065739274025
1751619073491384000,16.168384033203125,1.8258748054504395,0.03634645417332649,0.020311253145337105
1751619073510207500,16.18720751953125,-0.04214967042207718,0.02306014485657215,0.009315688163042068
1751619073529031000,16.206031005859376,-0.4257727563381195,0.002290742937475443,0.0032070400193333626
1751619073547854300,16.224854248046874,-1.4483604431152344,-0.02214384824037552,-0.007788525894284248
1751619073566677800,16.243677734375,-2.853349447250366,-0.06001746281981468,-0.023518294095993042
1751619073585501200,16.262501220703125,-4.32431173324585,-0.1308777779340744,-0.04550942778587341
1751619073604324900,16.281324951171875,-5.758622169494629,-0.1052214577794075,-0.04062250629067421
1751619073623148300,16.300148193359377,-6.83496618270874,-0.18829907476902008,-0.06383536756038666
1751619073641971700,16.3189716796875,-7.233249664306641,-0.233503058552742,-0.07483093440532684
1751619073660795100,16.337795166015624,-6.015185356140137,-0.16019928455352783,-0.05039634555578232
1751619073679618600,16.35661865234375,-2.5222606658935547,-0.02214384824037552,-0.012675444595515728
1751619073698442000,16.37544189453125,1.377500057220459,0.0461202897131443,0.020311253145337105
1751619073717265400,16.394265380859373,3.763537883758545,0.11209368705749512,0.03741546720266342
1751619073736089000,16.413089111328127,5.379886150360107,0.1487455666065216,0.05329795181751251
1751619073754912500,16.43191259765625,6.097041130065918,0.17318016290664673,0.061850059777498245
1751619073773736000,16.45073583984375,6.3413872718811035,0.15485422313213348,0.06062832847237587
1751619073792559400,16.469559326171876,5.951655387878418,0.10354158282279968,0.04718930274248123
1751619073811382800,16.4883828125,4.75069522857666,0.15729768574237823,0.05696314200758934
1751619073830206500,16.50720654296875,2.9058837890625,0.06933315098285675,0.03252854943275452
1751619073849030000,16.52602978515625,1.1074978113174438,0.03527744114398956,0.016646064817905426
1751619073867853300,16.544853271484374,0.017715077847242355,0.018173227086663246,0.008093958720564842
1751619073886676700,16.5636767578125,-0.0054977829568088055,-0.005039634648710489,0.0019853105768561363
1751619073905500200,16.582500244140626,-0.3182605504989624,-0.011148282326757908,-0.00045814859913662076
1751619073924323600,16.601323486328123,-1.6035200357437134,-0.04046979174017906,-0.012675444595515728
1751619073943147300,16.620147216796877,-3.590052366256714,-0.09056070446968079,-0.035735588520765305
1751619073961970700,16.638970703125,-5.4641852378845215,-0.0795651376247406,-0.035735588520765305
1751619073980794000,16.657794189453124,-6.8105316162109375,-0.17119485139846802,-0.06017018109560013
1751619073999617500,16.676617431640626,-7.544790744781494,-0.20418155193328857,-0.07360920310020447
1751619074018441200,16.695441162109375,-7.173385143280029,-0.15042544901371002,-0.06872228533029556
1751619074037264600,16.7142646484375,-5.210065841674805,-0.09056070446968079,-0.03695731982588768
1751619074056088000,16.733088134765627,-1.2516618967056274,-0.0062613640911877155,-0.002901607658714056
1751619074074911500,16.751911376953124,2.100764036178589,0.05833758786320686,0.02764163166284561
1751619074093735000,16.77073486328125,4.578431606292725,0.09621120244264603,0.03741546720266342
1751619074112558300,16.789558349609376,6.186227798461914,0.14019346237182617,0.06307178735733032
1751619074131382000,16.808382080078125,6.756775379180908,0.2049451321363449,0.07528908550739288
1751619074150205400,16.827205322265623,6.681027889251709,0.12186752259731293,0.05451968312263489
1751619074169028900,16.84602880859375,6.04572868347168,0.1487455666065216,0.055741410702466965
1751619074187852300,16.864852294921874,4.610196590423584,0.0717766135931015,0.03741546720266342
1751619074206675700,16.88367578125,2.5809037685394287,0.11331541836261749,0.045967575162649155
1751619074225499400,16.90249951171875,0.5723803043365479,0.03527744114398956,0.0154243353754282
1751619074244322800,16.92132275390625,-0.0054977829568088055,0.009621120058000088,0.005650499369949102
1751619074263146200,16.940146240234377,-0.009162971749901772,-0.007483093533664942,0.0007635809597559273
1751619074281969700,16.9589697265625,-0.5100721120834351,-0.01847865991294384,-0.00045814859913662076
1751619074300793300,16.97779345703125,-1.8625266551971436,-0.06490438431501389,-0.018631376326084137
1751619074319616800,16.99661669921875,-3.8258461952209473,-0.07345648854970932,-0.029626941308379173
1751619074338440200,17.015440185546876,-5.655996799468994,-0.15286891162395477,-0.05528326332569122
1751619074357263600,17.034263671875,-6.914378643035889,-0.18952079117298126,-0.07605266571044922
1751619074376087000,17.053087158203127,-7.566781997680664,-0.2530507445335388,-0.10537417232990265
1751619074394910700,17.07191064453125,-7.505695343017578,-0.3263545036315918,-0.1640172004699707
1751619074413734100,17.090734130859374,-5.502058982849121,0.0974329337477684,0.0154243353754282
1751619074432557600,17.1095576171875,-0.9694424271583557,0.018173227086663246,0.005650499369949102
1751619074451381000,17.128381103515625,2.634659767150879,0.07055488228797913,0.03130681812763214
1751619074470204700,17.14720458984375,5.465407371520996,0.11209368705749512,0.04474584385752678
1751619074489028000,17.166028076171877,7.003564834594727,0.17684535682201385,0.06795870512723923
1751619074507851500,17.1848515625,7.159945964813232,0.18417572975158691,0.07162389904260635
1751619074526675000,17.203675048828124,6.611389636993408,0.1389717310667038,0.05696314200758934
1751619074545498600,17.22249853515625,5.641336441040039,0.1279761642217636,0.04718930274248123
1751619074564322000,17.241322021484375,4.175260543823242,0.11698060482740402,0.052076224237680435
1751619074583145500,17.2601455078125,2.2986841201782227,0.06811141967773438,0.028863361105322838
1751619074601969000,17.278968994140627,0.4612029194831848,0.038789913058280945,0.0154243353754282
1751619074620792600,17.29779248046875,-0.13988803327083588,0.018173227086663246,0.004428769461810589
1751619074639616000,17.316615966796874,-0.5699368119239807,-0.012370011769235134,-0.001679878099821508
1751619074658439400,17.335439453125,-1.4703515768051147,-0.04657844081521034,-0.0102319847792387
1751619074677262800,17.354262939453125,-2.621220827102661,-0.09422589093446732,-0.029626941308379173
1751619074696086500,17.37308642578125,-3.7647595405578613,-0.07712167501449585,-0.02718348242342472
1751619074714910000,17.391909912109377,-4.728704452514648,-0.11621702462434769,-0.03940077871084213
1751619074733733400,17.4107333984375,-5.459298610687256,-0.11255183815956116,-0.04428769648075104
1751619074752556800,17.429556884765624,-5.7293009757995605,-0.16508620977401733,-0.0565049909055233
1751619074771380500,17.44838037109375,-5.109883785247803,-0.13820815086364746,-0.04550942778587341
1751619074790204000,17.467203857421875,-3.1844379901885986,-0.03802633285522461,-0.021227551624178886
1751619074809027300,17.48602734375,-0.0873536616563797,-0.01847865991294384,-0.001679878099821508
1751619074827851000,17.50485107421875,2.0408992767333984,0.029016077518463135,0.020311253145337105
1751619074846674400,17.52367431640625,4.332863807678223,0.11698060482740402,0.05085449293255806
1751619074865497900,17.542497802734374,5.951655387878418,0.17073670029640198,0.07040216773748398
1751619074884321300,17.5613212890625,6.490438461303711,0.14630211889743805,0.06062832847237587
1751619074903145000,17.58014501953125,6.125141143798828,0.16340632736682892,0.05451968312263489
1751619074921968400,17.598968505859375,5.084227561950684,0.11453714966773987,0.05085449293255806
1751619074940791800,17.617791748046876,3.570504665374756,0.10476330667734146,0.0435241162776947
1751619074959615200,17.636615234375,1.9382739067077637,0.08277218043804169,0.02519817277789116
1751619074978439000,17.65543896484375,0.555276095867157,0.0412333719432354,0.014202605932950974
1751619074997262300,17.674262451171874,-0.1386663019657135,-0.0001527161948615685,0.0032070400193333626
1751619075016085800,17.693085693359375,-0.8436042666435242,-0.03436114266514778,-0.002901607658714056
1751619075034909400,17.711909423828125,-2.0836596488952637,-0.08078686892986298,-0.016340631991624832
1751619075053732900,17.73073291015625,-3.6645777225494385,-0.13454297184944153,-0.04306596517562866
1751619075072556300,17.749556396484376,-5.434864044189453,-0.11621702462434769,-0.04917461425065994
1751619075091379700,17.768379638671874,-6.688358306884766,-0.212733656167984,-0.06994401663541794
1751619075110203400,17.787203369140624,-7.075646877288818,-0.16019928455352783,-0.07238747924566269
1751619075129026800,17.80602685546875,-6.545415878295898,-0.2652680277824402,-0.10048725455999374
1751619075147850200,17.824850341796875,-5.431198596954346,-0.01359174121171236,-0.031001387163996696
1751619075166674000,17.843673828125,-3.739103317260742,0.007177661173045635,-0.009010255336761475
1751619075185497300,17.862497314453126,-0.9584468603134155,0.04734202101826668,0.012980876490473747
1751619075204320800,17.88132080078125,1.0952805280685425,0.04245510324835777,0.017867794260382652
1751619075223144400,17.90014453125,2.9303183555603027,0.05955931544303894,0.01908952370285988
1751619075241967900,17.9189677734375,5.3969902992248535,0.10965022444725037,0.039858926087617874
1751619075260791300,17.937791259765625,7.514247417449951,0.12553271651268005,0.06062832847237587
1751619075279614700,17.95661474609375,8.638238906860352,0.21349723637104034,0.07651081681251526
1751619075298438400,17.9754384765625,8.51240062713623,0.20738859474658966,0.08628465235233307
1751619075317261800,17.99426171875,6.789762020111084,0.14263692498207092,0.05818486958742142
1751619075336085200,18.013085205078124,4.051866054534912,0.11575887352228165,0.03741546720266342
1751619075354909000,18.031908935546873,1.2932007312774658,0.05955931544303894,0.016646064817905426
1751619075373732400,18.050732421875,-0.3084867000579834,0.014508038759231567,0.008093958720564842
1751619075392555800,18.0695556640625,-0.43921178579330444,0.01206457894295454,0.0019853105768561363
1751619075411379200,18.088379150390626,-1.173471212387085,-0.008704823441803455,-0.00045814859913662076
1751619075430203000,18.107202880859376,-2.558912515640259,-0.0844520553946495,-0.0102319847792387
1751619075449026300,18.1260263671875,-4.31453800201416,-0.18585561215877533,-0.04428769648075104
1751619075467849700,18.144849609375,-6.101928234100342,-0.1516471803188324,-0.057726722210645676
1751619075486673400,18.16367333984375,-7.403070449829102,-0.18341214954853058,-0.06872228533029556
1751619075505496800,18.182496826171874,-7.792801856994629,-0.21639885008335114,-0.08338304609060287
1751619075524320300,18.2013203125,-7.169719696044922,-0.20173808932304382,-0.07849612087011337
1751619075543144000,18.22014404296875,-5.808712959289551,-0.09178243577480316,-0.04550942778587341
1751619075561967400,18.23896728515625,-3.4348926544189453,-0.04046979174017906,-0.016340631991624832
1751619075580790800,18.257790771484373,-0.05070177838206291,0.06200277432799339,0.016646064817905426
1751619075599614500,18.276614501953127,1.758679747581482,0.05955931544303894,0.020311253145337105
1751619075618438000,18.29543798828125,3.5692830085754395,0.07299833744764328,0.026419902220368385
1751619075637261300,18.31426123046875,5.437307357788086,0.12064579129219055,0.04474584385752678
1751619075656085000,18.3330849609375,6.743336200714111,0.15118902921676636,0.05818486958742142
1751619075674908400,18.351908447265625,7.368861675262451,0.1438586562871933,0.061850059777498245
1751619075693731800,18.37073193359375,7.298001289367676,0.19150610268115997,0.06551524996757507
1751619075712555500,18.389555419921876,6.066498279571533,0.12186752259731293,0.05329795181751251
1751619075731379000,18.40837890625,3.769646644592285,0.08399390429258347,0.03741546720266342
1751619075750202600,18.42720263671875,0.9498947262763977,0.054672397673130035,0.022754713892936707
1751619075769026000,18.446026123046874,-0.5662716627120972,0.054672397673130035,0.009315688163042068
1751619075787849500,18.464849365234375,-1.1026109457015991,-0.030695954337716103,-0.002901607658714056
1751619075806673200,18.483673095703125,-1.950491189956665,-0.06001746281981468,-0.012675444595515728
1751619075825496600,18.50249658203125,-3.5497353076934814,-0.12721258401870728,-0.03329212963581085
1751619075844320000,18.521320068359376,-5.289478302001953,-0.12965604662895203,-0.047952886670827866
1751619075863143400,18.540143310546874,-6.739671230316162,-0.17974695563316345,-0.06383536756038666
1751619075881967000,18.558967041015624,-7.690176486968994,-0.21151192486286163,-0.07360920310020447
1751619075900790500,18.57779052734375,-8.002939224243164,-0.18463388085365295,-0.07238747924566269
1751619075919614000,18.596614013671875,-7.6767377853393555,-0.11866047978401184,-0.047952886670827866
1751619075938437600,18.615437744140625,-6.415912628173828,-0.16264274716377258,-0.0565049909055233
1751619075957261000,18.634260986328126,-3.548513412475586,-0.06734783947467804,-0.022296564653515816
1751619075976084700,18.653084716796876,0.6847794055938721,0.025503603741526604,0.011759147047996521
1751619075994908200,18.671908203125,3.8576111793518066,0.11575887352228165,0.0386371985077858
1751619076013731600,18.690731689453123,6.0567240715026855,0.16096286475658417,0.055741410702466965
1751619076032555300,18.70955517578125,6.7775444984436035,0.1182023361325264,0.04474584385752678
1751619076051378700,18.728378662109375,6.425686836242676,0.1328630894422531,0.049632761627435684
1751619076070202000,18.7472021484375,5.619345188140869,0.15607595443725586,0.052076224237680435
1751619076089025800,18.76602587890625,4.395172119140625,0.10354158282279968,0.03375028073787689
1751619076107849200,18.78484912109375,3.006065607070923,0.05222893878817558,0.023976443335413933
1751619076126672600,18.803672607421873,1.7012584209442139,0.0412333719432354,0.016646064817905426
1751619076145496300,18.822496337890627,0.6224712133407593,0.01695149764418602,0.010537417605519295
1751619076164319700,18.84131982421875,0.10567960888147354,0.005955931730568409,0.006872228812426329
1751619076183143200,18.86014306640625,-0.006719512399286032,0.0010690133785828948,0.0032070400193333626
1751619076201966800,18.878966796875,-0.0030543238390237093,0.004734201822429895,0.004428769461810589
1751619076220790300,18.897790283203125,-0.001832594396546483,0.002290742937475443,0.004428769461810589
1751619076239613700,18.91661376953125,-0.01893680728971958,-0.009926552884280682,0.0007635809597559273
1751619076258437400,18.935437255859377,-0.5369501113891602,-0.03191768378019333,-0.005345067009329796
1751619076277260800,18.9542607421875,-1.8197661638259888,-0.07834340631961823,-0.022296564653515816
1751619076296084500,18.97308447265625,-3.483761787414551,-0.06246092543005943,-0.024740023538470268
1751619076314908000,18.991907958984374,-4.932733058929443,-0.17119485139846802,-0.057726722210645676
1751619076333731300,19.0107314453125,-5.963872909545898,-0.15409064292907715,-0.05406153202056885
1751619076352555000,19.029554931640625,-6.475777626037598,-0.11866047978401184,-0.057726722210645676
1751619076371378400,19.04837841796875,-6.061611175537109,-0.11133010685443878,-0.03817904740571976
1751619076390201900,19.067201904296876,-3.769646644592285,-0.09178243577480316,-0.022296564653515816
1751619076409025500,19.086025634765626,0.16798780858516693,0.002290742937475443,0.006872228812426329
1751619076427849000,19.104848876953124,2.799593210220337,0.06933315098285675,0.028863361105322838
1751619076446672400,19.12367236328125,5.227169990539551,0.14996729791164398,0.04718930274248123
1751619076465496000,19.14249609375,6.703019142150879,0.13775001466274261,0.05818486958742142
1751619076484319500,19.161319580078125,7.3920745849609375,0.19150610268115997,0.07284562289714813
1751619076503143200,19.18014306640625,7.351757526397705,0.17684535682201385,0.06307178735733032
1751619076521966600,19.198966552734376,6.422021389007568,0.10109812021255493,0.049632761627435684
1751619076540790000,19.2177900390625,4.6981611251831055,0.03527744114398956,0.03497200831770897
1751619076559613700,19.23661376953125,2.690859317779541,0.15607595443725586,0.06062832847237587
1751619076578437000,19.25543701171875,0.8973603844642639,0.06566796451807022,0.023976443335413933
1751619076597260800,19.2742607421875,0.0030543238390237093,0.029016077518463135,0.008093958720564842
1751619076616084200,19.293084228515625,-0.014049889519810677,0.008399390615522861,0.004428769461810589
1751619076634907600,19.31190771484375,-0.6126973628997803,-0.025809036567807198,-0.001679878099821508
1751619076653731300,19.3307314453125,-2.308458089828491,-0.0844520553946495,-0.019853105768561363
1751619076672554800,19.3495546875,-4.563770771026611,-0.1259908676147461,-0.04550942778587341
1751619076691378200,19.368378173828123,-6.558855056762695,-0.1931859850883484,-0.07605266571044922
1751619076710201900,19.387201904296877,-7.919861793518066,-0.21639885008335114,-0.08826996386051178
1751619076729025300,19.406025390625,-8.55638313293457,-0.2799287736415863,-0.1311832070350647
1751619076747849000,19.424848876953124,-8.301041603088379,0.05711585655808449,-0.029626941308379173
1751619076766672400,19.44367236328125,-6.750666618347168,-0.07712167501449585,-0.03817904740571976
1751619076785495800,19.462495849609375,-3.414123296737671,-0.06856957077980042,-0.029626941308379173
1751619076804319500,19.481319580078125,0.38789913058280945,0.03527744114398956,0.016646064817905426
1751619076823143000,19.500142822265627,2.813032388687134,0.08277218043804169,0.03741546720266342
1751619076841966300,19.51896630859375,4.77268648147583,0.1328630894422531,0.04108065739274025
1751619076860790000,19.5377900390625,6.121476173400879,0.1853974610567093,0.0435241162776947
1751619076879613400,19.556613525390624,6.833744525909424,0.1389717310667038,0.052076224237680435
1751619076898437000,19.57543701171875,7.013338565826416,0.16707152128219604,0.061850059777498245
1751619076917260500,19.594260498046875,6.401251792907715,0.1597411334514618,0.06062832847237587
1751619076936084000,19.613083984375,4.722595691680908,0.08888082206249237,0.03375028073787689
1751619076954907600,19.63190771484375,2.8619015216827393,0.07544180005788803,0.026419902220368385
1751619076973731000,19.65073095703125,1.3738348484039307,0.007177661173045635,0.010537417605519295
1751619076992554800,19.6695546875,0.4062250852584839,0.007177661173045635,0.008093958720564842
1751619077011378200,19.688378173828124,0.01649334840476513,0.008399390615522861,0.006872228812426329
1751619077030201600,19.70720166015625,0.02260199747979641,0.004734201822429895,0.005650499369949102
1751619077049025300,19.726025390625,-0.6603448390960693,-0.0062613640911877155,-0.00045814859913662076
1751619077067848700,19.7448486328125,-2.2424845695495605,-0.03802633285522461,-0.012675444595515728
1751619077086672100,19.763672119140626,-4.2375688552856445,-0.1259908676147461,-0.035735588520765305
1751619077105495800,19.782495849609376,-5.849030494689941,-0.1052214577794075,-0.03940077871084213
1751619077124319200,19.8013193359375,-6.726232051849365,-0.16752967238426208,-0.05528326332569122
1751619077143143000,19.820142822265623,-6.881391525268555,-0.16875138878822327,-0.06261363625526428
1751619077161966300,19.83896630859375,-6.066498279571533,-0.12721258401870728,-0.051618073135614395
1751619077180789800,19.857789794921874,-4.090961456298828,-0.08323032408952713,-0.023518294095993042
1751619077199613400,19.876613525390624,-0.6065887212753296,0.003512472379952669,0.006872228812426329
1751619077218436900,19.895436767578126,2.207054376602173,0.07910698652267456,0.022754713892936707
1751619077237260500,19.914260498046875,4.849655628204346,0.09132428467273712,0.039858926087617874
1751619077256084000,19.933083984375,6.32672643661499,0.14996729791164398,0.05451968312263489
1751619077274907400,19.951907470703127,6.545415878295898,0.14630211889743805,0.05940660089254379
1751619077293731000,19.97073095703125,6.109258651733398,0.12186752259731293,0.055741410702466965
1751619077312554500,19.989554443359374,5.58758020401001,0.09865466505289078,0.04230238497257233
1751619077331378200,20.008378173828124,4.755582332611084,0.06322450190782547,0.036193739622831345
1751619077350201600,20.02720166015625,3.29439377784729,0.021838415414094925,0.02153298258781433
1751619077369025000,20.04602490234375,1.5583161115646362,0.13041962683200836,0.049632761627435684
1751619077387848700,20.0648486328125,0.3536907136440277,0.048563748598098755,0.016646064817905426
1751619077406672100,20.083672119140626,-0.09590577334165573,0.024281874299049377,0.005650499369949102
1751619077425495800,20.102495849609376,-0.7031053900718689,-0.016035201027989388,-0.00045814859913662076
1751619077444319200,20.1213193359375,-2.1642940044403076,-0.052687086164951324,-0.013744457624852657
1751619077463142700,20.140142578125,-4.175260543823242,-0.1101083755493164,-0.035735588520765305
1751619077481966300,20.15896630859375,-6.004189968109131,-0.16019928455352783,-0.051618073135614395
1751619077500789800,20.177789794921875,-7.104968070983887,-0.17974695563316345,-0.06017018109560013
1751619077519613400,20.196613525390624,-7.600990295410156,-0.2078467458486557,-0.07849612087011337
1751619077538436900,20.215436767578126,-7.326101303100586,-0.17608177661895752,-0.07238747924566269
1751619077557260300,20.23426025390625,-5.601019382476807,-0.08689551800489426,-0.035735588520765305
1751619077576084000,20.253083984375,-1.4764602184295654,-0.019700389355421066,-0.002901607658714056
1751619077594907400,20.271907470703123,2.109316110610962,0.06444623321294785,0.01908952370285988
1751619077613730800,20.290730712890625,5.361560344696045,0.11209368705749512,0.045967575162649155
1751619077632554500,20.309554443359374,7.359087944030762,0.18417572975158691,0.06673697382211685
1751619077651378000,20.3283779296875,7.808684349060059,0.17073670029640198,0.06795870512723923
1751619077670201600,20.34720166015625,7.428726673126221,0.14630211889743805,0.06062832847237587
1751619077689025000,20.36602490234375,6.347496032714844,0.08277218043804169,0.0435241162776947
1751619077707848700,20.3848486328125,4.736034870147705,0.08888082206249237,0.055741410702466965
1751619077726672100,20.403672119140627,3.1526732444763184,0.06933315098285675,0.03252854943275452
1751619077745495800,20.422495849609376,1.758679747581482,0.08277218043804169,0.02764163166284561
1751619077764319200,20.4413193359375,0.8765909671783447,0.06811141967773438,0.01908952370285988
1751619077783142700,20.460142578125,0.22785256803035736,0.048563748598098755,0.009315688163042068
1751619077801966300,20.47896630859375,-0.09957095980644226,0.005955931730568409,0.0032070400193333626
1751619077820789800,20.497789794921875,-0.7458658814430237,-0.033139415085315704,-0.002901607658714056
1751619077839613200,20.51661328125,-2.7727153301239014,-0.09544762223958969,-0.01511890348047018
1751619077858436900,20.535436767578126,-5.053684234619141,-0.12232567369937897,-0.03940077871084213
1751619077877260300,20.55426025390625,-6.604059219360352,-0.15897755324840546,-0.0565049909055233
1751619077896084000,20.573083984375,-7.522799968719482,-0.22128576040267944,-0.06383536756038666
1751619077914907400,20.591907470703124,-7.480039119720459,-0.21395538747310638,-0.07116574794054031
1751619077933730800,20.610730712890625,-6.6736979484558105,-0.16997312009334564,-0.07360920310020447
1751619077952554500,20.629554443359375,-5.224726676940918,-0.06001746281981468,-0.03940077871084213
1751619077971378000,20.6483779296875,-2.115424633026123,-0.005039634648710489,-0.005345067009329796
1751619077990201600,20.66720166015625,1.4520255327224731,0.05345066636800766,0.022754713892936707
1751619078009025000,20.68602490234375,4.574766159057617,0.13164135813713074,0.04230238497257233
1751619078027848700,20.7048486328125,7.1098551750183105,0.1744018942117691,0.06307178735733032
1751619078046672100,20.723672119140623,8.563713073730469,0.18661919236183167,0.06673697382211685
1751619078065495600,20.74249560546875,9.087835311889648,0.12675444781780243,0.061850059777498245
1751619078084319200,20.7613193359375,7.9675092697143555,0.07788526266813278,0.05818486958742142
1751619078103142700,20.780142578125,4.733591079711914,0.14630211889743805,0.052076224237680435
1751619078121966300,20.79896630859375,1.0903936624526978,0.06933315098285675,0.02153298258781433
1751619078140789800,20.817789794921875,-0.62857985496521,0.009621120058000088,0.0032070400193333626
1751619078159613200,20.83661328125,-1.0928370952606201,-0.027030766010284424,-0.005345067009329796
1751619078178436900,20.855436767578126,-1.7525711059570312,-0.042913250625133514,-0.006566796451807022
1751619078197260300,20.87426025390625,-2.9290966987609863,-0.07101303339004517,-0.01740964688360691
1751619078216084000,20.893083984375,-4.485579967498779,-0.10155627131462097,-0.03451386094093323
1751619078234907400,20.911907470703124,-6.136136531829834,-0.14798198640346527,-0.05039634555578232
1751619078253730800,20.930730712890625,-7.219810962677002,-0.2188423126935959,-0.06261363625526428
1751619078272554500,20.949554443359375,-6.324283123016357,-0.16386447846889496,-0.05039634555578232
1751619078291378000,20.9683779296875,-3.456883668899536,-0.08567378669977188,-0.029626941308379173
1751619078310201600,20.98720166015625,-0.5772672295570374,-0.036804601550102234,-0.011453714221715927
1751619078329025000,21.00602490234375,0.4929678738117218,0.008399390615522861,0.006872228812426329
1751619078347848700,21.0248486328125,1.7831143140792847,0.060781046748161316,0.028863361105322838
1751619078366672100,21.043672119140624,3.205207586288452,0.06566796451807022,0.03375028073787689
1751619078385495600,21.06249560546875,3.581500291824341,0.05222893878817558,0.028863361105322838
1751619078404319200,21.0813193359375,2.1496331691741943,0.04505127668380737,0.017867794260382652
1751619078423142700,21.100142578125,0.09101885557174683,0.03390299528837204,0.014202605932950974
1751619078441966300,21.11896630859375,-0.46608981490135193,0.005955931730568409,0.0032070400193333626
1751619078460789800,21.137789794921876,-0.759304940700531,-0.016035201027989388,-0.002901607658714056
1751619078479613200,21.15661328125,-0.6798924803733826,-0.017256930470466614,-0.004123337101191282
1751619078498436900,21.175436767578127,-0.2706131041049957,-0.005039634648710489,0.0007635809597559273
1751619078517260300,21.19426025390625,-0.011606430634856224,-0.0038179049734026194,0.0019853105768561363
1751619078536084000,21.213083984375,0.000610864779446274,-0.019700389355421066,-0.001679878099821508
1751619078554907400,21.231907470703124,0.000610864779446274,-0.019700389355421066,-0.002901607658714056
1751619078573730800,21.250730712890626,0.15577052533626556,0.004734201822429895,0.004428769461810589
1751619078592554500,21.269554443359375,0.33047783374786377,0.019394956529140472,0.009315688163042068
1751619078611378000,21.2883779296875,0.11178825795650482,0.026572618633508682,0.009315688163042068
1751619078630201600,21.30720166015625,0.0360410213470459,0.003512472379952669,0.0032070400193333626
1751619078649025000,21.32602490234375,0.02626718580722809,0.003512472379952669,0.0032070400193333626
1751619078667848700,21.3448486328125,-0.0054977829568088055,0.007177661173045635,0.004428769461810589
1751619078686672100,21.363672119140624,-0.004276053514331579,0.008399390615522861,0.005650499369949102
1751619078705495800,21.382495849609374,-0.004276053514331579,0.002290742937475443,0.0032070400193333626
1751619078724319200,21.4013193359375,0.017715077847242355,-0.0001527161948615685,0.0019853105768561363
1751619078743142700,21.420142578125,0.13622283935546875,0.008399390615522861,0.004428769461810589
1751619078761966300,21.43896630859375,0.10934479534626007,0.013286309316754341,0.005650499369949102
1751619078780789800,21.457789794921876,0.0409279391169548,0.009621120058000088,0.005650499369949102
1751619078799613400,21.476613525390626,0.025045456364750862,0.003512472379952669,0.004428769461810589
1751619078818436900,21.495436767578123,-0.001832594396546483,-0.0025961752980947495,0.0019853105768561363
1751619078837260500,21.514260498046873,0.015271619893610477,-0.008704823441803455,0.0007635809597559273
1751619078856084000,21.533083984375,0.09346231073141098,0.0010690133785828948,0.004428769461810589
1751619078874907400,21.551907470703124,0.017715077847242355,0.007177661173045635,0.004428769461810589
1751619078893731000,21.57073095703125,-0.006719512399286032,0.007177661173045635,0.004428769461810589
1751619078912554500,21.589554443359376,-0.006719512399286032,-0.0013744457392022014,0.0019853105768561363
1751619078931378200,21.608378173828125,-0.0030543238390237093,-0.007483093533664942,0.0007635809597559273
1751619078950201600,21.62720166015625,0.017715077847242355,-0.0062613640911877155,0.0007635809597559273
1751619078969025000,21.64602490234375,0.08979712426662445,0.014508038759231567,0.005650499369949102
1751619078987848700,21.6648486328125,0.07147117704153061,0.014508038759231567,0.005650499369949102
1751619079006672100,21.683672119140624,0.05192350596189499,0.013286309316754341,0.005650499369949102
1751619079025495800,21.702495849609374,0.05070177838206291,0.005955931730568409,0.004428769461810589
1751619079044319200,21.7213193359375,0.09957095980644226,-0.0001527161948615685,0.0032070400193333626
1751619079063142700,21.740142578125,0.2559523284435272,0.007177661173045635,0.005650499369949102
1751619079081966300,21.75896630859375,0.2974911332130432,0.01206457894295454,0.008093958720564842
1751619079100789800,21.777789794921876,0.15577052533626556,0.019394956529140472,0.009315688163042068
1751619079119613400,21.796613525390626,-0.001832594396546483,0.014508038759231567,0.006872228812426329
1751619079138436900,21.815436767578124,-0.0054977829568088055,0.005955931730568409,0.004428769461810589
1751619079157260500,21.834260498046874,-0.001832594396546483,0.0010690133785828948,0.0032070400193333626
1751619079176084000,21.853083984375,0.001832594396546483,-0.0025961752980947495,0.0019853105768561363
1751619079194907400,21.871907470703125,0.000610864779446274,-0.0001527161948615685,0.0019853105768561363
1751619079213731000,21.89073095703125,-0.0030543238390237093,0.003512472379952669,0.0032070400193333626
1751619079232554500,21.909554443359376,-0.0030543238390237093,0.005955931730568409,0.004428769461810589
1751619079251378200,21.928378173828126,-0.0030543238390237093,0.002290742937475443,0.004428769461810589
1751619079270201600,21.94720166015625,-0.004276053514331579,-0.0062613640911877155,0.0019853105768561363
1751619079289025300,21.966025390625,0.014049889519810677,-0.0038179049734026194,0.0032070400193333626
1751619079307848700,21.9848486328125,0.01893680728971958,0.004734201822429895,0.005650499369949102
1751619079326672100,22.003672119140624,-0.007941242307424545,0.007177661173045635,0.005650499369949102
1751619079345495800,22.022495849609374,-0.0054977829568088055,0.002290742937475443,0.004428769461810589
1751619079364319200,22.0413193359375,-0.004276053514331579,0.002290742937475443,0.004428769461810589
1751619079383143000,22.060142822265625,-0.0030543238390237093,0.0010690133785828948,0.0019853105768561363
1751619079401966300,22.07896630859375,-0.001832594396546483,0.005955931730568409,0.0032070400193333626
1751619079430201600,22.10720166015625,-0.004276053514331579,0.003512472379952669,0.004428769461810589
1751619079449025300,22.126025390625,-0.004276053514331579,0.0010690133785828948,0.0032070400193333626
1751619079467848700,22.1448486328125,-0.004276053514331579,0.004734201822429895,0.004428769461810589
1751619079486672400,22.16367236328125,-0.0030543238390237093,0.007177661173045635,0.004428769461810589
1751619079505495800,22.182495849609374,-0.004276053514331579,0.003512472379952669,0.004428769461810589
1751619079524319200,22.2013193359375,-0.0054977829568088055,-0.009926552884280682,0.0007635809597559273
1751619079552554800,22.2295546875,-0.004276053514331579,-0.007483093533664942,0.0019853105768561363
1751619079571378200,22.248378173828126,-0.004276053514331579,0.002290742937475443,0.0032070400193333626
1751619079590201600,22.26720166015625,-0.004276053514331579,0.004734201822429895,0.004428769461810589
1751619079609025300,22.286025390625,-0.004276053514331579,-0.005039634648710489,0.0007635809597559273
1751619079627848700,22.3048486328125,-0.0054977829568088055,-0.007483093533664942,-0.00045814859913662076
1751619079646672400,22.32367236328125,-0.0030543238390237093,-0.0025961752980947495,0.0007635809597559273
1751619079665495800,22.342495849609374,-0.0030543238390237093,0.004734201822429895,0.0032070400193333626
1751619079684319500,22.361319580078124,-0.007941242307424545,0.004734201822429895,0.0032070400193333626
1751619079703143000,22.380142822265626,-0.09101885557174683,-0.0013744457392022014,0.0007635809597559273
1751619079721966300,22.39896630859375,-0.14477495849132538,-0.0001527161948615685,0.0019853105768561363
1751619079740790000,22.4177900390625,-0.12034036219120026,0.002290742937475443,0.0032070400193333626
1751619079759613400,22.436613525390626,-0.06414080411195755,0.004734201822429895,0.005650499369949102
1751619079778437000,22.45543701171875,-0.02260199747979641,0.0010690133785828948,0.004428769461810589
1751619079797260500,22.474260498046874,-0.029932374134659767,-0.007483093533664942,0.0007635809597559273
1751619079816084200,22.493084228515624,-0.006719512399286032,-0.007483093533664942,0.0007635809597559273
1751619079834907600,22.51190771484375,-0.0030543238390237093,-0.0062613640911877155,0.0019853105768561363
1751619079853731000,22.53073095703125,-0.001832594396546483,0.008399390615522861,0.005650499369949102
1751619079872554800,22.5495546875,-0.0030543238390237093,0.009621120058000088,0.005650499369949102
1751619079891378200,22.568378173828126,-0.004276053514331579,0.004734201822429895,0.0032070400193333626
1751619079910201900,22.587201904296876,-0.0054977829568088055,0.002290742937475443,0.0032070400193333626
1751619079929025300,22.606025390625,-0.0054977829568088055,0.0010690133785828948,0.0019853105768561363
1751619079947849000,22.624848876953124,-0.0054977829568088055,-0.0001527161948615685,0.0032070400193333626
1751619079966672400,22.64367236328125,-0.0054977829568088055,-0.0001527161948615685,0.0032070400193333626
1751619079985496000,22.66249609375,-0.0054977829568088055,0.0010690133785828948,0.0032070400193333626
1751619080004319500,22.681319580078124,-0.0030543238390237093,-0.0025961752980947495,0.0032070400193333626
1751619080023143000,22.700142822265626,-0.0030543238390237093,-0.0013744457392022014,0.0019853105768561363
1751619080041966600,22.718966552734376,-0.0030543238390237093,0.004734201822429895,0.004428769461810589
1751619080060790000,22.7377900390625,-0.0030543238390237093,0.005955931730568409,0.004428769461810589
1751619080079613700,22.75661376953125,-0.004276053514331579,0.007177661173045635,0.004428769461810589
1751619080098437000,22.77543701171875,-0.004276053514331579,0.002290742937475443,0.0019853105768561363
1751619080117260800,22.7942607421875,-0.0054977829568088055,-0.0001527161948615685,0.0019853105768561363
1751619080136084200,22.813084228515624,-0.0054977829568088055,-0.009926552884280682,-0.00045814859913662076
1751619080154907600,22.83190771484375,-0.0054977829568088055,-0.0013744457392022014,0.0019853105768561363
1751619080173731300,22.8507314453125,-0.004276053514331579,-0.0013744457392022014,0.0032070400193333626
1751619080192554800,22.8695546875,-0.004276053514331579,-0.0025961752980947495,0.0032070400193333626
1751619080211378400,22.88837841796875,-0.004276053514331579,0.018173227086663246,0.006872228812426329
1751619080230201900,22.907201904296876,-0.004276053514331579,0.002290742937475443,0.0032070400193333626
1751619080249025500,22.926025634765626,-0.001832594396546483,0.002290742937475443,0.004428769461810589
1751619080267849000,22.944848876953124,-0.0030543238390237093,0.002290742937475443,0.004428769461810589
1751619080286672400,22.96367236328125,-0.0054977829568088055,0.0010690133785828948,0.004428769461810589
1751619080305496000,22.98249609375,-0.006719512399286032,0.002290742937475443,0.0032070400193333626
1751619080324319500,23.001319580078125,-0.0054977829568088055,0.002290742937475443,0.004428769461810589
