t,gx,gy,gz,ax,ay,az,temp
3,-909.00,-1558.00,-391.00,-1696.00,1780.00,20132.00,-2384.00
19,-1459.00,-1448.00,47.00,-600.00,1792.00,19128.00,-2384.00
35,-1271.00,-1291.00,146.00,-972.00,1876.00,18980.00,-2368.00
52,-873.00,-606.00,81.00,-1420.00,1832.00,18684.00,-2352.00
68,-603.00,-786.00,52.00,-1308.00,1220.00,18056.00,-2400.00
84,-349.00,-1359.00,3.00,-1572.00,884.00,17512.00,-2368.00
101,-57.00,-1132.00,-212.00,-1164.00,680.00,17796.00,-2384.00
117,-185.00,-752.00,-256.00,-1056.00,836.00,18444.00,-2384.00
134,-28.00,-633.00,-280.00,-796.00,864.00,18144.00,-2384.00
150,322.00,7.00,-275.00,-868.00,864.00,18468.00,-2368.00
166,203.00,215.00,-285.00,-788.00,956.00,19100.00,-2384.00
183,-458.00,804.00,-271.00,-864.00,972.00,19080.00,-2368.00
199,-857.00,604.00,-440.00,-1120.00,1028.00,18352.00,-2368.00
217,-1052.00,726.00,-396.00,-896.00,984.00,18440.00,-2368.00
233,-817.00,503.00,-223.00,-796.00,1204.00,18144.00,-2368.00
249,-348.00,784.00,-273.00,-1228.00,1336.00,18268.00,-2400.00
266,230.00,756.00,-704.00,-1288.00,964.00,18288.00,-2352.00
282,400.00,-203.00,-905.00,-1356.00,1064.00,18868.00,-2368.00
299,-274.00,-527.00,-700.00,-716.00,956.00,18796.00,-2384.00
315,-793.00,449.00,-213.00,-876.00,1192.00,18732.00,-2368.00
331,-1011.00,272.00,-299.00,-1012.00,1096.00,18524.00,-2368.00
349,-731.00,12.00,-468.00,-1172.00,1112.00,18240.00,-2384.00
365,-568.00,-337.00,-479.00,-1004.00,964.00,18420.00,-2384.00
381,-729.00,615.00,-115.00,-1036.00,612.00,18132.00,-2368.00
398,-952.00,378.00,239.00,-1336.00,484.00,18404.00,-2384.00
414,-1640.00,-401.00,487.00,-1116.00,808.00,18288.00,-2368.00
431,-1127.00,-635.00,309.00,-908.00,1004.00,17996.00,-2352.00
447,-100.00,-1305.00,-276.00,-1088.00,1156.00,18452.00,-2384.00
463,820.00,111.00,-167.00,-104.00,1260.00,18276.00,-2368.00
480,846.00,-352.00,-95.00,-684.00,940.00,19444.00,-2400.00
496,-99.00,813.00,259.00,-732.00,488.00,18720.00,-2352.00
513,-302.00,-292.00,-101.00,-1300.00,416.00,18060.00,-2368.00
530,148.00,227.00,131.00,-1140.00,824.00,18264.00,-2368.00
546,718.00,-152.00,133.00,-1148.00,632.00,18252.00,-2368.00
563,1115.00,-244.00,-98.00,-1620.00,720.00,18416.00,-2368.00
579,1096.00,-889.00,-404.00,-1448.00,556.00,18400.00,-2352.00
595,775.00,-772.00,-387.00,-896.00,432.00,18096.00,-2368.00
612,653.00,387.00,-78.00,-948.00,636.00,18200.00,-2352.00
628,640.00,277.00,-172.00,-1196.00,892.00,18380.00,-2368.00
645,521.00,84.00,-229.00,-1012.00,1032.00,18584.00,-2368.00
661,484.00,-192.00,-385.00,-1060.00,1016.00,18848.00,-2400.00
677,164.00,-670.00,-450.00,-780.00,932.00,19100.00,-2400.00
694,-166.00,-565.00,-187.00,-664.00,828.00,18916.00,-2416.00
710,-548.00,-807.00,195.00,-604.00,956.00,19092.00,-2384.00
727,-372.00,102.00,726.00,-256.00,1368.00,18376.00,-2368.00
743,228.00,-9.00,875.00,-808.00,768.00,18288.00,-2384.00
759,781.00,348.00,636.00,-1248.00,704.00,17756.00,-2384.00
776,900.00,152.00,356.00,-1312.00,500.00,18164.00,-2352.00
793,514.00,-468.00,232.00,-1280.00,232.00,18240.00,-2384.00
809,388.00,-564.00,163.00,-1252.00,668.00,18056.00,-2368.00
826,798.00,-553.00,92.00,-936.00,1264.00,18380.00,-2336.00
842,1085.00,-604.00,163.00,-956.00,1244.00,18584.00,-2384.00
859,1005.00,-1236.00,253.00,-764.00,1108.00,19160.00,-2400.00
875,-47.00,-180.00,1057.00,-684.00,480.00,18608.00,-2368.00
891,-1752.00,-722.00,1323.00,-1440.00,332.00,18636.00,-2368.00
908,-2626.00,-629.00,678.00,-816.00,596.00,18160.00,-2400.00
924,-1328.00,-29.00,-145.00,-196.00,1640.00,18028.00,-2368.00
941,563.00,249.00,-1010.00,-1248.00,1440.00,18268.00,-2400.00
958,841.00,-190.00,-1113.00,-768.00,1488.00,19744.00,-2384.00
974,-19.00,-326.00,-333.00,-8.00,868.00,18996.00,-2384.00
991,-1294.00,261.00,858.00,-480.00,456.00,19192.00,-2384.00
1007,-2957.00,-959.00,1463.00,-988.00,444.00,18356.00,-2384.00
1024,-4225.00,-1067.00,1882.00,-564.00,736.00,18444.00,-2400.00
1040,-3191.00,998.00,2181.00,-984.00,1256.00,18192.00,-2352.00
1056,-1985.00,120.00,1648.00,-448.00,1520.00,19188.00,-2368.00
1074,-850.00,-892.00,1333.00,-896.00,832.00,18464.00,-2384.00
1090,-264.00,-1453.00,379.00,-908.00,248.00,18588.00,-2384.00
1106,-370.00,-963.00,-326.00,-860.00,640.00,18204.00,-2400.00
1123,-517.00,-61.00,-43.00,-596.00,468.00,18072.00,-2368.00
1139,-490.00,309.00,-67.00,-712.00,372.00,18424.00,-2352.00
1156,20.00,-669.00,-200.00,-128.00,148.00,19480.00,-2400.00
1172,625.00,194.00,-296.00,120.00,40.00,19428.00,-2368.00
1188,647.00,304.00,-325.00,-412.00,520.00,19612.00,-2384.00
1205,17.00,663.00,-59.00,-416.00,204.00,18708.00,-2352.00
1221,26.00,649.00,-82.00,-644.00,168.00,18220.00,-2368.00
1238,199.00,569.00,-449.00,-752.00,-48.00,17648.00,-2352.00
1254,345.00,318.00,-911.00,-548.00,-228.00,18320.00,-2368.00
1270,-78.00,-31.00,-944.00,-356.00,-32.00,18376.00,-2400.00
1287,-273.00,970.00,-833.00,-464.00,112.00,18504.00,-2352.00
1303,-146.00,1458.00,-747.00,-752.00,564.00,18704.00,-2384.00
1320,-59.00,899.00,-463.00,-884.00,912.00,18880.00,-2368.00
1337,-352.00,175.00,-144.00,-828.00,572.00,18652.00,-2384.00
1353,-617.00,125.00,-364.00,-972.00,176.00,18636.00,-2352.00
1370,-311.00,-202.00,-905.00,-636.00,-88.00,18372.00,-2352.00
1386,577.00,4.00,-756.00,-568.00,708.00,18952.00,-2368.00
1402,1317.00,-133.00,-483.00,-1044.00,344.00,18912.00,-2384.00
1419,1311.00,636.00,-422.00,-160.00,208.00,18232.00,-2400.00
1435,1213.00,1235.00,-196.00,-788.00,388.00,18280.00,-2400.00
1452,732.00,1217.00,-85.00,-1004.00,248.00,17588.00,-2384.00
1468,346.00,467.00,240.00,-1164.00,636.00,18464.00,-2384.00
1485,-1480.00,-2049.00,524.00,-1224.00,216.00,18960.00,-2352.00
1502,-3834.00,-2261.00,88.00,-124.00,-496.00,19268.00,-2368.00
1518,-4142.00,-347.00,-436.00,-444.00,-236.00,19204.00,-2400.00
1534,-3485.00,55.00,-919.00,-1148.00,48.00,18212.00,-2400.00
1551,-1704.00,931.00,-1888.00,-2636.00,596.00,17820.00,-2352.00
1567,-1518.00,-971.00,-3322.00,104.00,-236.00,17256.00,-2368.00
1585,-533.00,1400.00,-2134.00,-284.00,560.00,18060.00,-2384.00
1601,-327.00,-1076.00,-1590.00,-1832.00,368.00,19616.00,-2384.00
1617,-980.00,-4911.00,-2548.00,-1228.00,-40.00,19132.00,-2368.00
1634,-513.00,-1912.00,-1160.00,2000.00,-16.00,18636.00,-2416.00
1650,268.00,2300.00,535.00,-1056.00,-68.00,18200.00,-2368.00
1668,1371.00,-189.00,242.00,-1136.00,32.00,17984.00,-2400.00
1684,1290.00,-1662.00,127.00,-852.00,216.00,17748.00,-2400.00
1700,1197.00,-2144.00,-253.00,-588.00,-300.00,18644.00,-2416.00
1717,546.00,-2516.00,-1028.00,-152.00,-428.00,19024.00,-2400.00
1733,658.00,-4621.00,-1754.00,-576.00,-384.00,19280.00,-2368.00
1750,524.00,-4843.00,-2454.00,-1008.00,136.00,18704.00,-2384.00
1767,528.00,-3348.00,-1144.00,1516.00,188.00,18672.00,-2368.00
1783,488.00,1367.00,-81.00,56.00,-468.00,17572.00,-2384.00
1800,478.00,2475.00,-807.00,652.00,832.00,18756.00,-2352.00
1816,411.00,2391.00,-2336.00,-396.00,-1196.00,18548.00,-2384.00
1832,1245.00,2418.00,-1107.00,108.00,-172.00,19256.00,-2368.00
1850,2989.00,1143.00,265.00,-136.00,136.00,18460.00,-2384.00
1866,2560.00,966.00,971.00,-592.00,-152.00,18096.00,-2368.00
1883,2046.00,998.00,230.00,-444.00,184.00,18744.00,-2368.00
1899,891.00,567.00,-153.00,-396.00,-300.00,19016.00,-2400.00
1915,72.00,212.00,-252.00,-292.00,324.00,18800.00,-2368.00
1932,-237.00,9.00,-3.00,-292.00,492.00,18664.00,-2352.00
1948,-507.00,-640.00,116.00,-408.00,836.00,18248.00,-2368.00
1965,-762.00,-985.00,4.00,-288.00,360.00,18280.00,-2368.00
1981,-630.00,-336.00,-122.00,-116.00,256.00,18416.00,-2384.00
1997,-420.00,-260.00,-225.00,-312.00,-48.00,18568.00,-2384.00
2014,-86.00,-180.00,-560.00,-276.00,-8.00,18584.00,-2368.00
2030,-204.00,166.00,-639.00,48.00,144.00,19188.00,-2384.00
2046,55.00,183.00,-281.00,8.00,60.00,19208.00,-2352.00
2063,-214.00,28.00,96.00,100.00,372.00,18540.00,-2384.00
2079,-368.00,152.00,245.00,-336.00,260.00,18352.00,-2368.00
2096,-148.00,-157.00,18.00,-164.00,12.00,18264.00,-2352.00
2112,662.00,-113.00,208.00,-332.00,76.00,18144.00,-2336.00
2128,1117.00,-320.00,-136.00,-116.00,-116.00,18360.00,-2400.00
2145,537.00,-1123.00,-492.00,32.00,-276.00,19108.00,-2368.00
2161,9.00,-733.00,-218.00,84.00,328.00,19256.00,-2400.00
2178,-336.00,-261.00,-161.00,272.00,364.00,18772.00,-2352.00
2194,-399.00,803.00,-234.00,-304.00,392.00,18680.00,-2384.00
2210,-569.00,-12.00,-476.00,-348.00,440.00,18424.00,-2384.00
2228,-216.00,82.00,-463.00,-312.00,80.00,18012.00,-2400.00
2244,12.00,219.00,-518.00,-236.00,104.00,18076.00,-2384.00
2260,-51.00,-94.00,-628.00,-212.00,180.00,18616.00,-2400.00
2277,-27.00,-158.00,-592.00,-60.00,56.00,18840.00,-2368.00
2292,1.00,-861.00,-378.00,116.00,164.00,19352.00,-2368.00
2309,60.00,-448.00,-74.00,236.00,-56.00,18916.00,-2384.00
2325,217.00,570.00,73.00,308.00,-188.00,18840.00,-2368.00
2341,379.00,967.00,-76.00,-176.00,212.00,18364.00,-2368.00
2358,413.00,400.00,-277.00,-208.00,444.00,18148.00,-2384.00
2375,583.00,39.00,-278.00,-148.00,332.00,18316.00,-2384.00
2392,1041.00,663.00,-350.00,-84.00,108.00,18468.00,-2368.00
2408,1529.00,809.00,-216.00,-140.00,256.00,19248.00,-2400.00
2424,1274.00,602.00,-180.00,-148.00,132.00,18832.00,-2368.00
2441,975.00,-745.00,-502.00,-492.00,200.00,18852.00,-2368.00
2457,370.00,-318.00,-506.00,84.00,480.00,18424.00,-2368.00
2473,-614.00,938.00,-652.00,-184.00,348.00,17808.00,-2368.00
2490,-716.00,1411.00,-808.00,-296.00,352.00,18232.00,-2400.00
2506,93.00,2326.00,-561.00,-64.00,128.00,18956.00,-2400.00
2523,594.00,4318.00,-862.00,36.00,-136.00,18688.00,-2384.00
2539,874.00,3283.00,-1745.00,-964.00,400.00,18624.00,-2384.00
2556,629.00,1747.00,-2537.00,-840.00,464.00,18552.00,-2368.00
2573,863.00,2654.00,-1854.00,-276.00,544.00,18304.00,-2384.00
2589,1392.00,2980.00,-1638.00,-1016.00,592.00,18248.00,-2352.00
2606,1338.00,2788.00,-1290.00,-684.00,100.00,18400.00,-2368.00
2622,314.00,1995.00,-420.00,-908.00,540.00,19160.00,-2400.00
2639,-693.00,631.00,-75.00,-1136.00,88.00,18660.00,-2400.00
2656,-1018.00,-298.00,-197.00,-1036.00,300.00,19100.00,-2416.00
2672,-777.00,-1739.00,-270.00,-1456.00,292.00,18796.00,-2368.00
2689,-140.00,-3007.00,-681.00,-1436.00,388.00,18264.00,-2384.00
2705,-77.00,-2491.00,-693.00,-308.00,468.00,18368.00,-2368.00
2721,-222.00,-1194.00,-244.00,-988.00,360.00,18144.00,-2400.00
2738,-52.00,-594.00,-35.00,-504.00,616.00,18528.00,-2368.00
2754,169.00,-76.00,240.00,-856.00,344.00,18680.00,-2384.00
2770,511.00,-16.00,235.00,-960.00,472.00,18916.00,-2352.00
2788,604.00,-979.00,186.00,-824.00,340.00,18984.00,-2368.00
2804,439.00,-2253.00,163.00,-984.00,288.00,18748.00,-2368.00
2821,-68.00,-4080.00,-247.00,-912.00,280.00,18656.00,-2368.00
2837,-503.00,-3286.00,-152.00,-40.00,124.00,18532.00,-2336.00
2853,-161.00,-1297.00,335.00,24.00,200.00,18568.00,-2400.00
2870,587.00,-712.00,522.00,-460.00,320.00,18556.00,-2368.00
2886,915.00,-714.00,439.00,-244.00,560.00,18216.00,-2368.00
2903,602.00,-603.00,11.00,-504.00,468.00,18272.00,-2400.00
2919,99.00,-1027.00,-378.00,-480.00,332.00,18508.00,-2384.00
2935,36.00,-1366.00,-417.00,-252.00,336.00,18316.00,-2384.00
2952,-27.00,-1616.00,-226.00,120.00,392.00,19144.00,-2384.00
2968,32.00,-1737.00,129.00,224.00,384.00,19044.00,-2384.00
2985,270.00,-1051.00,284.00,388.00,560.00,19016.00,-2352.00
3002,501.00,-82.00,279.00,-28.00,488.00,18440.00,-2384.00
3018,681.00,-401.00,20.00,-176.00,644.00,18440.00,-2368.00
3035,289.00,-1225.00,-332.00,-16.00,496.00,18432.00,-2384.00
3051,216.00,-2464.00,-578.00,-156.00,408.00,18684.00,-2352.00
3067,244.00,-3359.00,-495.00,260.00,452.00,19236.00,-2400.00
3084,264.00,-2653.00,56.00,836.00,476.00,18960.00,-2368.00
3100,240.00,-774.00,534.00,532.00,352.00,18400.00,-2368.00
3117,241.00,-149.00,377.00,320.00,524.00,18104.00,-2384.00
3133,314.00,-427.00,-121.00,512.00,564.00,18076.00,-2416.00
3149,75.00,-259.00,-317.00,556.00,444.00,18404.00,-2352.00
3166,56.00,-100.00,-325.00,600.00,456.00,18652.00,-2384.00
3182,416.00,307.00,-88.00,476.00,292.00,19232.00,-2368.00
3198,349.00,823.00,155.00,672.00,444.00,19048.00,-2368.00
3216,239.00,1763.00,320.00,348.00,544.00,18688.00,-2368.00
3232,153.00,1587.00,347.00,-20.00,640.00,18796.00,-2400.00
3249,129.00,915.00,418.00,84.00,948.00,18728.00,-2400.00
3265,-98.00,365.00,474.00,632.00,532.00,18744.00,-2384.00
3281,-144.00,816.00,312.00,512.00,596.00,18384.00,-2368.00
3298,97.00,1927.00,403.00,396.00,540.00,18484.00,-2368.00
3314,334.00,907.00,232.00,0.00,540.00,18760.00,-2368.00
3331,548.00,1714.00,341.00,188.00,396.00,18532.00,-2368.00
3347,610.00,1060.00,297.00,-112.00,708.00,18496.00,-2368.00
3363,461.00,747.00,157.00,-20.00,728.00,18448.00,-2352.00
3380,488.00,528.00,55.00,44.00,664.00,18600.00,-2368.00
3396,507.00,116.00,86.00,100.00,668.00,18600.00,-2384.00
3412,437.00,11.00,291.00,88.00,652.00,19020.00,-2368.00
3429,-2.00,75.00,246.00,-52.00,624.00,19020.00,-2352.00
3445,-286.00,0.00,79.00,-132.00,708.00,18772.00,-2368.00
3462,-291.00,90.00,-82.00,96.00,624.00,18364.00,-2336.00
3478,-149.00,323.00,-146.00,-88.00,572.00,18388.00,-2368.00
3494,76.00,527.00,-128.00,-8.00,540.00,18768.00,-2400.00
3511,43.00,146.00,-44.00,-76.00,564.00,18900.00,-2368.00
3527,-116.00,307.00,95.00,20.00,548.00,18764.00,-2384.00
3544,-173.00,415.00,39.00,-36.00,632.00,18780.00,-2368.00
3560,-224.00,-108.00,-119.00,60.00,452.00,18344.00,-2384.00
3576,-107.00,39.00,-165.00,-120.00,620.00,18328.00,-2368.00
3593,118.00,403.00,-87.00,-36.00,548.00,18736.00,-2384.00
3609,82.00,1133.00,116.00,12.00,460.00,18860.00,-2368.00
3625,230.00,1042.00,109.00,-200.00,648.00,18816.00,-2368.00
3642,204.00,751.00,-28.00,-116.00,712.00,18572.00,-2368.00
3658,-51.00,676.00,-115.00,-504.00,908.00,18676.00,-2352.00
3675,-287.00,350.00,-272.00,-244.00,600.00,18340.00,-2416.00
3691,-162.00,-187.00,-340.00,-196.00,576.00,18580.00,-2400.00
3707,127.00,-190.00,-151.00,-128.00,608.00,18648.00,-2400.00
3724,176.00,-363.00,100.00,-260.00,672.00,18820.00,-2400.00
3740,-112.00,-483.00,174.00,-44.00,388.00,18988.00,-2368.00
3757,-519.00,-342.00,255.00,-36.00,508.00,18860.00,-2368.00
3773,-725.00,-145.00,258.00,-208.00,548.00,18440.00,-2384.00
3789,-651.00,-202.00,208.00,-172.00,668.00,18180.00,-2384.00
3806,-253.00,-69.00,174.00,-164.00,516.00,18132.00,-2352.00
3822,298.00,778.00,148.00,-108.00,328.00,18496.00,-2368.00
3840,593.00,904.00,-46.00,-124.00,552.00,18796.00,-2400.00
3856,373.00,1362.00,-3.00,-180.00,412.00,18860.00,-2384.00
3872,-84.00,801.00,-93.00,-404.00,548.00,18684.00,-2400.00
3889,-283.00,129.00,-143.00,-260.00,544.00,18524.00,-2368.00
3905,-377.00,-40.00,-132.00,-380.00,488.00,18356.00,-2400.00
3921,-181.00,-16.00,-104.00,-340.00,432.00,18452.00,-2416.00
3938,165.00,263.00,-135.00,-180.00,444.00,18500.00,-2368.00
3954,310.00,511.00,-4.00,-200.00,524.00,18604.00,-2400.00
3971,116.00,550.00,-65.00,-204.00,544.00,18728.00,-2384.00
3987,-110.00,529.00,-341.00,-348.00,484.00,18900.00,-2336.00
4003,-203.00,86.00,-513.00,-268.00,436.00,18700.00,-2384.00
4020,-111.00,278.00,-459.00,-308.00,404.00,18292.00,-2368.00
4036,2.00,893.00,-443.00,-364.00,480.00,18164.00,-2368.00
4052,-24.00,1322.00,-492.00,-180.00,344.00,18408.00,-2384.00
4069,-81.00,1351.00,-429.00,-396.00,496.00,18772.00,-2384.00
4085,-50.00,1005.00,-491.00,-608.00,340.00,18800.00,-2384.00
4102,-125.00,607.00,-690.00,-604.00,300.00,18536.00,-2384.00
4118,-483.00,670.00,-819.00,-336.00,296.00,18328.00,-2384.00
4135,-699.00,598.00,-771.00,-584.00,380.00,18728.00,-2384.00
4152,-764.00,661.00,-387.00,-360.00,608.00,18900.00,-2352.00
4168,-852.00,1426.00,265.00,-736.00,576.00,18544.00,-2352.00
4185,-804.00,350.00,202.00,-1052.00,232.00,18624.00,-2384.00
4201,-490.00,252.00,76.00,-560.00,288.00,18580.00,-2352.00
4217,-349.00,379.00,215.00,-668.00,364.00,18344.00,-2368.00
4234,-313.00,358.00,425.00,-688.00,308.00,18636.00,-2400.00
4250,-543.00,466.00,371.00,-688.00,180.00,18424.00,-2368.00
4267,-579.00,888.00,222.00,-684.00,84.00,18560.00,-2400.00
4283,-416.00,837.00,10.00,-700.00,100.00,18696.00,-2368.00
4299,-64.00,855.00,35.00,-996.00,96.00,18860.00,-2384.00
4316,-146.00,414.00,112.00,-908.00,168.00,18952.00,-2368.00
4332,-554.00,529.00,154.00,-600.00,112.00,18492.00,-2368.00
4348,-654.00,1560.00,131.00,-764.00,96.00,18468.00,-2352.00
4366,-456.00,1986.00,-12.00,-956.00,72.00,18324.00,-2352.00
4382,95.00,1562.00,-205.00,-1228.00,120.00,18420.00,-2384.00
4399,415.00,1596.00,-194.00,-1220.00,236.00,18376.00,-2384.00
4415,282.00,1418.00,-152.00,-1108.00,312.00,18596.00,-2384.00
4431,238.00,1482.00,-14.00,-1252.00,96.00,18672.00,-2400.00
4448,-68.00,1001.00,-49.00,-1232.00,-8.00,18744.00,-2400.00
4464,-446.00,1011.00,-71.00,-1200.00,116.00,18604.00,-2384.00
4481,-515.00,1341.00,-163.00,-1256.00,100.00,18556.00,-2352.00
4497,-376.00,857.00,-158.00,-1528.00,64.00,18600.00,-2400.00
4514,54.00,1266.00,-77.00,-1296.00,16.00,18204.00,-2368.00
4531,301.00,1151.00,-63.00,-1444.00,32.00,18416.00,-2352.00
4547,317.00,1083.00,-45.00,-1240.00,-104.00,18352.00,-2384.00
4563,8.00,681.00,-258.00,-1580.00,48.00,18768.00,-2384.00
4580,-188.00,473.00,-240.00,-1388.00,88.00,18688.00,-2368.00
4596,-192.00,1227.00,-72.00,-1476.00,4.00,18328.00,-2368.00
4613,-152.00,1254.00,-95.00,-1652.00,132.00,18196.00,-2320.00
4629,-101.00,1340.00,-172.00,-1776.00,40.00,18052.00,-2352.00
4645,-154.00,967.00,-284.00,-1784.00,-20.00,18132.00,-2352.00
4662,-70.00,965.00,-388.00,-1780.00,24.00,18244.00,-2384.00
4678,77.00,1625.00,-309.00,-1444.00,-140.00,18388.00,-2384.00
4695,335.00,2927.00,-23.00,-1732.00,16.00,18504.00,-2384.00
4711,351.00,2985.00,-32.00,-2084.00,76.00,18340.00,-2384.00
4728,166.00,2043.00,-205.00,-2160.00,68.00,18696.00,-2352.00
4745,-58.00,2704.00,-200.00,-1912.00,-4.00,18332.00,-2384.00
4761,-231.00,3316.00,-144.00,-2188.00,-88.00,18452.00,-2432.00
4777,-198.00,2077.00,-280.00,-2416.00,-132.00,18168.00,-2400.00
4794,51.00,1443.00,-283.00,-2528.00,8.00,18264.00,-2384.00
4810,47.00,559.00,-407.00,-2600.00,104.00,18564.00,-2352.00
4827,-107.00,73.00,-333.00,-2544.00,8.00,18460.00,-2352.00
4843,-236.00,114.00,-177.00,-2520.00,0.00,18580.00,-2400.00
4859,-230.00,69.00,-139.00,-2444.00,4.00,18428.00,-2384.00
4876,-194.00,201.00,-125.00,-2356.00,64.00,18192.00,-2400.00
4892,-66.00,195.00,3.00,-2228.00,88.00,18316.00,-2336.00
4909,-38.00,612.00,44.00,-2632.00,96.00,18404.00,-2352.00
4925,-1.00,633.00,-105.00,-2480.00,76.00,18284.00,-2368.00
4941,155.00,572.00,-118.00,-2572.00,-36.00,18048.00,-2352.00
4958,374.00,753.00,3.00,-2292.00,-60.00,18116.00,-2352.00
4974,116.00,1214.00,181.00,-2384.00,56.00,18392.00,-2368.00
4990,9.00,1179.00,298.00,-2388.00,-68.00,18196.00,-2368.00
5007,127.00,1453.00,370.00,-2568.00,-140.00,18512.00,-2384.00
5024,-64.00,1933.00,475.00,-2688.00,-152.00,18576.00,-2368.00
5041,-301.00,2128.00,515.00,-2784.00,-124.00,18432.00,-2400.00
5057,-400.00,2134.00,298.00,-3000.00,16.00,18168.00,-2352.00
5073,-236.00,1663.00,18.00,-2784.00,-212.00,18304.00,-2384.00
5090,-199.00,2034.00,323.00,-3088.00,-44.00,18716.00,-2368.00
5106,-579.00,2042.00,516.00,-2968.00,148.00,18188.00,-2400.00
5123,-959.00,1602.00,406.00,-3200.00,172.00,17740.00,-2368.00
5140,-874.00,1641.00,293.00,-3304.00,-24.00,17520.00,-2384.00
5156,-422.00,2149.00,359.00,-3428.00,-124.00,17404.00,-2352.00
5173,-45.00,2110.00,367.00,-3452.00,-16.00,17856.00,-2368.00
5189,351.00,2541.00,487.00,-3324.00,-148.00,18276.00,-2368.00
5206,22.00,1733.00,210.00,-3928.00,-176.00,18620.00,-2384.00
5222,-686.00,2080.00,502.00,-2808.00,-180.00,18636.00,-2384.00
5239,-1469.00,1985.00,772.00,-4056.00,-108.00,18572.00,-2368.00
5256,-671.00,-1736.00,-552.00,-5208.00,-124.00,17380.00,-2416.00
5272,425.00,-4382.00,-1497.00,-4244.00,-504.00,16672.00,-2368.00
5288,874.00,-3310.00,-670.00,-1992.00,-192.00,18116.00,-2384.00
5305,266.00,-357.00,699.00,-2820.00,-220.00,18116.00,-2368.00
5322,397.00,-323.00,451.00,-4320.00,-212.00,17720.00,-2368.00
5339,643.00,-1301.00,-49.00,-3088.00,-312.00,18508.00,-2368.00
5355,-451.00,-22.00,328.00,-3028.00,-236.00,18632.00,-2368.00
5371,-367.00,-169.00,389.00,-4288.00,-36.00,17248.00,-2400.00
5388,-202.00,-2056.00,180.00,-3040.00,16.00,17860.00,-2368.00
5404,495.00,-1326.00,139.00,-3572.00,-212.00,17344.00,-2384.00
5421,1899.00,-1652.00,-349.00,-3808.00,28.00,17488.00,-2384.00
5438,2388.00,-1014.00,-254.00,-2552.00,-236.00,17964.00,-2368.00
5454,1486.00,1386.00,381.00,-2888.00,-220.00,19296.00,-2352.00
5471,323.00,1016.00,160.00,-2896.00,-64.00,19176.00,-2368.00
5487,-718.00,2940.00,616.00,-2936.00,-232.00,18252.00,-2368.00
5504,675.00,2050.00,-784.00,-6172.00,132.00,16204.00,-2352.00
5521,2139.00,-695.00,-1108.00,-1856.00,364.00,17016.00,-2368.00
5537,1514.00,2998.00,-332.00,-3284.00,108.00,19072.00,-2384.00
5554,1557.00,2049.00,-723.00,-3752.00,76.00,17784.00,-2400.00
5570,1242.00,1583.00,-925.00,-3972.00,48.00,19068.00,-2384.00
5586,951.00,-483.00,-359.00,-2832.00,544.00,19692.00,-2368.00
5604,-827.00,-1966.00,98.00,-4680.00,356.00,19640.00,-2368.00
5620,-1095.00,477.00,-461.00,-3740.00,524.00,18144.00,-2400.00
5637,65.00,-272.00,-441.00,-3068.00,460.00,16080.00,-2352.00
5653,1191.00,242.00,-315.00,-3124.00,364.00,16576.00,-2352.00
5669,1944.00,-326.00,-139.00,-3316.00,244.00,17232.00,-2400.00
5686,2137.00,-1151.00,59.00,-3468.00,304.00,18508.00,-2368.00
5703,1374.00,-134.00,48.00,-3432.00,220.00,19352.00,-2384.00
5720,499.00,-551.00,-53.00,-3416.00,364.00,18760.00,-2384.00
5736,8.00,66.00,20.00,-2948.00,452.00,18372.00,-2352.00
5752,-79.00,-283.00,370.00,-2712.00,308.00,17908.00,-2368.00
5769,-261.00,-554.00,367.00,-3408.00,324.00,18520.00,-2400.00
5785,-1023.00,-607.00,-148.00,-3932.00,272.00,18424.00,-2368.00
5801,-440.00,240.00,-478.00,-3312.00,340.00,17492.00,-2368.00
5818,136.00,611.00,-456.00,-3468.00,504.00,17588.00,-2384.00
5834,309.00,599.00,-271.00,-3292.00,468.00,18100.00,-2384.00
5852,-31.00,636.00,-231.00,-3244.00,460.00,18164.00,-2384.00
5868,-634.00,153.00,-255.00,-3124.00,376.00,18216.00,-2384.00
5884,-856.00,286.00,-98.00,-3312.00,324.00,17872.00,-2368.00
5901,-534.00,1088.00,18.00,-3500.00,372.00,17892.00,-2416.00
5917,-134.00,1127.00,32.00,-3396.00,364.00,17916.00,-2400.00
5934,178.00,959.00,-47.00,-3584.00,332.00,18056.00,-2368.00
5950,337.00,1390.00,-208.00,-3728.00,332.00,18040.00,-2368.00
5966,370.00,1672.00,-544.00,-3764.00,440.00,17856.00,-2368.00
5984,273.00,2394.00,-726.00,-3656.00,200.00,18132.00,-2352.00
6000,212.00,1971.00,-700.00,-3504.00,328.00,17904.00,-2368.00
6017,-338.00,-92.00,-736.00,-4112.00,292.00,18596.00,-2400.00
6033,-413.00,134.00,-848.00,-3348.00,356.00,17068.00,-2368.00
6049,26.00,1088.00,-554.00,-3724.00,460.00,17724.00,-2400.00
6066,347.00,1136.00,-268.00,-3828.00,408.00,17844.00,-2416.00
6083,967.00,1479.00,2.00,-3780.00,372.00,18132.00,-2368.00
6099,967.00,1105.00,171.00,-3912.00,472.00,18064.00,-2400.00
6116,1010.00,1562.00,235.00,-3708.00,436.00,17152.00,-2368.00
6132,1631.00,1346.00,552.00,-4136.00,652.00,17668.00,-2384.00
6149,1452.00,1565.00,488.00,-4504.00,516.00,18320.00,-2368.00
6165,951.00,1585.00,150.00,-4460.00,508.00,18132.00,-2352.00
6182,396.00,772.00,-85.00,-4000.00,524.00,18324.00,-2368.00
6199,-300.00,951.00,188.00,-3944.00,372.00,18796.00,-2368.00
6215,-849.00,234.00,378.00,-4040.00,412.00,18400.00,-2368.00
6232,-929.00,-265.00,30.00,-4984.00,356.00,18148.00,-2368.00
6248,-783.00,1460.00,-827.00,-4856.00,640.00,17784.00,-2400.00
6264,-657.00,2429.00,-1273.00,-4552.00,392.00,17564.00,-2384.00
6282,-242.00,2691.00,-1231.00,-4116.00,328.00,17676.00,-2368.00
6298,-132.00,2618.00,-989.00,-4224.00,324.00,18008.00,-2352.00
6315,-177.00,1975.00,-832.00,-4380.00,392.00,17648.00,-2336.00
6331,-277.00,1328.00,-498.00,-4560.00,520.00,17816.00,-2352.00
6347,-376.00,856.00,-62.00,-4408.00,428.00,17616.00,-2384.00
6364,-342.00,280.00,128.00,-4400.00,264.00,17428.00,-2352.00
6381,-390.00,396.00,143.00,-4616.00,332.00,17572.00,-2400.00
6397,-253.00,984.00,-34.00,-4772.00,328.00,17532.00,-2400.00
6414,22.00,882.00,-199.00,-5092.00,200.00,17908.00,-2368.00
6430,-80.00,1045.00,-419.00,-5036.00,456.00,18016.00,-2368.00
6447,-251.00,1363.00,-327.00,-4744.00,248.00,17852.00,-2368.00
6463,-457.00,1324.00,-252.00,-4876.00,368.00,17916.00,-2368.00
6479,-273.00,857.00,-99.00,-5028.00,320.00,17548.00,-2384.00
6496,-137.00,395.00,-172.00,-5028.00,396.00,17428.00,-2384.00
6513,158.00,475.00,-58.00,-4700.00,388.00,17236.00,-2368.00
6530,452.00,696.00,79.00,-5004.00,276.00,17752.00,-2384.00
6546,206.00,809.00,129.00,-4952.00,420.00,17944.00,-2384.00
6562,-151.00,800.00,246.00,-5016.00,380.00,17616.00,-2352.00
6579,-263.00,983.00,128.00,-5108.00,128.00,17640.00,-2368.00
6595,-198.00,909.00,158.00,-5064.00,300.00,17400.00,-2336.00
6611,251.00,954.00,62.00,-5088.00,192.00,17176.00,-2368.00
6628,569.00,710.00,-18.00,-4920.00,296.00,17212.00,-2368.00
6644,648.00,1084.00,-84.00,-5248.00,336.00,17704.00,-2400.00
6662,333.00,1040.00,-181.00,-5224.00,352.00,17600.00,-2368.00
6678,28.00,1218.00,-264.00,-5232.00,284.00,17632.00,-2352.00
6694,33.00,1574.00,-329.00,-5348.00,288.00,17640.00,-2384.00
6711,299.00,1448.00,-329.00,-5240.00,380.00,17196.00,-2384.00
6727,556.00,1148.00,-254.00,-5360.00,420.00,17480.00,-2368.00
6744,251.00,979.00,-278.00,-5460.00,484.00,17532.00,-2368.00
6760,-67.00,947.00,-385.00,-5396.00,412.00,17220.00,-2384.00
6777,-110.00,774.00,-421.00,-5480.00,356.00,17224.00,-2368.00
6794,99.00,934.00,-348.00,-5668.00,372.00,17520.00,-2384.00
6810,435.00,759.00,-282.00,-5556.00,380.00,17500.00,-2384.00
6827,353.00,636.00,-224.00,-5536.00,368.00,17440.00,-2384.00
6843,-32.00,494.00,-204.00,-5544.00,376.00,17408.00,-2352.00
6859,-300.00,484.00,-332.00,-5424.00,256.00,17032.00,-2384.00
6876,-148.00,514.00,-453.00,-5672.00,232.00,17176.00,-2400.00
6892,242.00,486.00,-535.00,-5536.00,284.00,17176.00,-2368.00
6909,449.00,712.00,-444.00,-5708.00,388.00,17376.00,-2400.00
6926,253.00,633.00,-458.00,-5628.00,384.00,17364.00,-2384.00
6942,79.00,773.00,-521.00,-5752.00,320.00,17456.00,-2384.00
6959,-42.00,854.00,-504.00,-5740.00,320.00,17308.00,-2384.00
6975,-31.00,662.00,-572.00,-5780.00,324.00,17228.00,-2384.00
6991,-44.00,361.00,-610.00,-5680.00,320.00,17156.00,-2384.00
7008,-71.00,949.00,-568.00,-5780.00,276.00,17312.00,-2384.00
7024,-57.00,2034.00,-544.00,-5820.00,340.00,17556.00,-2384.00
7041,13.00,1793.00,-508.00,-5820.00,280.00,17480.00,-2352.00
7058,98.00,1365.00,-453.00,-5980.00,164.00,17476.00,-2352.00
7074,202.00,1180.00,-403.00,-5820.00,220.00,17172.00,-2368.00
7091,57.00,994.00,-419.00,-6100.00,296.00,17412.00,-2368.00
7107,-105.00,954.00,-478.00,-6176.00,280.00,17016.00,-2368.00
7123,-220.00,777.00,-451.00,-6388.00,328.00,17348.00,-2400.00
7140,-351.00,1112.00,-495.00,-6020.00,252.00,16956.00,-2384.00
7156,-318.00,333.00,-290.00,-5912.00,272.00,16892.00,-2368.00
7174,-273.00,417.00,-193.00,-6100.00,244.00,17160.00,-2368.00
7190,-318.00,1446.00,-71.00,-6200.00,416.00,17100.00,-2336.00
7206,-315.00,1950.00,87.00,-6468.00,120.00,16780.00,-2352.00
7223,31.00,146.00,48.00,-6252.00,188.00,17188.00,-2384.00
7239,20.00,1064.00,144.00,-6348.00,312.00,16956.00,-2368.00
7256,100.00,1340.00,309.00,-6424.00,372.00,17168.00,-2368.00
7272,118.00,1998.00,326.00,-6372.00,244.00,16896.00,-2384.00
7289,226.00,1603.00,199.00,-6464.00,148.00,16636.00,-2400.00
7306,306.00,715.00,84.00,-6232.00,212.00,16704.00,-2368.00
7322,196.00,864.00,30.00,-6652.00,76.00,16804.00,-2368.00
7339,160.00,1302.00,55.00,-6616.00,272.00,17020.00,-2352.00
7355,164.00,1392.00,-14.00,-6700.00,240.00,17112.00,-2368.00
7371,30.00,856.00,-263.00,-6768.00,352.00,17040.00,-2400.00
7388,60.00,213.00,-448.00,-6556.00,268.00,16856.00,-2368.00
7404,211.00,967.00,-289.00,-6516.00,172.00,16652.00,-2368.00
7420,320.00,828.00,-209.00,-6580.00,268.00,16596.00,-2400.00
7437,325.00,1028.00,-210.00,-6944.00,388.00,16868.00,-2368.00
7454,293.00,699.00,-223.00,-6844.00,444.00,16756.00,-2384.00
7471,206.00,636.00,-254.00,-6788.00,308.00,16832.00,-2384.00
7487,35.00,428.00,-159.00,-6648.00,248.00,16700.00,-2384.00
7503,-55.00,834.00,2.00,-6728.00,168.00,16800.00,-2384.00
7520,117.00,1422.00,67.00,-6876.00,48.00,16936.00,-2368.00
7536,140.00,1329.00,-135.00,-6964.00,228.00,16600.00,-2368.00
7553,309.00,1221.00,-185.00,-6952.00,308.00,16420.00,-2368.00
7569,235.00,1127.00,-215.00,-6956.00,212.00,16472.00,-2384.00
7586,222.00,870.00,-268.00,-7048.00,160.00,16640.00,-2400.00
7603,284.00,309.00,-296.00,-7068.00,228.00,16652.00,-2400.00
7619,300.00,537.00,-216.00,-7012.00,236.00,16828.00,-2368.00
7635,153.00,1639.00,-19.00,-7176.00,448.00,16768.00,-2384.00
7652,25.00,2054.00,-49.00,-7036.00,272.00,16516.00,-2384.00
7668,-17.00,1459.00,-77.00,-7136.00,256.00,16480.00,-2384.00
7685,315.00,446.00,-235.00,-7284.00,196.00,16536.00,-2352.00
7701,601.00,189.00,-308.00,-7320.00,424.00,16476.00,-2352.00
7718,638.00,636.00,-344.00,-7268.00,508.00,16316.00,-2416.00
7735,393.00,1180.00,-298.00,-7264.00,316.00,16720.00,-2384.00
7751,-10.00,923.00,-327.00,-7296.00,264.00,16820.00,-2368.00
7768,-206.00,497.00,-373.00,-7192.00,100.00,16740.00,-2368.00
7784,-40.00,946.00,-356.00,-7216.00,204.00,16384.00,-2368.00
7800,16.00,1205.00,-557.00,-7544.00,236.00,16268.00,-2368.00
7817,474.00,1179.00,-525.00,-7408.00,164.00,15712.00,-2368.00
7833,839.00,749.00,-483.00,-7412.00,396.00,16060.00,-2384.00
7851,835.00,942.00,-297.00,-7360.00,344.00,16508.00,-2384.00
7867,299.00,1152.00,-335.00,-7708.00,476.00,16916.00,-2368.00
7883,-319.00,1506.00,-515.00,-7820.00,408.00,16872.00,-2400.00
7900,-620.00,1008.00,-611.00,-7840.00,456.00,16612.00,-2352.00
7916,-433.00,344.00,-600.00,-7624.00,396.00,16076.00,-2368.00
7932,-80.00,-22.00,-521.00,-7436.00,364.00,15764.00,-2400.00
7950,143.00,348.00,-246.00,-7508.00,416.00,15984.00,-2336.00
7966,252.00,228.00,-131.00,-7560.00,344.00,16316.00,-2368.00
7983,224.00,180.00,-138.00,-7680.00,304.00,16472.00,-2400.00
7999,-13.00,382.00,-143.00,-7672.00,248.00,16644.00,-2400.00
8015,73.00,667.00,45.00,-7504.00,252.00,16372.00,-2368.00
8032,241.00,752.00,319.00,-7692.00,380.00,16188.00,-2352.00
8048,268.00,1026.00,306.00,-7904.00,496.00,15916.00,-2336.00
8065,311.00,1047.00,168.00,-7908.00,224.00,16228.00,-2368.00
8081,169.00,780.00,302.00,-7832.00,356.00,16264.00,-2384.00
8098,-70.00,320.00,437.00,-7636.00,344.00,16368.00,-2384.00
8115,-207.00,1047.00,427.00,-7848.00,304.00,16204.00,-2352.00
8131,-290.00,841.00,242.00,-7704.00,388.00,16108.00,-2336.00
8147,-88.00,760.00,247.00,-7840.00,288.00,16052.00,-2368.00
8164,172.00,839.00,204.00,-7864.00,372.00,15860.00,-2400.00
8180,495.00,1331.00,98.00,-8020.00,320.00,15864.00,-2368.00
8197,604.00,1337.00,117.00,-7708.00,364.00,16184.00,-2400.00
8214,207.00,1408.00,125.00,-7952.00,488.00,16696.00,-2384.00
8230,-195.00,1728.00,178.00,-8040.00,376.00,16284.00,-2352.00
8247,-237.00,2075.00,174.00,-8128.00,376.00,16100.00,-2368.00
8263,-91.00,1778.00,127.00,-7996.00,436.00,15640.00,-2384.00
8280,167.00,986.00,47.00,-8212.00,460.00,15620.00,-2400.00
8296,379.00,844.00,25.00,-8404.00,468.00,15924.00,-2384.00
8312,255.00,1073.00,-60.00,-8248.00,456.00,15800.00,-2368.00
8329,39.00,905.00,-154.00,-8160.00,420.00,16128.00,-2384.00
8346,-100.00,329.00,-100.00,-8384.00,452.00,16224.00,-2368.00
8363,11.00,-773.00,-73.00,-8484.00,524.00,15940.00,-2352.00
8379,109.00,-505.00,-96.00,-8512.00,508.00,15744.00,-2400.00
8395,54.00,-172.00,-171.00,-8368.00,476.00,15992.00,-2400.00
8412,46.00,-95.00,-175.00,-8088.00,476.00,15612.00,-2336.00
8428,-9.00,-245.00,-282.00,-8256.00,416.00,15912.00,-2352.00
8444,136.00,309.00,-213.00,-8036.00,444.00,15740.00,-2384.00
8461,240.00,349.00,92.00,-8332.00,524.00,16180.00,-2384.00
8477,154.00,575.00,156.00,-8396.00,496.00,15900.00,-2384.00
8494,43.00,483.00,90.00,-8416.00,428.00,15880.00,-2352.00
8510,-82.00,745.00,-35.00,-8276.00,400.00,15720.00,-2400.00
8526,-129.00,369.00,-185.00,-8416.00,480.00,15856.00,-2368.00
8543,16.00,468.00,-105.00,-8160.00,516.00,15800.00,-2368.00
8560,141.00,346.00,-122.00,-8268.00,472.00,15908.00,-2368.00
8577,130.00,541.00,-160.00,-8528.00,560.00,16048.00,-2400.00
8593,-27.00,817.00,-292.00,-8552.00,464.00,15936.00,-2384.00
8609,-129.00,757.00,-230.00,-8280.00,460.00,15716.00,-2368.00
8626,7.00,737.00,-341.00,-8356.00,316.00,15408.00,-2384.00
8642,242.00,302.00,-445.00,-8324.00,316.00,15748.00,-2336.00
8658,292.00,110.00,-307.00,-8488.00,496.00,15984.00,-2352.00
8675,79.00,139.00,-313.00,-8348.00,408.00,15684.00,-2352.00
8691,-195.00,215.00,-230.00,-8456.00,508.00,15908.00,-2352.00
8709,-312.00,551.00,-385.00,-8512.00,324.00,15956.00,-2384.00
8725,-122.00,419.00,-543.00,-8420.00,432.00,15332.00,-2352.00
8741,210.00,637.00,-487.00,-8428.00,472.00,15492.00,-2368.00
8758,462.00,449.00,-350.00,-8528.00,396.00,15312.00,-2336.00
8774,390.00,582.00,-395.00,-8864.00,448.00,16044.00,-2368.00
8791,237.00,294.00,-448.00,-8600.00,452.00,15940.00,-2384.00
8807,-86.00,-395.00,-317.00,-8592.00,496.00,16104.00,-2384.00
8824,-233.00,209.00,-258.00,-8564.00,540.00,15720.00,-2384.00
8841,91.00,-155.00,-257.00,-8568.00,464.00,15472.00,-2384.00
8857,327.00,22.00,-342.00,-8536.00,336.00,15504.00,-2352.00
8873,556.00,752.00,-362.00,-8588.00,420.00,15488.00,-2352.00
8890,71.00,953.00,-227.00,-8560.00,352.00,15976.00,-2352.00
8906,-121.00,1068.00,-342.00,-8644.00,372.00,16056.00,-2384.00
8923,-253.00,728.00,-462.00,-8788.00,408.00,16000.00,-2368.00
8939,-307.00,904.00,-389.00,-8776.00,428.00,15708.00,-2400.00
8956,-250.00,1097.00,-397.00,-8624.00,580.00,14904.00,-2368.00
8973,106.00,1270.00,-181.00,-8668.00,388.00,15196.00,-2416.00
8989,289.00,1626.00,9.00,-8648.00,336.00,15368.00,-2368.00
9006,262.00,1101.00,-77.00,-8916.00,304.00,15736.00,-2352.00
9022,155.00,1365.00,-196.00,-9020.00,332.00,15712.00,-2368.00
9038,22.00,649.00,-207.00,-8900.00,328.00,15548.00,-2368.00
9055,115.00,696.00,31.00,-8744.00,576.00,15256.00,-2368.00
9071,143.00,1385.00,58.00,-8896.00,372.00,15276.00,-2336.00
9089,357.00,2043.00,68.00,-8964.00,336.00,15420.00,-2368.00
9105,777.00,1651.00,278.00,-9012.00,252.00,15636.00,-2368.00
9121,619.00,843.00,76.00,-9164.00,400.00,15648.00,-2368.00
9138,315.00,466.00,-96.00,-9004.00,556.00,15392.00,-2384.00
9154,191.00,449.00,-147.00,-9024.00,424.00,15432.00,-2368.00
9170,109.00,705.00,-224.00,-9052.00,440.00,15112.00,-2352.00
9187,120.00,265.00,-210.00,-8960.00,564.00,15136.00,-2384.00
9203,58.00,852.00,-109.00,-8996.00,648.00,14884.00,-2384.00
9221,155.00,932.00,-124.00,-9256.00,560.00,15040.00,-2384.00
9237,312.00,474.00,-154.00,-9196.00,488.00,15204.00,-2384.00
9253,426.00,-37.00,-62.00,-9296.00,652.00,15584.00,-2384.00
9270,40.00,260.00,82.00,-9280.00,660.00,15684.00,-2352.00
9286,-267.00,328.00,51.00,-9320.00,576.00,15268.00,-2368.00
9303,-339.00,323.00,-78.00,-9120.00,636.00,15220.00,-2368.00
9319,-313.00,117.00,-224.00,-9168.00,436.00,15084.00,-2368.00
9335,-12.00,544.00,-274.00,-9412.00,444.00,14900.00,-2368.00
9352,255.00,1262.00,-223.00,-9308.00,484.00,14948.00,-2368.00
9368,315.00,426.00,-305.00,-9324.00,424.00,15128.00,-2384.00
9385,299.00,-207.00,-611.00,-9392.00,400.00,15424.00,-2352.00
9402,-83.00,877.00,-281.00,-9300.00,488.00,15940.00,-2352.00
9418,-323.00,1005.00,-178.00,-9212.00,344.00,15108.00,-2384.00
9435,-193.00,1246.00,-151.00,-9208.00,468.00,15024.00,-2368.00
9451,-161.00,962.00,-268.00,-9152.00,352.00,14608.00,-2352.00
9467,347.00,704.00,-449.00,-9540.00,448.00,14696.00,-2352.00
9484,334.00,963.00,-470.00,-9776.00,412.00,15280.00,-2384.00
9501,-212.00,1156.00,-766.00,-9732.00,580.00,15528.00,-2368.00
9518,-626.00,1378.00,-853.00,-9512.00,432.00,15084.00,-2368.00
9534,-411.00,291.00,-698.00,-9348.00,472.00,14752.00,-2352.00
9550,-260.00,-297.00,-392.00,-9244.00,336.00,14828.00,-2352.00
9567,-177.00,291.00,-39.00,-9176.00,360.00,15080.00,-2368.00
9583,-139.00,244.00,12.00,-9464.00,224.00,14788.00,-2368.00
9600,115.00,127.00,-133.00,-9484.00,284.00,14748.00,-2368.00
9617,117.00,24.00,-325.00,-9844.00,364.00,15140.00,-2368.00
9633,61.00,816.00,-511.00,-9564.00,348.00,14948.00,-2352.00
9650,34.00,436.00,-487.00,-9532.00,312.00,15084.00,-2384.00
9666,-35.00,178.00,-484.00,-9408.00,240.00,15220.00,-2384.00
9682,-42.00,-45.00,-391.00,-9560.00,228.00,14932.00,-2384.00
9699,87.00,486.00,-225.00,-9780.00,488.00,14920.00,-2336.00
9715,-21.00,961.00,-95.00,-9640.00,456.00,14900.00,-2368.00
9732,-10.00,766.00,-117.00,-9608.00,316.00,14896.00,-2352.00
9748,-18.00,98.00,-272.00,-9736.00,288.00,15136.00,-2384.00
9764,-37.00,407.00,-192.00,-9576.00,396.00,14940.00,-2384.00
9781,-109.00,697.00,-17.00,-9620.00,376.00,14876.00,-2352.00
9797,-249.00,582.00,93.00,-9636.00,232.00,14708.00,-2384.00
9814,-302.00,393.00,62.00,-9676.00,340.00,14636.00,-2368.00
9831,-203.00,767.00,-15.00,-9672.00,280.00,14608.00,-2400.00
9847,67.00,581.00,57.00,-9688.00,256.00,14724.00,-2368.00
9864,255.00,414.00,8.00,-9920.00,308.00,14724.00,-2352.00
9880,268.00,606.00,36.00,-9692.00,356.00,14768.00,-2336.00
9896,168.00,89.00,21.00,-9836.00,388.00,14744.00,-2352.00
9913,-9.00,24.00,-66.00,-9808.00,416.00,14892.00,-2400.00
9929,-307.00,681.00,22.00,-9724.00,316.00,15124.00,-2352.00
9946,-367.00,948.00,64.00,-9856.00,276.00,14520.00,-2368.00
9962,-147.00,1182.00,88.00,-9700.00,232.00,14244.00,-2368.00
9978,93.00,793.00,33.00,-9940.00,348.00,14496.00,-2400.00
9995,220.00,180.00,-136.00,-9952.00,196.00,14820.00,-2384.00
10011,234.00,-416.00,-330.00,-9908.00,216.00,14932.00,-2368.00
10028,7.00,-84.00,-428.00,-9716.00,340.00,14696.00,-2368.00
10044,-180.00,396.00,-434.00,-9888.00,400.00,14920.00,-2368.00
10061,-288.00,383.00,-358.00,-9844.00,380.00,14828.00,-2352.00
10078,-258.00,350.00,-320.00,-9832.00,400.00,14560.00,-2352.00
10094,40.00,124.00,-342.00,-9960.00,236.00,14564.00,-2368.00
10110,227.00,100.00,-410.00,-10028.00,416.00,14844.00,-2336.00
10127,139.00,153.00,-575.00,-9732.00,364.00,14488.00,-2384.00
10143,36.00,303.00,-324.00,-9960.00,120.00,14656.00,-2336.00
10161,-131.00,329.00,-264.00,-9872.00,272.00,14780.00,-2368.00
10177,-152.00,536.00,-205.00,-9800.00,308.00,14588.00,-2368.00
10193,-41.00,675.00,-256.00,-9952.00,260.00,14480.00,-2384.00
10210,-4.00,542.00,-374.00,-10028.00,332.00,14588.00,-2352.00
10226,121.00,135.00,-378.00,-9996.00,248.00,14496.00,-2400.00
10243,111.00,-133.00,-317.00,-9832.00,216.00,14700.00,-2368.00
10260,-133.00,536.00,-141.00,-9888.00,276.00,14780.00,-2384.00
10276,-230.00,923.00,10.00,-10008.00,220.00,14776.00,-2368.00
10293,-236.00,1161.00,-9.00,-10004.00,300.00,14608.00,-2368.00
10309,-124.00,482.00,-81.00,-9948.00,148.00,14324.00,-2352.00
10326,84.00,83.00,-26.00,-9988.00,232.00,14356.00,-2384.00
10342,-23.00,667.00,63.00,-10032.00,248.00,14772.00,-2368.00
10358,-136.00,1380.00,58.00,-10036.00,144.00,14816.00,-2384.00
10376,-184.00,1035.00,-86.00,-10128.00,236.00,14472.00,-2352.00
10392,-127.00,-34.00,-335.00,-10224.00,148.00,14520.00,-2368.00
10408,-88.00,-244.00,-409.00,-10084.00,316.00,14292.00,-2384.00
10425,-42.00,464.00,-439.00,-9996.00,192.00,14336.00,-2368.00
10441,30.00,824.00,-280.00,-10088.00,184.00,14596.00,-2368.00
10458,114.00,850.00,-298.00,-10132.00,172.00,14244.00,-2384.00
10475,225.00,575.00,-315.00,-10164.00,344.00,14592.00,-2368.00
10491,48.00,443.00,-417.00,-10204.00,312.00,14400.00,-2368.00
10508,-181.00,584.00,-372.00,-10148.00,316.00,14444.00,-2384.00
10524,-236.00,971.00,-252.00,-10248.00,204.00,14352.00,-2336.00
10542,-230.00,700.00,-231.00,-10188.00,192.00,13988.00,-2384.00
10558,-52.00,420.00,-293.00,-10316.00,100.00,14320.00,-2368.00
10574,24.00,376.00,-286.00,-10152.00,220.00,14464.00,-2368.00
10591,-38.00,745.00,-204.00,-10140.00,200.00,14212.00,-2352.00
10607,-61.00,912.00,-236.00,-10440.00,68.00,14360.00,-2368.00
10624,88.00,714.00,-393.00,-10512.00,96.00,14216.00,-2336.00
10641,166.00,441.00,-432.00,-10360.00,344.00,14264.00,-2352.00
10657,38.00,-8.00,-359.00,-10164.00,284.00,14148.00,-2336.00
10674,-69.00,721.00,-236.00,-10260.00,164.00,14168.00,-2352.00
10690,-180.00,1088.00,-197.00,-10424.00,172.00,14332.00,-2368.00
10706,-147.00,1862.00,-60.00,-10272.00,284.00,13936.00,-2384.00
10724,-58.00,2755.00,144.00,-10348.00,48.00,13660.00,-2368.00
10740,301.00,2434.00,125.00,-10684.00,108.00,14152.00,-2352.00
10757,504.00,1466.00,74.00,-10844.00,52.00,14340.00,-2368.00
10773,505.00,528.00,-118.00,-10800.00,208.00,14312.00,-2368.00
10789,132.00,849.00,-232.00,-10476.00,340.00,14008.00,-2368.00
10807,-47.00,634.00,-132.00,-10644.00,176.00,13824.00,-2352.00
10823,4.00,126.00,-168.00,-10736.00,164.00,13852.00,-2352.00
10840,-9.00,142.00,-174.00,-10660.00,272.00,14032.00,-2352.00
10856,28.00,433.00,-79.00,-10776.00,212.00,13716.00,-2368.00
10872,91.00,281.00,-81.00,-10792.00,104.00,13904.00,-2336.00
10889,266.00,77.00,-64.00,-10884.00,136.00,13868.00,-2368.00
10905,259.00,-11.00,-46.00,-10712.00,188.00,14132.00,-2368.00
10923,41.00,309.00,-111.00,-10684.00,256.00,13964.00,-2368.00
10939,-43.00,74.00,-207.00,-10732.00,20.00,13936.00,-2352.00
10955,-96.00,-14.00,-343.00,-10616.00,144.00,14096.00,-2352.00
10972,-48.00,926.00,-230.00,-10640.00,52.00,13908.00,-2320.00
10988,0.00,906.00,-237.00,-10656.00,120.00,13780.00,-2352.00
11004,16.00,670.00,-417.00,-10712.00,124.00,13764.00,-2352.00
11021,107.00,844.00,-529.00,-10844.00,36.00,13868.00,-2368.00
11037,193.00,1161.00,-490.00,-10832.00,292.00,13588.00,-2384.00
11055,271.00,746.00,-473.00,-10836.00,268.00,13604.00,-2400.00
11071,263.00,492.00,-503.00,-10976.00,224.00,13760.00,-2384.00
11087,56.00,537.00,-476.00,-10740.00,244.00,13624.00,-2368.00
11104,9.00,986.00,-498.00,-10864.00,184.00,13980.00,-2352.00
11121,-254.00,1187.00,-589.00,-11008.00,156.00,13608.00,-2352.00
11138,-157.00,1012.00,-754.00,-10944.00,120.00,13588.00,-2352.00
11154,163.00,828.00,-687.00,-10984.00,72.00,13568.00,-2368.00
11170,536.00,802.00,-439.00,-11116.00,24.00,13592.00,-2384.00
11187,521.00,1019.00,-218.00,-11000.00,252.00,13692.00,-2352.00
11204,154.00,1163.00,-240.00,-11148.00,232.00,13844.00,-2368.00
11220,-112.00,631.00,-219.00,-11136.00,208.00,13848.00,-2368.00
11237,-335.00,499.00,-208.00,-11196.00,108.00,13652.00,-2352.00
11253,-402.00,746.00,-58.00,-11100.00,148.00,13512.00,-2336.00
11271,-303.00,1550.00,158.00,-11120.00,36.00,13324.00,-2352.00
11287,-139.00,1489.00,74.00,-11104.00,88.00,13260.00,-2368.00
11303,154.00,903.00,-2.00,-11244.00,52.00,13176.00,-2368.00
11320,210.00,608.00,-22.00,-11296.00,100.00,13348.00,-2368.00
11336,164.00,772.00,-77.00,-11412.00,172.00,13456.00,-2368.00
11353,-50.00,802.00,-192.00,-11352.00,248.00,13488.00,-2352.00
11370,-176.00,1233.00,-140.00,-11168.00,212.00,13460.00,-2336.00
11386,-190.00,1347.00,-56.00,-11356.00,116.00,13452.00,-2352.00
11403,-98.00,1662.00,7.00,-11524.00,24.00,13240.00,-2336.00
11419,2.00,927.00,-101.00,-11392.00,100.00,13188.00,-2368.00
11436,178.00,-162.00,-145.00,-11136.00,140.00,12984.00,-2368.00
11453,96.00,-382.00,-56.00,-11256.00,164.00,13048.00,-2384.00
11469,-115.00,-178.00,-200.00,-11336.00,32.00,13384.00,-2352.00
11486,-271.00,6.00,-365.00,-11364.00,-44.00,13336.00,-2384.00
11502,-301.00,437.00,-438.00,-11484.00,164.00,13168.00,-2352.00
11518,-266.00,542.00,-479.00,-11188.00,84.00,13092.00,-2368.00
11535,-83.00,755.00,-497.00,-11308.00,72.00,12880.00,-2384.00
11551,194.00,496.00,-546.00,-11620.00,-24.00,13184.00,-2352.00
11569,240.00,671.00,-488.00,-11624.00,128.00,13204.00,-2368.00
11585,169.00,938.00,-399.00,-11544.00,116.00,13064.00,-2384.00
11601,-11.00,692.00,-324.00,-11432.00,176.00,13160.00,-2368.00
11618,-52.00,273.00,-205.00,-11548.00,-4.00,13192.00,-2368.00
11634,-44.00,422.00,-87.00,-11404.00,140.00,13016.00,-2368.00
11651,45.00,701.00,-28.00,-11396.00,-12.00,13092.00,-2368.00
11668,141.00,1199.00,46.00,-11376.00,76.00,12908.00,-2368.00
11684,170.00,1446.00,5.00,-11528.00,60.00,13056.00,-2368.00
11701,257.00,1733.00,-106.00,-11820.00,-4.00,12928.00,-2368.00
11717,260.00,1215.00,-295.00,-11676.00,-32.00,12772.00,-2352.00
11734,263.00,740.00,-299.00,-11624.00,116.00,12796.00,-2336.00
11750,181.00,900.00,-284.00,-11608.00,76.00,12688.00,-2384.00
11767,37.00,1222.00,-181.00,-11732.00,64.00,12932.00,-2368.00
11784,-95.00,1348.00,-224.00,-11756.00,76.00,12864.00,-2368.00
11800,34.00,886.00,-212.00,-11708.00,4.00,12884.00,-2384.00
11816,111.00,410.00,-170.00,-11848.00,100.00,12780.00,-2336.00
11833,68.00,312.00,-287.00,-11876.00,-44.00,12728.00,-2336.00
11849,-155.00,628.00,-285.00,-11780.00,92.00,12864.00,-2400.00
11867,-363.00,1501.00,-204.00,-11820.00,104.00,12772.00,-2352.00
11883,-236.00,1672.00,-224.00,-11824.00,96.00,12540.00,-2368.00
11899,27.00,1048.00,-229.00,-11896.00,-64.00,12416.00,-2352.00
11916,229.00,-249.00,-25.00,-11736.00,-8.00,12588.00,-2400.00
11932,-20.00,631.00,107.00,-11992.00,72.00,12664.00,-2368.00
11949,-230.00,1047.00,46.00,-11992.00,4.00,12556.00,-2336.00
11966,-215.00,978.00,-112.00,-11896.00,-64.00,12628.00,-2368.00
11982,86.00,269.00,-273.00,-12016.00,-64.00,12352.00,-2384.00
11999,303.00,-378.00,-263.00,-12032.00,0.00,12720.00,-2352.00
12015,164.00,797.00,-172.00,-12056.00,144.00,12712.00,-2384.00
12032,-73.00,997.00,-150.00,-12036.00,152.00,12572.00,-2400.00
12048,-175.00,872.00,-182.00,-11876.00,148.00,12508.00,-2368.00
12065,-58.00,722.00,-149.00,-11888.00,44.00,12300.00,-2336.00
12082,229.00,512.00,11.00,-11992.00,52.00,12200.00,-2368.00
12098,168.00,1069.00,84.00,-12268.00,28.00,12572.00,-2336.00
12114,-86.00,1064.00,45.00,-12080.00,24.00,12648.00,-2384.00
12131,-307.00,810.00,-88.00,-12112.00,44.00,12588.00,-2384.00
12147,-434.00,1201.00,-117.00,-12268.00,96.00,12404.00,-2368.00
12165,-327.00,788.00,-72.00,-12068.00,84.00,12068.00,-2368.00
12181,-4.00,346.00,6.00,-12028.00,136.00,11980.00,-2352.00
12197,109.00,902.00,152.00,-12096.00,-32.00,12240.00,-2368.00
12214,124.00,1304.00,121.00,-12292.00,-48.00,12116.00,-2352.00
12230,128.00,1100.00,-104.00,-12316.00,-44.00,12400.00,-2368.00
12247,31.00,132.00,-336.00,-12424.00,-128.00,12356.00,-2384.00
12264,50.00,-683.00,-492.00,-12196.00,-160.00,12200.00,-2352.00
12280,112.00,-136.00,-427.00,-11992.00,244.00,11992.00,-2368.00
12297,235.00,510.00,-292.00,-12216.00,188.00,12188.00,-2384.00
12313,232.00,678.00,-202.00,-12304.00,148.00,12340.00,-2368.00
12329,56.00,791.00,-207.00,-12584.00,-80.00,12416.00,-2416.00
12347,-184.00,798.00,-244.00,-12248.00,116.00,12420.00,-2352.00
12363,-254.00,754.00,-243.00,-12280.00,32.00,11884.00,-2368.00
12380,-206.00,665.00,-215.00,-12152.00,104.00,11716.00,-2352.00
12396,-26.00,828.00,-70.00,-12232.00,-24.00,11952.00,-2368.00
12412,75.00,1473.00,-178.00,-12352.00,128.00,12268.00,-2336.00
12429,128.00,1364.00,-252.00,-12600.00,36.00,12208.00,-2384.00
12446,-2.00,1131.00,-182.00,-12568.00,112.00,12116.00,-2368.00
12463,-352.00,2024.00,-199.00,-12516.00,100.00,12020.00,-2368.00
12479,-387.00,2370.00,-271.00,-12464.00,72.00,11908.00,-2368.00
12495,-390.00,2304.00,-297.00,-12720.00,68.00,11848.00,-2384.00
12513,-101.00,1358.00,-202.00,-12492.00,-128.00,11708.00,-2368.00
12529,83.00,605.00,-43.00,-12588.00,-56.00,11428.00,-2352.00
12546,263.00,927.00,215.00,-12428.00,-44.00,11772.00,-2352.00
12562,77.00,497.00,5.00,-12852.00,-144.00,11888.00,-2336.00
12578,63.00,166.00,-314.00,-12880.00,-164.00,11872.00,-2352.00
12595,207.00,-575.00,-445.00,-12588.00,4.00,11532.00,-2336.00
12612,112.00,-600.00,-383.00,-12568.00,84.00,11360.00,-2368.00
12628,-73.00,-358.00,-174.00,-12468.00,176.00,11412.00,-2352.00
12645,-436.00,104.00,-14.00,-12536.00,64.00,11664.00,-2368.00
12661,-369.00,461.00,-76.00,-12588.00,-144.00,11648.00,-2400.00
12678,4.00,1058.00,-88.00,-12740.00,-316.00,11732.00,-2400.00
12694,505.00,826.00,-229.00,-12732.00,-252.00,11764.00,-2384.00
12711,511.00,370.00,-369.00,-12748.00,-20.00,11804.00,-2336.00
12728,287.00,580.00,-310.00,-12728.00,108.00,11640.00,-2384.00
12744,148.00,808.00,-65.00,-12616.00,28.00,11652.00,-2368.00
12761,48.00,750.00,-18.00,-12636.00,112.00,11528.00,-2368.00
12777,-100.00,522.00,29.00,-12752.00,196.00,11668.00,-2368.00
12793,-142.00,1206.00,211.00,-12752.00,44.00,11348.00,-2368.00
12811,8.00,1354.00,289.00,-12788.00,-20.00,11484.00,-2368.00
12827,161.00,1275.00,91.00,-12728.00,-132.00,11304.00,-2336.00
12844,199.00,801.00,-38.00,-12752.00,52.00,11408.00,-2384.00
12860,198.00,736.00,-176.00,-12784.00,-64.00,11444.00,-2384.00
12876,201.00,528.00,-248.00,-12780.00,-24.00,11144.00,-2368.00
12893,326.00,27.00,-263.00,-12916.00,140.00,11320.00,-2368.00
12910,252.00,-9.00,-241.00,-12940.00,124.00,11548.00,-2352.00
12926,90.00,547.00,-238.00,-12772.00,40.00,11548.00,-2352.00
12943,39.00,1331.00,-229.00,-12840.00,136.00,11404.00,-2352.00
12959,117.00,2389.00,-182.00,-12844.00,-76.00,11164.00,-2368.00
12976,182.00,2034.00,-283.00,-12924.00,-36.00,11224.00,-2352.00
12993,273.00,881.00,-293.00,-13108.00,4.00,11400.00,-2368.00
13009,152.00,442.00,-230.00,-12932.00,264.00,11088.00,-2384.00
13026,87.00,1241.00,-64.00,-12872.00,84.00,10968.00,-2368.00
13042,155.00,1560.00,-155.00,-13000.00,60.00,10896.00,-2368.00
13059,243.00,1282.00,-186.00,-13108.00,-32.00,11128.00,-2384.00
13076,313.00,832.00,-165.00,-13184.00,48.00,11192.00,-2336.00
13092,275.00,535.00,-142.00,-13120.00,136.00,11228.00,-2352.00
13109,148.00,607.00,-207.00,-13240.00,84.00,10924.00,-2368.00
13125,107.00,-65.00,-410.00,-13192.00,92.00,10852.00,-2368.00
13142,152.00,285.00,-345.00,-12992.00,200.00,10752.00,-2352.00
13158,264.00,866.00,-186.00,-12956.00,-36.00,10780.00,-2368.00
13175,255.00,1189.00,-92.00,-13100.00,72.00,10848.00,-2368.00
13192,185.00,990.00,-127.00,-13088.00,36.00,11096.00,-2384.00
13208,26.00,1080.00,-257.00,-13340.00,24.00,11004.00,-2368.00
13224,-164.00,1373.00,-384.00,-13356.00,52.00,10780.00,-2368.00
13241,-165.00,1233.00,-450.00,-13196.00,140.00,10716.00,-2352.00
13258,-34.00,1026.00,-433.00,-13108.00,140.00,10520.00,-2384.00
13275,95.00,1112.00,-367.00,-13064.00,56.00,10532.00,-2368.00
13291,234.00,970.00,-356.00,-13188.00,-76.00,10556.00,-2336.00
13307,323.00,909.00,-397.00,-13528.00,-36.00,10716.00,-2352.00
13324,178.00,1151.00,-593.00,-13500.00,80.00,10708.00,-2368.00
13341,35.00,1401.00,-529.00,-13340.00,140.00,10480.00,-2384.00
13358,-40.00,794.00,-651.00,-13400.00,-28.00,10360.00,-2336.00
13374,6.00,59.00,-820.00,-13612.00,-16.00,10316.00,-2368.00
13390,91.00,76.00,-810.00,-13256.00,72.00,10264.00,-2368.00
13407,71.00,71.00,-603.00,-13184.00,20.00,10392.00,-2336.00
13423,53.00,534.00,-602.00,-13376.00,-4.00,10432.00,-2368.00
13440,145.00,497.00,-579.00,-13504.00,-168.00,10584.00,-2384.00
13456,107.00,348.00,-616.00,-13596.00,-52.00,10748.00,-2352.00
13473,52.00,852.00,-562.00,-13492.00,-156.00,10200.00,-2320.00
13490,203.00,1127.00,-466.00,-13496.00,-64.00,10164.00,-2368.00
13506,409.00,956.00,-324.00,-13460.00,-44.00,10268.00,-2384.00
13522,337.00,783.00,-395.00,-13508.00,-56.00,10248.00,-2368.00
13539,64.00,692.00,-481.00,-13552.00,-120.00,10460.00,-2368.00
13556,-51.00,442.00,-499.00,-13680.00,-260.00,10312.00,-2384.00
13573,-6.00,340.00,-364.00,-13576.00,-92.00,10312.00,-2368.00
13589,4.00,737.00,-239.00,-13492.00,28.00,10100.00,-2336.00
13605,81.00,873.00,-64.00,-13492.00,-88.00,10128.00,-2400.00
13622,109.00,1093.00,-122.00,-13756.00,-172.00,10404.00,-2368.00
13638,42.00,829.00,-276.00,-13768.00,-188.00,10456.00,-2384.00
13655,-66.00,148.00,-368.00,-13708.00,-164.00,10220.00,-2368.00
13672,5.00,25.00,-282.00,-13572.00,-4.00,10092.00,-2352.00
13688,-75.00,734.00,-154.00,-13616.00,-96.00,10216.00,-2336.00
13705,-106.00,836.00,-200.00,-13488.00,-68.00,9940.00,-2336.00
13721,-107.00,667.00,-129.00,-13488.00,-68.00,9820.00,-2368.00
13737,-46.00,684.00,-51.00,-13644.00,-80.00,9860.00,-2352.00
13754,-50.00,777.00,-73.00,-13784.00,-144.00,10200.00,-2336.00
13770,-75.00,784.00,-119.00,-13752.00,-148.00,10140.00,-2368.00
13787,-155.00,686.00,-246.00,-13736.00,-168.00,10052.00,-2384.00
13804,-87.00,830.00,-288.00,-13656.00,-224.00,9916.00,-2368.00
13820,-89.00,781.00,-221.00,-13724.00,-152.00,9800.00,-2384.00
13837,100.00,500.00,-154.00,-13568.00,-24.00,9628.00,-2384.00
13853,117.00,505.00,-3.00,-13588.00,28.00,9856.00,-2384.00
13870,32.00,573.00,-69.00,-13628.00,-96.00,9856.00,-2368.00
13886,-81.00,1110.00,-198.00,-13928.00,-96.00,10168.00,-2336.00
13902,-328.00,1306.00,-269.00,-13936.00,-204.00,9888.00,-2352.00
13919,-421.00,1287.00,-286.00,-13724.00,-84.00,9940.00,-2368.00
13936,-411.00,1519.00,-245.00,-13696.00,-212.00,9452.00,-2384.00
13953,-7.00,275.00,-121.00,-13852.00,-56.00,9592.00,-2336.00
13969,65.00,825.00,-126.00,-13816.00,-156.00,9608.00,-2336.00
13985,124.00,713.00,-237.00,-13660.00,-136.00,9624.00,-2368.00
14002,21.00,927.00,-292.00,-13880.00,-292.00,9956.00,-2384.00
14018,-74.00,911.00,-425.00,-14160.00,-364.00,9920.00,-2384.00
14035,-22.00,648.00,-549.00,-13972.00,-260.00,9732.00,-2336.00
14052,54.00,52.00,-592.00,-13856.00,-156.00,9356.00,-2368.00
14068,109.00,150.00,-384.00,-13896.00,-96.00,9372.00,-2368.00
14085,183.00,385.00,-177.00,-13880.00,-192.00,9484.00,-2368.00
14101,108.00,728.00,-31.00,-13944.00,-52.00,9484.00,-2352.00
14117,47.00,837.00,74.00,-14016.00,-168.00,9616.00,-2352.00
14134,-70.00,1057.00,26.00,-14168.00,-248.00,9764.00,-2384.00
14150,-164.00,863.00,-56.00,-13984.00,-340.00,9696.00,-2384.00
14167,-133.00,711.00,-81.00,-13828.00,-224.00,9064.00,-2368.00
14184,60.00,475.00,-41.00,-13860.00,-296.00,9156.00,-2336.00
14200,210.00,322.00,-2.00,-13816.00,-216.00,9168.00,-2336.00
14217,182.00,347.00,51.00,-14004.00,-240.00,9500.00,-2368.00
14233,77.00,733.00,-72.00,-14148.00,-216.00,9448.00,-2368.00
14249,28.00,981.00,-235.00,-14136.00,-280.00,9304.00,-2368.00
14266,31.00,1030.00,-358.00,-14156.00,-256.00,9280.00,-2336.00
14282,-61.00,1029.00,-450.00,-14108.00,-20.00,9380.00,-2352.00
14299,-93.00,816.00,-319.00,-14072.00,-108.00,9060.00,-2352.00
14316,39.00,742.00,-171.00,-14108.00,-136.00,9164.00,-2368.00
14332,4.00,628.00,-134.00,-13908.00,-172.00,9152.00,-2368.00
14349,-93.00,659.00,-169.00,-14128.00,-264.00,9368.00,-2368.00
14365,-201.00,678.00,-290.00,-14124.00,-268.00,9204.00,-2400.00
14382,-90.00,1050.00,-317.00,-13976.00,-276.00,8908.00,-2384.00
14398,159.00,928.00,-220.00,-14128.00,-228.00,9028.00,-2368.00
14414,382.00,657.00,-86.00,-14140.00,-212.00,9020.00,-2368.00
14432,232.00,774.00,53.00,-14208.00,-120.00,8924.00,-2352.00
14448,5.00,944.00,-95.00,-14312.00,-140.00,8884.00,-2336.00
14465,-124.00,809.00,-352.00,-14240.00,-276.00,8932.00,-2336.00
14481,-106.00,499.00,-438.00,-14208.00,-176.00,9100.00,-2384.00
14497,-72.00,822.00,-266.00,-14160.00,-128.00,8936.00,-2368.00
14514,-54.00,1087.00,-6.00,-14140.00,-72.00,8664.00,-2368.00
14530,161.00,758.00,124.00,-14200.00,-264.00,8568.00,-2336.00
14546,223.00,711.00,90.00,-14388.00,-12.00,9044.00,-2368.00
14564,-2.00,1115.00,11.00,-14444.00,-160.00,9108.00,-2368.00
14580,-258.00,1319.00,-126.00,-14380.00,-80.00,8836.00,-2368.00
14597,-313.00,1351.00,-39.00,-14296.00,-180.00,8692.00,-2352.00
14613,-106.00,1134.00,119.00,-14052.00,-160.00,8416.00,-2368.00
14629,140.00,844.00,241.00,-14168.00,-152.00,8328.00,-2368.00
14646,178.00,759.00,179.00,-14472.00,-208.00,8744.00,-2352.00
14663,30.00,829.00,-4.00,-14440.00,-140.00,8680.00,-2336.00
14680,-33.00,855.00,-206.00,-14500.00,-332.00,8672.00,-2352.00
14696,122.00,649.00,-256.00,-14432.00,-4.00,8360.00,-2368.00
14712,173.00,731.00,-212.00,-14220.00,92.00,8536.00,-2400.00
14729,254.00,673.00,-166.00,-14256.00,-104.00,8348.00,-2304.00
14745,312.00,574.00,-278.00,-14360.00,-144.00,8592.00,-2352.00
14761,202.00,124.00,-362.00,-14336.00,-188.00,8580.00,-2352.00
14778,97.00,329.00,-409.00,-14520.00,-188.00,8468.00,-2368.00
14795,136.00,374.00,-491.00,-14420.00,-200.00,8468.00,-2368.00
14812,174.00,411.00,-481.00,-14456.00,-96.00,8488.00,-2352.00
14828,260.00,700.00,-403.00,-14304.00,-108.00,8392.00,-2384.00
14844,343.00,767.00,-358.00,-14352.00,-28.00,8432.00,-2368.00
14861,290.00,582.00,-334.00,-14488.00,-324.00,8328.00,-2352.00
14877,265.00,-16.00,-440.00,-14524.00,-120.00,8500.00,-2368.00
14895,105.00,228.00,-465.00,-14600.00,-156.00,8532.00,-2400.00
14911,-9.00,427.00,-409.00,-14608.00,-144.00,8404.00,-2352.00
14927,11.00,575.00,-278.00,-14412.00,-128.00,8292.00,-2336.00
14944,101.00,574.00,-244.00,-14456.00,-220.00,8244.00,-2352.00
14960,138.00,509.00,-232.00,-14452.00,-152.00,8212.00,-2368.00
14977,101.00,604.00,-280.00,-14404.00,-104.00,8380.00,-2368.00
14993,128.00,397.00,-437.00,-14740.00,-268.00,8252.00,-2352.00
15010,154.00,553.00,-430.00,-14560.00,-104.00,8336.00,-2304.00
15027,44.00,868.00,-359.00,-14348.00,-120.00,8040.00,-2368.00
15043,81.00,1016.00,-355.00,-14432.00,-192.00,8108.00,-2368.00
15059,168.00,887.00,-319.00,-14440.00,-188.00,8064.00,-2368.00
15076,240.00,965.00,-378.00,-14772.00,-160.00,8176.00,-2368.00
15092,180.00,1061.00,-443.00,-14744.00,-84.00,8320.00,-2384.00
15110,78.00,771.00,-377.00,-14732.00,-308.00,8260.00,-2368.00
15126,-46.00,459.00,-444.00,-14420.00,-144.00,8076.00,-2336.00
15142,-143.00,886.00,-447.00,-14516.00,-280.00,7788.00,-2368.00
15159,-71.00,695.00,-386.00,-14500.00,-384.00,7760.00,-2352.00
15175,231.00,532.00,-252.00,-14668.00,-408.00,7724.00,-2336.00
15192,438.00,227.00,-196.00,-14648.00,-312.00,7976.00,-2368.00
15209,472.00,346.00,-198.00,-14612.00,-156.00,8076.00,-2352.00
15225,342.00,448.00,-132.00,-14816.00,-256.00,7992.00,-2336.00
15242,186.00,440.00,-254.00,-14844.00,-344.00,8020.00,-2336.00
15258,-25.00,590.00,-377.00,-14740.00,-132.00,7840.00,-2352.00
15275,-177.00,637.00,-434.00,-14664.00,-152.00,7752.00,-2384.00
15291,0.00,571.00,-316.00,-14484.00,-184.00,7600.00,-2336.00
15308,64.00,440.00,-43.00,-14648.00,-124.00,7716.00,-2336.00
15325,25.00,647.00,28.00,-14644.00,-296.00,7968.00,-2368.00
15341,58.00,800.00,70.00,-14796.00,-248.00,7880.00,-2336.00
15357,45.00,1402.00,-130.00,-14788.00,-256.00,7896.00,-2368.00
15374,245.00,1214.00,-209.00,-14636.00,-220.00,7640.00,-2400.00
15390,370.00,675.00,-186.00,-14484.00,-112.00,7532.00,-2384.00
15407,363.00,683.00,-103.00,-14600.00,-76.00,7516.00,-2368.00
15424,288.00,717.00,-27.00,-14864.00,-220.00,7764.00,-2336.00
15440,78.00,782.00,-189.00,-15064.00,-216.00,7692.00,-2352.00
15457,-72.00,801.00,-426.00,-14860.00,-260.00,7632.00,-2352.00
15473,-149.00,889.00,-365.00,-14592.00,-116.00,7732.00,-2336.00
15490,5.00,1157.00,-183.00,-14628.00,-144.00,7296.00,-2336.00
15506,318.00,888.00,-4.00,-14712.00,-344.00,7464.00,-2352.00
15522,360.00,826.00,69.00,-14972.00,-312.00,7468.00,-2384.00
15539,221.00,978.00,-24.00,-15088.00,-248.00,7688.00,-2352.00
15556,-114.00,1003.00,-274.00,-14876.00,-148.00,7536.00,-2352.00
15572,-251.00,811.00,-524.00,-14792.00,-356.00,7424.00,-2336.00
15589,-171.00,669.00,-385.00,-14684.00,-176.00,7256.00,-2352.00
15605,149.00,895.00,-50.00,-14752.00,-224.00,7108.00,-2368.00
15622,305.00,1110.00,209.00,-14912.00,-200.00,7092.00,-2368.00
15639,335.00,915.00,183.00,-14948.00,-340.00,7212.00,-2352.00
15655,282.00,724.00,-192.00,-15012.00,-240.00,7328.00,-2336.00
15672,113.00,575.00,-573.00,-15048.00,-300.00,7300.00,-2352.00
15688,-74.00,925.00,-598.00,-14860.00,-108.00,7076.00,-2352.00
15705,-90.00,856.00,-428.00,-14832.00,-276.00,6988.00,-2368.00
15721,146.00,757.00,-291.00,-14932.00,-332.00,7020.00,-2368.00
15738,347.00,488.00,-247.00,-14940.00,-336.00,6992.00,-2352.00
15755,282.00,302.00,-342.00,-15044.00,-232.00,7120.00,-2368.00
15771,195.00,349.00,-391.00,-15160.00,-216.00,7168.00,-2368.00
15788,49.00,777.00,-301.00,-15192.00,-284.00,7136.00,-2352.00
15804,22.00,805.00,-248.00,-14964.00,-184.00,6776.00,-2384.00
15820,74.00,598.00,-111.00,-14880.00,-264.00,6964.00,-2368.00
15837,147.00,786.00,50.00,-14952.00,-212.00,6744.00,-2368.00
15854,114.00,1020.00,134.00,-15124.00,-240.00,7016.00,-2336.00
15870,13.00,1034.00,-8.00,-15072.00,-304.00,6976.00,-2352.00
15887,-35.00,389.00,-274.00,-14984.00,-188.00,6884.00,-2352.00
15903,-29.00,273.00,-428.00,-14784.00,-108.00,6724.00,-2400.00
15920,56.00,512.00,-328.00,-15044.00,-204.00,6736.00,-2368.00
15936,216.00,858.00,-68.00,-15028.00,-80.00,6772.00,-2320.00
15952,324.00,1231.00,86.00,-15024.00,0.00,6796.00,-2368.00
15969,253.00,1454.00,17.00,-15180.00,-68.00,6736.00,-2336.00
15986,319.00,885.00,-68.00,-14928.00,-204.00,6532.00,-2336.00
16003,202.00,355.00,-164.00,-15052.00,-140.00,6788.00,-2352.00
16019,-18.00,480.00,-322.00,-15088.00,-152.00,6668.00,-2368.00
16035,-48.00,901.00,-347.00,-15196.00,-216.00,6680.00,-2336.00
16052,-59.00,1128.00,-401.00,-15124.00,-256.00,6680.00,-2400.00
16068,37.00,904.00,-504.00,-14924.00,-280.00,6300.00,-2384.00
16086,304.00,405.00,-542.00,-15016.00,-280.00,6484.00,-2336.00
16102,397.00,212.00,-411.00,-15100.00,-196.00,6480.00,-2336.00
16118,382.00,472.00,-346.00,-15144.00,-252.00,6584.00,-2352.00
16135,356.00,491.00,-375.00,-15380.00,-268.00,6516.00,-2368.00
16151,303.00,441.00,-511.00,-15456.00,-212.00,6504.00,-2368.00
16167,206.00,491.00,-595.00,-15152.00,-96.00,6468.00,-2352.00
16185,122.00,313.00,-507.00,-15048.00,-12.00,6248.00,-2352.00
16201,107.00,329.00,-371.00,-15004.00,-120.00,6308.00,-2336.00
16218,192.00,507.00,-192.00,-15080.00,-168.00,6388.00,-2304.00
16234,224.00,606.00,-174.00,-15204.00,-388.00,6644.00,-2320.00
16250,100.00,797.00,-206.00,-15376.00,-388.00,6428.00,-2320.00
16267,0.00,982.00,-297.00,-15208.00,-316.00,6380.00,-2368.00
16283,28.00,702.00,-294.00,-15072.00,-300.00,6340.00,-2368.00
16301,195.00,509.00,-239.00,-15028.00,-300.00,6196.00,-2368.00
16317,375.00,566.00,6.00,-15092.00,-272.00,6032.00,-2352.00
16333,287.00,933.00,61.00,-15116.00,-252.00,6180.00,-2320.00
16350,-30.00,673.00,-115.00,-15480.00,-256.00,6292.00,-2320.00
16366,-166.00,588.00,-277.00,-15524.00,-504.00,6312.00,-2352.00
16382,-203.00,499.00,-304.00,-15132.00,-296.00,6124.00,-2336.00
16400,-64.00,835.00,-164.00,-15068.00,-224.00,5888.00,-2368.00
16416,96.00,649.00,-71.00,-15040.00,-316.00,5988.00,-2352.00
16433,151.00,443.00,-19.00,-15208.00,-356.00,6232.00,-2352.00
16449,135.00,515.00,-180.00,-15372.00,-252.00,6200.00,-2352.00
16465,95.00,384.00,-314.00,-15500.00,-308.00,6216.00,-2368.00
16482,-1.00,627.00,-343.00,-15312.00,-256.00,6132.00,-2368.00
16498,11.00,685.00,-391.00,-15032.00,-276.00,6012.00,-2368.00
16515,94.00,581.00,-432.00,-15092.00,-220.00,6052.00,-2352.00
16532,48.00,374.00,-280.00,-15244.00,-248.00,5988.00,-2352.00
16548,90.00,118.00,-145.00,-15508.00,-400.00,5912.00,-2368.00
16565,65.00,80.00,-263.00,-15264.00,-224.00,5944.00,-2336.00
16581,22.00,444.00,-327.00,-15252.00,-156.00,5848.00,-2336.00
16598,-14.00,373.00,-340.00,-15160.00,-224.00,5764.00,-2336.00
16614,117.00,475.00,-306.00,-15208.00,-212.00,5936.00,-2336.00
16630,222.00,551.00,-134.00,-15320.00,-164.00,5692.00,-2320.00
16648,176.00,598.00,-30.00,-15392.00,-240.00,5988.00,-2336.00
16664,150.00,581.00,-133.00,-15392.00,-368.00,5900.00,-2336.00
16680,178.00,325.00,-423.00,-15436.00,-192.00,5916.00,-2384.00
16697,13.00,582.00,-499.00,-15404.00,-304.00,6032.00,-2320.00
16713,101.00,539.00,-334.00,-15216.00,-248.00,5568.00,-2304.00
16730,118.00,925.00,-21.00,-15320.00,-556.00,5680.00,-2304.00
16747,112.00,813.00,-115.00,-15060.00,-176.00,5560.00,-2320.00
16763,101.00,647.00,-148.00,-15340.00,-432.00,5932.00,-2352.00
16780,-12.00,283.00,-278.00,-15256.00,-312.00,5740.00,-2368.00
16796,-34.00,136.00,-322.00,-15328.00,-352.00,5868.00,-2336.00
16813,104.00,459.00,-295.00,-15452.00,-360.00,5704.00,-2352.00
16829,148.00,680.00,-226.00,-15256.00,-268.00,5436.00,-2336.00
16846,223.00,655.00,-152.00,-15256.00,-208.00,5548.00,-2368.00
16863,180.00,439.00,-196.00,-15520.00,-316.00,5640.00,-2320.00
16879,107.00,372.00,-355.00,-15560.00,-340.00,5684.00,-2320.00
16896,-98.00,505.00,-364.00,-15408.00,-248.00,5548.00,-2336.00
16912,-225.00,650.00,-283.00,-15188.00,-236.00,5344.00,-2320.00
16928,-111.00,676.00,-126.00,-15032.00,-332.00,5400.00,-2352.00
16946,-32.00,711.00,29.00,-15328.00,-284.00,5564.00,-2368.00
16962,66.00,805.00,-15.00,-15604.00,-276.00,5596.00,-2368.00
16978,30.00,634.00,-208.00,-15640.00,-364.00,5708.00,-2336.00
16995,130.00,413.00,-248.00,-15388.00,-328.00,5588.00,-2336.00
17011,192.00,348.00,-491.00,-15084.00,-188.00,5296.00,-2352.00
17028,221.00,593.00,-514.00,-15176.00,-348.00,5248.00,-2352.00
17044,96.00,601.00,-355.00,-15312.00,-248.00,5476.00,-2336.00
17060,118.00,1366.00,-263.00,-15396.00,-488.00,5348.00,-2368.00
17078,334.00,1336.00,-234.00,-15520.00,-340.00,5460.00,-2352.00
17094,320.00,759.00,-230.00,-15556.00,-376.00,5464.00,-2320.00
17111,162.00,578.00,-383.00,-15732.00,-264.00,5516.00,-2352.00
17127,-66.00,613.00,-433.00,-15396.00,-144.00,5284.00,-2336.00
17143,-115.00,571.00,-347.00,-15500.00,-216.00,5164.00,-2368.00
17161,-130.00,781.00,-98.00,-15344.00,-316.00,5036.00,-2384.00
17177,-97.00,1111.00,159.00,-15052.00,-300.00,4928.00,-2336.00
17193,-40.00,984.00,281.00,-15436.00,-428.00,5240.00,-2336.00
17210,-80.00,1030.00,142.00,-15728.00,-576.00,5356.00,-2320.00
17226,-8.00,465.00,-135.00,-15636.00,-476.00,5100.00,-2320.00
17243,-35.00,321.00,-329.00,-15528.00,-208.00,4996.00,-2352.00
17259,-15.00,285.00,-255.00,-15376.00,-332.00,5012.00,-2304.00
17276,169.00,271.00,-41.00,-15224.00,-324.00,4968.00,-2336.00
17293,181.00,552.00,-2.00,-15380.00,-172.00,4848.00,-2336.00
17309,162.00,836.00,29.00,-15360.00,-244.00,4952.00,-2336.00
17326,146.00,647.00,-57.00,-15600.00,-408.00,5084.00,-2336.00
17342,45.00,766.00,-148.00,-15708.00,-332.00,5036.00,-2384.00
17358,-58.00,528.00,-317.00,-15748.00,-240.00,5184.00,-2320.00
17375,-74.00,463.00,-395.00,-15580.00,-292.00,4956.00,-2336.00
17392,-112.00,514.00,-311.00,-15536.00,-152.00,4748.00,-2336.00
17409,-59.00,1291.00,-229.00,-15408.00,-204.00,4676.00,-2336.00
17425,87.00,1383.00,-1.00,-15244.00,-484.00,4732.00,-2368.00
17441,144.00,1226.00,-41.00,-15408.00,-416.00,5036.00,-2352.00
17458,-12.00,914.00,-191.00,-15400.00,-348.00,4792.00,-2336.00
17474,21.00,831.00,-308.00,-15788.00,-328.00,4724.00,-2320.00
17490,93.00,600.00,-312.00,-15704.00,-448.00,4512.00,-2384.00
17508,173.00,450.00,-360.00,-15384.00,-340.00,4564.00,-2352.00
17524,200.00,555.00,-377.00,-15480.00,-268.00,4616.00,-2336.00
17541,218.00,600.00,-355.00,-15356.00,-264.00,4620.00,-2352.00
17557,245.00,658.00,-343.00,-15416.00,-212.00,4488.00,-2352.00
17573,122.00,970.00,-253.00,-15644.00,-272.00,4512.00,-2336.00
17590,118.00,919.00,-328.00,-15568.00,-360.00,4452.00,-2352.00
17607,180.00,630.00,-343.00,-15656.00,-356.00,4580.00,-2368.00
17624,164.00,276.00,-265.00,-15624.00,-320.00,4564.00,-2336.00
17640,126.00,571.00,-150.00,-15552.00,-300.00,4368.00,-2352.00
17656,102.00,643.00,-156.00,-15564.00,-304.00,4536.00,-2336.00
17673,6.00,728.00,-264.00,-15460.00,-332.00,4528.00,-2336.00
17689,-85.00,496.00,-332.00,-15572.00,-304.00,4396.00,-2352.00
17707,-14.00,363.00,-200.00,-15480.00,-368.00,4364.00,-2320.00
17723,34.00,260.00,-39.00,-15684.00,-400.00,4324.00,-2352.00
17739,72.00,489.00,56.00,-15632.00,-248.00,4384.00,-2352.00
17756,78.00,600.00,-22.00,-15868.00,-300.00,4364.00,-2320.00
17772,15.00,900.00,-198.00,-15648.00,-312.00,4348.00,-2352.00
17788,47.00,841.00,-289.00,-15448.00,-256.00,4220.00,-2352.00
17805,144.00,614.00,-202.00,-15468.00,-184.00,4160.00,-2336.00
17821,216.00,404.00,-22.00,-15480.00,-304.00,4056.00,-2336.00
17839,123.00,697.00,51.00,-15672.00,-268.00,4288.00,-2352.00
17855,-68.00,674.00,-35.00,-15696.00,-280.00,4240.00,-2320.00
17871,-155.00,582.00,-257.00,-15644.00,-124.00,4104.00,-2352.00
17888,-116.00,474.00,-365.00,-15384.00,-428.00,4028.00,-2336.00
17904,171.00,398.00,-118.00,-15728.00,-444.00,3976.00,-2352.00
17921,225.00,721.00,-51.00,-15648.00,-416.00,4120.00,-2352.00
17937,213.00,875.00,-92.00,-15860.00,-332.00,4072.00,-2336.00
17954,131.00,835.00,-270.00,-15688.00,-276.00,4100.00,-2336.00
17971,146.00,580.00,-353.00,-15532.00,-324.00,3928.00,-2336.00
17987,278.00,208.00,-386.00,-15476.00,-404.00,3764.00,-2352.00
18003,314.00,171.00,-348.00,-15532.00,-368.00,4004.00,-2336.00
18020,290.00,395.00,-304.00,-15560.00,-352.00,3956.00,-2352.00
18036,367.00,684.00,-339.00,-15648.00,-368.00,4060.00,-2336.00
18054,300.00,851.00,-440.00,-15716.00,-332.00,3912.00,-2368.00
18070,256.00,733.00,-439.00,-15720.00,-284.00,3932.00,-2352.00
18086,178.00,942.00,-332.00,-15932.00,-296.00,4088.00,-2336.00
18103,152.00,1105.00,-378.00,-15796.00,-184.00,3896.00,-2320.00
18119,134.00,721.00,-287.00,-15564.00,-168.00,3952.00,-2336.00
18137,5.00,228.00,-241.00,-15600.00,-144.00,3880.00,-2304.00
18153,-194.00,422.00,-216.00,-15660.00,-352.00,3616.00,-2304.00
18169,-205.00,546.00,-143.00,-15608.00,-312.00,3644.00,-2352.00
18186,-254.00,1647.00,-233.00,-15512.00,-412.00,3960.00,-2304.00
18202,-55.00,1865.00,-260.00,-15464.00,-464.00,3508.00,-2320.00
18219,169.00,1224.00,-148.00,-15620.00,-484.00,3632.00,-2336.00
18236,235.00,531.00,-148.00,-15552.00,-428.00,3416.00,-2352.00
18252,173.00,-47.00,-166.00,-15692.00,-376.00,3480.00,-2336.00
18269,96.00,289.00,-304.00,-15976.00,-312.00,3548.00,-2304.00
18285,-100.00,684.00,-351.00,-15696.00,-248.00,3344.00,-2336.00
18301,-26.00,396.00,-289.00,-15564.00,-288.00,3536.00,-2320.00
18318,116.00,289.00,-170.00,-15128.00,-304.00,3668.00,-2352.00
18335,199.00,-274.00,-344.00,-15720.00,-548.00,3616.00,-2336.00
18352,194.00,-34.00,-442.00,-15816.00,-316.00,3536.00,-2352.00
18368,137.00,76.00,-534.00,-15576.00,-388.00,3484.00,-2352.00
18384,112.00,10.00,-494.00,-15680.00,-340.00,3456.00,-2320.00
18401,92.00,256.00,-428.00,-15664.00,-340.00,3468.00,-2336.00
18417,133.00,211.00,-311.00,-15572.00,-336.00,3532.00,-2336.00
18435,193.00,94.00,-196.00,-15656.00,-492.00,3564.00,-2320.00
18451,177.00,178.00,-255.00,-15892.00,-368.00,3516.00,-2320.00
18467,165.00,418.00,-364.00,-15784.00,-364.00,3516.00,-2336.00
18484,194.00,389.00,-507.00,-15588.00,-344.00,3456.00,-2336.00
18500,206.00,399.00,-461.00,-15684.00,-408.00,3292.00,-2320.00
18516,304.00,251.00,-294.00,-15512.00,-252.00,3276.00,-2336.00
18534,228.00,557.00,-126.00,-15752.00,-272.00,3516.00,-2336.00
18550,113.00,610.00,-245.00,-15804.00,-540.00,3564.00,-2352.00
18567,74.00,529.00,-330.00,-15856.00,-436.00,3452.00,-2336.00
18583,29.00,559.00,-429.00,-15836.00,-412.00,3504.00,-2336.00
18599,5.00,458.00,-391.00,-15724.00,-396.00,3240.00,-2336.00
18616,11.00,545.00,-251.00,-15712.00,-300.00,3164.00,-2336.00
18632,-30.00,870.00,-124.00,-15592.00,-388.00,3116.00,-2368.00
18650,20.00,611.00,12.00,-15496.00,-436.00,3272.00,-2320.00
18666,-1.00,279.00,-48.00,-15588.00,-488.00,3212.00,-2304.00
18682,-78.00,-156.00,-100.00,-15776.00,-528.00,3248.00,-2304.00
18699,-219.00,125.00,-178.00,-16000.00,-420.00,3352.00,-2304.00
18715,-363.00,733.00,-173.00,-15816.00,-196.00,3276.00,-2288.00
18732,-221.00,879.00,-195.00,-15640.00,-456.00,3292.00,-2336.00
18748,167.00,926.00,-185.00,-15612.00,-564.00,3236.00,-2320.00
18765,397.00,584.00,-155.00,-15580.00,-464.00,3036.00,-2352.00
18782,722.00,154.00,-462.00,-16812.00,-564.00,2520.00,-2336.00
18798,373.00,21.00,-188.00,-15688.00,-352.00,3068.00,-2320.00
18814,69.00,808.00,-236.00,-16040.00,-380.00,3404.00,-2352.00
18831,9.00,1210.00,-324.00,-15892.00,-388.00,3068.00,-2352.00
18847,-47.00,1405.00,-261.00,-15836.00,-320.00,2984.00,-2336.00
18865,-113.00,1177.00,-154.00,-15760.00,-504.00,2948.00,-2368.00
18881,-30.00,504.00,-64.00,-15428.00,-472.00,2824.00,-2304.00
18897,53.00,23.00,-63.00,-15388.00,-348.00,2900.00,-2320.00
18914,-83.00,98.00,37.00,-15588.00,-316.00,2880.00,-2320.00
18930,-297.00,1068.00,109.00,-16116.00,-372.00,3116.00,-2336.00
18947,-181.00,1563.00,-80.00,-15856.00,-504.00,2892.00,-2320.00
18963,97.00,1039.00,-391.00,-15944.00,-628.00,2952.00,-2336.00
18979,251.00,261.00,-472.00,-15616.00,-476.00,2592.00,-2320.00
18997,310.00,17.00,-288.00,-15356.00,-408.00,2576.00,-2336.00
19013,351.00,212.00,-98.00,-15628.00,-364.00,2724.00,-2336.00
19030,229.00,566.00,-26.00,-15856.00,-284.00,2784.00,-2368.00
19046,96.00,672.00,-153.00,-15956.00,-376.00,2788.00,-2320.00
19062,154.00,535.00,-355.00,-15916.00,-500.00,2744.00,-2320.00
19079,277.00,228.00,-280.00,-15760.00,-328.00,2572.00,-2304.00
19096,174.00,303.00,-164.00,-15648.00,-164.00,2636.00,-2320.00
19112,51.00,186.00,107.00,-15696.00,-360.00,2764.00,-2320.00
19129,-193.00,210.00,161.00,-15964.00,-332.00,2772.00,-2320.00
19145,-345.00,675.00,-35.00,-15980.00,-480.00,2992.00,-2368.00
19162,-506.00,897.00,-116.00,-15720.00,-360.00,2488.00,-2368.00
19178,-356.00,502.00,50.00,-16056.00,-404.00,2676.00,-2320.00
19195,-399.00,867.00,-14.00,-15888.00,-316.00,2624.00,-2368.00
19212,-204.00,617.00,164.00,-15504.00,-424.00,2488.00,-2336.00
19228,-144.00,229.00,281.00,-15692.00,-348.00,2564.00,-2336.00
19245,-217.00,35.00,19.00,-15796.00,-332.00,2524.00,-2352.00
19261,-286.00,426.00,38.00,-15964.00,-376.00,2396.00,-2320.00
19277,-224.00,844.00,83.00,-15856.00,-272.00,2488.00,-2336.00
19294,-143.00,746.00,232.00,-15572.00,-260.00,2348.00,-2368.00
19311,104.00,629.00,285.00,-15600.00,-360.00,2372.00,-2320.00
19328,148.00,230.00,179.00,-15916.00,-328.00,2596.00,-2320.00
19344,-24.00,158.00,-144.00,-16048.00,-336.00,2464.00,-2336.00
19360,-238.00,33.00,-313.00,-15952.00,-248.00,2628.00,-2336.00
19377,-257.00,60.00,-281.00,-15808.00,-280.00,2508.00,-2368.00
19393,-192.00,441.00,-153.00,-15484.00,-192.00,2132.00,-2320.00
19409,-12.00,485.00,69.00,-15364.00,-324.00,2248.00,-2336.00
19427,243.00,190.00,175.00,-15584.00,-340.00,2260.00,-2304.00
19443,338.00,-50.00,-45.00,-15788.00,-332.00,2612.00,-2304.00
19460,274.00,-53.00,-295.00,-16084.00,-316.00,2504.00,-2336.00
19476,193.00,398.00,-527.00,-15976.00,-332.00,2456.00,-2336.00
19492,226.00,195.00,-584.00,-15696.00,-368.00,2416.00,-2320.00
19509,251.00,125.00,-459.00,-15464.00,-120.00,2328.00,-2336.00
19525,285.00,320.00,-251.00,-15644.00,-56.00,2028.00,-2336.00
19543,366.00,266.00,14.00,-15776.00,-260.00,2168.00,-2320.00
19559,342.00,19.00,-36.00,-16088.00,-312.00,2436.00,-2352.00
19575,183.00,-112.00,-198.00,-15980.00,-236.00,2448.00,-2320.00
19592,57.00,12.00,-364.00,-15808.00,-280.00,2348.00,-2368.00
19608,105.00,175.00,-293.00,-15492.00,-152.00,2080.00,-2352.00
19624,163.00,570.00,-140.00,-15580.00,-196.00,2252.00,-2368.00
19641,340.00,535.00,10.00,-15648.00,-456.00,2216.00,-2352.00
19658,324.00,535.00,-44.00,-15936.00,-336.00,2404.00,-2320.00
19675,126.00,227.00,-267.00,-16008.00,-292.00,2524.00,-2304.00
19691,-11.00,43.00,-507.00,-15752.00,-260.00,2220.00,-2336.00
19707,-18.00,330.00,-299.00,-15596.00,-148.00,2092.00,-2336.00
19724,138.00,233.00,-90.00,-15576.00,-200.00,2208.00,-2304.00
19740,175.00,209.00,-39.00,-15828.00,-192.00,2300.00,-2336.00
19757,20.00,238.00,-100.00,-15920.00,-216.00,2268.00,-2352.00
19774,-75.00,456.00,-164.00,-15984.00,-160.00,2296.00,-2320.00
19790,-145.00,287.00,-144.00,-15692.00,-348.00,2268.00,-2336.00
19807,-62.00,175.00,-172.00,-15760.00,-248.00,2084.00,-2352.00
19823,-34.00,0.00,-112.00,-15656.00,-280.00,2208.00,-2320.00
19840,-40.00,359.00,-177.00,-15888.00,-284.00,2072.00,-2336.00
19856,123.00,602.00,-247.00,-15728.00,-292.00,2048.00,-2368.00
19872,249.00,1142.00,-292.00,-15812.00,-304.00,2260.00,-2352.00
19890,186.00,1218.00,-233.00,-15668.00,-280.00,1992.00,-2336.00
19906,277.00,583.00,-300.00,-15788.00,-328.00,2012.00,-2320.00
19922,357.00,-100.00,-515.00,-15744.00,-420.00,2064.00,-2336.00
19939,399.00,-410.00,-470.00,-15704.00,-360.00,2224.00,-2320.00
19955,390.00,-362.00,-295.00,-15656.00,-288.00,2180.00,-2336.00
19973,293.00,-52.00,-395.00,-15980.00,-160.00,1992.00,-2336.00
19989,258.00,145.00,-542.00,-15780.00,-336.00,1816.00,-2352.00
20005,250.00,143.00,-545.00,-16184.00,-364.00,2100.00,-2336.00
20022,155.00,94.00,-693.00,-15952.00,-216.00,2144.00,-2336.00
20038,-10.00,251.00,-584.00,-15696.00,-252.00,2012.00,-2320.00
20055,-186.00,270.00,-353.00,-15592.00,-180.00,2060.00,-2352.00
20071,-122.00,73.00,-90.00,-15520.00,-400.00,2020.00,-2336.00
20088,-26.00,-108.00,16.00,-15884.00,-292.00,2164.00,-2304.00
20105,-94.00,148.00,-261.00,-15848.00,-476.00,2088.00,-2304.00
20121,-5.00,-18.00,-269.00,-15768.00,-368.00,2164.00,-2304.00
20137,29.00,224.00,-333.00,-15724.00,-356.00,2060.00,-2304.00
20154,60.00,278.00,-155.00,-15536.00,-336.00,1860.00,-2336.00
20170,31.00,225.00,-122.00,-15688.00,-304.00,1904.00,-2304.00
20187,-101.00,255.00,-42.00,-15784.00,-352.00,2032.00,-2368.00
20203,-114.00,10.00,-134.00,-15836.00,-488.00,2072.00,-2384.00
20219,-190.00,25.00,-183.00,-16016.00,-360.00,2064.00,-2320.00
20237,-210.00,23.00,-222.00,-15888.00,-368.00,1980.00,-2336.00
20253,-98.00,-169.00,-179.00,-15632.00,-332.00,1840.00,-2336.00
20270,-84.00,0.00,-94.00,-15696.00,-184.00,2092.00,-2336.00
20286,-99.00,90.00,-81.00,-15708.00,-312.00,2084.00,-2320.00
20302,-105.00,79.00,-54.00,-15840.00,-428.00,2052.00,-2352.00
20319,-94.00,169.00,-103.00,-15832.00,-420.00,2136.00,-2336.00
20335,-144.00,136.00,-219.00,-15728.00,-276.00,1912.00,-2320.00
20352,-182.00,113.00,-211.00,-15580.00,-300.00,2020.00,-2368.00
20368,-89.00,-49.00,-201.00,-15780.00,-324.00,1924.00,-2336.00
20385,73.00,52.00,-213.00,-15832.00,-212.00,2072.00,-2336.00
20402,174.00,-210.00,-307.00,-15816.00,-348.00,1952.00,-2336.00
20418,168.00,-77.00,-331.00,-15696.00,-320.00,2116.00,-2320.00
20434,41.00,-41.00,-322.00,-15660.00,-256.00,2004.00,-2352.00
20451,39.00,60.00,-301.00,-15748.00,-336.00,1952.00,-2352.00
20467,97.00,-111.00,-206.00,-15772.00,-368.00,2044.00,-2320.00
20484,84.00,-114.00,-221.00,-15856.00,-384.00,2144.00,-2336.00
20500,29.00,-255.00,-216.00,-15760.00,-288.00,2136.00,-2336.00
20517,104.00,-325.00,-251.00,-15756.00,-432.00,1980.00,-2304.00
20534,75.00,-166.00,-260.00,-15700.00,-344.00,2012.00,-2320.00
20550,12.00,-255.00,-172.00,-15908.00,-408.00,2136.00,-2320.00
20567,-39.00,-30.00,-297.00,-16116.00,-528.00,2228.00,-2336.00
20583,-6.00,46.00,-333.00,-15700.00,-420.00,1932.00,-2336.00
20599,-38.00,-108.00,-374.00,-15608.00,-280.00,2024.00,-2320.00
20616,-23.00,-235.00,-247.00,-15600.00,-440.00,1936.00,-2336.00
20632,38.00,-262.00,-135.00,-15892.00,-532.00,2008.00,-2304.00
20649,67.00,-62.00,-227.00,-16104.00,-344.00,2148.00,-2320.00
20666,54.00,134.00,-381.00,-16024.00,-300.00,2128.00,-2336.00
20682,35.00,116.00,-397.00,-15768.00,-320.00,2084.00,-2352.00
20699,-21.00,85.00,-273.00,-15456.00,-316.00,2096.00,-2352.00
20715,25.00,2.00,-107.00,-15560.00,-440.00,1964.00,-2352.00
20731,75.00,-177.00,-144.00,-15612.00,-364.00,2000.00,-2336.00
20748,95.00,-357.00,-174.00,-15748.00,-324.00,2016.00,-2320.00
20764,117.00,-100.00,-282.00,-16056.00,-268.00,2220.00,-2320.00
20781,55.00,-143.00,-518.00,-15840.00,-432.00,2372.00,-2336.00
20798,-9.00,-391.00,-634.00,-15780.00,-268.00,2228.00,-2336.00
20814,65.00,-307.00,-516.00,-15604.00,-344.00,2184.00,-2336.00
20831,139.00,-69.00,-269.00,-15532.00,-268.00,1916.00,-2320.00
20847,266.00,-56.00,-201.00,-15568.00,-456.00,1984.00,-2352.00
20864,354.00,-404.00,-254.00,-15868.00,-560.00,2224.00,-2336.00
20880,171.00,-122.00,-599.00,-16232.00,-428.00,2188.00,-2336.00
20896,111.00,-31.00,-579.00,-15876.00,-536.00,2064.00,-2320.00
20914,157.00,-147.00,-400.00,-15892.00,-392.00,2168.00,-2320.00
20930,195.00,-60.00,-413.00,-15472.00,-364.00,2208.00,-2336.00
20946,174.00,-203.00,-191.00,-15632.00,-432.00,2180.00,-2320.00
20963,125.00,109.00,-193.00,-15800.00,-536.00,2364.00,-2320.00
20979,43.00,0.00,-183.00,-15904.00,-516.00,2396.00,-2336.00
20996,-65.00,-28.00,-363.00,-15960.00,-544.00,2232.00,-2320.00
21012,-57.00,-155.00,-271.00,-15576.00,-456.00,2056.00,-2336.00
21029,-44.00,-135.00,-112.00,-15820.00,-368.00,2260.00,-2336.00
21046,92.00,-3.00,19.00,-15884.00,-412.00,2172.00,-2336.00
21062,81.00,-234.00,41.00,-15828.00,-340.00,2280.00,-2336.00
21079,105.00,-608.00,-158.00,-15748.00,-524.00,2132.00,-2320.00
21095,120.00,-1139.00,-409.00,-15768.00,-584.00,2064.00,-2304.00
21111,142.00,-1489.00,-713.00,-15464.00,-568.00,2388.00,-2352.00
21128,112.00,-662.00,-568.00,-15560.00,-360.00,2376.00,-2352.00
21145,96.00,-269.00,-442.00,-15636.00,-324.00,2384.00,-2288.00
21161,278.00,-170.00,-347.00,-15672.00,-572.00,2128.00,-2304.00
21178,509.00,-656.00,-264.00,-16072.00,-528.00,2444.00,-2336.00
21194,335.00,-819.00,-441.00,-15952.00,-520.00,2472.00,-2320.00
21211,92.00,-621.00,-436.00,-15840.00,-448.00,2456.00,-2336.00
21227,-46.00,-131.00,-479.00,-15712.00,-572.00,2384.00,-2336.00
21244,-15.00,-390.00,-306.00,-15504.00,-484.00,2264.00,-2320.00
21261,53.00,-262.00,-67.00,-15540.00,-636.00,2396.00,-2320.00
21277,71.00,-446.00,-49.00,-15808.00,-656.00,2352.00,-2320.00
21294,66.00,-312.00,-115.00,-16252.00,-628.00,2764.00,-2320.00
21310,-22.00,-214.00,-467.00,-15936.00,-504.00,2680.00,-2304.00
21326,0.00,-273.00,-657.00,-15832.00,-524.00,2520.00,-2336.00
21343,117.00,-364.00,-610.00,-15520.00,-604.00,2356.00,-2304.00
21359,250.00,-699.00,-324.00,-15408.00,-592.00,2412.00,-2352.00
21377,274.00,-904.00,-120.00,-15540.00,-468.00,2588.00,-2304.00
21393,162.00,-673.00,-125.00,-16056.00,-576.00,2656.00,-2320.00
21409,91.00,-354.00,-215.00,-16124.00,-536.00,2652.00,-2320.00
21426,52.00,-477.00,-328.00,-15856.00,-564.00,2572.00,-2336.00
21442,66.00,-981.00,-302.00,-15668.00,-500.00,2656.00,-2336.00
21458,23.00,-1563.00,-231.00,-15564.00,-616.00,2560.00,-2288.00
21476,34.00,-1868.00,-118.00,-15556.00,-520.00,2768.00,-2320.00
21492,80.00,-839.00,-31.00,-15732.00,-616.00,2908.00,-2336.00
21509,46.00,-298.00,-91.00,-15816.00,-536.00,2972.00,-2336.00
21525,101.00,12.00,-159.00,-15868.00,-696.00,3088.00,-2336.00
21541,105.00,-312.00,-279.00,-15704.00,-612.00,2900.00,-2304.00
21558,81.00,-480.00,-307.00,-15768.00,-752.00,2752.00,-2320.00
21574,125.00,-785.00,-326.00,-15756.00,-636.00,2760.00,-2304.00
21592,184.00,-842.00,-264.00,-15612.00,-472.00,3008.00,-2336.00
21608,118.00,-625.00,-74.00,-15664.00,-632.00,2860.00,-2320.00
21624,77.00,-404.00,-72.00,-15668.00,-480.00,2888.00,-2352.00
21641,-36.00,-34.00,-57.00,-15876.00,-596.00,3196.00,-2320.00
21657,-126.00,-108.00,-200.00,-16036.00,-700.00,3048.00,-2320.00
21673,-59.00,-226.00,-313.00,-15952.00,-736.00,3088.00,-2336.00
21690,35.00,-481.00,-345.00,-15804.00,-656.00,3160.00,-2336.00
21707,7.00,-726.00,-343.00,-15520.00,-468.00,3152.00,-2304.00
21724,40.00,-283.00,-220.00,-15348.00,-376.00,2892.00,-2320.00
21740,160.00,-427.00,-215.00,-15596.00,-652.00,3044.00,-2320.00
21756,250.00,-180.00,-235.00,-15892.00,-720.00,3272.00,-2336.00
21773,209.00,-279.00,-410.00,-15824.00,-680.00,3188.00,-2352.00
21789,180.00,-594.00,-547.00,-15688.00,-676.00,3092.00,-2352.00
21807,180.00,-631.00,-470.00,-15636.00,-584.00,3004.00,-2336.00
21823,233.00,-304.00,-253.00,-15572.00,-468.00,3024.00,-2320.00
21839,232.00,-587.00,-211.00,-15748.00,-592.00,3260.00,-2336.00
21856,204.00,-498.00,-305.00,-15864.00,-536.00,3336.00,-2320.00
21872,83.00,-497.00,-382.00,-15828.00,-484.00,3288.00,-2352.00
21889,22.00,-523.00,-331.00,-15580.00,-572.00,3404.00,-2304.00
21906,-11.00,-1095.00,-220.00,-15584.00,-684.00,3116.00,-2336.00
21922,-74.00,-568.00,-200.00,-15724.00,-584.00,3252.00,-2320.00
21939,0.00,-616.00,-26.00,-15696.00,-604.00,3320.00,-2320.00
21955,49.00,-603.00,-70.00,-15724.00,-560.00,3400.00,-2320.00
21971,-25.00,-415.00,-34.00,-15800.00,-692.00,3408.00,-2336.00
21988,-12.00,-446.00,22.00,-15732.00,-784.00,3472.00,-2352.00
22004,-59.00,-336.00,-33.00,-15628.00,-624.00,3480.00,-2320.00
22021,-49.00,-605.00,-97.00,-15648.00,-576.00,3236.00,-2320.00
22037,-58.00,-817.00,-169.00,-15536.00,-628.00,3400.00,-2320.00
22053,-10.00,-217.00,-274.00,-15588.00,-612.00,3508.00,-2288.00
22071,2.00,229.00,-358.00,-15540.00,-608.00,3432.00,-2336.00
22087,28.00,484.00,-381.00,-16084.00,-624.00,3448.00,-2336.00
22104,-87.00,735.00,-267.00,-15784.00,-788.00,3508.00,-2336.00
22120,-38.00,124.00,-339.00,-16008.00,-628.00,3540.00,-2352.00
22136,-62.00,-41.00,-467.00,-15628.00,-708.00,3492.00,-2320.00
22153,-168.00,-376.00,-384.00,-15744.00,-752.00,3608.00,-2320.00
22169,-115.00,-124.00,-329.00,-15376.00,-564.00,3264.00,-2336.00
22187,44.00,-118.00,-296.00,-15260.00,-592.00,3280.00,-2336.00
22203,103.00,-392.00,-226.00,-15636.00,-672.00,3568.00,-2352.00
22219,149.00,-407.00,-309.00,-15820.00,-720.00,3432.00,-2304.00
22236,216.00,-463.00,-401.00,-15816.00,-740.00,3308.00,-2320.00
22252,232.00,-340.00,-573.00,-15624.00,-620.00,3492.00,-2320.00
22268,245.00,-453.00,-593.00,-15684.00,-620.00,3556.00,-2304.00
22286,251.00,-388.00,-456.00,-15464.00,-584.00,3336.00,-2352.00
22302,323.00,-459.00,-338.00,-15564.00,-724.00,3376.00,-2304.00
22319,369.00,-432.00,-271.00,-15728.00,-792.00,3616.00,-2352.00
22335,348.00,-385.00,-180.00,-15808.00,-796.00,3576.00,-2320.00
22351,197.00,-702.00,-251.00,-15972.00,-780.00,3556.00,-2336.00
22369,-25.00,-1125.00,-326.00,-15756.00,-656.00,3728.00,-2288.00
22385,-98.00,-834.00,-213.00,-15536.00,-644.00,3492.00,-2336.00
22402,-94.00,-178.00,-9.00,-15372.00,-720.00,3496.00,-2336.00
22418,11.00,-375.00,120.00,-15476.00,-728.00,3580.00,-2336.00
22434,-49.00,-456.00,122.00,-15668.00,-828.00,3628.00,-2336.00
22451,-103.00,-784.00,-105.00,-15808.00,-832.00,3780.00,-2320.00
22467,-150.00,-722.00,-305.00,-15840.00,-832.00,3820.00,-2320.00
22484,-161.00,-485.00,-418.00,-15724.00,-600.00,3788.00,-2336.00
22501,-94.00,225.00,-319.00,-15452.00,-748.00,3612.00,-2352.00
22517,163.00,290.00,-66.00,-15484.00,-716.00,3600.00,-2320.00
22534,251.00,396.00,2.00,-15648.00,-572.00,3652.00,-2336.00
22550,216.00,-106.00,-32.00,-15620.00,-608.00,3952.00,-2336.00
22566,36.00,-430.00,-302.00,-15600.00,-744.00,3788.00,-2304.00
22584,-18.00,-633.00,-415.00,-15596.00,-680.00,3704.00,-2320.00
22600,-55.00,-276.00,-295.00,-15556.00,-600.00,3824.00,-2320.00
22617,22.00,-186.00,-280.00,-15552.00,-652.00,3756.00,-2320.00
22633,261.00,-523.00,-222.00,-15640.00,-716.00,3752.00,-2304.00
22649,255.00,-814.00,-352.00,-15576.00,-708.00,3904.00,-2304.00
22666,260.00,-1009.00,-438.00,-15588.00,-844.00,3832.00,-2352.00
22683,238.00,-949.00,-523.00,-15772.00,-772.00,3888.00,-2336.00
22700,285.00,-1030.00,-589.00,-15824.00,-812.00,4156.00,-2320.00
22716,222.00,-1150.00,-553.00,-15584.00,-696.00,3868.00,-2336.00
22732,257.00,-801.00,-391.00,-15456.00,-708.00,3872.00,-2304.00
22749,332.00,-819.00,-259.00,-15388.00,-608.00,3956.00,-2336.00
22766,375.00,-789.00,-166.00,-15704.00,-908.00,4064.00,-2320.00
22782,230.00,-1027.00,-167.00,-15872.00,-652.00,4264.00,-2336.00
22799,-8.00,-1137.00,-290.00,-15828.00,-744.00,4236.00,-2352.00
22815,-169.00,-1191.00,-389.00,-15456.00,-712.00,4252.00,-2320.00
22832,-231.00,-940.00,-423.00,-15580.00,-732.00,4316.00,-2288.00
22849,-72.00,-309.00,-220.00,-15300.00,-832.00,4136.00,-2320.00
22865,199.00,-687.00,-31.00,-15380.00,-944.00,4172.00,-2368.00
22882,311.00,-880.00,94.00,-15576.00,-776.00,4364.00,-2304.00
22898,125.00,-592.00,33.00,-15652.00,-756.00,4400.00,-2336.00
22915,159.00,-482.00,-162.00,-15772.00,-856.00,4488.00,-2352.00
22931,147.00,-382.00,-159.00,-15756.00,-860.00,4536.00,-2320.00
22948,20.00,-361.00,-258.00,-15512.00,-764.00,4480.00,-2336.00
22965,163.00,-494.00,-170.00,-15284.00,-912.00,4228.00,-2320.00
22981,246.00,-472.00,-164.00,-15324.00,-680.00,4536.00,-2320.00
22998,218.00,-441.00,-140.00,-15280.00,-768.00,4220.00,-2336.00
23014,305.00,-1002.00,-30.00,-15644.00,-704.00,4664.00,-2336.00
23030,201.00,-821.00,-196.00,-15948.00,-772.00,4588.00,-2320.00
23048,116.00,-659.00,-182.00,-15860.00,-712.00,4788.00,-2336.00
23064,24.00,-229.00,-291.00,-15480.00,-596.00,4592.00,-2320.00
23080,30.00,47.00,-185.00,-15180.00,-664.00,4416.00,-2352.00
23097,101.00,-244.00,-31.00,-15368.00,-764.00,4252.00,-2352.00
23113,228.00,-616.00,76.00,-15476.00,-772.00,4408.00,-2352.00
23130,216.00,-778.00,-21.00,-15896.00,-828.00,4748.00,-2336.00
23146,151.00,-550.00,-87.00,-15704.00,-780.00,4812.00,-2336.00
23163,-40.00,-284.00,-106.00,-15480.00,-612.00,4840.00,-2336.00
23180,12.00,-493.00,-96.00,-15264.00,-608.00,4548.00,-2320.00
23196,76.00,-221.00,-41.00,-15424.00,-592.00,4564.00,-2336.00
23213,155.00,-415.00,90.00,-15612.00,-668.00,4640.00,-2320.00
23229,63.00,-949.00,56.00,-15648.00,-688.00,4824.00,-2320.00
23245,-119.00,-1507.00,10.00,-15620.00,-724.00,4872.00,-2352.00
23262,-231.00,-836.00,-3.00,-15504.00,-644.00,4984.00,-2352.00
23278,-253.00,-177.00,61.00,-15272.00,-644.00,4640.00,-2320.00
23294,-148.00,143.00,110.00,-15448.00,-744.00,4800.00,-2336.00
23312,54.00,-109.00,82.00,-15544.00,-860.00,4664.00,-2304.00
23328,88.00,-445.00,-166.00,-15492.00,-768.00,4992.00,-2336.00
23345,155.00,-615.00,-319.00,-15488.00,-948.00,4980.00,-2320.00
23361,56.00,32.00,-380.00,-15648.00,-736.00,4936.00,-2304.00
23377,-154.00,61.00,-422.00,-15872.00,-672.00,5132.00,-2320.00
23394,12.00,-450.00,-403.00,-15244.00,-580.00,4632.00,-2304.00
23410,215.00,-473.00,-329.00,-15048.00,-604.00,4648.00,-2336.00
23428,157.00,-611.00,-254.00,-15356.00,-632.00,4848.00,-2320.00
23444,172.00,-109.00,-79.00,-15644.00,-808.00,5072.00,-2336.00
23460,150.00,-637.00,-46.00,-15576.00,-628.00,5064.00,-2336.00
23477,17.00,-410.00,-181.00,-15656.00,-640.00,5088.00,-2320.00
23493,-5.00,-250.00,-221.00,-15384.00,-576.00,5040.00,-2320.00
23510,15.00,-611.00,-251.00,-15384.00,-588.00,4960.00,-2352.00
23526,110.00,-561.00,-187.00,-15208.00,-672.00,4800.00,-2352.00
23543,152.00,-636.00,-211.00,-15368.00,-748.00,5040.00,-2304.00
23560,292.00,-768.00,-248.00,-15480.00,-788.00,5212.00,-2336.00
23576,217.00,-466.00,-437.00,-15500.00,-704.00,5200.00,-2352.00
23592,234.00,-84.00,-489.00,-15464.00,-628.00,5112.00,-2304.00
23609,267.00,193.00,-554.00,-15352.00,-572.00,4968.00,-2352.00
23626,466.00,-120.00,-466.00,-15224.00,-792.00,5048.00,-2304.00
23643,588.00,-825.00,-299.00,-15400.00,-752.00,5064.00,-2336.00
23659,417.00,-781.00,-221.00,-15456.00,-792.00,5240.00,-2320.00
23675,376.00,-1125.00,-87.00,-15532.00,-712.00,5252.00,-2336.00
23692,213.00,-565.00,-266.00,-15592.00,-624.00,5260.00,-2320.00
23708,61.00,-252.00,-236.00,-15364.00,-580.00,5024.00,-2320.00
23726,84.00,-240.00,-272.00,-15336.00,-640.00,5024.00,-2336.00
23742,229.00,-400.00,-188.00,-15352.00,-600.00,5168.00,-2304.00
23758,151.00,-885.00,-108.00,-15348.00,-748.00,5200.00,-2336.00
23775,-63.00,-978.00,-175.00,-15424.00,-684.00,5416.00,-2336.00
23791,-188.00,-870.00,-170.00,-15492.00,-748.00,5552.00,-2336.00
23808,-273.00,-561.00,-36.00,-15332.00,-664.00,5424.00,-2320.00
23825,-175.00,-273.00,215.00,-15292.00,-788.00,5332.00,-2352.00
23841,-10.00,-421.00,309.00,-15176.00,-800.00,5360.00,-2336.00
23858,140.00,-698.00,239.00,-15568.00,-792.00,5416.00,-2336.00
23874,46.00,-765.00,-5.00,-15452.00,-708.00,5444.00,-2336.00
23890,51.00,-938.00,-235.00,-15448.00,-740.00,5280.00,-2336.00
23907,-32.00,-1161.00,-354.00,-15384.00,-616.00,5588.00,-2336.00
23923,-40.00,-1135.00,-265.00,-15016.00,-572.00,5312.00,-2336.00
23941,224.00,-1280.00,-102.00,-15196.00,-496.00,5460.00,-2352.00
23957,313.00,-477.00,-85.00,-15412.00,-596.00,5740.00,-2304.00
23973,254.00,-568.00,-97.00,-15620.00,-732.00,5788.00,-2304.00
23990,196.00,-300.00,-297.00,-15504.00,-808.00,5644.00,-2368.00
24006,114.00,-408.00,-486.00,-15420.00,-676.00,5556.00,-2304.00
24024,-5.00,-829.00,-565.00,-15148.00,-632.00,5656.00,-2336.00
24040,4.00,-1044.00,-474.00,-15128.00,-728.00,5564.00,-2304.00
24056,129.00,-1201.00,-308.00,-15108.00,-848.00,5788.00,-2320.00
24073,178.00,-860.00,-145.00,-15280.00,-728.00,5932.00,-2336.00
24089,118.00,-654.00,-76.00,-15316.00,-804.00,5848.00,-2320.00
24105,6.00,-700.00,-176.00,-15448.00,-788.00,6044.00,-2320.00
24122,121.00,-1007.00,-236.00,-15360.00,-780.00,5912.00,-2320.00
24139,-1.00,-608.00,-175.00,-15464.00,-564.00,6008.00,-2336.00
24156,-55.00,-369.00,-202.00,-15284.00,-620.00,5900.00,-2368.00
24172,-49.00,-507.00,-179.00,-15116.00,-664.00,5804.00,-2288.00
24188,-42.00,-727.00,-140.00,-15028.00,-756.00,5792.00,-2352.00
24205,8.00,-1005.00,-70.00,-15040.00,-640.00,5924.00,-2304.00
24221,42.00,-1218.00,-24.00,-15304.00,-652.00,6048.00,-2304.00
24238,25.00,-875.00,5.00,-15536.00,-656.00,6288.00,-2304.00
24255,-95.00,-554.00,-1.00,-15404.00,-680.00,6168.00,-2320.00
24271,-180.00,-410.00,-88.00,-15120.00,-696.00,6376.00,-2320.00
24288,-149.00,-423.00,-65.00,-14992.00,-676.00,6212.00,-2320.00
24304,-68.00,-900.00,75.00,-14916.00,-652.00,6052.00,-2336.00
24321,18.00,-1397.00,186.00,-14884.00,-620.00,6044.00,-2336.00
24337,15.00,-1492.00,205.00,-15208.00,-672.00,6244.00,-2320.00
24353,-38.00,-1420.00,134.00,-15360.00,-760.00,6480.00,-2320.00
24370,-110.00,-992.00,36.00,-15344.00,-552.00,6580.00,-2336.00
24387,-103.00,-633.00,-235.00,-15188.00,-604.00,6316.00,-2336.00
24403,19.00,-870.00,-335.00,-15052.00,-640.00,6268.00,-2288.00
24420,179.00,-1273.00,-351.00,-14836.00,-676.00,6288.00,-2368.00
24436,92.00,-1464.00,-310.00,-14908.00,-608.00,6320.00,-2320.00
24453,66.00,-1150.00,-170.00,-15244.00,-684.00,6644.00,-2304.00
24470,-72.00,-339.00,-187.00,-15260.00,-600.00,6724.00,-2304.00
24486,44.00,-596.00,-282.00,-15188.00,-720.00,6848.00,-2352.00
24503,133.00,-658.00,-327.00,-15036.00,-656.00,6824.00,-2320.00
24519,204.00,-175.00,-118.00,-14820.00,-688.00,6652.00,-2304.00
24536,237.00,26.00,-203.00,-14828.00,-780.00,6728.00,-2320.00
24552,439.00,108.00,-334.00,-14844.00,-720.00,6504.00,-2288.00
24569,564.00,15.00,-427.00,-14996.00,-756.00,6608.00,-2304.00
24586,570.00,-860.00,-480.00,-15104.00,-736.00,6728.00,-2336.00
24602,506.00,-767.00,-442.00,-15120.00,-540.00,6680.00,-2320.00
24619,386.00,-598.00,-469.00,-15136.00,-652.00,6740.00,-2304.00
24635,156.00,-576.00,-583.00,-15212.00,-392.00,6860.00,-2304.00
24651,-46.00,-482.00,-456.00,-15192.00,-524.00,6696.00,-2352.00
24669,-181.00,-1432.00,-355.00,-15088.00,-664.00,6792.00,-2304.00
24685,-295.00,-524.00,-106.00,-14864.00,-628.00,6752.00,-2320.00
24701,-290.00,-136.00,79.00,-14864.00,-768.00,6888.00,-2336.00
24718,-189.00,-38.00,174.00,-14904.00,-800.00,6796.00,-2336.00
24734,-62.00,-464.00,61.00,-14948.00,-884.00,6860.00,-2320.00
24751,-3.00,-438.00,3.00,-15064.00,-880.00,7056.00,-2304.00
24767,-67.00,-605.00,-14.00,-14960.00,-812.00,7016.00,-2336.00
24784,-97.00,-361.00,-81.00,-14916.00,-672.00,6884.00,-2336.00
24801,-106.00,-630.00,-164.00,-14696.00,-636.00,6900.00,-2368.00
24817,-48.00,-760.00,-163.00,-14972.00,-760.00,6904.00,-2304.00
24834,-98.00,-245.00,-232.00,-15044.00,-508.00,7132.00,-2352.00
24850,-202.00,-371.00,-222.00,-15016.00,-672.00,6896.00,-2336.00
24866,-1.00,-153.00,-112.00,-15080.00,-688.00,6928.00,-2368.00
24883,61.00,-76.00,-129.00,-14972.00,-668.00,6964.00,-2304.00
24899,149.00,-216.00,-84.00,-14972.00,-612.00,6844.00,-2336.00
24916,144.00,-547.00,-158.00,-15068.00,-780.00,7144.00,-2320.00
24933,-31.00,-599.00,-281.00,-14940.00,-628.00,7140.00,-2320.00
24949,-176.00,-562.00,-354.00,-14904.00,-708.00,7152.00,-2368.00
24966,-205.00,-696.00,-329.00,-14912.00,-736.00,7032.00,-2320.00
24982,-113.00,-1018.00,-118.00,-15064.00,-680.00,7140.00,-2336.00
24999,33.00,-425.00,6.00,-15068.00,-736.00,7204.00,-2320.00
25016,126.00,-140.00,25.00,-14776.00,-592.00,7100.00,-2336.00
25032,195.00,-226.00,86.00,-14880.00,-684.00,7144.00,-2352.00
25049,89.00,-80.00,-106.00,-14760.00,-568.00,7032.00,-2320.00
25065,17.00,-354.00,-267.00,-14920.00,-708.00,7056.00,-2320.00
25081,-94.00,-373.00,-341.00,-14980.00,-676.00,7372.00,-2352.00
25098,-14.00,-540.00,-256.00,-14688.00,-608.00,7080.00,-2304.00
25114,113.00,-88.00,-18.00,-14792.00,-488.00,7036.00,-2336.00
25131,284.00,317.00,128.00,-14772.00,-672.00,7044.00,-2336.00
25148,302.00,9.00,28.00,-15172.00,-700.00,7496.00,-2320.00
25164,62.00,-194.00,-264.00,-14996.00,-672.00,7476.00,-2304.00
25181,-198.00,-564.00,-434.00,-14812.00,-688.00,7344.00,-2336.00
25197,-255.00,-312.00,-342.00,-14976.00,-696.00,7300.00,-2336.00
25213,-193.00,75.00,-179.00,-14608.00,-612.00,7096.00,-2336.00
25230,50.00,-226.00,-21.00,-14708.00,-716.00,7276.00,-2320.00
25246,224.00,-303.00,-36.00,-14856.00,-676.00,7280.00,-2320.00
25264,198.00,-222.00,-131.00,-15008.00,-800.00,7500.00,-2320.00
25280,61.00,-401.00,-279.00,-14916.00,-656.00,7536.00,-2336.00
25296,-50.00,-613.00,-386.00,-14808.00,-640.00,7264.00,-2272.00
25313,-13.00,-455.00,-283.00,-14648.00,-540.00,7216.00,-2320.00
25329,135.00,-540.00,-131.00,-14896.00,-532.00,7360.00,-2320.00
25346,295.00,-834.00,9.00,-14680.00,-672.00,7308.00,-2336.00
25362,220.00,-490.00,37.00,-15056.00,-708.00,7636.00,-2304.00
25379,116.00,-402.00,-137.00,-15020.00,-748.00,7596.00,-2336.00
25396,11.00,-845.00,-411.00,-14876.00,-708.00,7576.00,-2288.00
25412,-6.00,-555.00,-433.00,-14648.00,-812.00,7196.00,-2320.00
25428,72.00,-250.00,-509.00,-14484.00,-736.00,7236.00,-2288.00
25445,242.00,240.00,-355.00,-14612.00,-628.00,7340.00,-2336.00
25461,136.00,-30.00,-504.00,-15108.00,-780.00,7564.00,-2320.00
25479,119.00,-292.00,-660.00,-14760.00,-912.00,7336.00,-2288.00
25495,191.00,-1198.00,-771.00,-14964.00,-860.00,7720.00,-2336.00
25511,129.00,-1005.00,-838.00,-14820.00,-764.00,7432.00,-2320.00
25528,73.00,-819.00,-727.00,-14868.00,-588.00,7576.00,-2336.00
25544,10.00,-986.00,-693.00,-14748.00,-604.00,7740.00,-2320.00
25561,93.00,-156.00,-514.00,-14828.00,-656.00,7600.00,-2320.00
25578,155.00,260.00,-393.00,-14688.00,-720.00,7444.00,-2320.00
25594,152.00,194.00,-241.00,-14764.00,-744.00,7616.00,-2304.00
25611,97.00,45.00,-246.00,-14808.00,-916.00,7552.00,-2320.00
25627,80.00,-464.00,-310.00,-14760.00,-904.00,7676.00,-2352.00
25644,-51.00,-966.00,-395.00,-14572.00,-744.00,7632.00,-2320.00
25660,-33.00,-1020.00,-304.00,-14668.00,-876.00,7636.00,-2336.00
25677,89.00,-362.00,-94.00,-14724.00,-772.00,7636.00,-2336.00
25694,167.00,104.00,123.00,-14740.00,-700.00,7708.00,-2336.00
25710,149.00,195.00,106.00,-14804.00,-748.00,7720.00,-2336.00
25726,18.00,-299.00,46.00,-14716.00,-808.00,7780.00,-2320.00
25743,-262.00,-491.00,-130.00,-14772.00,-800.00,7860.00,-2320.00
25759,-308.00,-366.00,-130.00,-14616.00,-760.00,7712.00,-2336.00
25776,-303.00,-478.00,-115.00,-14696.00,-764.00,7576.00,-2320.00
25793,-108.00,-402.00,-42.00,-14588.00,-760.00,7600.00,-2336.00
25809,66.00,-712.00,11.00,-14540.00,-816.00,7676.00,-2304.00
25826,173.00,-1101.00,1.00,-14688.00,-664.00,7920.00,-2304.00
25842,250.00,-1203.00,30.00,-14612.00,-764.00,7944.00,-2304.00
25859,235.00,-563.00,-134.00,-14816.00,-752.00,8232.00,-2304.00
25875,47.00,-401.00,-280.00,-14632.00,-792.00,7968.00,-2304.00
25892,-62.00,-797.00,-455.00,-14372.00,-808.00,7880.00,-2336.00
25909,-8.00,-757.00,-431.00,-14384.00,-812.00,7756.00,-2336.00
25925,182.00,-942.00,-351.00,-14384.00,-736.00,7680.00,-2336.00
25942,288.00,-1085.00,-253.00,-14620.00,-824.00,8044.00,-2320.00
25958,353.00,-1070.00,-215.00,-14688.00,-784.00,8080.00,-2304.00
25974,187.00,-1308.00,-290.00,-14952.00,-808.00,8284.00,-2320.00
25992,9.00,-1102.00,-342.00,-14536.00,-824.00,8376.00,-2320.00
26008,-75.00,-849.00,-200.00,-14588.00,-676.00,8064.00,-2320.00
26024,-73.00,-341.00,-48.00,-14268.00,-712.00,7884.00,-2320.00
26041,135.00,-914.00,149.00,-14372.00,-760.00,7752.00,-2320.00
26057,237.00,-866.00,265.00,-14456.00,-852.00,8060.00,-2304.00
26074,166.00,-1068.00,244.00,-14472.00,-776.00,8300.00,-2320.00
26091,-30.00,-1499.00,47.00,-14476.00,-960.00,8364.00,-2336.00
26107,-147.00,-1272.00,-74.00,-14624.00,-724.00,8676.00,-2336.00
26124,-114.00,-511.00,-112.00,-14504.00,-800.00,8216.00,-2320.00
26140,128.00,-519.00,-13.00,-14216.00,-768.00,8300.00,-2336.00
26157,317.00,-1118.00,-49.00,-14540.00,-764.00,8424.00,-2336.00
26173,355.00,-1102.00,-64.00,-14196.00,-684.00,8576.00,-2304.00
26190,141.00,-464.00,-273.00,-14496.00,-768.00,8744.00,-2320.00
26207,114.00,-212.00,-379.00,-14536.00,-936.00,8672.00,-2304.00
26223,78.00,-553.00,-281.00,-14364.00,-696.00,8548.00,-2320.00
26240,35.00,-69.00,-222.00,-14388.00,-712.00,8520.00,-2304.00
26256,107.00,-151.00,-193.00,-14272.00,-748.00,8408.00,-2304.00
26272,245.00,-212.00,-216.00,-14456.00,-740.00,8628.00,-2336.00
26290,-21.00,-313.00,-360.00,-14500.00,-772.00,8788.00,-2320.00
26306,-95.00,-976.00,-404.00,-14260.00,-872.00,8612.00,-2304.00
26322,-168.00,-1021.00,-450.00,-14224.00,-764.00,8516.00,-2304.00
26339,15.00,-1139.00,-304.00,-14020.00,-780.00,8412.00,-2288.00
26355,208.00,-779.00,-90.00,-14472.00,-736.00,8868.00,-2336.00
26373,198.00,-85.00,-45.00,-14456.00,-700.00,8908.00,-2304.00
26389,151.00,-394.00,-253.00,-14328.00,-700.00,8972.00,-2320.00
26405,78.00,-1235.00,-414.00,-14224.00,-852.00,8768.00,-2320.00
26422,-37.00,-865.00,-545.00,-14100.00,-688.00,8836.00,-2336.00
26438,38.00,-1143.00,-483.00,-13924.00,-752.00,8716.00,-2288.00
26455,174.00,-610.00,-421.00,-14052.00,-864.00,8816.00,-2352.00
26472,420.00,-662.00,-417.00,-14172.00,-760.00,8708.00,-2272.00
26488,521.00,-1201.00,-367.00,-14196.00,-824.00,8852.00,-2288.00
26505,333.00,-734.00,-422.00,-14264.00,-704.00,9152.00,-2304.00
26521,114.00,-22.00,-474.00,-14416.00,-956.00,9364.00,-2320.00
26537,-67.00,-450.00,-438.00,-14252.00,-764.00,9172.00,-2352.00
26554,-23.00,-432.00,-290.00,-14140.00,-796.00,8896.00,-2304.00
26571,15.00,69.00,-68.00,-14016.00,-576.00,8816.00,-2272.00
26588,53.00,309.00,-16.00,-13992.00,-836.00,8896.00,-2336.00
26604,165.00,-384.00,-51.00,-14004.00,-988.00,8916.00,-2336.00
26620,164.00,-762.00,-146.00,-14288.00,-948.00,9016.00,-2336.00
26637,182.00,-179.00,-107.00,-14420.00,-780.00,9136.00,-2336.00
26653,96.00,334.00,15.00,-14164.00,-708.00,8916.00,-2304.00
26670,57.00,304.00,20.00,-14044.00,-708.00,9032.00,-2288.00
26686,10.00,131.00,32.00,-13992.00,-708.00,8916.00,-2320.00
26702,-48.00,-130.00,-49.00,-14060.00,-796.00,8960.00,-2320.00
26720,49.00,-425.00,-58.00,-14172.00,-776.00,8988.00,-2320.00
26736,126.00,167.00,-12.00,-14300.00,-744.00,9252.00,-2320.00
26753,92.00,739.00,-41.00,-14000.00,-908.00,9068.00,-2288.00
26769,137.00,287.00,-88.00,-14092.00,-680.00,9056.00,-2352.00
26785,61.00,-86.00,-166.00,-14280.00,-784.00,9024.00,-2304.00
26802,-10.00,65.00,-183.00,-14364.00,-744.00,9164.00,-2272.00
26818,-30.00,446.00,-230.00,-14220.00,-752.00,8928.00,-2336.00
26834,-7.00,381.00,-292.00,-14124.00,-752.00,8748.00,-2304.00
26851,-18.00,-93.00,-306.00,-14064.00,-724.00,8728.00,-2304.00
26867,45.00,-363.00,-294.00,-14072.00,-764.00,8796.00,-2336.00
26885,91.00,-1111.00,-221.00,-14112.00,-820.00,8972.00,-2320.00
26901,183.00,-844.00,-174.00,-14364.00,-940.00,8944.00,-2320.00
26917,108.00,-597.00,-238.00,-14296.00,-780.00,9164.00,-2336.00
26934,16.00,-532.00,-241.00,-14236.00,-744.00,9256.00,-2320.00
26950,25.00,-894.00,-268.00,-14060.00,-668.00,8968.00,-2320.00
26967,38.00,-899.00,-128.00,-13904.00,-712.00,8896.00,-2304.00
26984,136.00,-590.00,-29.00,-14064.00,-720.00,9128.00,-2336.00
27000,131.00,-331.00,-16.00,-14240.00,-848.00,9208.00,-2352.00
27017,59.00,-1027.00,-159.00,-14136.00,-764.00,9320.00,-2288.00
27033,-14.00,-1675.00,-195.00,-14200.00,-760.00,9364.00,-2304.00
27049,-33.00,-1159.00,-144.00,-14204.00,-720.00,9432.00,-2320.00
27066,70.00,-647.00,-49.00,-13840.00,-840.00,9488.00,-2320.00
27083,109.00,-352.00,116.00,-13924.00,-812.00,9408.00,-2352.00
27100,80.00,-159.00,39.00,-13888.00,-836.00,9284.00,-2304.00
27116,111.00,252.00,-9.00,-13948.00,-824.00,9212.00,-2336.00
27132,3.00,-187.00,-158.00,-14160.00,-824.00,9268.00,-2336.00
27149,-50.00,-583.00,-163.00,-14120.00,-664.00,9484.00,-2336.00
27165,-26.00,-1226.00,-149.00,-14040.00,-776.00,9340.00,-2304.00
27182,85.00,-779.00,-119.00,-13972.00,-676.00,9444.00,-2320.00
27198,220.00,-539.00,-43.00,-13960.00,-712.00,9412.00,-2304.00
27215,145.00,-361.00,-84.00,-14016.00,-680.00,9532.00,-2304.00
27232,32.00,-473.00,-228.00,-14108.00,-716.00,9660.00,-2304.00
27248,51.00,-782.00,-186.00,-13908.00,-692.00,9464.00,-2304.00
27265,67.00,-458.00,-110.00,-13896.00,-516.00,9472.00,-2320.00
27281,31.00,-589.00,21.00,-13868.00,-756.00,9464.00,-2320.00
27297,-53.00,-764.00,-118.00,-13764.00,-692.00,9508.00,-2320.00
27314,-42.00,-1552.00,-204.00,-13980.00,-732.00,9600.00,-2304.00
27331,-82.00,-2264.00,-216.00,-13920.00,-736.00,9656.00,-2320.00
27347,-72.00,-2717.00,-150.00,-13596.00,-616.00,9636.00,-2336.00
27364,14.00,-2716.00,-103.00,-13772.00,-860.00,9848.00,-2336.00
27380,109.00,-1455.00,-142.00,-13536.00,-892.00,9964.00,-2320.00
27397,217.00,-946.00,-170.00,-13708.00,-756.00,9960.00,-2304.00
27414,302.00,-761.00,-207.00,-13596.00,-744.00,9888.00,-2320.00
27430,237.00,-1336.00,-336.00,-13720.00,-720.00,9860.00,-2336.00
27447,78.00,-1576.00,-495.00,-13568.00,-656.00,10088.00,-2320.00
27463,-163.00,-601.00,-564.00,-13628.00,-748.00,10136.00,-2336.00
27480,-51.00,142.00,-407.00,-13724.00,-744.00,10160.00,-2304.00
27497,171.00,285.00,-36.00,-13844.00,-672.00,10220.00,-2304.00
27513,168.00,-4.00,4.00,-13652.00,-752.00,10088.00,-2320.00
27530,31.00,-40.00,49.00,-13528.00,-732.00,10192.00,-2304.00
27546,-339.00,-25.00,-117.00,-13728.00,-844.00,10076.00,-2320.00
27563,-169.00,-551.00,-176.00,-13548.00,-824.00,10004.00,-2304.00
27579,19.00,-1174.00,-109.00,-13608.00,-764.00,9992.00,-2320.00
27596,125.00,-1105.00,19.00,-13300.00,-656.00,9912.00,-2336.00
27613,200.00,-1104.00,84.00,-13364.00,-772.00,9968.00,-2272.00
27629,177.00,-834.00,130.00,-13544.00,-796.00,10464.00,-2288.00
27645,-183.00,-436.00,-43.00,-13732.00,-712.00,10492.00,-2304.00
27662,-332.00,-873.00,-157.00,-13668.00,-700.00,10388.00,-2288.00
27679,-202.00,-998.00,-75.00,-13568.00,-652.00,10180.00,-2320.00
27696,-128.00,-311.00,-11.00,-13336.00,-640.00,10196.00,-2288.00
27712,113.00,-963.00,188.00,-13124.00,-736.00,10092.00,-2304.00
27728,88.00,-1092.00,205.00,-13440.00,-832.00,10464.00,-2288.00
27745,-59.00,-592.00,103.00,-13564.00,-816.00,10680.00,-2304.00
27762,-184.00,-165.00,-78.00,-13696.00,-892.00,10420.00,-2320.00
27779,-333.00,-593.00,-305.00,-13424.00,-704.00,10528.00,-2304.00
27795,-145.00,-1444.00,-313.00,-13236.00,-688.00,10372.00,-2288.00
27811,78.00,-1815.00,-56.00,-13216.00,-604.00,10268.00,-2352.00
27828,137.00,-861.00,-21.00,-13212.00,-568.00,10296.00,-2272.00
27845,82.00,-908.00,-65.00,-13432.00,-720.00,10632.00,-2320.00
27862,50.00,-1427.00,-301.00,-13356.00,-700.00,10748.00,-2288.00
27878,13.00,-2029.00,-420.00,-13408.00,-708.00,10712.00,-2304.00
27894,58.00,-1840.00,-328.00,-13152.00,-604.00,10632.00,-2336.00
27912,20.00,-806.00,-271.00,-13156.00,-560.00,10684.00,-2288.00
27928,130.00,-1228.00,-149.00,-13060.00,-640.00,10692.00,-2304.00
27944,172.00,-1526.00,-56.00,-13288.00,-612.00,11044.00,-2320.00
27961,14.00,-2057.00,-18.00,-13132.00,-552.00,10956.00,-2304.00
27977,-112.00,-2107.00,-51.00,-13060.00,-672.00,11032.00,-2288.00
27995,-111.00,-1593.00,24.00,-12852.00,-764.00,11124.00,-2288.00
28011,-99.00,-560.00,-66.00,-13148.00,-860.00,11204.00,-2336.00
28027,83.00,69.00,-2.00,-12956.00,-788.00,11048.00,-2336.00
28044,92.00,-810.00,15.00,-12924.00,-720.00,11016.00,-2336.00
28060,124.00,-1407.00,-66.00,-12920.00,-860.00,10932.00,-2304.00
28077,96.00,-1906.00,-132.00,-12944.00,-708.00,11384.00,-2320.00
28094,81.00,-1107.00,-128.00,-12860.00,-784.00,11132.00,-2336.00
28110,33.00,-330.00,-175.00,-12972.00,-712.00,11256.00,-2304.00
28127,72.00,-630.00,-213.00,-12832.00,-648.00,11128.00,-2272.00
28143,159.00,-589.00,-181.00,-12904.00,-668.00,11376.00,-2320.00
28161,144.00,-522.00,-121.00,-12804.00,-576.00,11272.00,-2272.00
28177,293.00,-760.00,-58.00,-12832.00,-704.00,11296.00,-2304.00
28193,199.00,-313.00,-11.00,-12900.00,-628.00,11360.00,-2304.00
28210,55.00,-738.00,-134.00,-12828.00,-660.00,11324.00,-2320.00
28226,-67.00,-1032.00,-301.00,-12872.00,-708.00,11592.00,-2304.00
28243,-38.00,-1602.00,-327.00,-12888.00,-772.00,11364.00,-2320.00
28260,112.00,-1706.00,-208.00,-12756.00,-684.00,11464.00,-2304.00
28276,201.00,-2159.00,-114.00,-12684.00,-596.00,11460.00,-2304.00
28293,189.00,-2180.00,-262.00,-12548.00,-588.00,11648.00,-2336.00
28310,106.00,-1545.00,-422.00,-12652.00,-720.00,11632.00,-2320.00
28326,85.00,-816.00,-439.00,-12624.00,-800.00,11872.00,-2288.00
28343,184.00,-138.00,-394.00,-12740.00,-680.00,11728.00,-2304.00
28359,344.00,-16.00,-273.00,-12880.00,-620.00,11920.00,-2320.00
28377,401.00,-612.00,-243.00,-12508.00,-536.00,11568.00,-2304.00
28393,293.00,-674.00,-226.00,-12636.00,-576.00,11808.00,-2320.00
28409,94.00,-281.00,-139.00,-12524.00,-420.00,11744.00,-2304.00
28426,18.00,-164.00,-40.00,-12508.00,-584.00,11704.00,-2320.00
28442,16.00,46.00,57.00,-12536.00,-700.00,11864.00,-2320.00
28459,43.00,-27.00,124.00,-12468.00,-704.00,11844.00,-2320.00
28476,21.00,-766.00,17.00,-12588.00,-736.00,11784.00,-2336.00
28492,142.00,-1268.00,-149.00,-12484.00,-808.00,11852.00,-2304.00
28509,263.00,-1040.00,-217.00,-12580.00,-560.00,11852.00,-2336.00
28525,322.00,-797.00,-156.00,-12460.00,-588.00,11800.00,-2320.00
28541,255.00,-1156.00,-177.00,-12464.00,-560.00,11796.00,-2336.00
28559,98.00,-1799.00,-171.00,-12636.00,-560.00,11924.00,-2304.00
28575,-21.00,-2962.00,-209.00,-12316.00,-556.00,12016.00,-2320.00
28592,5.00,-2952.00,-71.00,-12300.00,-792.00,12280.00,-2336.00
28608,55.00,-1893.00,-223.00,-12228.00,-768.00,12220.00,-2320.00
28625,104.00,-913.00,-254.00,-12216.00,-812.00,12068.00,-2336.00
28642,141.00,-3637.00,-239.00,-12096.00,-692.00,12092.00,-2320.00
28658,399.00,-6071.00,-80.00,-11784.00,-684.00,12084.00,-2288.00
28675,373.00,-5276.00,-269.00,-11708.00,-680.00,12552.00,-2304.00
28692,197.00,-3355.00,-312.00,-11744.00,-568.00,13132.00,-2336.00
28708,67.00,-966.00,-319.00,-11824.00,-628.00,13024.00,-2304.00
28725,-13.00,59.00,-399.00,-11656.00,-548.00,12832.00,-2336.00
28741,99.00,1063.00,-321.00,-11488.00,-576.00,12604.00,-2320.00
28759,211.00,1004.00,-352.00,-11748.00,-760.00,12596.00,-2304.00
28775,264.00,670.00,-399.00,-11804.00,-652.00,12768.00,-2304.00
28791,281.00,705.00,-288.00,-11872.00,-592.00,12836.00,-2288.00
28808,268.00,216.00,-137.00,-11836.00,-588.00,12696.00,-2304.00
28825,122.00,-92.00,-218.00,-11840.00,-588.00,12684.00,-2320.00
28841,90.00,-365.00,-279.00,-11616.00,-532.00,12528.00,-2304.00
28858,483.00,-1448.00,-102.00,-11656.00,-656.00,12584.00,-2320.00
28874,566.00,8.00,49.00,-11820.00,-408.00,12780.00,-2304.00
28891,337.00,388.00,117.00,-12016.00,-436.00,12832.00,-2336.00
28907,141.00,-819.00,-27.00,-11876.00,-832.00,12836.00,-2320.00
28924,158.00,-1775.00,-155.00,-11860.00,-708.00,12984.00,-2304.00
28941,28.00,-1299.00,-118.00,-11616.00,-572.00,12792.00,-2336.00
28957,-25.00,-845.00,-66.00,-11552.00,-448.00,12772.00,-2336.00
28974,81.00,-312.00,-94.00,-11724.00,-540.00,12688.00,-2288.00
28990,133.00,-261.00,-147.00,-11620.00,-600.00,12772.00,-2336.00
29007,67.00,-51.00,-198.00,-11432.00,-532.00,12864.00,-2288.00
29024,89.00,503.00,-130.00,-11616.00,-648.00,13068.00,-2352.00
29040,119.00,394.00,-168.00,-11764.00,-632.00,12880.00,-2304.00
29057,119.00,238.00,-188.00,-11836.00,-628.00,12972.00,-2352.00
29073,94.00,109.00,-306.00,-11564.00,-528.00,12868.00,-2272.00
29090,80.00,-44.00,-383.00,-11736.00,-564.00,12932.00,-2320.00
29107,80.00,-927.00,-386.00,-11552.00,-604.00,12660.00,-2320.00
29123,-4.00,-816.00,-346.00,-11612.00,-700.00,12984.00,-2304.00
29139,68.00,-1427.00,-353.00,-11640.00,-616.00,12748.00,-2320.00
29156,186.00,-1998.00,-258.00,-11600.00,-600.00,13092.00,-2336.00
29173,142.00,-960.00,-232.00,-11556.00,-632.00,13180.00,-2320.00
29190,106.00,-695.00,-359.00,-11480.00,-704.00,13136.00,-2320.00
29206,190.00,-733.00,-421.00,-11372.00,-616.00,12988.00,-2304.00
29222,207.00,-274.00,-432.00,-11428.00,-540.00,13040.00,-2320.00
29240,349.00,83.00,-320.00,-11360.00,-612.00,12884.00,-2336.00
29256,345.00,-594.00,-271.00,-11640.00,-676.00,13092.00,-2320.00
29273,216.00,-2002.00,-259.00,-11424.00,-672.00,13148.00,-2336.00
29289,60.00,-2390.00,-374.00,-11320.00,-552.00,13216.00,-2336.00
29306,96.00,-2211.00,-464.00,-11228.00,-652.00,13024.00,-2320.00
29323,47.00,-1889.00,-415.00,-11232.00,-572.00,13324.00,-2304.00
29339,117.00,-823.00,-353.00,-11312.00,-704.00,13624.00,-2304.00
29356,165.00,401.00,-193.00,-11132.00,-512.00,13388.00,-2320.00
29372,109.00,1210.00,-130.00,-11280.00,-672.00,13356.00,-2304.00
29389,113.00,760.00,-122.00,-11168.00,-528.00,13148.00,-2304.00
29406,-26.00,-81.00,-104.00,-11316.00,-692.00,13416.00,-2304.00
29422,28.00,-903.00,-67.00,-11180.00,-624.00,13264.00,-2352.00
29438,108.00,-1691.00,-27.00,-11144.00,-660.00,13264.00,-2304.00
29455,256.00,-1076.00,-60.00,-11244.00,-616.00,13200.00,-2320.00
29472,221.00,-379.00,-73.00,-11212.00,-664.00,13440.00,-2304.00
29489,203.00,48.00,-175.00,-11172.00,-672.00,13304.00,-2304.00
29505,147.00,-140.00,-178.00,-11268.00,-656.00,13280.00,-2288.00
29521,408.00,-690.00,-169.00,-11236.00,-700.00,13524.00,-2320.00
29539,42.00,200.00,-295.00,-10572.00,-504.00,13384.00,-2304.00
29555,86.00,-492.00,64.00,-11112.00,-616.00,13264.00,-2352.00
29572,111.00,-275.00,65.00,-11328.00,-620.00,13712.00,-2320.00
29588,246.00,-107.00,-16.00,-11148.00,-728.00,13336.00,-2304.00
29604,452.00,-1042.00,-23.00,-11088.00,-592.00,13372.00,-2288.00
29621,351.00,-894.00,-146.00,-11064.00,-508.00,13544.00,-2336.00
29638,-27.00,-167.00,-275.00,-11136.00,-624.00,13792.00,-2320.00
29655,-151.00,1.00,-293.00,-11092.00,-692.00,13528.00,-2336.00
29671,-143.00,-503.00,-265.00,-11024.00,-636.00,13416.00,-2336.00
29687,77.00,-1016.00,-328.00,-10932.00,-596.00,13372.00,-2336.00
29705,182.00,-1140.00,-276.00,-10924.00,-556.00,13332.00,-2336.00
29721,275.00,-509.00,-319.00,-11048.00,-584.00,13584.00,-2304.00
29737,169.00,-939.00,-382.00,-11020.00,-500.00,13748.00,-2304.00
29754,63.00,-1183.00,-415.00,-11064.00,-612.00,13836.00,-2320.00
29771,93.00,-2923.00,-417.00,-11164.00,-504.00,13932.00,-2304.00
29788,209.00,-3145.00,-378.00,-10592.00,-424.00,13548.00,-2320.00
29804,270.00,-2264.00,-289.00,-10668.00,-428.00,13816.00,-2320.00
29820,334.00,-1558.00,-132.00,-10628.00,-536.00,13800.00,-2320.00
29838,335.00,-1188.00,-201.00,-10812.00,-608.00,14128.00,-2336.00
29854,101.00,-880.00,-302.00,-10760.00,-660.00,14216.00,-2304.00
29871,-36.00,-1189.00,-255.00,-10644.00,-484.00,14068.00,-2288.00
29887,-47.00,-792.00,-192.00,-10404.00,-608.00,13876.00,-2304.00
29904,2.00,-350.00,-156.00,-10432.00,-496.00,14048.00,-2320.00
29921,165.00,-710.00,-134.00,-10568.00,-740.00,13848.00,-2320.00
29937,321.00,-730.00,-124.00,-10440.00,-660.00,14172.00,-2320.00
29954,372.00,-278.00,-159.00,-10608.00,-788.00,14216.00,-2336.00
29970,258.00,-996.00,-207.00,-10488.00,-548.00,14268.00,-2288.00
29987,118.00,-1183.00,-263.00,-10328.00,-476.00,13984.00,-2304.00
30004,80.00,-1715.00,-268.00,-10352.00,-528.00,14160.00,-2304.00
30020,244.00,-1848.00,-243.00,-10440.00,-596.00,14240.00,-2288.00
30036,369.00,-1125.00,-220.00,-10408.00,-436.00,14256.00,-2320.00
30054,339.00,-908.00,-215.00,-10416.00,-408.00,14292.00,-2336.00
30070,179.00,-1660.00,-253.00,-10312.00,-632.00,14528.00,-2320.00
30087,147.00,-1854.00,-276.00,-10344.00,-560.00,14492.00,-2288.00
30104,160.00,-1477.00,-238.00,-10068.00,-616.00,14468.00,-2304.00
30120,166.00,-813.00,-131.00,-9932.00,-528.00,14176.00,-2304.00
30137,233.00,-657.00,-147.00,-10056.00,-644.00,14280.00,-2320.00
30153,255.00,-333.00,-279.00,-10060.00,-524.00,14380.00,-2304.00
30170,300.00,-857.00,-349.00,-10112.00,-564.00,14796.00,-2288.00
30187,300.00,-1431.00,-372.00,-9988.00,-572.00,14680.00,-2320.00
30203,174.00,-1066.00,-302.00,-9952.00,-540.00,14572.00,-2304.00
30220,97.00,-576.00,-417.00,-9992.00,-520.00,14508.00,-2320.00
30236,155.00,-607.00,-353.00,-9944.00,-608.00,14380.00,-2304.00
30254,271.00,-148.00,-312.00,-9920.00,-604.00,14368.00,-2304.00
30270,482.00,-505.00,-325.00,-10156.00,-540.00,14420.00,-2320.00
30286,494.00,-1434.00,-230.00,-10124.00,-360.00,14848.00,-2304.00
30303,184.00,-1764.00,-179.00,-10064.00,-572.00,14908.00,-2304.00
30320,-88.00,-2365.00,-177.00,-9748.00,-324.00,14880.00,-2304.00
30337,-163.00,-1548.00,-154.00,-9804.00,-328.00,14532.00,-2304.00
30353,84.00,-1105.00,-132.00,-9572.00,-504.00,14588.00,-2336.00
30369,349.00,-1031.00,-23.00,-9708.00,-508.00,14912.00,-2304.00
30386,394.00,-983.00,0.00,-9564.00,-440.00,14800.00,-2320.00
30402,324.00,-2008.00,35.00,-9760.00,-508.00,14932.00,-2320.00
30419,25.00,-1695.00,-33.00,-9632.00,-556.00,15048.00,-2304.00
30436,-179.00,-1500.00,-170.00,-9380.00,-452.00,15004.00,-2336.00
30452,-130.00,-1225.00,-136.00,-9508.00,-468.00,14800.00,-2320.00
30469,125.00,-985.00,-70.00,-9440.00,-492.00,14892.00,-2288.00
30485,372.00,-528.00,-22.00,-9444.00,-496.00,15004.00,-2288.00
30502,443.00,-167.00,21.00,-9552.00,-384.00,15164.00,-2336.00
30519,328.00,-913.00,-52.00,-9568.00,-428.00,15212.00,-2304.00
30535,132.00,-1101.00,-81.00,-9484.00,-512.00,15180.00,-2304.00
30552,-17.00,-1429.00,-121.00,-9352.00,-516.00,15164.00,-2352.00
30568,-113.00,-1462.00,-131.00,-9312.00,-532.00,14852.00,-2336.00
30584,69.00,-2137.00,-51.00,-9228.00,-440.00,14996.00,-2304.00
30602,281.00,-2602.00,-53.00,-9296.00,-520.00,15192.00,-2336.00
30618,397.00,-2938.00,-11.00,-9036.00,-552.00,15280.00,-2304.00
30635,329.00,-2253.00,18.00,-8984.00,-336.00,15568.00,-2304.00
30651,158.00,-1694.00,7.00,-8916.00,-444.00,15452.00,-2336.00
30667,120.00,-1847.00,-23.00,-8876.00,-496.00,15344.00,-2320.00
30684,150.00,-1397.00,-97.00,-8704.00,-504.00,15320.00,-2320.00
30701,312.00,-666.00,-90.00,-8740.00,-432.00,15452.00,-2304.00
30717,443.00,-368.00,-44.00,-8904.00,-304.00,15400.00,-2320.00
30734,603.00,-1106.00,-113.00,-9008.00,-476.00,15480.00,-2320.00
30750,770.00,-2159.00,-211.00,-8676.00,-400.00,15772.00,-2336.00
30767,345.00,-1090.00,-333.00,-8532.00,-236.00,15800.00,-2320.00
30784,48.00,22.00,-189.00,-8616.00,-260.00,15504.00,-2304.00
30800,247.00,607.00,-131.00,-8764.00,-316.00,15492.00,-2304.00
30817,436.00,1027.00,-77.00,-8644.00,-204.00,15680.00,-2320.00
30833,286.00,848.00,-59.00,-8700.00,-296.00,15668.00,-2304.00
30850,122.00,484.00,-90.00,-8928.00,-400.00,15884.00,-2304.00
30866,-124.00,-897.00,-29.00,-8584.00,-512.00,15336.00,-2336.00
30883,-13.00,-1538.00,133.00,-8668.00,-372.00,15396.00,-2320.00
30900,139.00,-1007.00,278.00,-8756.00,-312.00,15780.00,-2304.00
30916,286.00,-578.00,150.00,-8640.00,-372.00,15660.00,-2320.00
30932,114.00,-427.00,36.00,-8552.00,-372.00,15532.00,-2288.00
30949,-62.00,-530.00,-137.00,-8672.00,-352.00,15592.00,-2304.00
30965,17.00,-554.00,-163.00,-8528.00,-328.00,15524.00,-2304.00
30983,240.00,-376.00,-101.00,-8600.00,-296.00,15632.00,-2304.00
30999,321.00,-728.00,-93.00,-8572.00,-344.00,15624.00,-2288.00
31015,271.00,-969.00,-146.00,-8556.00,-352.00,15992.00,-2320.00
31032,120.00,-1805.00,-190.00,-8372.00,-208.00,15772.00,-2304.00
31048,5.00,-1539.00,-264.00,-8576.00,-212.00,16068.00,-2288.00
31065,-35.00,-1373.00,-260.00,-8344.00,-304.00,15752.00,-2304.00
31082,150.00,-1003.00,-120.00,-8356.00,-264.00,15876.00,-2336.00
31098,177.00,-1176.00,-199.00,-8324.00,-312.00,15712.00,-2320.00
31115,224.00,-1140.00,-257.00,-8316.00,-212.00,16024.00,-2336.00
31131,56.00,-1244.00,-285.00,-8224.00,-344.00,16016.00,-2336.00
31149,-29.00,-1445.00,-289.00,-8168.00,-292.00,16012.00,-2336.00
31165,-196.00,-1295.00,-275.00,-8120.00,-308.00,16000.00,-2256.00
31181,-62.00,-1305.00,-376.00,-8112.00,-312.00,15816.00,-2304.00
31198,156.00,-1482.00,-371.00,-8140.00,-312.00,15848.00,-2352.00
31214,378.00,-1782.00,-435.00,-7972.00,-388.00,15896.00,-2336.00
31232,367.00,-1249.00,-403.00,-8040.00,-292.00,16168.00,-2320.00
31248,148.00,-674.00,-296.00,-7948.00,-272.00,16088.00,-2336.00
31264,37.00,-682.00,-172.00,-8052.00,-240.00,16312.00,-2320.00
