t,gx,gy,gz,ax,ay,az,temp
3,90.00,-12.00,-187.00,904.00,-108.00,18772.00,-2832.00
59,59.00,12.00,-197.00,984.00,-260.00,18744.00,-2848.00
115,83.00,4.00,-171.00,944.00,-176.00,18708.00,-2848.00
172,81.00,-13.00,-184.00,908.00,-188.00,18576.00,-2816.00
228,95.00,-18.00,-176.00,1056.00,-220.00,18656.00,-2848.00
284,84.00,6.00,-159.00,892.00,-240.00,18900.00,-2832.00
340,74.00,-29.00,-187.00,988.00,-232.00,18744.00,-2832.00
397,67.00,-14.00,-179.00,936.00,-252.00,18728.00,-2832.00
453,118.00,38.00,-196.00,1012.00,-328.00,18776.00,-2816.00
509,89.00,-12.00,-156.00,884.00,-244.00,18736.00,-2848.00
566,82.00,-20.00,-183.00,1068.00,-76.00,18672.00,-2864.00
622,106.00,-10.00,-183.00,964.00,-176.00,18580.00,-2832.00
678,77.00,2.00,-199.00,856.00,-188.00,18620.00,-2848.00
735,70.00,14.00,-153.00,1072.00,-232.00,18820.00,-2864.00
791,103.00,-3.00,-166.00,1092.00,-324.00,18640.00,-2848.00
847,83.00,4.00,-183.00,952.00,-164.00,18568.00,-2848.00
904,73.00,-15.00,-185.00,1032.00,-204.00,18716.00,-2816.00
960,87.00,-1.00,-211.00,1028.00,-208.00,18876.00,-2864.00
1016,79.00,-8.00,-188.00,948.00,-232.00,18648.00,-2880.00
1073,93.00,-33.00,-175.00,988.00,-212.00,18536.00,-2848.00
1129,92.00,-17.00,-196.00,864.00,-164.00,18904.00,-2864.00
1185,98.00,-8.00,-189.00,1024.00,-200.00,18816.00,-2848.00
1242,82.00,-1.00,-174.00,1000.00,-292.00,18764.00,-2832.00
1298,96.00,-30.00,-167.00,860.00,-224.00,18652.00,-2848.00
1354,80.00,4.00,-179.00,1024.00,-188.00,18756.00,-2832.00
1411,97.00,6.00,-150.00,960.00,-240.00,18816.00,-2816.00
1467,82.00,-24.00,-166.00,972.00,-248.00,18744.00,-2848.00
1523,88.00,3.00,-188.00,1000.00,-212.00,18696.00,-2864.00
1580,100.00,6.00,-171.00,912.00,-168.00,18780.00,-2848.00
1636,71.00,-8.00,-192.00,972.00,-232.00,18964.00,-2864.00
1692,81.00,2.00,-175.00,1040.00,-208.00,18776.00,-2832.00
1748,86.00,-1.00,-161.00,928.00,-256.00,18644.00,-2816.00
1805,60.00,42.00,-158.00,1136.00,-164.00,18608.00,-2816.00
1861,72.00,-44.00,-164.00,1004.00,-176.00,18900.00,-2848.00
1917,93.00,-19.00,-194.00,928.00,-240.00,18688.00,-2832.00
1974,76.00,-33.00,-201.00,1016.00,-224.00,18552.00,-2848.00
2030,129.00,-25.00,-165.00,980.00,-236.00,18732.00,-2832.00
2086,95.00,-24.00,-170.00,980.00,-140.00,18684.00,-2880.00
2143,70.00,-14.00,-187.00,1048.00,-280.00,18572.00,-2800.00
2200,57.00,120.00,-200.00,984.00,-176.00,18724.00,-2864.00
2256,85.00,-66.00,-180.00,716.00,-248.00,18848.00,-2848.00
2313,80.00,-29.00,-169.00,952.00,-260.00,18740.00,-2848.00
2369,25.00,-15.00,-170.00,992.00,-256.00,18784.00,-2864.00
2425,-37.00,-96.00,-193.00,1080.00,-184.00,18716.00,-2816.00
2482,-27.00,-62.00,-203.00,920.00,-232.00,18708.00,-2864.00
2538,53.00,18.00,-171.00,960.00,-232.00,18520.00,-2816.00
2594,62.00,32.00,-159.00,932.00,-188.00,18800.00,-2832.00
2651,72.00,-99.00,-192.00,1024.00,-224.00,18644.00,-2848.00
2707,92.00,54.00,-187.00,1172.00,-244.00,18680.00,-2832.00
2763,53.00,-156.00,-163.00,1004.00,-196.00,18880.00,-2848.00
2820,63.00,21.00,-163.00,1068.00,-212.00,18744.00,-2816.00
2876,74.00,-63.00,-180.00,924.00,-192.00,18812.00,-2832.00
2932,64.00,-81.00,-181.00,1464.00,-244.00,18484.00,-2848.00
2990,86.00,98.00,-178.00,980.00,-324.00,18764.00,-2864.00
3046,122.00,247.00,-186.00,1068.00,-200.00,18832.00,-2848.00
3102,168.00,953.00,-258.00,832.00,-376.00,18724.00,-2848.00
3159,114.00,288.00,-146.00,912.00,-152.00,18728.00,-2848.00
3215,31.00,784.00,-10.00,-2728.00,-372.00,21560.00,-2864.00
3271,130.00,211.00,-171.00,836.00,-212.00,18744.00,-2816.00
3328,96.00,28.00,-161.00,640.00,-268.00,18784.00,-2848.00
3384,87.00,9.00,-165.00,788.00,-204.00,18676.00,-2800.00
3440,120.00,84.00,-155.00,624.00,-236.00,18760.00,-2848.00
3496,99.00,6.00,-126.00,816.00,-304.00,18672.00,-2832.00
3553,109.00,55.00,-122.00,832.00,-280.00,18952.00,-2864.00
3609,111.00,97.00,-164.00,680.00,-244.00,18828.00,-2832.00
3666,108.00,39.00,-166.00,720.00,-132.00,18760.00,-2816.00
3723,71.00,-47.00,-163.00,716.00,-280.00,18772.00,-2832.00
3779,74.00,-49.00,-164.00,564.00,-232.00,18936.00,-2816.00
3835,80.00,0.00,-173.00,736.00,-288.00,18592.00,-2832.00
3892,84.00,-93.00,-150.00,692.00,-332.00,18668.00,-2832.00
3948,63.00,-91.00,-138.00,556.00,-224.00,18768.00,-2848.00
4004,114.00,49.00,-127.00,780.00,-228.00,18772.00,-2832.00
4061,134.00,139.00,-134.00,792.00,-204.00,18620.00,-2848.00
4117,210.00,448.00,-177.00,764.00,-304.00,18748.00,-2848.00
4173,213.00,474.00,-102.00,472.00,20.00,18724.00,-2864.00
4230,125.00,415.00,-145.00,632.00,-244.00,18868.00,-2832.00
4286,129.00,415.00,-131.00,208.00,-80.00,18680.00,-2816.00
4342,-79.00,8366.00,-285.00,580.00,-188.00,19032.00,-2848.00
4400,-159.00,11971.00,-332.00,168.00,-272.00,19608.00,-2832.00
4456,-336.00,19764.00,-513.00,-2120.00,-304.00,18752.00,-2848.00
4512,-521.00,24799.00,-572.00,-5232.00,-284.00,17224.00,-2816.00
4569,-565.00,27849.00,-652.00,-11080.00,-360.00,13796.00,-2816.00
4626,-303.00,17344.00,-522.00,-10816.00,-420.00,13680.00,-2832.00
4682,-324.00,16748.00,-484.00,-12432.00,-456.00,11652.00,-2848.00
4740,-472.00,19408.00,-593.00,-12292.00,-412.00,10936.00,-2816.00
4796,-964.00,19818.00,-330.00,-15468.00,-696.00,6384.00,-2848.00
4852,-1163.00,11890.00,-91.00,-17324.00,-720.00,4036.00,-2800.00
4909,-24.00,368.00,-179.00,-15336.00,-688.00,5012.00,-2816.00
4966,88.00,-23.00,-204.00,-15488.00,-556.00,5052.00,-2816.00
5022,116.00,-345.00,-205.00,-15724.00,-640.00,4876.00,-2864.00
5079,116.00,371.00,-89.00,-15856.00,-660.00,4556.00,-2848.00
5135,130.00,321.00,-3.00,-15152.00,-592.00,5612.00,-2832.00
5191,312.00,21.00,73.00,-11380.00,2048.00,8100.00,-2848.00
5248,-11770.00,8656.00,1651.00,-16984.00,-348.00,5004.00,-2848.00
5305,-1239.00,-843.00,-150.00,-20768.00,-1928.00,-3544.00,-2816.00
5361,-439.00,-799.00,-159.00,-15812.00,-696.00,1752.00,-2832.00
5417,1168.00,15.00,-247.00,-15396.00,208.00,3216.00,-2800.00
5474,49.00,983.00,-188.00,-15856.00,-560.00,1864.00,-2848.00
5531,70.00,-5.00,-221.00,-15636.00,-644.00,1808.00,-2816.00
5587,112.00,-17.00,-167.00,-15760.00,-656.00,1592.00,-2848.00
5644,79.00,-267.00,-139.00,-15856.00,-576.00,1776.00,-2848.00
5700,95.00,25.00,-187.00,-15812.00,-568.00,1860.00,-2832.00
5756,108.00,7.00,-157.00,-15708.00,-624.00,1760.00,-2816.00
5813,102.00,-33.00,-151.00,-15736.00,-732.00,1812.00,-2832.00
5869,70.00,366.00,-171.00,-15824.00,-596.00,1932.00,-2848.00
5925,78.00,-46.00,-196.00,-15928.00,-724.00,1660.00,-2848.00
5983,89.00,53.00,-176.00,-15932.00,-432.00,1720.00,-2832.00
6039,64.00,11.00,-214.00,-15676.00,-536.00,1876.00,-2848.00
6095,115.00,-166.00,-182.00,-15732.00,-564.00,1884.00,-2848.00
6152,73.00,73.00,-159.00,-15844.00,-652.00,1848.00,-2832.00
6208,84.00,84.00,-205.00,-15800.00,-700.00,1752.00,-2848.00
6264,103.00,-352.00,-221.00,-15616.00,-608.00,1544.00,-2864.00
6321,87.00,123.00,-180.00,-15800.00,-700.00,1704.00,-2832.00
6377,76.00,216.00,-221.00,-15904.00,-556.00,1700.00,-2816.00
6434,99.00,-53.00,-177.00,-15856.00,-572.00,1804.00,-2848.00
6491,65.00,123.00,-204.00,-15780.00,-536.00,1728.00,-2832.00
6547,81.00,271.00,-127.00,-15624.00,-668.00,1740.00,-2832.00
6603,104.00,-26.00,-211.00,-15736.00,-540.00,1904.00,-2816.00
6660,80.00,-110.00,-196.00,-15816.00,-704.00,1528.00,-2848.00
6716,107.00,-224.00,-150.00,-15684.00,-596.00,1768.00,-2832.00
6773,88.00,20.00,-174.00,-15780.00,-708.00,1800.00,-2864.00
6830,82.00,-77.00,-195.00,-15704.00,-676.00,1992.00,-2832.00
6886,78.00,-171.00,-159.00,-15852.00,-656.00,1608.00,-2816.00
6942,101.00,-179.00,-177.00,-15768.00,-556.00,1752.00,-2832.00
6999,62.00,-112.00,-182.00,-15824.00,-660.00,1832.00,-2832.00
7055,100.00,-113.00,-224.00,-15808.00,-696.00,2004.00,-2832.00
7111,103.00,97.00,-179.00,-15748.00,-628.00,1688.00,-2832.00
7169,98.00,27.00,-199.00,-15800.00,-624.00,1732.00,-2832.00
7225,83.00,70.00,-175.00,-15700.00,-636.00,1960.00,-2816.00
7281,88.00,44.00,-185.00,-15644.00,-652.00,1864.00,-2800.00
7337,90.00,-126.00,-169.00,-15860.00,-688.00,1872.00,-2848.00
7394,78.00,61.00,-209.00,-15752.00,-608.00,1660.00,-2800.00
7450,63.00,14.00,-182.00,-15824.00,-608.00,1836.00,-2832.00
7506,79.00,-30.00,-191.00,-15768.00,-648.00,1828.00,-2848.00
7563,91.00,-35.00,-178.00,-15804.00,-692.00,1716.00,-2832.00
7619,78.00,6.00,-214.00,-15700.00,-604.00,1848.00,-2816.00
7675,87.00,102.00,-176.00,-15840.00,-668.00,1808.00,-2832.00
7733,92.00,-153.00,-212.00,-15720.00,-612.00,1944.00,-2784.00
7789,81.00,95.00,-205.00,-15756.00,-576.00,1724.00,-2816.00
7845,76.00,-34.00,-188.00,-15764.00,-696.00,1680.00,-2832.00
7902,105.00,-70.00,-184.00,-15796.00,-628.00,1656.00,-2816.00
7958,95.00,-23.00,-182.00,-15716.00,-704.00,1716.00,-2816.00
8014,90.00,53.00,-185.00,-15784.00,-668.00,1912.00,-2800.00
8071,91.00,-42.00,-176.00,-15648.00,-684.00,1888.00,-2848.00
8127,93.00,69.00,-215.00,-15824.00,-604.00,1804.00,-2816.00
8184,94.00,-14.00,-187.00,-15768.00,-692.00,1744.00,-2832.00
8241,59.00,-45.00,-172.00,-15824.00,-668.00,1892.00,-2784.00
8297,81.00,-94.00,-197.00,-15832.00,-620.00,1808.00,-2832.00
8353,95.00,62.00,-169.00,-15748.00,-716.00,1788.00,-2816.00
8410,81.00,106.00,-206.00,-15688.00,-620.00,1816.00,-2816.00
8466,75.00,-9.00,-181.00,-15660.00,-700.00,1804.00,-2832.00
8522,70.00,-84.00,-210.00,-15792.00,-604.00,1744.00,-2816.00
8579,75.00,33.00,-194.00,-15800.00,-608.00,1820.00,-2816.00
8635,79.00,-66.00,-198.00,-15808.00,-640.00,1848.00,-2848.00
8691,79.00,-4.00,-186.00,-15768.00,-568.00,1708.00,-2848.00
8749,70.00,-43.00,-190.00,-15732.00,-692.00,1864.00,-2832.00
8805,91.00,12.00,-210.00,-15812.00,-720.00,1652.00,-2816.00
8861,79.00,-16.00,-181.00,-15652.00,-684.00,1912.00,-2816.00
8918,80.00,-12.00,-174.00,-15724.00,-660.00,1880.00,-2848.00
8974,94.00,-22.00,-145.00,-15728.00,-672.00,1772.00,-2848.00
9030,89.00,-3.00,-176.00,-15748.00,-680.00,1796.00,-2832.00
9086,47.00,82.00,-180.00,-15788.00,-592.00,1684.00,-2816.00
9143,71.00,-33.00,-186.00,-15740.00,-616.00,1696.00,-2864.00
9199,77.00,-18.00,-171.00,-15772.00,-552.00,1748.00,-2848.00
9255,89.00,-48.00,-176.00,-15780.00,-640.00,1764.00,-2848.00
9312,98.00,83.00,-179.00,-15776.00,-672.00,1880.00,-2832.00
9369,85.00,-27.00,-186.00,-15672.00,-684.00,1756.00,-2848.00
9425,88.00,51.00,-205.00,-15848.00,-728.00,1808.00,-2832.00
9482,46.00,-65.00,-179.00,-15776.00,-640.00,1632.00,-2848.00
9538,75.00,54.00,-182.00,-15948.00,-688.00,1776.00,-2864.00
9594,78.00,35.00,-178.00,-15764.00,-604.00,1920.00,-2832.00
9651,73.00,-44.00,-192.00,-15732.00,-636.00,1812.00,-2848.00
9707,87.00,52.00,-164.00,-15804.00,-676.00,1832.00,-2864.00
9763,89.00,25.00,-200.00,-15876.00,-700.00,1696.00,-2816.00
9820,77.00,44.00,-202.00,-15664.00,-684.00,1728.00,-2832.00
9876,86.00,-64.00,-164.00,-15660.00,-628.00,1840.00,-2832.00
9933,69.00,74.00,-202.00,-15792.00,-692.00,1848.00,-2816.00
9990,96.00,-70.00,-200.00,-15760.00,-628.00,1864.00,-2864.00
10046,84.00,31.00,-184.00,-15876.00,-640.00,1760.00,-2816.00
10102,97.00,-34.00,-195.00,-15708.00,-620.00,1780.00,-2848.00
10159,85.00,-32.00,-200.00,-15836.00,-576.00,1724.00,-2832.00
10215,89.00,-10.00,-168.00,-15776.00,-572.00,1808.00,-2832.00
10271,88.00,0.00,-185.00,-15760.00,-632.00,1884.00,-2848.00
10328,131.00,-69.00,-201.00,-15840.00,-644.00,1788.00,-2816.00
10385,91.00,-25.00,-184.00,-15696.00,-540.00,1820.00,-2816.00
10441,71.00,-20.00,-181.00,-15760.00,-592.00,1700.00,-2832.00
10498,89.00,-43.00,-188.00,-15784.00,-684.00,1808.00,-2800.00
10554,89.00,46.00,-171.00,-15584.00,-608.00,1748.00,-2848.00
10610,75.00,-98.00,-184.00,-15692.00,-612.00,1944.00,-2848.00
10667,63.00,41.00,-187.00,-15840.00,-672.00,1828.00,-2832.00
10724,89.00,-61.00,-177.00,-15836.00,-684.00,1740.00,-2832.00
10780,61.00,29.00,-207.00,-15656.00,-584.00,1684.00,-2864.00
10836,111.00,51.00,-196.00,-15696.00,-752.00,1848.00,-2848.00
10893,76.00,-113.00,-202.00,-15776.00,-708.00,1700.00,-2848.00
10949,80.00,110.00,-168.00,-15724.00,-660.00,1692.00,-2816.00
11005,88.00,-111.00,-220.00,-15820.00,-644.00,1920.00,-2816.00
11063,67.00,-47.00,-190.00,-15712.00,-636.00,1792.00,-2816.00
11119,96.00,-5.00,-178.00,-15712.00,-668.00,1812.00,-2816.00
11175,94.00,-13.00,-180.00,-15692.00,-604.00,1708.00,-2848.00
11232,99.00,-41.00,-187.00,-15712.00,-616.00,1672.00,-2816.00
11288,82.00,20.00,-184.00,-15736.00,-580.00,1848.00,-2816.00
11344,96.00,-76.00,-201.00,-15740.00,-564.00,1624.00,-2832.00
11401,73.00,-72.00,-170.00,-15808.00,-704.00,1796.00,-2816.00
11458,72.00,-67.00,-221.00,-15824.00,-572.00,1776.00,-2816.00
11514,96.00,-40.00,-190.00,-15740.00,-648.00,1764.00,-2832.00
11571,97.00,-69.00,-190.00,-15712.00,-696.00,1924.00,-2800.00
11627,94.00,-72.00,-174.00,-15776.00,-592.00,1700.00,-2816.00
11683,69.00,-122.00,-186.00,-15876.00,-648.00,1932.00,-2816.00
11740,82.00,-250.00,-192.00,-15704.00,-648.00,1860.00,-2816.00
11797,105.00,-334.00,-190.00,-15772.00,-644.00,2068.00,-2848.00
11853,94.00,-434.00,-177.00,-15748.00,-756.00,1864.00,-2848.00
11910,90.00,-383.00,-184.00,-15872.00,-680.00,2092.00,-2848.00
11966,75.00,-357.00,-190.00,-15764.00,-628.00,2092.00,-2848.00
12022,120.00,-693.00,-177.00,-15528.00,-696.00,2360.00,-2832.00
12080,93.00,-276.00,-189.00,-15824.00,-632.00,2240.00,-2816.00
12136,92.00,-387.00,-224.00,-15616.00,-680.00,2416.00,-2800.00
12192,129.00,-1313.00,-175.00,-15776.00,-772.00,2424.00,-2832.00
12249,219.00,-4721.00,-132.00,-16000.00,-688.00,2496.00,-2848.00
12306,307.00,-9203.00,-95.00,-16100.00,-648.00,3300.00,-2864.00
12362,642.00,-8140.00,-3008.00,-3104.00,1964.00,3408.00,-2848.00
12419,381.00,-11665.00,-15.00,-15768.00,-680.00,5536.00,-2816.00
12475,424.00,-13777.00,66.00,-14272.00,-612.00,7924.00,-2784.00
12532,390.00,-12706.00,111.00,-13848.00,-544.00,9520.00,-2832.00
12589,396.00,-12030.00,69.00,-12620.00,-504.00,11356.00,-2816.00
12645,325.00,-8951.00,16.00,-12392.00,-464.00,11976.00,-2816.00
12702,316.00,-9103.00,2.00,-11796.00,-520.00,12840.00,-2800.00
12759,215.00,-5964.00,-78.00,-10712.00,-364.00,13656.00,-2816.00
12815,215.00,-6192.00,-66.00,-11004.00,-520.00,13728.00,-2848.00
12872,217.00,-6856.00,-33.00,-10380.00,-448.00,14356.00,-2832.00
12929,299.00,-10143.00,-19.00,-8940.00,-592.00,15236.00,-2832.00
12985,347.00,-10913.00,13.00,-7132.00,-412.00,16460.00,-2816.00
13041,349.00,-12642.00,29.00,-6412.00,-536.00,16388.00,-2816.00
13099,278.00,-10067.00,-22.00,-5516.00,-528.00,17208.00,-2832.00
13155,508.00,-19698.00,98.00,-4576.00,-472.00,17076.00,-2816.00
13211,681.00,-23668.00,-198.00,-732.00,-72.00,18356.00,-2848.00
13268,-43.00,-746.00,195.00,932.00,316.00,18828.00,-2832.00
13325,79.00,-122.00,-192.00,836.00,-264.00,18668.00,-2816.00
13381,17.00,-512.00,-168.00,768.00,-144.00,18812.00,-2832.00
13437,21.00,-516.00,-253.00,872.00,-408.00,18724.00,-2832.00
13494,53.00,-514.00,-255.00,900.00,-224.00,18700.00,-2784.00
13550,63.00,-23.00,-212.00,912.00,-288.00,18628.00,-2816.00
13606,90.00,209.00,-200.00,1084.00,-160.00,18712.00,-2832.00
13664,84.00,-17.00,-201.00,884.00,-260.00,18688.00,-2832.00
13720,110.00,146.00,-213.00,1000.00,-276.00,18704.00,-2800.00
13776,95.00,-149.00,-196.00,736.00,-292.00,18852.00,-2816.00
13833,102.00,-74.00,-192.00,996.00,-136.00,18728.00,-2832.00
13889,108.00,-586.00,-155.00,872.00,-376.00,18852.00,-2816.00
13945,104.00,-2913.00,-134.00,448.00,-180.00,19192.00,-2848.00
14003,165.00,-4099.00,-62.00,3120.00,-572.00,17304.00,-2784.00
14059,236.00,-5459.00,-48.00,3076.00,-32.00,18596.00,-2816.00
14115,160.00,-4077.00,-95.00,3992.00,-140.00,18068.00,-2816.00
14172,348.00,-11041.00,-86.00,2016.00,-60.00,20076.00,-2816.00
14229,213.00,-5535.00,-102.00,5044.00,-320.00,17604.00,-2816.00
14285,103.00,129.00,-182.00,2968.00,-148.00,19540.00,-2800.00
14342,263.00,-7683.00,151.00,4848.00,-224.00,18432.00,-2832.00
14398,239.00,-9091.00,-80.00,6776.00,-204.00,17504.00,-2816.00
14455,224.00,-9716.00,-173.00,6312.00,-100.00,17748.00,-2784.00
14512,227.00,-9727.00,-113.00,8384.00,-160.00,16884.00,-2800.00
14568,204.00,-6964.00,-117.00,8600.00,-200.00,16864.00,-2816.00
14624,225.00,-7876.00,-121.00,9592.00,-156.00,16160.00,-2816.00
14682,256.00,-7478.00,-140.00,11640.00,-80.00,14540.00,-2832.00
14738,257.00,-9798.00,-132.00,11776.00,8.00,14440.00,-2816.00
14794,226.00,-7281.00,-143.00,12492.00,36.00,13668.00,-2832.00
14852,273.00,-8598.00,-132.00,13456.00,-68.00,12636.00,-2784.00
14908,140.00,-2194.00,-156.00,14096.00,48.00,12172.00,-2816.00
14964,122.00,-141.00,-230.00,13016.00,-24.00,12956.00,-2784.00
15021,182.00,-4981.00,-139.00,14112.00,40.00,11892.00,-2816.00
15078,163.00,-2554.00,-183.00,13972.00,4.00,11804.00,-2800.00
15134,231.00,-6602.00,-148.00,14348.00,-44.00,11360.00,-2832.00
15191,242.00,-6220.00,-153.00,16140.00,32.00,9484.00,-2816.00
15247,61.00,-206.00,-188.00,14316.00,72.00,10792.00,-2832.00
15304,257.00,-6199.00,-132.00,15608.00,28.00,9596.00,-2816.00
15361,229.00,-5108.00,-142.00,16240.00,-60.00,8612.00,-2832.00
15417,267.00,-6665.00,-102.00,16040.00,36.00,8360.00,-2816.00
15473,236.00,-6296.00,-120.00,16396.00,-60.00,7440.00,-2816.00
15531,143.00,-3795.00,-181.00,16132.00,128.00,7352.00,-2800.00
15587,300.00,-7513.00,-91.00,16448.00,-16.00,6588.00,-2784.00
15643,-701.00,-7404.00,-270.00,17376.00,-768.00,3232.00,-2816.00
15699,-1020.00,-4848.00,-332.00,16176.00,1028.00,7240.00,-2816.00
15757,-1305.00,-7222.00,-305.00,17864.00,-164.00,2844.00,-2864.00
15813,114.00,767.00,-234.00,17528.00,48.00,3112.00,-2816.00
15869,143.00,-3195.00,-160.00,16128.00,196.00,4036.00,-2816.00
15927,132.00,-2291.00,-205.00,18236.00,52.00,1560.00,-2832.00
15983,-92.00,4021.00,-129.00,16028.00,568.00,2888.00,-2800.00
16039,205.00,-4139.00,-149.00,14504.00,676.00,4380.00,-2768.00
16096,64.00,-142.00,-251.00,17680.00,448.00,2224.00,-2848.00
16152,157.00,-738.00,-122.00,17500.00,-44.00,1908.00,-2816.00
16209,24.00,717.00,-387.00,17164.00,200.00,2128.00,-2816.00
16266,142.00,-480.00,-178.00,16672.00,128.00,2620.00,-2816.00
16322,-55.00,2060.00,-420.00,17808.00,-308.00,1336.00,-2832.00
16378,132.00,-1045.00,-121.00,17248.00,84.00,2068.00,-2800.00
16436,56.00,-614.00,-125.00,17116.00,72.00,2128.00,-2848.00
16492,63.00,-676.00,47.00,17268.00,92.00,2000.00,-2800.00
16548,60.00,-274.00,-104.00,17232.00,112.00,1704.00,-2832.00
16605,10.00,1166.00,-413.00,17196.00,180.00,2040.00,-2832.00
16661,42.00,1412.00,-506.00,17296.00,76.00,2172.00,-2800.00
16717,117.00,-10.00,-162.00,17432.00,16.00,1296.00,-2832.00
16774,88.00,-44.00,-148.00,17412.00,-16.00,1496.00,-2832.00
16831,48.00,-1072.00,165.00,17312.00,52.00,1740.00,-2816.00
16887,89.00,-481.00,-35.00,17556.00,-316.00,1612.00,-2816.00
16944,-92.00,196.00,-229.00,17020.00,52.00,1196.00,-2864.00
17000,57.00,-1061.00,39.00,17452.00,-304.00,1316.00,-2864.00
17056,212.00,-801.00,-182.00,17148.00,416.00,2520.00,-2832.00
17113,97.00,-281.00,-69.00,17180.00,-16.00,1432.00,-2832.00
17169,66.00,1610.00,-378.00,17316.00,44.00,1920.00,-2800.00
17226,77.00,-203.00,-193.00,17244.00,72.00,1520.00,-2848.00
17283,134.00,-846.00,-122.00,17244.00,4.00,1460.00,-2784.00
17339,113.00,1356.00,-388.00,17288.00,-32.00,1140.00,-2816.00
17395,123.00,-1045.00,-35.00,17016.00,164.00,1368.00,-2816.00
17452,113.00,-314.00,-173.00,17352.00,-264.00,1364.00,-2816.00
17509,234.00,-3233.00,126.00,17280.00,40.00,1652.00,-2800.00
17565,190.00,-4122.00,240.00,17492.00,-184.00,-336.00,-2800.00
17622,33.00,1827.00,-396.00,17304.00,-140.00,436.00,-2816.00
17678,89.00,-1496.00,-38.00,17416.00,32.00,228.00,-2816.00
17734,0.00,2696.00,-465.00,17240.00,-132.00,648.00,-2832.00
17790,81.00,-628.00,-131.00,17284.00,-56.00,376.00,-2816.00
17848,47.00,1549.00,-359.00,17332.00,-136.00,356.00,-2816.00
17904,61.00,1169.00,-326.00,17236.00,-144.00,940.00,-2816.00
17960,7.00,2446.00,-437.00,17388.00,-72.00,916.00,-2816.00
18017,70.00,439.00,-210.00,17212.00,-60.00,1672.00,-2848.00
18073,90.00,1081.00,-334.00,17432.00,36.00,1276.00,-2832.00
18129,120.00,-723.00,-63.00,17340.00,-96.00,1200.00,-2800.00
18186,92.00,350.00,-240.00,17384.00,68.00,1432.00,-2800.00
18243,87.00,229.00,-226.00,17376.00,-44.00,1412.00,-2832.00
18299,48.00,143.00,-228.00,17316.00,8.00,1420.00,-2848.00
18356,79.00,77.00,-207.00,17292.00,-40.00,1300.00,-2832.00
18412,71.00,-48.00,-213.00,17284.00,76.00,1600.00,-2816.00
18468,74.00,17.00,-232.00,17312.00,-40.00,1508.00,-2848.00
18525,80.00,-214.00,-175.00,17324.00,8.00,1576.00,-2832.00
18581,69.00,80.00,-222.00,17368.00,56.00,1420.00,-2848.00
18637,81.00,-166.00,-198.00,17328.00,8.00,1332.00,-2864.00
18694,76.00,-16.00,-213.00,17356.00,-4.00,1332.00,-2816.00
18750,60.00,79.00,-176.00,17364.00,-84.00,1416.00,-2816.00
18806,65.00,-287.00,-195.00,17364.00,-108.00,1312.00,-2832.00
18864,88.00,-6.00,-187.00,17244.00,76.00,1500.00,-2800.00
18920,86.00,51.00,-231.00,17324.00,-60.00,1220.00,-2848.00
18976,83.00,-199.00,-178.00,17320.00,-20.00,1304.00,-2832.00
19033,94.00,-99.00,-211.00,17272.00,16.00,1348.00,-2832.00
19089,90.00,-544.00,-158.00,17228.00,-40.00,1332.00,-2816.00
19145,70.00,157.00,-242.00,17384.00,-80.00,1300.00,-2816.00
19202,92.00,-381.00,-174.00,17268.00,-24.00,1320.00,-2832.00
19258,87.00,30.00,-186.00,17340.00,-68.00,1240.00,-2800.00
19314,85.00,-491.00,-158.00,17320.00,-108.00,1200.00,-2816.00
19372,75.00,148.00,-216.00,17316.00,-80.00,1232.00,-2832.00
19428,89.00,-432.00,-157.00,17308.00,-128.00,1256.00,-2848.00
19484,83.00,303.00,-214.00,17144.00,-12.00,1192.00,-2816.00
19540,91.00,-259.00,-196.00,17308.00,-92.00,1180.00,-2848.00
19597,84.00,33.00,-207.00,17224.00,-140.00,1020.00,-2800.00
19653,95.00,73.00,-211.00,17380.00,-56.00,932.00,-2800.00
19709,96.00,-235.00,-176.00,17284.00,36.00,1048.00,-2848.00
19767,85.00,-40.00,-174.00,17260.00,-84.00,1076.00,-2864.00
19823,102.00,-208.00,-192.00,17368.00,-48.00,976.00,-2848.00
19879,74.00,137.00,-195.00,17316.00,-52.00,1192.00,-2816.00
19936,98.00,-176.00,-175.00,17304.00,-64.00,1032.00,-2816.00
19992,83.00,37.00,-198.00,17404.00,-32.00,1024.00,-2832.00
20048,87.00,576.00,-285.00,17324.00,-24.00,1328.00,-2800.00
20105,90.00,-232.00,-201.00,17384.00,-16.00,960.00,-2848.00
20161,77.00,45.00,-186.00,17328.00,-28.00,1196.00,-2816.00
20217,80.00,205.00,-257.00,17248.00,-88.00,1132.00,-2832.00
20275,64.00,222.00,-234.00,17268.00,-132.00,1140.00,-2800.00
20331,84.00,323.00,-217.00,17244.00,-52.00,1088.00,-2832.00
20387,69.00,168.00,-230.00,17252.00,24.00,1332.00,-2800.00
20444,63.00,351.00,-223.00,17356.00,-36.00,1168.00,-2816.00
20500,75.00,467.00,-236.00,17324.00,-88.00,1376.00,-2848.00
20556,99.00,-40.00,-187.00,17360.00,-64.00,1248.00,-2816.00
20613,59.00,258.00,-252.00,17376.00,48.00,1260.00,-2832.00
20669,70.00,657.00,-268.00,17356.00,4.00,1512.00,-2832.00
20726,72.00,668.00,-341.00,17320.00,-100.00,1528.00,-2848.00
20783,85.00,66.00,-226.00,17348.00,44.00,1496.00,-2816.00
20839,99.00,1207.00,-463.00,17324.00,36.00,1660.00,-2816.00
20895,141.00,869.00,-436.00,17312.00,12.00,1632.00,-2848.00
20952,65.00,870.00,-429.00,17388.00,68.00,1820.00,-2848.00
21008,48.00,750.00,-399.00,17368.00,-40.00,1940.00,-2832.00
21064,109.00,67.00,-217.00,17276.00,36.00,1964.00,-2832.00
21122,110.00,488.00,-238.00,17380.00,44.00,1808.00,-2832.00
21178,74.00,221.00,-231.00,17328.00,176.00,2140.00,-2800.00
21234,71.00,594.00,-201.00,17488.00,80.00,1888.00,-2832.00
21291,52.00,1158.00,-256.00,17212.00,36.00,2328.00,-2816.00
21347,81.00,348.00,-218.00,17428.00,40.00,2188.00,-2816.00
21403,66.00,1671.00,-224.00,17220.00,88.00,2304.00,-2816.00
21459,19.00,2226.00,-218.00,17448.00,100.00,2448.00,-2816.00
21517,6.00,3230.00,-234.00,17108.00,92.00,3096.00,-2816.00
21573,12.00,1691.00,-212.00,17432.00,-80.00,3096.00,-2848.00
21629,-11.00,3769.00,-229.00,17132.00,124.00,3648.00,-2848.00
21686,-27.00,2208.00,-184.00,17492.00,56.00,3764.00,-2816.00
21742,-28.00,4632.00,-219.00,16732.00,328.00,4556.00,-2784.00
21799,-21.00,2222.00,-189.00,17712.00,28.00,4576.00,-2800.00
21856,-45.00,2886.00,-152.00,16504.00,208.00,5784.00,-2832.00
21912,13.00,3503.00,-188.00,17432.00,-132.00,5200.00,-2864.00
21968,-20.00,5176.00,-235.00,17096.00,-8.00,5872.00,-2816.00
22025,8.00,4166.00,-227.00,16892.00,244.00,6724.00,-2816.00
22082,47.00,9290.00,-353.00,16844.00,-588.00,6232.00,-2816.00
22138,-80.00,5050.00,-201.00,15448.00,112.00,8596.00,-2832.00
22195,-60.00,5550.00,-212.00,15936.00,-92.00,8528.00,-2800.00
22251,8.00,5160.00,-244.00,15624.00,-180.00,9440.00,-2800.00
22307,-15.00,4443.00,-220.00,15196.00,-36.00,10036.00,-2816.00
22365,65.00,5226.00,-297.00,15308.00,-20.00,10476.00,-2816.00
22421,-29.00,5305.00,-249.00,15264.00,-8.00,10680.00,-2832.00
22477,-4.00,8113.00,-347.00,15188.00,160.00,10764.00,-2832.00
22534,8.00,3880.00,-231.00,13436.00,-68.00,12516.00,-2832.00
22591,-79.00,5485.00,-187.00,13568.00,108.00,11336.00,-2816.00
22647,23.00,4596.00,-242.00,12616.00,16.00,13560.00,-2848.00
22704,-29.00,5832.00,-246.00,12104.00,48.00,13776.00,-2816.00
22760,-75.00,5409.00,-231.00,11924.00,-196.00,14488.00,-2800.00
22817,-143.00,7789.00,-259.00,11072.00,-112.00,14948.00,-2848.00
22874,-19.00,8726.00,-311.00,10956.00,-144.00,15172.00,-2832.00
22930,-52.00,5652.00,-277.00,9752.00,-124.00,16092.00,-2848.00
22986,95.00,4051.00,-204.00,9384.00,-140.00,16224.00,-2816.00
23044,-5.00,2708.00,-243.00,8476.00,-132.00,16848.00,-2816.00
23100,1.00,3978.00,-255.00,8084.00,-144.00,17132.00,-2848.00
23156,68.00,919.00,-194.00,7068.00,-232.00,17504.00,-2816.00
23213,48.00,2413.00,-220.00,7608.00,-68.00,17124.00,-2816.00
23269,48.00,1208.00,-221.00,7408.00,-168.00,17328.00,-2816.00
23326,44.00,1495.00,-177.00,7180.00,-212.00,17540.00,-2848.00
23383,88.00,710.00,-204.00,7484.00,-128.00,17076.00,-2848.00
23439,38.00,1409.00,-199.00,6944.00,-84.00,17524.00,-2784.00
23495,470.00,1866.00,819.00,5848.00,-232.00,18136.00,-2816.00
23553,65.00,1010.00,-208.00,6540.00,-244.00,17688.00,-2848.00
23609,65.00,1301.00,-218.00,6724.00,-52.00,17608.00,-2832.00
23665,81.00,728.00,-206.00,6520.00,-160.00,17596.00,-2848.00
23721,86.00,424.00,-182.00,6272.00,-92.00,17808.00,-2848.00
23778,52.00,570.00,-186.00,6092.00,-160.00,17868.00,-2848.00
23834,30.00,1397.00,-189.00,6308.00,-116.00,17784.00,-2848.00
23891,70.00,1223.00,-197.00,5920.00,-224.00,17776.00,-2848.00
23948,93.00,184.00,-197.00,5880.00,-272.00,17800.00,-2816.00
24004,82.00,271.00,-177.00,5924.00,-256.00,17908.00,-2816.00
24060,78.00,282.00,-191.00,5948.00,-152.00,17912.00,-2848.00
24118,85.00,513.00,-195.00,5948.00,-100.00,17976.00,-2816.00
24174,65.00,589.00,-219.00,5772.00,-244.00,17976.00,-2816.00
24230,61.00,398.00,-202.00,5652.00,-260.00,17928.00,-2848.00
24287,58.00,701.00,-208.00,5856.00,-208.00,17932.00,-2816.00
24343,69.00,209.00,-182.00,5708.00,-220.00,17852.00,-2800.00
24399,78.00,270.00,-211.00,5664.00,-220.00,17872.00,-2832.00
24457,81.00,-215.00,-182.00,5552.00,-60.00,17988.00,-2832.00
24513,80.00,-444.00,-193.00,5640.00,-160.00,17892.00,-2848.00
24569,43.00,56.00,-198.00,5664.00,-124.00,17836.00,-2848.00
24626,71.00,410.00,-176.00,5652.00,-92.00,18044.00,-2816.00
24682,98.00,285.00,-211.00,5540.00,-216.00,17932.00,-2800.00
24738,369.00,28992.00,3502.00,11616.00,272.00,13016.00,-2832.00
24796,85.00,199.00,-228.00,872.00,-216.00,18844.00,-2832.00
24852,113.00,389.00,-219.00,992.00,-268.00,18732.00,-2848.00
24908,94.00,12.00,-187.00,1024.00,-284.00,18624.00,-2816.00
24965,122.00,133.00,-207.00,948.00,-424.00,18688.00,-2880.00
25021,67.00,76.00,-221.00,944.00,-232.00,18596.00,-2848.00
25078,76.00,17.00,-185.00,860.00,-340.00,18824.00,-2816.00
25135,87.00,38.00,-196.00,1024.00,-260.00,18800.00,-2816.00
25191,103.00,43.00,-217.00,868.00,-196.00,18804.00,-2832.00
25247,92.00,46.00,-192.00,936.00,-216.00,18704.00,-2832.00
25304,103.00,83.00,-212.00,964.00,-204.00,18640.00,-2880.00
25360,95.00,19.00,-199.00,920.00,-164.00,18600.00,-2832.00
25416,98.00,33.00,-220.00,1056.00,-352.00,18612.00,-2816.00
25473,82.00,-9.00,-194.00,876.00,-212.00,18704.00,-2816.00
25529,5.00,-412.00,-192.00,864.00,-192.00,18684.00,-2832.00
25585,112.00,40.00,-228.00,700.00,-216.00,18888.00,-2848.00
25643,86.00,-50.00,-183.00,940.00,-208.00,18916.00,-2864.00
25699,58.00,-30.00,-183.00,888.00,-240.00,18740.00,-2816.00
25755,122.00,-3.00,-203.00,1060.00,-240.00,18668.00,-2800.00
25811,46.00,-117.00,-185.00,1108.00,-268.00,18580.00,-2800.00
25868,392.00,413.00,3308.00,912.00,-152.00,18440.00,-2832.00
25924,82.00,-466.00,-75.00,1124.00,-56.00,18660.00,-2832.00
25980,50.00,-98.00,355.00,912.00,-196.00,18888.00,-2848.00
26038,79.00,-80.00,-209.00,748.00,-304.00,18892.00,-2832.00
26094,51.00,-94.00,-188.00,980.00,-288.00,18696.00,-2848.00
26150,98.00,-43.00,-215.00,896.00,-268.00,18724.00,-2848.00
26207,113.00,-147.00,-90.00,1040.00,-152.00,18680.00,-2832.00
26263,101.00,20.00,1818.00,724.00,-500.00,18316.00,-2864.00
26319,138.00,32.00,-194.00,1008.00,-232.00,18680.00,-2800.00
26376,-103.00,-240.00,-212.00,296.00,-168.00,18828.00,-2848.00
26433,112.00,76.00,-202.00,1052.00,-356.00,18532.00,-2816.00
26489,71.00,-5.00,-201.00,852.00,-232.00,18660.00,-2816.00
26546,95.00,4.00,-216.00,932.00,-152.00,18636.00,-2816.00
26602,107.00,64.00,-192.00,908.00,-160.00,18868.00,-2832.00
26658,85.00,20.00,-197.00,952.00,-164.00,18744.00,-2832.00
26715,82.00,20.00,-198.00,1000.00,-208.00,18668.00,-2848.00
26771,123.00,-15.00,-185.00,912.00,-332.00,18700.00,-2816.00
26827,52.00,17.00,-209.00,928.00,-216.00,18916.00,-2832.00
26884,88.00,45.00,-202.00,900.00,-276.00,18796.00,-2800.00
26940,78.00,16.00,-207.00,908.00,-308.00,18680.00,-2816.00
26997,69.00,17.00,-195.00,908.00,-172.00,18628.00,-2832.00
27054,69.00,108.00,-184.00,860.00,-220.00,18656.00,-2816.00
27110,84.00,-6.00,-215.00,1048.00,-116.00,18680.00,-2848.00
27166,90.00,21.00,-203.00,960.00,-248.00,18696.00,-2832.00
27223,88.00,-9.00,-196.00,1024.00,-232.00,18640.00,-2848.00
27279,111.00,21.00,-203.00,900.00,-212.00,18660.00,-2800.00
27335,91.00,-5.00,-212.00,812.00,-176.00,18608.00,-2832.00
27392,65.00,32.00,-207.00,888.00,-324.00,18772.00,-2816.00
27448,72.00,-22.00,-181.00,876.00,-148.00,18756.00,-2832.00
27504,106.00,29.00,-205.00,1004.00,-208.00,18692.00,-2816.00
27560,75.00,40.00,-155.00,992.00,-204.00,18568.00,-2816.00
27618,110.00,21.00,-232.00,924.00,-272.00,18704.00,-2800.00
27674,104.00,-4.00,-197.00,952.00,-240.00,18620.00,-2832.00
27730,97.00,0.00,-225.00,772.00,-272.00,18824.00,-2848.00
27787,121.00,8.00,-189.00,872.00,-176.00,18512.00,-2832.00
27843,120.00,14.00,-135.00,884.00,-332.00,18740.00,-2816.00
27899,99.00,3.00,-143.00,1080.00,-160.00,18672.00,-2816.00
27956,81.00,0.00,-133.00,904.00,-308.00,18704.00,-2832.00
28012,109.00,19.00,-150.00,1104.00,-188.00,18816.00,-2816.00
28068,94.00,16.00,-230.00,1180.00,-304.00,18792.00,-2848.00
28125,74.00,-28.00,-260.00,984.00,-160.00,18740.00,-2816.00
28182,95.00,6.00,-296.00,1012.00,-332.00,18628.00,-2832.00
28238,103.00,67.00,-268.00,904.00,-160.00,18832.00,-2816.00
28295,61.00,34.00,-280.00,912.00,-196.00,18796.00,-2784.00
28351,96.00,94.00,-254.00,1108.00,-180.00,18688.00,-2832.00
28407,119.00,20.00,-225.00,832.00,-92.00,18552.00,-2832.00
28464,96.00,17.00,-224.00,800.00,-180.00,18688.00,-2816.00
28520,101.00,10.00,-222.00,1020.00,-312.00,18692.00,-2848.00
28576,82.00,18.00,-256.00,1060.00,-108.00,18708.00,-2816.00
28633,67.00,7.00,-215.00,756.00,-304.00,18588.00,-2832.00
28690,76.00,-27.00,-147.00,868.00,-128.00,18736.00,-2848.00
28746,88.00,81.00,-211.00,928.00,-360.00,18764.00,-2832.00
28803,96.00,35.00,-198.00,864.00,-196.00,18608.00,-2848.00
28859,98.00,-44.00,-179.00,796.00,-228.00,18564.00,-2832.00
28915,101.00,15.00,-176.00,1052.00,-248.00,18692.00,-2816.00
28972,71.00,32.00,-203.00,1060.00,-232.00,18764.00,-2848.00
29028,86.00,21.00,-202.00,988.00,-188.00,18676.00,-2816.00
29084,89.00,-14.00,-210.00,812.00,-268.00,18588.00,-2800.00
29140,75.00,-45.00,-187.00,964.00,-164.00,18768.00,-2848.00
