t,gx,gy,gz,ax,ay,az,temp
3,70.00,24.00,-197.00,912.00,-248.00,18252.00,-1152.00
59,32.00,-99.00,-209.00,1400.00,-344.00,18592.00,-1200.00
115,36.00,5.00,-161.00,724.00,-216.00,19064.00,-1200.00
172,120.00,57.00,-221.00,996.00,-604.00,18600.00,-1136.00
228,153.00,56.00,-180.00,920.00,-300.00,17960.00,-1184.00
284,70.00,76.00,-228.00,644.00,80.00,18432.00,-1184.00
340,52.00,18.00,-160.00,1112.00,-452.00,18240.00,-1184.00
397,108.00,18.00,-208.00,716.00,-336.00,18280.00,-1184.00
453,71.00,26.00,-209.00,1048.00,-308.00,18448.00,-1152.00
509,-13.00,-281.00,-139.00,276.00,-320.00,18396.00,-1168.00
566,67.00,95.00,-208.00,684.00,-216.00,18860.00,-1184.00
622,98.00,79.00,-168.00,1204.00,-252.00,18660.00,-1184.00
678,84.00,25.00,-220.00,548.00,-252.00,18424.00,-1184.00
735,131.00,80.00,-172.00,1128.00,-268.00,18424.00,-1184.00
791,85.00,79.00,-186.00,900.00,-252.00,18132.00,-1168.00
847,103.00,27.00,-202.00,1160.00,-280.00,18444.00,-1168.00
904,105.00,63.00,-197.00,912.00,-276.00,18556.00,-1152.00
960,82.00,53.00,-178.00,996.00,-300.00,18204.00,-1152.00
1016,80.00,30.00,-202.00,944.00,-316.00,18384.00,-1184.00
1073,110.00,26.00,-174.00,856.00,-252.00,18496.00,-1200.00
1129,96.00,32.00,-185.00,972.00,-204.00,18288.00,-1184.00
1185,90.00,2.00,-157.00,824.00,-396.00,18508.00,-1184.00
1242,107.00,15.00,-220.00,836.00,-300.00,18328.00,-1184.00
1298,101.00,34.00,-210.00,1044.00,-224.00,18232.00,-1168.00
1354,101.00,11.00,-177.00,944.00,-300.00,18440.00,-1168.00
1412,109.00,2.00,-197.00,892.00,-340.00,18476.00,-1184.00
1468,98.00,8.00,-187.00,904.00,-136.00,18376.00,-1184.00
1524,71.00,12.00,-186.00,1036.00,-344.00,18496.00,-1184.00
1581,82.00,40.00,-198.00,976.00,-292.00,18500.00,-1168.00
1637,84.00,24.00,-190.00,988.00,-276.00,18160.00,-1168.00
1693,80.00,22.00,-184.00,892.00,-204.00,18396.00,-1136.00
1750,79.00,21.00,-192.00,1020.00,-348.00,18356.00,-1184.00
1806,115.00,14.00,-183.00,856.00,-212.00,18236.00,-1200.00
1862,91.00,38.00,-192.00,1052.00,-160.00,18396.00,-1152.00
1918,84.00,40.00,-190.00,940.00,-252.00,18308.00,-1200.00
1975,122.00,12.00,-192.00,964.00,-276.00,18452.00,-1168.00
2031,101.00,36.00,-186.00,1020.00,-144.00,18412.00,-1216.00
2087,97.00,35.00,-192.00,920.00,-304.00,18380.00,-1168.00
2144,100.00,39.00,-200.00,916.00,-308.00,18304.00,-1168.00
2200,80.00,35.00,-186.00,900.00,-216.00,18452.00,-1184.00
2256,95.00,37.00,-186.00,880.00,-188.00,18368.00,-1168.00
2313,95.00,30.00,-180.00,956.00,-256.00,18520.00,-1200.00
2370,94.00,23.00,-194.00,972.00,-232.00,18476.00,-1168.00
2426,90.00,27.00,-186.00,924.00,-324.00,18432.00,-1152.00
2483,109.00,37.00,-212.00,916.00,-276.00,18260.00,-1184.00
2539,96.00,43.00,-227.00,980.00,-316.00,18348.00,-1200.00
2595,102.00,16.00,-185.00,1012.00,-296.00,18304.00,-1168.00
2652,105.00,10.00,-201.00,972.00,-300.00,18408.00,-1200.00
2708,108.00,39.00,-192.00,948.00,-300.00,18316.00,-1168.00
2764,93.00,37.00,-207.00,908.00,-248.00,18448.00,-1152.00
2821,97.00,29.00,-188.00,928.00,-276.00,18252.00,-1168.00
2877,97.00,12.00,-174.00,968.00,-328.00,18408.00,-1168.00
2933,89.00,47.00,-175.00,972.00,-316.00,18588.00,-1184.00
2990,129.00,0.00,-175.00,912.00,-284.00,18124.00,-1152.00
3046,100.00,33.00,-188.00,1028.00,-188.00,18504.00,-1184.00
3102,102.00,47.00,-185.00,1008.00,-280.00,18312.00,-1184.00
3159,102.00,41.00,-174.00,944.00,-248.00,18356.00,-1168.00
3216,88.00,8.00,-186.00,956.00,-204.00,18328.00,-1152.00
3272,85.00,16.00,-182.00,980.00,-276.00,18460.00,-1184.00
3329,97.00,27.00,-175.00,836.00,-304.00,18372.00,-1200.00
3385,98.00,25.00,-174.00,932.00,-212.00,18392.00,-1168.00
3441,104.00,30.00,-213.00,932.00,-292.00,18428.00,-1168.00
3497,78.00,31.00,-207.00,1036.00,-248.00,18448.00,-1200.00
3554,76.00,22.00,-182.00,984.00,-292.00,18332.00,-1184.00
3610,101.00,24.00,-213.00,936.00,-188.00,18468.00,-1152.00
3666,108.00,30.00,-188.00,856.00,-284.00,18384.00,-1168.00
3723,87.00,-84.00,-175.00,1168.00,-220.00,18184.00,-1184.00
3779,108.00,20.00,-182.00,900.00,-344.00,18404.00,-1168.00
3835,121.00,89.00,-198.00,780.00,-192.00,18352.00,-1152.00
3892,99.00,69.00,-197.00,972.00,-292.00,18336.00,-1168.00
3948,94.00,26.00,-195.00,892.00,-176.00,18424.00,-1152.00
4004,94.00,10.00,-178.00,996.00,-240.00,18264.00,-1184.00
4061,105.00,42.00,-168.00,896.00,-332.00,18484.00,-1168.00
4118,105.00,45.00,-197.00,1008.00,-260.00,18424.00,-1120.00
4174,94.00,22.00,-202.00,1012.00,-332.00,18368.00,-1184.00
4231,96.00,31.00,-160.00,912.00,-320.00,18608.00,-1200.00
4287,107.00,17.00,-176.00,912.00,-276.00,18448.00,-1184.00
4343,89.00,23.00,-184.00,1052.00,-180.00,18460.00,-1168.00
4400,92.00,46.00,-211.00,908.00,-196.00,18396.00,-1216.00
4456,92.00,-1.00,-176.00,988.00,-288.00,18392.00,-1168.00
4512,98.00,29.00,-174.00,940.00,-268.00,18480.00,-1168.00
4569,88.00,37.00,-208.00,968.00,-284.00,18300.00,-1152.00
4625,88.00,16.00,-190.00,1016.00,-216.00,18360.00,-1168.00
4681,90.00,35.00,-213.00,908.00,-284.00,18300.00,-1184.00
4738,100.00,12.00,-182.00,964.00,-228.00,18380.00,-1152.00
4794,107.00,33.00,-166.00,988.00,-304.00,18428.00,-1200.00
4850,99.00,42.00,-209.00,852.00,-256.00,18300.00,-1216.00
4907,109.00,24.00,-193.00,864.00,-232.00,18340.00,-1168.00
4964,96.00,2.00,-204.00,904.00,-240.00,18376.00,-1152.00
5020,112.00,30.00,-216.00,1100.00,-276.00,18272.00,-1152.00
5076,102.00,10.00,-212.00,948.00,-224.00,18192.00,-1200.00
5133,107.00,17.00,-214.00,844.00,-236.00,18416.00,-1152.00
5189,99.00,27.00,-196.00,896.00,-256.00,18452.00,-1168.00
5245,92.00,3.00,-167.00,916.00,-248.00,18352.00,-1184.00
5302,112.00,37.00,-206.00,912.00,-256.00,18492.00,-1168.00
5358,111.00,17.00,-213.00,948.00,-248.00,18380.00,-1168.00
5414,109.00,42.00,-181.00,888.00,-188.00,18280.00,-1184.00
5471,92.00,26.00,-194.00,968.00,-348.00,18324.00,-1168.00
5527,91.00,17.00,-193.00,932.00,-320.00,18284.00,-1200.00
5583,111.00,32.00,-190.00,892.00,-336.00,18464.00,-1184.00
5640,95.00,11.00,-187.00,964.00,-176.00,18464.00,-1168.00
5696,105.00,5.00,-201.00,940.00,-288.00,18424.00,-1152.00
5752,93.00,32.00,-185.00,980.00,-332.00,18548.00,-1152.00
5809,92.00,13.00,-201.00,884.00,-344.00,18384.00,-1200.00
5865,92.00,15.00,-193.00,916.00,-232.00,18396.00,-1200.00
5922,79.00,40.00,-193.00,1004.00,-248.00,18364.00,-1152.00
5979,82.00,30.00,-189.00,936.00,-308.00,18512.00,-1168.00
6035,111.00,8.00,-160.00,904.00,-280.00,18476.00,-1184.00
6091,103.00,13.00,-202.00,868.00,-308.00,18272.00,-1168.00
6148,100.00,35.00,-150.00,1076.00,-156.00,18376.00,-1200.00
6204,94.00,27.00,-186.00,940.00,-284.00,18452.00,-1200.00
6260,107.00,4.00,-155.00,988.00,-308.00,18420.00,-1184.00
6317,96.00,27.00,-198.00,904.00,-196.00,18200.00,-1152.00
6373,100.00,31.00,-195.00,940.00,-260.00,18384.00,-1168.00
6429,83.00,38.00,-181.00,912.00,-268.00,18444.00,-1184.00
6486,107.00,25.00,-183.00,888.00,-288.00,18272.00,-1168.00
6542,90.00,42.00,-183.00,872.00,-304.00,18520.00,-1184.00
6598,94.00,42.00,-191.00,948.00,-212.00,18388.00,-1184.00
6654,110.00,33.00,-187.00,976.00,-324.00,18504.00,-1200.00
6711,98.00,12.00,-181.00,944.00,-248.00,18496.00,-1184.00
6767,84.00,29.00,-194.00,1044.00,-276.00,18256.00,-1168.00
6824,98.00,38.00,-201.00,940.00,-240.00,18348.00,-1184.00
6881,90.00,11.00,-195.00,1020.00,-212.00,18480.00,-1168.00
6937,97.00,42.00,-208.00,996.00,-300.00,18428.00,-1152.00
6993,94.00,1.00,-173.00,920.00,-244.00,18460.00,-1184.00
7050,87.00,36.00,-198.00,1088.00,-272.00,18392.00,-1136.00
7106,99.00,22.00,-167.00,972.00,-188.00,18532.00,-1184.00
7162,90.00,7.00,-205.00,888.00,-140.00,18424.00,-1152.00
7219,36.00,81.00,-215.00,684.00,-1200.00,18948.00,-1152.00
7275,228.00,-25.00,-251.00,948.00,-260.00,18732.00,-1168.00
7331,98.00,42.00,-165.00,1244.00,300.00,18076.00,-1152.00
7388,37.00,34.00,-222.00,648.00,-612.00,18740.00,-1168.00
7444,150.00,16.00,-207.00,1116.00,-632.00,18548.00,-1152.00
7500,117.00,16.00,-191.00,720.00,208.00,18320.00,-1168.00
7557,24.00,63.00,-194.00,1108.00,-340.00,18252.00,-1168.00
7613,97.00,26.00,-193.00,736.00,-556.00,18540.00,-1136.00
7669,147.00,1.00,-214.00,1128.00,-76.00,18260.00,-1168.00
7726,48.00,35.00,-172.00,872.00,-64.00,18316.00,-1152.00
7782,81.00,56.00,-216.00,992.00,-552.00,18412.00,-1152.00
7839,126.00,11.00,-195.00,912.00,-276.00,18408.00,-1168.00
7896,76.00,28.00,-232.00,968.00,-80.00,18348.00,-1184.00
7952,81.00,34.00,-194.00,872.00,-260.00,18356.00,-1184.00
8008,100.00,20.00,-186.00,972.00,-376.00,18364.00,-1136.00
8065,99.00,14.00,-200.00,1048.00,-168.00,18584.00,-1152.00
8121,85.00,28.00,-178.00,1032.00,-368.00,18524.00,-1200.00
8177,110.00,22.00,-216.00,792.00,-268.00,18372.00,-1152.00
8233,97.00,17.00,-196.00,1044.00,-216.00,18340.00,-1184.00
8290,82.00,31.00,-185.00,964.00,-272.00,18288.00,-1168.00
8346,113.00,-1.00,-185.00,1016.00,-300.00,18528.00,-1184.00
8402,106.00,31.00,-203.00,896.00,-172.00,18348.00,-1200.00
8459,91.00,49.00,-198.00,900.00,-468.00,18348.00,-1184.00
8515,119.00,46.00,-191.00,972.00,-368.00,18492.00,-1200.00
8571,128.00,51.00,-185.00,892.00,-164.00,18408.00,-1152.00
8629,97.00,10.00,-162.00,1080.00,-388.00,18340.00,-1168.00
8685,102.00,29.00,-182.00,780.00,-404.00,18416.00,-1152.00
8741,115.00,-2.00,-190.00,1056.00,-280.00,18424.00,-1200.00
8798,89.00,23.00,-188.00,768.00,-220.00,18376.00,-1152.00
8854,103.00,-1.00,-191.00,888.00,-424.00,18436.00,-1136.00
8910,153.00,300.00,-186.00,1856.00,-212.00,17876.00,-1152.00
8967,147.00,110.00,-179.00,272.00,-340.00,20880.00,-1184.00
9023,119.00,-120.00,-161.00,1728.00,44.00,17984.00,-1168.00
9079,110.00,28.00,-213.00,784.00,-116.00,18472.00,-1168.00
9136,75.00,-2.00,-198.00,860.00,-392.00,18452.00,-1184.00
9192,79.00,26.00,-172.00,864.00,-224.00,18720.00,-1168.00
9248,108.00,8.00,-196.00,912.00,-316.00,18328.00,-1152.00
9306,94.00,-1.00,-172.00,892.00,-312.00,18480.00,-1168.00
9362,68.00,2.00,-166.00,812.00,-224.00,18416.00,-1168.00
9418,71.00,46.00,-211.00,916.00,-376.00,18472.00,-1152.00
9475,105.00,21.00,-168.00,948.00,-392.00,18596.00,-1184.00
9531,124.00,-4.00,-209.00,848.00,-36.00,18220.00,-1216.00
9587,94.00,18.00,-188.00,1048.00,-108.00,18340.00,-1152.00
9644,84.00,28.00,-173.00,948.00,-404.00,18396.00,-1136.00
9700,101.00,38.00,-221.00,924.00,-368.00,18320.00,-1216.00
9756,103.00,20.00,-161.00,1036.00,-172.00,18524.00,-1200.00
9812,55.00,44.00,-233.00,992.00,-196.00,18468.00,-1168.00
9869,109.00,33.00,-181.00,1076.00,-296.00,18460.00,-1136.00
9925,100.00,19.00,-204.00,816.00,-220.00,18160.00,-1168.00
9981,71.00,8.00,-183.00,1136.00,-144.00,18188.00,-1152.00
10038,93.00,53.00,-185.00,944.00,-272.00,18464.00,-1200.00
10094,138.00,-6.00,-182.00,844.00,-300.00,18436.00,-1184.00
10150,80.00,53.00,-189.00,1012.00,-152.00,18364.00,-1168.00
10208,75.00,39.00,-199.00,940.00,-248.00,18424.00,-1168.00
10264,101.00,29.00,-190.00,964.00,-372.00,18404.00,-1152.00
10320,113.00,17.00,-189.00,900.00,-116.00,18444.00,-1152.00
10377,95.00,38.00,-177.00,1056.00,-216.00,18368.00,-1136.00
10433,94.00,26.00,-180.00,860.00,-204.00,18228.00,-1136.00
10489,102.00,40.00,-198.00,912.00,-184.00,18592.00,-1184.00
10546,95.00,9.00,-173.00,984.00,-268.00,18396.00,-1168.00
10602,90.00,36.00,-201.00,896.00,-312.00,18460.00,-1152.00
10658,95.00,31.00,-200.00,1076.00,-288.00,18656.00,-1168.00
10716,115.00,11.00,-184.00,832.00,-344.00,18348.00,-1168.00
10772,104.00,12.00,-190.00,972.00,-204.00,18544.00,-1152.00
10828,225.00,-77.00,-234.00,480.00,460.00,18840.00,-1184.00
10885,80.00,193.00,-160.00,848.00,-328.00,18420.00,-1200.00
10941,167.00,65.00,-193.00,1076.00,136.00,18280.00,-1136.00
10997,110.00,-4.00,-171.00,1064.00,-40.00,18344.00,-1136.00
11054,66.00,43.00,-230.00,640.00,-268.00,18492.00,-1152.00
11110,103.00,31.00,-177.00,948.00,-392.00,18548.00,-1168.00
11167,98.00,24.00,-174.00,836.00,-316.00,18568.00,-1168.00
11224,100.00,29.00,-243.00,1112.00,-348.00,18544.00,-1152.00
11280,102.00,16.00,-184.00,956.00,-384.00,18176.00,-1152.00
11336,99.00,25.00,-191.00,908.00,-152.00,18268.00,-1168.00
11393,79.00,19.00,-187.00,1040.00,-212.00,18416.00,-1152.00
11449,88.00,26.00,-214.00,932.00,-248.00,18240.00,-1152.00
11505,110.00,36.00,-192.00,940.00,-280.00,18412.00,-1136.00
11561,106.00,50.00,-178.00,956.00,-220.00,18288.00,-1168.00
11619,49.00,30.00,-191.00,984.00,-484.00,18352.00,-1184.00
11675,133.00,-29.00,-183.00,1004.00,-320.00,18700.00,-1168.00
11731,107.00,17.00,-185.00,776.00,-196.00,18372.00,-1136.00
11788,87.00,44.00,-193.00,1012.00,-364.00,18448.00,-1168.00
11844,96.00,60.00,-166.00,864.00,-116.00,18500.00,-1184.00
11900,129.00,1.00,-218.00,704.00,-252.00,18320.00,-1152.00
11957,114.00,25.00,-198.00,1192.00,-416.00,18600.00,-1168.00
12013,94.00,24.00,-203.00,680.00,-232.00,18612.00,-1136.00
12069,113.00,29.00,-188.00,1272.00,-392.00,18548.00,-1152.00
12127,103.00,25.00,-183.00,712.00,-160.00,18472.00,-1152.00
12183,114.00,-7.00,-191.00,1116.00,-308.00,18380.00,-1168.00
12239,95.00,16.00,-192.00,800.00,-240.00,18436.00,-1168.00
12296,108.00,0.00,-220.00,928.00,-180.00,18448.00,-1152.00
12352,103.00,31.00,-173.00,1024.00,-324.00,18244.00,-1136.00
12408,88.00,25.00,-176.00,748.00,-212.00,18392.00,-1136.00
12465,105.00,29.00,-208.00,1084.00,-340.00,18364.00,-1184.00
12521,97.00,10.00,-172.00,1016.00,-240.00,18316.00,-1152.00
12578,133.00,17.00,-199.00,1040.00,-272.00,18436.00,-1168.00
12635,117.00,9.00,-180.00,936.00,-332.00,18412.00,-1168.00
12691,105.00,40.00,-199.00,896.00,-164.00,18396.00,-1184.00
12747,103.00,15.00,-214.00,1008.00,-236.00,18492.00,-1168.00
12804,81.00,23.00,-196.00,860.00,-208.00,18524.00,-1168.00
12860,146.00,34.00,-213.00,1352.00,-48.00,18208.00,-1152.00
12916,98.00,-23.00,-179.00,1124.00,-92.00,18032.00,-1168.00
12973,89.00,34.00,-170.00,812.00,-232.00,18508.00,-1152.00
13030,78.00,43.00,-209.00,972.00,-308.00,18372.00,-1136.00
13086,72.00,-18.00,-191.00,996.00,-392.00,18464.00,-1184.00
13143,96.00,49.00,-223.00,864.00,104.00,18316.00,-1184.00
13199,92.00,-29.00,-186.00,636.00,-48.00,18472.00,-1168.00
13255,92.00,19.00,-182.00,1228.00,-484.00,17920.00,-1152.00
13312,89.00,0.00,-198.00,736.00,-120.00,18344.00,-1104.00
13368,100.00,41.00,-175.00,1272.00,-364.00,18432.00,-1168.00
13424,92.00,8.00,-196.00,760.00,-272.00,18484.00,-1136.00
13480,99.00,11.00,-210.00,1052.00,-380.00,18516.00,-1168.00
13537,84.00,-1.00,-176.00,620.00,-204.00,18528.00,-1168.00
13593,87.00,36.00,-206.00,1128.00,-224.00,18276.00,-1152.00
13650,97.00,-2.00,-175.00,976.00,-256.00,18452.00,-1168.00
13707,90.00,-28.00,-186.00,764.00,-168.00,18560.00,-1152.00
