t,gx,gy,gz,ax,ay,az,temp
3,81.00,43.00,-198.00,956.00,-148.00,18688.00,-2368.00
19,107.00,-40.00,-180.00,836.00,-60.00,18560.00,-2336.00
34,80.00,6.00,-163.00,748.00,-160.00,18716.00,-2368.00
51,93.00,2.00,-200.00,768.00,-196.00,18740.00,-2336.00
67,88.00,-2.00,-187.00,724.00,-164.00,18792.00,-2336.00
83,91.00,34.00,-166.00,864.00,-124.00,18672.00,-2368.00
100,64.00,-52.00,-160.00,868.00,-60.00,18592.00,-2368.00
116,71.00,-40.00,-192.00,872.00,-132.00,18776.00,-2336.00
133,74.00,-20.00,-159.00,772.00,-212.00,18784.00,-2352.00
149,102.00,17.00,-187.00,932.00,-152.00,18532.00,-2368.00
165,107.00,6.00,-179.00,872.00,-164.00,18604.00,-2320.00
182,82.00,11.00,-186.00,952.00,-116.00,18484.00,-2320.00
197,93.00,9.00,-196.00,940.00,-108.00,18940.00,-2336.00
214,88.00,8.00,-220.00,848.00,-156.00,18888.00,-2352.00
230,87.00,3.00,-189.00,876.00,-168.00,18624.00,-2320.00
246,71.00,4.00,-156.00,840.00,-100.00,18572.00,-2384.00
263,86.00,0.00,-181.00,836.00,-132.00,18716.00,-2336.00
279,78.00,-26.00,-173.00,776.00,-224.00,18704.00,-2336.00
295,79.00,13.00,-174.00,688.00,-164.00,18716.00,-2336.00
312,66.00,26.00,-165.00,804.00,-88.00,18648.00,-2352.00
328,87.00,21.00,-188.00,792.00,-96.00,18528.00,-2352.00
344,80.00,-11.00,-199.00,804.00,-64.00,18568.00,-2336.00
360,69.00,3.00,-142.00,852.00,-72.00,18816.00,-2336.00
376,90.00,-28.00,-163.00,804.00,-48.00,18884.00,-2368.00
393,97.00,6.00,-193.00,788.00,-152.00,18728.00,-2336.00
409,84.00,35.00,-189.00,940.00,-152.00,18608.00,-2320.00
425,86.00,-29.00,-198.00,784.00,-36.00,18716.00,-2304.00
442,84.00,0.00,-207.00,736.00,-200.00,18720.00,-2336.00
458,85.00,0.00,-182.00,884.00,-148.00,18796.00,-2336.00
475,91.00,11.00,-159.00,812.00,-156.00,18624.00,-2336.00
490,84.00,24.00,-173.00,944.00,-184.00,18420.00,-2352.00
506,89.00,-10.00,-184.00,888.00,-124.00,18740.00,-2368.00
523,84.00,8.00,-169.00,720.00,-164.00,18820.00,-2336.00
539,88.00,1.00,-188.00,848.00,-188.00,18784.00,-2352.00
556,73.00,34.00,-157.00,788.00,-196.00,18612.00,-2320.00
572,73.00,26.00,-190.00,836.00,-164.00,18424.00,-2368.00
588,74.00,4.00,-168.00,860.00,-80.00,18660.00,-2352.00
605,56.00,27.00,-198.00,868.00,-64.00,18996.00,-2368.00
621,81.00,33.00,-187.00,880.00,-76.00,18712.00,-2320.00
637,84.00,-19.00,-192.00,820.00,-168.00,18660.00,-2352.00
654,115.00,1.00,-179.00,876.00,-108.00,18696.00,-2336.00
669,92.00,-4.00,-172.00,792.00,-136.00,18656.00,-2320.00
686,70.00,-25.00,-191.00,756.00,-144.00,18784.00,-2320.00
702,91.00,0.00,-180.00,848.00,-172.00,18792.00,-2368.00
718,79.00,0.00,-185.00,816.00,-216.00,18612.00,-2336.00
735,92.00,-11.00,-176.00,728.00,-168.00,18532.00,-2368.00
751,87.00,5.00,-181.00,768.00,-112.00,18756.00,-2384.00
768,61.00,-17.00,-167.00,828.00,-204.00,18852.00,-2352.00
784,88.00,-9.00,-190.00,788.00,-108.00,18736.00,-2368.00
800,100.00,-16.00,-173.00,852.00,-248.00,18676.00,-2336.00
817,89.00,9.00,-157.00,764.00,-164.00,18532.00,-2352.00
833,74.00,-19.00,-163.00,836.00,-204.00,18572.00,-2336.00
848,100.00,-9.00,-193.00,860.00,-148.00,18728.00,-2368.00
865,100.00,19.00,-176.00,768.00,-204.00,18828.00,-2352.00
881,91.00,42.00,-190.00,760.00,-156.00,18548.00,-2336.00
898,61.00,-10.00,-163.00,904.00,-188.00,18632.00,-2352.00
914,73.00,-27.00,-175.00,760.00,-4.00,18844.00,-2320.00
930,92.00,9.00,-154.00,800.00,-140.00,18580.00,-2352.00
947,76.00,-23.00,-164.00,840.00,-148.00,18656.00,-2336.00
963,77.00,20.00,-191.00,884.00,-128.00,18584.00,-2336.00
979,99.00,-33.00,-193.00,800.00,-104.00,18568.00,-2320.00
996,85.00,-7.00,-179.00,756.00,-196.00,18824.00,-2352.00
1012,88.00,30.00,-157.00,808.00,-180.00,18764.00,-2336.00
1029,77.00,22.00,-167.00,860.00,-164.00,18636.00,-2352.00
1045,91.00,0.00,-161.00,760.00,-108.00,18620.00,-2336.00
1061,74.00,-7.00,-181.00,772.00,-132.00,18716.00,-2368.00
1077,76.00,-15.00,-197.00,848.00,-84.00,18640.00,-2352.00
1093,87.00,-5.00,-179.00,736.00,-200.00,18864.00,-2352.00
1110,71.00,8.00,-191.00,784.00,-132.00,18732.00,-2336.00
1126,83.00,2.00,-150.00,888.00,-232.00,18492.00,-2352.00
1142,85.00,-23.00,-158.00,844.00,-148.00,18692.00,-2352.00
1159,94.00,-16.00,-172.00,816.00,-124.00,18712.00,-2368.00
1175,97.00,9.00,-188.00,844.00,-212.00,18724.00,-2336.00
1191,74.00,6.00,-169.00,796.00,-104.00,18596.00,-2336.00
1208,82.00,-15.00,-172.00,812.00,-144.00,18588.00,-2352.00
1224,100.00,3.00,-141.00,736.00,-192.00,18664.00,-2368.00
1241,90.00,-4.00,-177.00,788.00,-96.00,18836.00,-2352.00
1257,83.00,-13.00,-170.00,816.00,-144.00,18800.00,-2352.00
1273,84.00,38.00,-162.00,800.00,-76.00,18756.00,-2304.00
1290,90.00,-25.00,-178.00,876.00,-160.00,18544.00,-2384.00
1306,84.00,-33.00,-159.00,900.00,-196.00,18720.00,-2336.00
1323,77.00,13.00,-148.00,808.00,-148.00,18724.00,-2352.00
1339,83.00,0.00,-170.00,824.00,-92.00,18856.00,-2304.00
1355,58.00,12.00,-171.00,836.00,-116.00,18632.00,-2336.00
1372,94.00,8.00,-181.00,844.00,-212.00,18404.00,-2352.00
1387,86.00,-18.00,-199.00,720.00,-164.00,18844.00,-2336.00
1403,90.00,13.00,-211.00,760.00,-228.00,18792.00,-2384.00
1420,81.00,-15.00,-192.00,724.00,-160.00,18768.00,-2336.00
1436,97.00,8.00,-176.00,780.00,-124.00,18636.00,-2368.00
1453,83.00,-4.00,-155.00,784.00,12.00,18508.00,-2384.00
1469,96.00,-39.00,-169.00,852.00,-128.00,18784.00,-2336.00
1485,93.00,-16.00,-169.00,756.00,-216.00,18740.00,-2368.00
1502,90.00,5.00,-157.00,748.00,-16.00,18724.00,-2368.00
1518,85.00,5.00,-159.00,796.00,-220.00,18616.00,-2368.00
1534,67.00,-50.00,-193.00,848.00,-368.00,18692.00,-2336.00
1551,67.00,-17.00,-188.00,716.00,-196.00,19020.00,-2336.00
1567,90.00,-19.00,-202.00,840.00,40.00,18848.00,-2352.00
1584,82.00,36.00,-156.00,832.00,-68.00,18732.00,-2336.00
1600,88.00,50.00,-157.00,752.00,-196.00,18660.00,-2336.00
1616,79.00,-5.00,-161.00,648.00,-348.00,18516.00,-2352.00
1633,72.00,-39.00,-217.00,792.00,-176.00,18572.00,-2336.00
1649,91.00,-5.00,-201.00,724.00,40.00,18724.00,-2352.00
1666,69.00,8.00,-164.00,708.00,84.00,18764.00,-2352.00
1681,111.00,37.00,-152.00,704.00,-128.00,18592.00,-2320.00
1698,106.00,7.00,-142.00,788.00,-160.00,18656.00,-2384.00
1714,98.00,-15.00,-190.00,656.00,-268.00,18780.00,-2368.00
1730,88.00,-3.00,-183.00,1028.00,-88.00,18696.00,-2352.00
1746,64.00,23.00,-214.00,912.00,-60.00,18656.00,-2352.00
1763,91.00,23.00,-161.00,916.00,-152.00,18544.00,-2336.00
1779,74.00,3.00,-142.00,984.00,-248.00,18556.00,-2352.00
1796,79.00,-23.00,-193.00,772.00,-360.00,18768.00,-2336.00
1812,86.00,-5.00,-194.00,632.00,-316.00,18912.00,-2352.00
1828,77.00,7.00,-199.00,836.00,-64.00,18676.00,-2336.00
1845,90.00,9.00,-186.00,764.00,-40.00,18608.00,-2336.00
1861,91.00,-12.00,-178.00,788.00,-12.00,18652.00,-2368.00
1878,98.00,-6.00,-146.00,804.00,-192.00,18600.00,-2352.00
1894,95.00,-15.00,-187.00,568.00,-320.00,18948.00,-2368.00
1910,54.00,0.00,-198.00,760.00,-140.00,18796.00,-2368.00
1927,88.00,-11.00,-186.00,828.00,4.00,18500.00,-2352.00
1943,81.00,-6.00,-126.00,852.00,-64.00,18648.00,-2320.00
1958,106.00,13.00,-156.00,796.00,-172.00,18756.00,-2320.00
1975,80.00,2.00,-163.00,824.00,-380.00,18772.00,-2352.00
1991,78.00,23.00,-234.00,776.00,-224.00,18824.00,-2336.00
2008,77.00,-14.00,-219.00,836.00,-188.00,18496.00,-2336.00
2024,96.00,-2.00,-166.00,836.00,0.00,18680.00,-2336.00
2040,82.00,-5.00,-119.00,788.00,-136.00,18772.00,-2352.00
2057,93.00,4.00,-159.00,716.00,-212.00,18748.00,-2336.00
2073,60.00,15.00,-178.00,700.00,-268.00,18832.00,-2352.00
2089,82.00,-1.00,-197.00,812.00,-72.00,18564.00,-2368.00
2106,83.00,-7.00,-157.00,912.00,8.00,18652.00,-2336.00
2122,83.00,11.00,-159.00,728.00,-4.00,18644.00,-2368.00
2139,76.00,2.00,-162.00,840.00,-156.00,18800.00,-2336.00
2155,59.00,36.00,-158.00,768.00,-268.00,18732.00,-2352.00
2171,63.00,6.00,-181.00,852.00,-256.00,18484.00,-2336.00
2187,75.00,-40.00,-182.00,880.00,-228.00,18760.00,-2368.00
2203,92.00,-21.00,-202.00,808.00,-208.00,18796.00,-2368.00
2220,95.00,-8.00,-200.00,864.00,-144.00,18852.00,-2320.00
2236,78.00,28.00,-172.00,768.00,-180.00,18600.00,-2320.00
2252,108.00,21.00,-187.00,836.00,-248.00,18732.00,-2336.00
2269,78.00,-22.00,-212.00,760.00,-108.00,18612.00,-2336.00
2285,67.00,-3.00,-177.00,872.00,56.00,18860.00,-2352.00
2301,71.00,11.00,-138.00,840.00,-44.00,18816.00,-2352.00
2318,80.00,26.00,-143.00,900.00,-112.00,18656.00,-2368.00
2334,90.00,4.00,-121.00,824.00,-188.00,18596.00,-2384.00
2351,113.00,5.00,-189.00,836.00,-332.00,18752.00,-2368.00
2367,74.00,-4.00,-183.00,748.00,-140.00,18804.00,-2352.00
2383,100.00,-4.00,-165.00,804.00,-164.00,18796.00,-2320.00
2400,77.00,23.00,-163.00,888.00,-168.00,18744.00,-2336.00
2416,74.00,-7.00,-163.00,860.00,-264.00,18392.00,-2320.00
2433,82.00,-14.00,-181.00,824.00,-252.00,18652.00,-2368.00
2449,69.00,-23.00,-176.00,812.00,-176.00,18680.00,-2384.00
2465,102.00,15.00,-190.00,792.00,-120.00,18764.00,-2336.00
2482,92.00,7.00,-181.00,812.00,-108.00,18796.00,-2336.00
2498,91.00,-10.00,-171.00,856.00,-176.00,18464.00,-2304.00
2514,67.00,-27.00,-164.00,812.00,-192.00,18812.00,-2384.00
2531,92.00,20.00,-171.00,888.00,-160.00,18840.00,-2304.00
2547,96.00,-37.00,-195.00,824.00,-64.00,19012.00,-2352.00
2564,73.00,1.00,-180.00,804.00,-36.00,18676.00,-2336.00
2580,93.00,-3.00,-157.00,896.00,-168.00,18436.00,-2336.00
2595,102.00,-12.00,-134.00,828.00,-192.00,18632.00,-2352.00
2613,82.00,6.00,-172.00,792.00,-152.00,18964.00,-2336.00
2628,98.00,-10.00,-184.00,816.00,-260.00,18656.00,-2352.00
2644,102.00,2.00,-167.00,836.00,-124.00,18680.00,-2336.00
2661,82.00,10.00,-195.00,856.00,-160.00,18532.00,-2336.00
2677,95.00,-15.00,-171.00,948.00,-184.00,18708.00,-2352.00
2694,76.00,19.00,-158.00,776.00,-296.00,18968.00,-2336.00
2710,87.00,19.00,-155.00,780.00,-124.00,18728.00,-2320.00
2726,113.00,-4.00,-174.00,836.00,-52.00,18496.00,-2336.00
2743,84.00,2.00,-193.00,792.00,-40.00,18500.00,-2336.00
2759,99.00,-3.00,-178.00,860.00,-148.00,18700.00,-2320.00
2776,97.00,-21.00,-175.00,812.00,-168.00,18816.00,-2320.00
2792,63.00,13.00,-174.00,800.00,-200.00,18756.00,-2368.00
2808,68.00,41.00,-163.00,864.00,-276.00,18768.00,-2368.00
2825,98.00,8.00,-166.00,880.00,-128.00,18552.00,-2352.00
2841,83.00,-15.00,-170.00,860.00,-104.00,18728.00,-2352.00
2857,74.00,-4.00,-185.00,852.00,-148.00,18784.00,-2368.00
2874,97.00,21.00,-175.00,760.00,-196.00,18836.00,-2320.00
2890,89.00,8.00,-177.00,764.00,-176.00,18604.00,-2368.00
2907,84.00,31.00,-174.00,800.00,-104.00,18688.00,-2320.00
2923,85.00,-2.00,-192.00,824.00,-176.00,18584.00,-2368.00
2939,90.00,-3.00,-177.00,780.00,-68.00,18792.00,-2336.00
2956,100.00,8.00,-158.00,812.00,-48.00,18800.00,-2352.00
2971,68.00,35.00,-150.00,852.00,-124.00,18536.00,-2320.00
2988,85.00,-5.00,-170.00,880.00,-140.00,18584.00,-2368.00
3004,81.00,20.00,-157.00,776.00,-132.00,18836.00,-2352.00
3020,80.00,-13.00,-184.00,876.00,-156.00,18640.00,-2368.00
3037,58.00,11.00,-179.00,824.00,-132.00,18792.00,-2320.00
3053,84.00,4.00,-170.00,776.00,-148.00,18752.00,-2336.00
3069,81.00,9.00,-144.00,884.00,-124.00,18480.00,-2352.00
3086,75.00,-46.00,-183.00,832.00,-180.00,18640.00,-2336.00
3102,103.00,-24.00,-177.00,696.00,-104.00,18728.00,-2352.00
3119,101.00,14.00,-160.00,820.00,-92.00,18812.00,-2368.00
3135,69.00,7.00,-159.00,928.00,-160.00,18644.00,-2352.00
3151,81.00,27.00,-156.00,888.00,-236.00,18568.00,-2336.00
3168,94.00,-28.00,-178.00,848.00,-100.00,18732.00,-2352.00
3184,89.00,-24.00,-192.00,672.00,-72.00,18880.00,-2336.00
3201,76.00,46.00,-168.00,764.00,-64.00,18984.00,-2336.00
3217,82.00,-1.00,-182.00,916.00,-244.00,18528.00,-2352.00
3233,93.00,-22.00,-168.00,900.00,-176.00,18472.00,-2336.00
3250,87.00,-22.00,-163.00,780.00,-140.00,18768.00,-2352.00
3266,93.00,-8.00,-165.00,840.00,-72.00,18732.00,-2368.00
3282,98.00,23.00,-192.00,808.00,-36.00,18616.00,-2336.00
3299,61.00,-20.00,-169.00,812.00,-108.00,18692.00,-2320.00
3315,80.00,-43.00,-157.00,824.00,-108.00,18636.00,-2368.00
3332,93.00,19.00,-165.00,840.00,-160.00,18964.00,-2320.00
3348,64.00,0.00,-184.00,748.00,-176.00,18888.00,-2336.00
3363,71.00,18.00,-194.00,836.00,-16.00,18748.00,-2368.00
3380,87.00,23.00,-178.00,820.00,-192.00,18636.00,-2352.00
3396,89.00,11.00,-180.00,828.00,-148.00,18508.00,-2336.00
3412,82.00,-29.00,-160.00,796.00,-196.00,18580.00,-2352.00
3429,108.00,-34.00,-188.00,752.00,-100.00,18840.00,-2368.00
3445,84.00,3.00,-181.00,800.00,-160.00,18828.00,-2336.00
3462,69.00,9.00,-193.00,788.00,-160.00,18636.00,-2384.00
3478,100.00,-12.00,-177.00,900.00,-212.00,18624.00,-2352.00
3494,83.00,8.00,-173.00,852.00,-128.00,18768.00,-2320.00
3511,81.00,13.00,-175.00,876.00,-228.00,18764.00,-2336.00
3527,73.00,-12.00,-177.00,768.00,-64.00,18772.00,-2352.00
3544,91.00,20.00,-180.00,820.00,-172.00,18508.00,-2352.00
3560,88.00,-28.00,-161.00,864.00,-192.00,18636.00,-2336.00
3576,99.00,-34.00,-166.00,792.00,-92.00,18768.00,-2352.00
3593,77.00,-2.00,-184.00,836.00,-128.00,18872.00,-2336.00
3609,83.00,32.00,-174.00,900.00,-120.00,18684.00,-2352.00
3625,67.00,33.00,-158.00,768.00,-108.00,18488.00,-2368.00
3642,66.00,5.00,-160.00,880.00,-104.00,18672.00,-2384.00
3658,85.00,-15.00,-197.00,920.00,-176.00,18704.00,-2336.00
3675,100.00,-6.00,-155.00,764.00,-84.00,18732.00,-2352.00
3691,92.00,26.00,-155.00,736.00,-220.00,18616.00,-2320.00
3707,93.00,6.00,-186.00,920.00,-220.00,18404.00,-2400.00
3724,87.00,-14.00,-172.00,836.00,-224.00,18584.00,-2352.00
3740,96.00,0.00,-178.00,796.00,-152.00,18908.00,-2336.00
3757,83.00,-10.00,-193.00,856.00,-164.00,18780.00,-2368.00
3773,85.00,13.00,-160.00,820.00,-144.00,18732.00,-2352.00
3788,81.00,-8.00,-153.00,936.00,-168.00,18684.00,-2368.00
3805,95.00,-15.00,-197.00,764.00,-204.00,18552.00,-2320.00
3821,90.00,-13.00,-186.00,872.00,-24.00,18772.00,-2336.00
3837,78.00,-42.00,-162.00,796.00,-84.00,18820.00,-2320.00
3854,81.00,12.00,-215.00,760.00,-184.00,18656.00,-2368.00
3870,86.00,-8.00,-166.00,720.00,-192.00,18416.00,-2352.00
3887,103.00,-2.00,-173.00,836.00,-156.00,18636.00,-2336.00
3903,72.00,-18.00,-164.00,824.00,-184.00,18816.00,-2320.00
3919,76.00,-1.00,-176.00,804.00,-112.00,18780.00,-2368.00
3936,95.00,26.00,-155.00,756.00,-180.00,18552.00,-2352.00
3952,92.00,15.00,-174.00,884.00,-168.00,18556.00,-2368.00
3969,82.00,-36.00,-181.00,872.00,-72.00,18428.00,-2368.00
3985,108.00,-33.00,-163.00,792.00,-156.00,18816.00,-2336.00
4001,98.00,-18.00,-174.00,732.00,-96.00,18940.00,-2352.00
4018,91.00,-20.00,-166.00,796.00,-152.00,18796.00,-2368.00
4034,95.00,-5.00,-133.00,820.00,-176.00,18676.00,-2352.00
4050,96.00,-9.00,-180.00,896.00,-100.00,18432.00,-2320.00
4067,91.00,-28.00,-176.00,776.00,-108.00,18708.00,-2336.00
4083,57.00,-8.00,-184.00,788.00,-120.00,18696.00,-2352.00
4100,67.00,13.00,-178.00,864.00,-204.00,18488.00,-2368.00
4116,66.00,-22.00,-184.00,840.00,-84.00,18536.00,-2336.00
4132,112.00,-11.00,-167.00,756.00,-160.00,18608.00,-2352.00
4149,83.00,23.00,-205.00,856.00,-204.00,18692.00,-2368.00
4165,66.00,-2.00,-153.00,792.00,-56.00,18696.00,-2336.00
4182,86.00,26.00,-147.00,724.00,-104.00,18728.00,-2368.00
4198,73.00,17.00,-171.00,892.00,-104.00,18544.00,-2336.00
4213,70.00,-13.00,-206.00,864.00,-204.00,18532.00,-2336.00
4230,94.00,-11.00,-163.00,820.00,-224.00,18704.00,-2320.00
4246,74.00,-7.00,-200.00,844.00,-116.00,18672.00,-2368.00
4262,91.00,23.00,-212.00,872.00,-160.00,18704.00,-2352.00
4279,66.00,-8.00,-182.00,852.00,-108.00,18628.00,-2368.00
4295,64.00,-12.00,-178.00,824.00,-140.00,18612.00,-2368.00
4312,81.00,9.00,-184.00,732.00,-140.00,18832.00,-2352.00
4328,90.00,9.00,-144.00,764.00,-84.00,18752.00,-2336.00
4344,97.00,37.00,-185.00,808.00,-232.00,18708.00,-2336.00
4361,96.00,23.00,-167.00,872.00,-156.00,18564.00,-2384.00
4377,67.00,-45.00,-185.00,848.00,-112.00,18664.00,-2368.00
4393,100.00,27.00,-189.00,844.00,-208.00,18820.00,-2352.00
4410,85.00,23.00,-160.00,812.00,-160.00,18656.00,-2352.00
4426,60.00,-16.00,-194.00,888.00,-132.00,18672.00,-2368.00
4443,84.00,19.00,-170.00,816.00,-92.00,18668.00,-2320.00
4459,83.00,-3.00,-164.00,912.00,-76.00,18716.00,-2336.00
4475,89.00,-38.00,-180.00,776.00,-208.00,18620.00,-2368.00
4492,71.00,31.00,-182.00,784.00,-176.00,18728.00,-2352.00
4508,79.00,11.00,-186.00,840.00,-132.00,18520.00,-2336.00
4525,101.00,-10.00,-194.00,780.00,-184.00,18688.00,-2320.00
4541,97.00,3.00,-163.00,772.00,-60.00,18600.00,-2368.00
4557,97.00,-3.00,-159.00,856.00,-124.00,18708.00,-2368.00
4574,90.00,-14.00,-165.00,712.00,-156.00,18704.00,-2352.00
4590,99.00,14.00,-186.00,756.00,-176.00,18608.00,-2336.00
4606,89.00,-4.00,-198.00,832.00,-116.00,18560.00,-2352.00
4622,82.00,-31.00,-182.00,848.00,-64.00,18712.00,-2352.00
4638,76.00,17.00,-174.00,792.00,-188.00,18732.00,-2336.00
4655,86.00,-18.00,-174.00,776.00,-216.00,18616.00,-2352.00
4671,96.00,5.00,-186.00,828.00,-168.00,18612.00,-2368.00
4687,76.00,21.00,-173.00,880.00,-124.00,18568.00,-2352.00
4704,57.00,-14.00,-171.00,804.00,-32.00,18624.00,-2368.00
4720,78.00,5.00,-178.00,832.00,-148.00,18864.00,-2352.00
4737,73.00,-19.00,-165.00,848.00,-144.00,18696.00,-2352.00
4753,80.00,25.00,-185.00,780.00,-164.00,18756.00,-2352.00
4769,85.00,10.00,-183.00,856.00,-80.00,18580.00,-2368.00
4786,99.00,-16.00,-133.00,788.00,-188.00,18528.00,-2336.00
4802,90.00,17.00,-194.00,824.00,-56.00,18812.00,-2352.00
4818,73.00,-35.00,-155.00,820.00,-188.00,18716.00,-2336.00
4835,87.00,12.00,-179.00,760.00,-120.00,18780.00,-2352.00
4851,105.00,-6.00,-187.00,812.00,-140.00,18668.00,-2336.00
4868,83.00,-28.00,-176.00,848.00,-92.00,18704.00,-2352.00
4884,87.00,-2.00,-174.00,836.00,-212.00,18764.00,-2368.00
4900,74.00,7.00,-181.00,824.00,-288.00,18792.00,-2368.00
4917,90.00,2.00,-163.00,804.00,-12.00,18596.00,-2352.00
4933,71.00,7.00,-196.00,776.00,-160.00,18560.00,-2352.00
4948,101.00,10.00,-212.00,856.00,-148.00,18676.00,-2336.00
4966,84.00,-15.00,-167.00,768.00,-176.00,18708.00,-2352.00
4982,89.00,48.00,-169.00,752.00,-96.00,18732.00,-2368.00
4998,83.00,17.00,-201.00,872.00,-108.00,18652.00,-2352.00
5014,54.00,-6.00,-201.00,816.00,-204.00,18644.00,-2336.00
5030,109.00,15.00,-160.00,764.00,-180.00,18600.00,-2352.00
5047,84.00,-5.00,-189.00,804.00,-204.00,18800.00,-2336.00
5063,81.00,39.00,-163.00,820.00,-96.00,18884.00,-2384.00
5080,78.00,22.00,-192.00,764.00,-240.00,18656.00,-2336.00
5096,76.00,-13.00,-157.00,824.00,-100.00,18540.00,-2384.00
5112,99.00,-18.00,-169.00,896.00,-116.00,18768.00,-2336.00
5129,86.00,-17.00,-159.00,844.00,-200.00,18760.00,-2384.00
5145,92.00,10.00,-201.00,832.00,-160.00,18656.00,-2368.00
5161,81.00,33.00,-157.00,776.00,4.00,18704.00,-2352.00
5178,79.00,-4.00,-164.00,860.00,-168.00,18652.00,-2352.00
5194,95.00,-9.00,-190.00,892.00,-136.00,18788.00,-2336.00
5211,93.00,0.00,-156.00,884.00,-112.00,18784.00,-2352.00
5227,89.00,3.00,-176.00,860.00,-216.00,18764.00,-2288.00
5243,84.00,-21.00,-181.00,816.00,-132.00,18768.00,-2336.00
5260,89.00,13.00,-189.00,916.00,-168.00,18464.00,-2352.00
5276,88.00,-45.00,-183.00,752.00,-176.00,18652.00,-2336.00
5293,67.00,-13.00,-167.00,776.00,-172.00,18844.00,-2368.00
5309,87.00,16.00,-177.00,800.00,-56.00,18696.00,-2368.00
5325,87.00,-1.00,-174.00,812.00,-244.00,18664.00,-2400.00
5342,105.00,3.00,-177.00,796.00,-144.00,18628.00,-2336.00
5357,84.00,-40.00,-168.00,888.00,-72.00,18676.00,-2336.00
5373,89.00,-33.00,-170.00,856.00,-176.00,18872.00,-2320.00
5390,73.00,-13.00,-191.00,784.00,-164.00,18720.00,-2336.00
5406,77.00,-12.00,-215.00,880.00,-180.00,18684.00,-2352.00
5423,84.00,-5.00,-194.00,804.00,-184.00,18724.00,-2368.00
5439,101.00,-35.00,-167.00,828.00,-88.00,18764.00,-2368.00
5455,99.00,-37.00,-204.00,672.00,-224.00,18684.00,-2368.00
5472,82.00,9.00,-168.00,740.00,-96.00,18716.00,-2336.00
5488,57.00,24.00,-182.00,820.00,-88.00,18620.00,-2352.00
5505,86.00,-26.00,-170.00,764.00,-172.00,18716.00,-2368.00
5521,80.00,-23.00,-178.00,736.00,-188.00,18820.00,-2368.00
5537,94.00,18.00,-172.00,848.00,-192.00,18944.00,-2336.00
5554,92.00,10.00,-180.00,788.00,-88.00,18788.00,-2352.00
5570,90.00,5.00,-191.00,832.00,-120.00,18704.00,-2352.00
5586,87.00,-1.00,-160.00,860.00,-80.00,18556.00,-2336.00
5603,84.00,-34.00,-190.00,856.00,-172.00,18688.00,-2336.00
5619,95.00,-23.00,-169.00,804.00,-168.00,18792.00,-2352.00
5636,89.00,16.00,-184.00,832.00,-152.00,18652.00,-2368.00
5652,84.00,15.00,-183.00,860.00,-148.00,18500.00,-2352.00
5668,80.00,-13.00,-183.00,848.00,-132.00,18680.00,-2336.00
5685,91.00,-19.00,-158.00,796.00,-72.00,18744.00,-2352.00
5701,85.00,14.00,-179.00,828.00,-152.00,18700.00,-2336.00
5718,76.00,-6.00,-181.00,792.00,-8.00,18712.00,-2352.00
5733,84.00,10.00,-176.00,792.00,-80.00,18652.00,-2368.00
5749,100.00,3.00,-157.00,860.00,-160.00,18520.00,-2352.00
5766,95.00,-16.00,-186.00,868.00,-124.00,18776.00,-2368.00
5782,97.00,5.00,-176.00,800.00,-128.00,18792.00,-2352.00
5798,71.00,19.00,-170.00,776.00,-248.00,18580.00,-2336.00
5815,94.00,9.00,-169.00,832.00,-160.00,18668.00,-2352.00
5831,91.00,10.00,-185.00,788.00,-192.00,18604.00,-2336.00
5848,71.00,-32.00,-183.00,828.00,-124.00,18632.00,-2368.00
5864,68.00,-6.00,-183.00,808.00,-204.00,18820.00,-2368.00
5880,97.00,-2.00,-171.00,808.00,-104.00,18704.00,-2368.00
5897,109.00,-12.00,-183.00,884.00,-52.00,18524.00,-2336.00
5913,80.00,-30.00,-167.00,724.00,-164.00,18608.00,-2336.00
5929,94.00,-13.00,-186.00,748.00,-172.00,18780.00,-2352.00
5946,61.00,-14.00,-170.00,752.00,-176.00,18884.00,-2400.00
5962,90.00,11.00,-169.00,752.00,-124.00,18792.00,-2320.00
5979,75.00,5.00,-167.00,872.00,-88.00,18564.00,-2336.00
5995,94.00,-19.00,-180.00,812.00,-104.00,18600.00,-2336.00
6011,79.00,-12.00,-158.00,856.00,-196.00,18700.00,-2384.00
6028,112.00,7.00,-161.00,768.00,-120.00,18708.00,-2368.00
6044,73.00,-9.00,-199.00,796.00,-112.00,18584.00,-2352.00
6061,78.00,24.00,-171.00,864.00,-192.00,18512.00,-2368.00
6077,112.00,-49.00,-175.00,876.00,-168.00,18532.00,-2400.00
6093,100.00,10.00,-134.00,720.00,-160.00,18796.00,-2336.00
6110,105.00,3.00,-192.00,732.00,-208.00,18764.00,-2352.00
6126,75.00,-3.00,-202.00,892.00,-164.00,18696.00,-2336.00
6142,83.00,13.00,-173.00,824.00,-76.00,18552.00,-2352.00
6158,89.00,17.00,-149.00,776.00,-156.00,18640.00,-2336.00
6174,93.00,-4.00,-185.00,700.00,-60.00,18676.00,-2384.00
6191,76.00,-38.00,-185.00,804.00,-64.00,18812.00,-2352.00
6207,111.00,-23.00,-191.00,828.00,-64.00,18776.00,-2336.00
6223,89.00,5.00,-171.00,760.00,-72.00,18604.00,-2384.00
6240,74.00,6.00,-182.00,860.00,-124.00,18600.00,-2352.00
6256,103.00,-6.00,-179.00,808.00,-124.00,18832.00,-2368.00
6273,98.00,7.00,-182.00,796.00,-160.00,18988.00,-2352.00
6289,89.00,52.00,-183.00,808.00,-120.00,18716.00,-2352.00
6305,108.00,-20.00,-200.00,832.00,-156.00,18604.00,-2368.00
6322,95.00,-12.00,-183.00,820.00,-164.00,18444.00,-2368.00
6338,96.00,-23.00,-204.00,800.00,-76.00,18732.00,-2352.00
6354,91.00,-25.00,-154.00,872.00,-144.00,18848.00,-2352.00
6371,97.00,41.00,-186.00,832.00,-116.00,18604.00,-2336.00
6387,107.00,17.00,-204.00,748.00,-124.00,18476.00,-2352.00
6404,96.00,-19.00,-132.00,832.00,-176.00,18564.00,-2352.00
6420,90.00,20.00,-170.00,752.00,-164.00,18800.00,-2368.00
6436,88.00,10.00,-176.00,820.00,-152.00,18572.00,-2368.00
6453,79.00,8.00,-193.00,796.00,-160.00,18572.00,-2368.00
6469,103.00,17.00,-193.00,824.00,-200.00,18568.00,-2336.00
6486,93.00,-29.00,-182.00,848.00,-116.00,18560.00,-2336.00
6502,96.00,-23.00,-162.00,752.00,-200.00,18712.00,-2352.00
6518,89.00,-2.00,-179.00,808.00,-180.00,18860.00,-2368.00
6535,109.00,24.00,-179.00,740.00,-132.00,18748.00,-2336.00
6551,65.00,7.00,-179.00,840.00,-64.00,18720.00,-2336.00
6567,101.00,-18.00,-195.00,848.00,-164.00,18604.00,-2368.00
6584,76.00,11.00,-166.00,824.00,-184.00,18732.00,-2352.00
6600,92.00,2.00,-177.00,796.00,-168.00,18928.00,-2336.00
6616,92.00,29.00,-184.00,768.00,-124.00,18728.00,-2320.00
6632,78.00,21.00,-152.00,880.00,-128.00,18500.00,-2336.00
6648,89.00,-7.00,-153.00,852.00,-52.00,18616.00,-2384.00
6665,86.00,5.00,-152.00,832.00,-156.00,18856.00,-2368.00
6681,83.00,11.00,-155.00,756.00,-136.00,18812.00,-2336.00
6697,67.00,3.00,-169.00,772.00,-180.00,18496.00,-2352.00
6714,83.00,2.00,-178.00,892.00,-180.00,18620.00,-2304.00
6730,81.00,-4.00,-166.00,812.00,-108.00,18552.00,-2352.00
6747,83.00,-16.00,-176.00,848.00,-164.00,18560.00,-2352.00
6763,90.00,22.00,-171.00,700.00,-188.00,18812.00,-2368.00
6779,99.00,35.00,-179.00,836.00,-136.00,18488.00,-2352.00
6796,81.00,-3.00,-176.00,816.00,-232.00,18440.00,-2336.00
6812,71.00,-17.00,-205.00,800.00,-140.00,18648.00,-2352.00
6829,81.00,-5.00,-189.00,756.00,-76.00,18736.00,-2336.00
6845,76.00,-23.00,-182.00,784.00,-252.00,18744.00,-2368.00
6861,81.00,2.00,-176.00,868.00,-164.00,18744.00,-2336.00
6878,80.00,-10.00,-178.00,944.00,-152.00,18468.00,-2336.00
6894,90.00,-39.00,-157.00,756.00,-188.00,18732.00,-2384.00
6910,85.00,17.00,-172.00,696.00,-204.00,18668.00,-2336.00
6927,98.00,-14.00,-193.00,788.00,-108.00,18728.00,-2320.00
6943,91.00,26.00,-140.00,788.00,-160.00,18632.00,-2336.00
6960,77.00,40.00,-166.00,924.00,-104.00,18568.00,-2352.00
6975,84.00,-1.00,-194.00,928.00,-172.00,18688.00,-2336.00
6991,96.00,-24.00,-190.00,752.00,-236.00,18756.00,-2352.00
7008,97.00,1.00,-177.00,816.00,-60.00,18812.00,-2336.00
7024,58.00,10.00,-145.00,836.00,-220.00,18608.00,-2304.00
7041,82.00,-9.00,-169.00,884.00,-148.00,18464.00,-2384.00
7057,97.00,-26.00,-172.00,828.00,-64.00,18612.00,-2368.00
7073,95.00,-12.00,-172.00,848.00,-144.00,18752.00,-2336.00
7090,95.00,21.00,-173.00,640.00,-192.00,18660.00,-2368.00
7106,66.00,11.00,-179.00,876.00,-216.00,18760.00,-2352.00
7122,76.00,-2.00,-173.00,904.00,-132.00,18532.00,-2368.00
7139,63.00,-23.00,-184.00,832.00,-164.00,18652.00,-2368.00
7155,94.00,-4.00,-175.00,812.00,-120.00,18800.00,-2352.00
7172,87.00,21.00,-165.00,708.00,-208.00,18772.00,-2368.00
7188,79.00,19.00,-190.00,824.00,-88.00,18656.00,-2352.00
7204,97.00,-9.00,-171.00,852.00,-160.00,18532.00,-2368.00
7221,85.00,-14.00,-192.00,812.00,-240.00,18584.00,-2336.00
7237,87.00,15.00,-135.00,884.00,-248.00,18868.00,-2352.00
7254,99.00,-20.00,-167.00,732.00,-180.00,18804.00,-2336.00
7270,83.00,-1.00,-195.00,920.00,-156.00,18620.00,-2384.00
7286,108.00,-7.00,-149.00,816.00,-132.00,18712.00,-2368.00
7303,104.00,-20.00,-167.00,884.00,-184.00,18580.00,-2352.00
7319,79.00,5.00,-200.00,840.00,-276.00,18692.00,-2368.00
7335,66.00,-15.00,-179.00,840.00,-264.00,18708.00,-2384.00
7352,108.00,-3.00,-182.00,748.00,-188.00,18484.00,-2368.00
7368,90.00,32.00,-175.00,900.00,-160.00,18472.00,-2352.00
7385,80.00,-40.00,-164.00,852.00,-132.00,18696.00,-2368.00
7400,107.00,5.00,-183.00,800.00,-164.00,18948.00,-2352.00
7416,75.00,19.00,-174.00,788.00,-144.00,18868.00,-2368.00
7433,102.00,42.00,-169.00,820.00,-160.00,18660.00,-2384.00
7449,91.00,15.00,-186.00,840.00,-84.00,18528.00,-2352.00
7465,85.00,-14.00,-180.00,824.00,-180.00,18756.00,-2352.00
7482,75.00,14.00,-208.00,908.00,-116.00,18772.00,-2368.00
7498,90.00,39.00,-211.00,804.00,-204.00,18776.00,-2352.00
7515,80.00,11.00,-162.00,812.00,-100.00,18704.00,-2336.00
7531,93.00,18.00,-194.00,820.00,-196.00,18428.00,-2320.00
7547,85.00,-27.00,-159.00,832.00,-140.00,18760.00,-2368.00
7564,80.00,-14.00,-199.00,856.00,-124.00,18860.00,-2336.00
7580,114.00,12.00,-174.00,804.00,-180.00,18716.00,-2352.00
7597,66.00,9.00,-208.00,944.00,-148.00,18588.00,-2368.00
7613,82.00,-21.00,-192.00,820.00,-108.00,18504.00,-2352.00
7629,88.00,-3.00,-163.00,808.00,-196.00,18624.00,-2368.00
7646,78.00,-6.00,-195.00,812.00,-112.00,18792.00,-2368.00
7662,87.00,-15.00,-187.00,820.00,-224.00,18712.00,-2352.00
7678,94.00,31.00,-184.00,872.00,-240.00,18532.00,-2336.00
7695,72.00,0.00,-190.00,944.00,-180.00,18464.00,-2352.00
7711,72.00,-13.00,-197.00,720.00,-164.00,18696.00,-2368.00
7728,85.00,9.00,-153.00,780.00,-176.00,18728.00,-2352.00
7744,99.00,19.00,-182.00,824.00,-260.00,18760.00,-2368.00
7760,65.00,37.00,-184.00,648.00,-84.00,18760.00,-2352.00
7777,86.00,8.00,-205.00,888.00,-140.00,18672.00,-2352.00
7793,85.00,-22.00,-170.00,852.00,-80.00,18668.00,-2336.00
7810,82.00,12.00,-181.00,892.00,-156.00,18792.00,-2336.00
7826,76.00,10.00,-194.00,744.00,-120.00,18720.00,-2352.00
7842,92.00,49.00,-157.00,768.00,-180.00,18664.00,-2336.00
7859,86.00,25.00,-169.00,876.00,-144.00,18564.00,-2352.00
7875,73.00,4.00,-178.00,764.00,-176.00,18620.00,-2368.00
7891,84.00,-17.00,-196.00,748.00,-68.00,18832.00,-2352.00
7907,76.00,9.00,-185.00,784.00,-152.00,18644.00,-2368.00
7923,100.00,21.00,-179.00,856.00,-108.00,18616.00,-2368.00
7940,105.00,-4.00,-157.00,828.00,-144.00,18488.00,-2336.00
7956,102.00,-23.00,-174.00,780.00,-56.00,18832.00,-2352.00
7972,80.00,-34.00,-205.00,824.00,-120.00,18704.00,-2336.00
7989,74.00,0.00,-182.00,724.00,-204.00,18724.00,-2352.00
8005,76.00,7.00,-162.00,788.00,-240.00,18628.00,-2352.00
8022,82.00,-15.00,-163.00,772.00,-176.00,18596.00,-2336.00
8038,76.00,-28.00,-167.00,828.00,-132.00,18788.00,-2352.00
8054,85.00,-33.00,-197.00,804.00,-132.00,18828.00,-2368.00
8071,97.00,35.00,-162.00,740.00,-248.00,18764.00,-2352.00
8087,83.00,-7.00,-181.00,792.00,-212.00,18672.00,-2336.00
8103,76.00,-26.00,-171.00,796.00,-132.00,18764.00,-2352.00
8120,94.00,9.00,-169.00,748.00,-120.00,18804.00,-2368.00
8136,74.00,-33.00,-180.00,876.00,-116.00,18708.00,-2384.00
8153,87.00,-1.00,-169.00,732.00,-104.00,18936.00,-2368.00
8169,94.00,22.00,-212.00,872.00,-116.00,18500.00,-2368.00
8185,66.00,-21.00,-155.00,796.00,-84.00,18532.00,-2320.00
8202,95.00,13.00,-181.00,704.00,-108.00,18868.00,-2336.00
8218,84.00,13.00,-137.00,792.00,-196.00,18772.00,-2352.00
8235,87.00,9.00,-158.00,792.00,-144.00,18716.00,-2336.00
8251,73.00,3.00,-200.00,808.00,-240.00,18696.00,-2336.00
8267,71.00,-36.00,-175.00,848.00,-196.00,18532.00,-2320.00
8284,89.00,-14.00,-181.00,900.00,-128.00,18864.00,-2336.00
8300,75.00,-15.00,-192.00,828.00,-168.00,18804.00,-2352.00
8316,92.00,22.00,-184.00,756.00,-180.00,18728.00,-2368.00
8333,65.00,27.00,-201.00,804.00,-104.00,18580.00,-2352.00
8349,73.00,-33.00,-174.00,828.00,-192.00,18640.00,-2336.00
8365,80.00,-45.00,-168.00,900.00,-168.00,18676.00,-2352.00
8381,90.00,-18.00,-196.00,832.00,-92.00,18744.00,-2304.00
8397,94.00,0.00,-168.00,792.00,-152.00,18560.00,-2320.00
8414,88.00,-28.00,-174.00,904.00,-208.00,18404.00,-2352.00
8430,97.00,-7.00,-165.00,836.00,-188.00,18568.00,-2336.00
8446,71.00,2.00,-200.00,812.00,-180.00,18584.00,-2352.00
8463,105.00,-31.00,-185.00,728.00,-156.00,18864.00,-2368.00
8479,85.00,20.00,-161.00,860.00,-100.00,18664.00,-2384.00
8496,101.00,-5.00,-195.00,1012.00,-176.00,18676.00,-2368.00
8512,109.00,15.00,-158.00,888.00,-196.00,18520.00,-2336.00
8528,65.00,-11.00,-134.00,840.00,-132.00,18832.00,-2352.00
8545,90.00,-5.00,-185.00,824.00,-116.00,19004.00,-2368.00
8561,103.00,45.00,-167.00,732.00,-68.00,18748.00,-2352.00
8578,80.00,23.00,-160.00,912.00,-152.00,18492.00,-2368.00
8594,73.00,-46.00,-161.00,896.00,-152.00,18732.00,-2368.00
8610,94.00,-3.00,-169.00,728.00,-108.00,18776.00,-2368.00
8627,83.00,-20.00,-167.00,836.00,-128.00,18712.00,-2352.00
8643,68.00,-11.00,-202.00,864.00,-180.00,18776.00,-2336.00
8659,73.00,15.00,-170.00,892.00,-84.00,18616.00,-2384.00
8676,78.00,-5.00,-183.00,860.00,-192.00,18488.00,-2352.00
8692,86.00,-9.00,-160.00,760.00,-112.00,18796.00,-2336.00
8709,67.00,27.00,-183.00,752.00,-236.00,18760.00,-2384.00
8725,80.00,-27.00,-151.00,876.00,-124.00,18612.00,-2336.00
8741,70.00,8.00,-178.00,864.00,-136.00,18648.00,-2352.00
8758,89.00,13.00,-153.00,872.00,-196.00,18476.00,-2352.00
8774,94.00,-10.00,-197.00,736.00,-96.00,18708.00,-2336.00
8791,98.00,6.00,-158.00,856.00,-240.00,18836.00,-2352.00
8807,71.00,6.00,-178.00,748.00,-100.00,18600.00,-2352.00
8822,69.00,-14.00,-171.00,896.00,-196.00,18616.00,-2368.00
8839,95.00,-6.00,-160.00,808.00,-160.00,18620.00,-2320.00
8855,79.00,0.00,-146.00,856.00,-132.00,18664.00,-2368.00
8871,66.00,7.00,-161.00,700.00,-112.00,18832.00,-2368.00
8888,94.00,30.00,-171.00,864.00,-160.00,18508.00,-2352.00
8904,44.00,22.00,-186.00,944.00,-92.00,18612.00,-2336.00
8921,71.00,-19.00,-167.00,792.00,-112.00,18632.00,-2336.00
8937,115.00,-10.00,-155.00,832.00,-168.00,18708.00,-2368.00
8953,77.00,5.00,-165.00,768.00,-160.00,18692.00,-2352.00
8970,71.00,3.00,-176.00,748.00,-216.00,18772.00,-2336.00
8986,72.00,9.00,-200.00,808.00,-196.00,18500.00,-2368.00
9003,79.00,-2.00,-189.00,812.00,-164.00,18688.00,-2352.00
9019,96.00,-25.00,-168.00,916.00,-140.00,18716.00,-2352.00
9035,79.00,-19.00,-170.00,840.00,-168.00,18788.00,-2336.00
9052,85.00,21.00,-198.00,804.00,-176.00,18824.00,-2384.00
9068,80.00,10.00,-168.00,896.00,-136.00,18388.00,-2368.00
9084,82.00,-10.00,-192.00,880.00,-160.00,18684.00,-2352.00
9101,76.00,-5.00,-142.00,740.00,-168.00,18792.00,-2336.00
9117,96.00,-16.00,-153.00,836.00,-84.00,18820.00,-2384.00
9134,75.00,-2.00,-218.00,784.00,-156.00,18756.00,-2336.00
9150,68.00,32.00,-168.00,804.00,-124.00,18568.00,-2336.00
9166,80.00,-11.00,-183.00,856.00,-132.00,18496.00,-2352.00
9183,96.00,-14.00,-160.00,772.00,-116.00,18792.00,-2336.00
9199,68.00,-6.00,-172.00,752.00,-168.00,18704.00,-2384.00
9214,85.00,7.00,-168.00,860.00,-128.00,18748.00,-2336.00
9231,77.00,-15.00,-185.00,860.00,-172.00,18568.00,-2352.00
9247,94.00,-10.00,-198.00,840.00,-204.00,18696.00,-2336.00
9264,77.00,-30.00,-156.00,836.00,-132.00,18768.00,-2352.00
9280,78.00,-5.00,-154.00,732.00,-80.00,18844.00,-2336.00
9296,78.00,18.00,-188.00,916.00,-196.00,18640.00,-2368.00
9313,93.00,14.00,-162.00,800.00,-140.00,18588.00,-2320.00
9329,90.00,22.00,-163.00,872.00,-296.00,18544.00,-2336.00
9346,105.00,-19.00,-179.00,808.00,-224.00,18760.00,-2352.00
9362,89.00,-29.00,-167.00,844.00,-128.00,18868.00,-2352.00
9378,95.00,39.00,-168.00,844.00,-216.00,18792.00,-2368.00
9395,83.00,-4.00,-185.00,776.00,-160.00,18528.00,-2352.00
9411,89.00,-9.00,-165.00,836.00,-188.00,18604.00,-2368.00
9427,75.00,6.00,-177.00,752.00,-124.00,18736.00,-2368.00
9444,94.00,-38.00,-184.00,860.00,-240.00,18744.00,-2352.00
9460,85.00,56.00,-180.00,932.00,-196.00,18660.00,-2368.00
9477,82.00,-1.00,-148.00,780.00,-276.00,18420.00,-2352.00
9493,78.00,-26.00,-169.00,804.00,-172.00,18652.00,-2336.00
9509,101.00,10.00,-167.00,752.00,-172.00,18768.00,-2400.00
9526,102.00,-4.00,-193.00,824.00,-188.00,18840.00,-2368.00
9542,80.00,3.00,-163.00,788.00,-276.00,18824.00,-2352.00
9559,103.00,-11.00,-142.00,932.00,-212.00,18512.00,-2336.00
9575,99.00,-4.00,-165.00,852.00,-180.00,18532.00,-2320.00
9591,86.00,-23.00,-174.00,776.00,-36.00,18788.00,-2336.00
9608,86.00,25.00,-165.00,768.00,-56.00,18824.00,-2352.00
9624,78.00,-2.00,-182.00,788.00,-96.00,18588.00,-2352.00
9639,85.00,-24.00,-208.00,808.00,-136.00,18516.00,-2352.00
9656,102.00,35.00,-200.00,820.00,-92.00,18556.00,-2336.00
9672,93.00,-5.00,-177.00,716.00,-136.00,18792.00,-2368.00
9689,93.00,0.00,-188.00,772.00,-152.00,18668.00,-2368.00
9705,77.00,4.00,-169.00,928.00,-208.00,18732.00,-2352.00
9721,99.00,-23.00,-187.00,812.00,-196.00,18432.00,-2352.00
9738,84.00,-8.00,-172.00,808.00,-156.00,18608.00,-2336.00
9754,76.00,-27.00,-196.00,836.00,-132.00,18772.00,-2352.00
9771,82.00,24.00,-165.00,816.00,-88.00,19004.00,-2336.00
9787,79.00,19.00,-164.00,848.00,-196.00,18676.00,-2336.00
9803,89.00,-7.00,-147.00,892.00,-220.00,18640.00,-2336.00
9820,96.00,-18.00,-173.00,760.00,4.00,18584.00,-2336.00
9836,91.00,-16.00,-184.00,836.00,-256.00,18804.00,-2336.00
9852,62.00,-1.00,-172.00,824.00,-148.00,18888.00,-2336.00
9869,76.00,39.00,-188.00,804.00,-276.00,18484.00,-2304.00
9885,78.00,-15.00,-182.00,864.00,-204.00,18632.00,-2352.00
9902,91.00,-11.00,-175.00,820.00,-108.00,18812.00,-2368.00
9918,96.00,5.00,-191.00,836.00,-88.00,18828.00,-2352.00
9934,94.00,-6.00,-197.00,832.00,-128.00,18776.00,-2352.00
9950,84.00,1.00,-164.00,784.00,-104.00,18836.00,-2336.00
9966,83.00,-15.00,-218.00,844.00,-188.00,18472.00,-2384.00
9982,103.00,-35.00,-198.00,852.00,-184.00,18524.00,-2368.00
9999,83.00,14.00,-165.00,816.00,-116.00,18920.00,-2384.00
10015,77.00,7.00,-181.00,784.00,-56.00,18908.00,-2368.00
10032,85.00,-2.00,-165.00,700.00,-192.00,18704.00,-2352.00
10048,66.00,3.00,-180.00,856.00,-132.00,18660.00,-2368.00
10064,67.00,-14.00,-175.00,872.00,-76.00,18504.00,-2352.00
10081,76.00,-30.00,-167.00,828.00,-168.00,18732.00,-2336.00
10097,92.00,-9.00,-147.00,720.00,-220.00,18760.00,-2352.00
10114,84.00,10.00,-181.00,820.00,-84.00,18656.00,-2368.00
10130,106.00,-22.00,-170.00,728.00,-60.00,18544.00,-2368.00
10146,95.00,-3.00,-197.00,836.00,-144.00,18648.00,-2384.00
10163,85.00,-23.00,-175.00,680.00,-172.00,18704.00,-2336.00
10179,111.00,13.00,-173.00,792.00,-172.00,18788.00,-2384.00
10195,53.00,21.00,-205.00,852.00,-128.00,18680.00,-2352.00
10212,95.00,2.00,-170.00,864.00,-128.00,18572.00,-2336.00
10228,91.00,-5.00,-195.00,900.00,-48.00,18644.00,-2352.00
10245,78.00,-3.00,-189.00,764.00,-112.00,18708.00,-2336.00
10261,78.00,9.00,-150.00,672.00,-192.00,18716.00,-2352.00
10277,98.00,5.00,-168.00,820.00,-140.00,18636.00,-2336.00
10294,96.00,7.00,-168.00,836.00,-188.00,18640.00,-2352.00
10310,85.00,8.00,-193.00,776.00,-144.00,18708.00,-2336.00
10327,91.00,0.00,-186.00,824.00,-148.00,18728.00,-2320.00
10343,76.00,-1.00,-195.00,720.00,-108.00,18796.00,-2336.00
10359,81.00,21.00,-172.00,836.00,-232.00,18688.00,-2352.00
10376,65.00,9.00,-146.00,904.00,-100.00,18448.00,-2352.00
10392,96.00,-24.00,-171.00,860.00,-24.00,18748.00,-2336.00
10408,81.00,-21.00,-134.00,844.00,-136.00,18812.00,-2384.00
10425,85.00,-11.00,-187.00,832.00,-176.00,18588.00,-2368.00
10441,85.00,21.00,-147.00,844.00,-96.00,18508.00,-2368.00
10458,72.00,23.00,-165.00,828.00,-184.00,18548.00,-2384.00
10474,88.00,-4.00,-183.00,944.00,-296.00,18588.00,-2368.00
10490,95.00,-5.00,-178.00,832.00,-264.00,18752.00,-2320.00
10507,83.00,-2.00,-165.00,812.00,-196.00,18872.00,-2368.00
10523,80.00,33.00,-175.00,900.00,-60.00,18716.00,-2352.00
10540,121.00,27.00,-197.00,816.00,-192.00,18448.00,-2336.00
10556,96.00,-25.00,-181.00,888.00,-188.00,18680.00,-2368.00
10572,109.00,-6.00,-192.00,788.00,-56.00,18676.00,-2368.00
10589,89.00,-3.00,-179.00,744.00,-140.00,18724.00,-2352.00
10605,78.00,40.00,-175.00,904.00,-144.00,18628.00,-2336.00
10621,73.00,-39.00,-187.00,784.00,-160.00,18608.00,-2384.00
10638,93.00,-13.00,-170.00,836.00,-104.00,18644.00,-2336.00
10654,84.00,-5.00,-173.00,780.00,-68.00,18600.00,-2336.00
10671,77.00,22.00,-171.00,788.00,-204.00,18856.00,-2352.00
10687,80.00,2.00,-179.00,844.00,-176.00,18592.00,-2336.00
10703,86.00,7.00,-171.00,832.00,-136.00,18656.00,-2352.00
10720,81.00,-42.00,-176.00,920.00,-104.00,18832.00,-2368.00
10736,89.00,11.00,-182.00,836.00,-152.00,18644.00,-2368.00
10753,76.00,-8.00,-163.00,752.00,-108.00,18916.00,-2384.00
10769,80.00,31.00,-183.00,756.00,-140.00,18600.00,-2368.00
10785,95.00,10.00,-163.00,784.00,-104.00,18464.00,-2336.00
10802,71.00,-36.00,-199.00,784.00,-272.00,18600.00,-2320.00
10818,96.00,2.00,-174.00,848.00,-72.00,18716.00,-2336.00
10834,59.00,-25.00,-181.00,788.00,-168.00,18676.00,-2352.00
10851,91.00,0.00,-166.00,812.00,-216.00,18656.00,-2368.00
10867,93.00,15.00,-173.00,912.00,-132.00,18512.00,-2352.00
10884,99.00,-66.00,-180.00,760.00,-116.00,18508.00,-2368.00
10900,94.00,-17.00,-188.00,752.00,-160.00,18760.00,-2368.00
10916,113.00,10.00,-162.00,836.00,-108.00,18740.00,-2336.00
10933,90.00,30.00,-160.00,792.00,-152.00,18588.00,-2352.00
10949,74.00,28.00,-177.00,844.00,-132.00,18528.00,-2352.00
10966,92.00,-18.00,-158.00,860.00,-176.00,18604.00,-2336.00
10982,65.00,-14.00,-197.00,864.00,-116.00,18796.00,-2368.00
10998,69.00,-3.00,-171.00,724.00,-240.00,18808.00,-2352.00
11015,94.00,38.00,-168.00,824.00,-184.00,18524.00,-2336.00
11031,84.00,-38.00,-185.00,788.00,-68.00,18600.00,-2384.00
11047,99.00,-29.00,-180.00,896.00,-192.00,18560.00,-2368.00
11064,102.00,-37.00,-212.00,772.00,-108.00,18752.00,-2336.00
11081,72.00,3.00,-155.00,892.00,-148.00,18672.00,-2336.00
11098,68.00,-5.00,-162.00,796.00,-228.00,18696.00,-2352.00
11114,88.00,-30.00,-150.00,820.00,-192.00,18416.00,-2400.00
11130,97.00,-39.00,-173.00,876.00,-144.00,18528.00,-2352.00
11147,83.00,-23.00,-183.00,900.00,-172.00,18768.00,-2352.00
11163,90.00,4.00,-175.00,956.00,-140.00,18768.00,-2336.00
11180,79.00,18.00,-166.00,792.00,-172.00,18764.00,-2352.00
11196,90.00,-15.00,-169.00,828.00,-212.00,18548.00,-2368.00
11212,92.00,-28.00,-163.00,800.00,-88.00,18632.00,-2368.00
11229,87.00,2.00,-148.00,916.00,-88.00,18780.00,-2352.00
11244,86.00,-4.00,-165.00,844.00,-112.00,18884.00,-2352.00
11260,64.00,-5.00,-171.00,740.00,-228.00,18684.00,-2368.00
11277,77.00,-4.00,-162.00,848.00,-104.00,18576.00,-2352.00
11293,80.00,-18.00,-190.00,828.00,-160.00,18644.00,-2336.00
11310,107.00,26.00,-167.00,780.00,-184.00,18664.00,-2336.00
11327,83.00,15.00,-185.00,912.00,-64.00,18808.00,-2368.00
11343,66.00,15.00,-187.00,804.00,-180.00,18844.00,-2320.00
11360,75.00,43.00,-179.00,876.00,-136.00,18608.00,-2368.00
11376,79.00,-36.00,-165.00,796.00,-192.00,18580.00,-2352.00
11393,80.00,-38.00,-170.00,784.00,-232.00,18628.00,-2352.00
11409,75.00,18.00,-149.00,780.00,-148.00,18836.00,-2368.00
11425,94.00,3.00,-155.00,784.00,-16.00,18612.00,-2368.00
11442,89.00,-22.00,-190.00,816.00,-152.00,18432.00,-2336.00
11458,80.00,3.00,-193.00,868.00,-136.00,18552.00,-2352.00
11474,101.00,-10.00,-168.00,864.00,-192.00,18632.00,-2336.00
11491,95.00,-18.00,-170.00,768.00,-92.00,18788.00,-2368.00
11507,79.00,7.00,-186.00,896.00,-108.00,18616.00,-2352.00
11524,72.00,-27.00,-186.00,916.00,-68.00,18616.00,-2368.00
11540,87.00,-16.00,-192.00,872.00,-52.00,18624.00,-2320.00
11555,96.00,-49.00,-152.00,824.00,-236.00,18628.00,-2336.00
11573,78.00,-27.00,-189.00,848.00,-168.00,18744.00,-2368.00
11589,82.00,-5.00,-167.00,820.00,-96.00,18604.00,-2352.00
11604,101.00,19.00,-195.00,808.00,-156.00,18640.00,-2368.00
11622,97.00,1.00,-225.00,816.00,-196.00,18652.00,-2368.00
11638,106.00,-29.00,-173.00,748.00,-232.00,18744.00,-2320.00
11655,83.00,-40.00,-164.00,864.00,-172.00,18868.00,-2368.00
11671,76.00,-9.00,-184.00,800.00,-120.00,18820.00,-2336.00
11687,67.00,16.00,-180.00,860.00,-136.00,18460.00,-2336.00
11704,93.00,4.00,-169.00,844.00,-168.00,18744.00,-2368.00
11720,79.00,-2.00,-182.00,816.00,-72.00,18624.00,-2320.00
11736,86.00,-2.00,-165.00,868.00,-212.00,18676.00,-2368.00
11752,78.00,2.00,-167.00,840.00,-176.00,18776.00,-2352.00
11768,86.00,27.00,-184.00,744.00,-188.00,18536.00,-2336.00
11785,101.00,-44.00,-211.00,848.00,-140.00,18500.00,-2352.00
11802,105.00,-41.00,-170.00,848.00,-108.00,18752.00,-2352.00
11819,98.00,21.00,-205.00,848.00,-216.00,18704.00,-2352.00
11835,90.00,30.00,-173.00,952.00,-180.00,18628.00,-2336.00
11851,100.00,1.00,-173.00,856.00,-124.00,18492.00,-2336.00
11868,107.00,-8.00,-152.00,900.00,-276.00,18516.00,-2352.00
11884,96.00,-22.00,-139.00,824.00,-100.00,18760.00,-2368.00
11900,88.00,-7.00,-157.00,800.00,-132.00,18780.00,-2368.00
11917,78.00,30.00,-169.00,764.00,-128.00,18708.00,-2352.00
11933,78.00,8.00,-160.00,884.00,-208.00,18648.00,-2304.00
11950,80.00,-7.00,-176.00,856.00,-84.00,18660.00,-2352.00
11966,62.00,25.00,-174.00,784.00,-264.00,18808.00,-2368.00
11982,88.00,9.00,-150.00,860.00,-208.00,18880.00,-2352.00
11999,89.00,16.00,-167.00,728.00,-220.00,18636.00,-2368.00
12015,99.00,-6.00,-155.00,892.00,-164.00,18624.00,-2352.00
12032,88.00,-16.00,-167.00,756.00,-128.00,18628.00,-2336.00
12048,93.00,-18.00,-196.00,800.00,-36.00,18592.00,-2368.00
12064,98.00,9.00,-176.00,808.00,-204.00,18724.00,-2352.00
12081,78.00,21.00,-198.00,796.00,-172.00,18656.00,-2336.00
12097,93.00,24.00,-195.00,816.00,-68.00,18616.00,-2352.00
12113,102.00,-5.00,-202.00,928.00,-188.00,18588.00,-2336.00
12130,102.00,-28.00,-188.00,736.00,-220.00,18680.00,-2368.00
12146,90.00,8.00,-194.00,784.00,-164.00,18828.00,-2336.00
12163,115.00,10.00,-177.00,764.00,-156.00,18800.00,-2384.00
12179,73.00,8.00,-170.00,852.00,-224.00,18612.00,-2336.00
12195,77.00,-54.00,-193.00,752.00,-108.00,18584.00,-2352.00
12212,100.00,-12.00,-168.00,788.00,-260.00,18788.00,-2336.00
12228,79.00,-34.00,-164.00,748.00,-180.00,18684.00,-2320.00
12244,115.00,-6.00,-162.00,904.00,-140.00,18792.00,-2336.00
12261,97.00,3.00,-167.00,828.00,-88.00,18640.00,-2352.00
12277,107.00,22.00,-180.00,912.00,-228.00,18608.00,-2368.00
12294,99.00,-22.00,-189.00,840.00,-264.00,18744.00,-2368.00
12310,73.00,-25.00,-183.00,884.00,-72.00,18856.00,-2352.00
12326,90.00,19.00,-161.00,800.00,-184.00,18696.00,-2336.00
12343,76.00,-6.00,-184.00,852.00,-56.00,18408.00,-2352.00
12359,89.00,-1.00,-193.00,852.00,-144.00,18484.00,-2336.00
12376,102.00,-4.00,-164.00,876.00,-116.00,18620.00,-2368.00
12392,77.00,-13.00,-192.00,816.00,-60.00,18772.00,-2368.00
12408,77.00,51.00,-187.00,824.00,-104.00,18732.00,-2320.00
12425,66.00,14.00,-158.00,776.00,-172.00,18536.00,-2368.00
12441,83.00,-4.00,-201.00,864.00,-116.00,18664.00,-2368.00
12457,107.00,-24.00,-159.00,744.00,-208.00,18640.00,-2336.00
12474,92.00,3.00,-169.00,832.00,-184.00,18712.00,-2368.00
12490,97.00,36.00,-204.00,756.00,-72.00,18688.00,-2352.00
12507,87.00,31.00,-165.00,764.00,-132.00,18592.00,-2336.00
12523,78.00,-8.00,-187.00,824.00,-88.00,18524.00,-2336.00
12539,83.00,-28.00,-179.00,760.00,-152.00,18652.00,-2368.00
12556,86.00,14.00,-185.00,776.00,-84.00,18600.00,-2368.00
12572,67.00,-2.00,-165.00,856.00,-152.00,18764.00,-2352.00
12589,77.00,9.00,-174.00,840.00,-124.00,18596.00,-2368.00
12605,89.00,0.00,-157.00,888.00,-132.00,18556.00,-2368.00
12621,112.00,-8.00,-177.00,768.00,-168.00,18692.00,-2352.00
12638,97.00,22.00,-166.00,640.00,-148.00,18844.00,-2352.00
12654,93.00,-11.00,-186.00,776.00,-144.00,18744.00,-2368.00
12670,90.00,15.00,-184.00,792.00,-212.00,18688.00,-2352.00
12687,108.00,32.00,-167.00,800.00,-260.00,18652.00,-2384.00
12703,105.00,-30.00,-149.00,724.00,-148.00,18672.00,-2368.00
12720,78.00,36.00,-187.00,668.00,-104.00,18860.00,-2336.00
12736,77.00,38.00,-180.00,828.00,-252.00,18684.00,-2352.00
12752,75.00,-30.00,-177.00,852.00,-120.00,18592.00,-2352.00
12769,85.00,-4.00,-171.00,788.00,-216.00,18644.00,-2368.00
12785,88.00,-27.00,-170.00,816.00,-152.00,18548.00,-2352.00
12802,103.00,-23.00,-168.00,836.00,-108.00,18736.00,-2368.00
12818,98.00,8.00,-184.00,800.00,-148.00,18680.00,-2336.00
12834,79.00,18.00,-179.00,860.00,-148.00,18644.00,-2352.00
12851,93.00,-11.00,-191.00,884.00,-200.00,18492.00,-2304.00
12867,90.00,3.00,-175.00,856.00,-220.00,18700.00,-2336.00
12883,102.00,11.00,-170.00,872.00,-168.00,18712.00,-2352.00
12900,82.00,-3.00,-170.00,812.00,-64.00,18840.00,-2336.00
12916,91.00,16.00,-187.00,716.00,-112.00,18532.00,-2384.00
12933,67.00,-1.00,-189.00,828.00,-40.00,18580.00,-2336.00
12949,104.00,22.00,-178.00,716.00,-128.00,18704.00,-2368.00
12965,73.00,-24.00,-180.00,844.00,-196.00,18720.00,-2368.00
12982,75.00,3.00,-171.00,772.00,-200.00,18632.00,-2336.00
12998,103.00,24.00,-166.00,844.00,-104.00,18432.00,-2352.00
13015,102.00,-28.00,-173.00,880.00,-128.00,18448.00,-2368.00
13031,105.00,6.00,-193.00,708.00,-164.00,18688.00,-2368.00
13047,97.00,-2.00,-161.00,744.00,-108.00,18756.00,-2352.00
13064,80.00,-15.00,-201.00,828.00,-168.00,18812.00,-2336.00
13080,76.00,11.00,-154.00,800.00,-124.00,18640.00,-2336.00
13096,71.00,6.00,-202.00,900.00,-212.00,18440.00,-2352.00
13113,94.00,-31.00,-192.00,872.00,-132.00,18636.00,-2336.00
13129,84.00,1.00,-209.00,740.00,-216.00,18796.00,-2352.00
13146,98.00,-6.00,-159.00,752.00,-104.00,18588.00,-2368.00
13162,63.00,12.00,-147.00,864.00,-104.00,18628.00,-2352.00
13178,83.00,-8.00,-189.00,864.00,-160.00,18664.00,-2368.00
13195,84.00,-15.00,-191.00,900.00,-104.00,18504.00,-2352.00
13211,99.00,-19.00,-147.00,804.00,-164.00,18744.00,-2352.00
13228,71.00,37.00,-185.00,804.00,-164.00,18780.00,-2368.00
13244,80.00,6.00,-168.00,884.00,-152.00,18592.00,-2352.00
13260,83.00,3.00,-192.00,848.00,-216.00,18732.00,-2368.00
13277,97.00,2.00,-174.00,824.00,-160.00,18640.00,-2352.00
13293,64.00,-16.00,-162.00,740.00,-160.00,18752.00,-2336.00
13309,83.00,44.00,-187.00,752.00,-108.00,18608.00,-2336.00
13326,87.00,23.00,-178.00,856.00,-124.00,18636.00,-2320.00
13342,77.00,-14.00,-190.00,772.00,-72.00,18744.00,-2368.00
13359,108.00,-9.00,-176.00,712.00,-188.00,18756.00,-2352.00
13375,102.00,-13.00,-157.00,820.00,-216.00,18620.00,-2352.00
13391,92.00,6.00,-172.00,824.00,-152.00,18708.00,-2368.00
13408,90.00,27.00,-189.00,812.00,-132.00,18644.00,-2320.00
13424,87.00,-7.00,-164.00,848.00,-104.00,18560.00,-2320.00
13441,95.00,-10.00,-158.00,804.00,-80.00,18684.00,-2336.00
13457,74.00,-4.00,-188.00,800.00,-32.00,18780.00,-2352.00
13473,73.00,10.00,-149.00,768.00,-180.00,18544.00,-2384.00
13490,91.00,-12.00,-177.00,732.00,-244.00,18604.00,-2352.00
13506,99.00,-11.00,-183.00,860.00,-92.00,18628.00,-2368.00
13522,82.00,-37.00,-168.00,752.00,-132.00,18528.00,-2320.00
13539,93.00,15.00,-202.00,748.00,-92.00,18932.00,-2336.00
13555,103.00,3.00,-176.00,892.00,-108.00,18704.00,-2352.00
13572,79.00,28.00,-175.00,880.00,-212.00,18500.00,-2352.00
13588,91.00,7.00,-190.00,904.00,-128.00,18580.00,-2336.00
13604,108.00,-23.00,-202.00,900.00,-228.00,18676.00,-2352.00
13621,79.00,-13.00,-176.00,816.00,-52.00,18744.00,-2320.00
13637,66.00,-12.00,-152.00,764.00,-88.00,18736.00,-2368.00
13654,82.00,11.00,-183.00,792.00,-208.00,18600.00,-2352.00
13670,109.00,-12.00,-187.00,868.00,-152.00,18612.00,-2368.00
13686,71.00,18.00,-154.00,788.00,-228.00,18576.00,-2368.00
13703,71.00,1.00,-176.00,808.00,-152.00,18792.00,-2352.00
13719,73.00,-4.00,-188.00,752.00,-68.00,18788.00,-2336.00
13735,84.00,1.00,-157.00,892.00,-120.00,18660.00,-2352.00
13752,104.00,-5.00,-180.00,788.00,-140.00,18552.00,-2368.00
13768,100.00,-27.00,-169.00,840.00,-152.00,18668.00,-2320.00
13785,87.00,-21.00,-166.00,796.00,-212.00,18568.00,-2320.00
13801,94.00,-3.00,-163.00,764.00,-160.00,18712.00,-2336.00
13817,86.00,16.00,-187.00,888.00,-144.00,18824.00,-2352.00
13834,66.00,-28.00,-179.00,804.00,-152.00,18412.00,-2352.00
13850,99.00,-15.00,-188.00,796.00,-108.00,18736.00,-2336.00
13867,100.00,-12.00,-172.00,792.00,-180.00,18956.00,-2320.00
13883,87.00,2.00,-155.00,812.00,-144.00,18684.00,-2320.00
13899,73.00,37.00,-191.00,840.00,-184.00,18712.00,-2368.00
13916,97.00,-8.00,-173.00,884.00,-132.00,18560.00,-2320.00
13932,102.00,-7.00,-162.00,764.00,-184.00,18620.00,-2368.00
13948,89.00,-6.00,-153.00,692.00,-176.00,18816.00,-2368.00
13965,67.00,-6.00,-206.00,872.00,-116.00,18516.00,-2368.00
13981,94.00,-7.00,-158.00,872.00,-248.00,18540.00,-2336.00
13998,96.00,10.00,-149.00,896.00,-96.00,18424.00,-2384.00
14014,89.00,-29.00,-176.00,808.00,-144.00,18712.00,-2368.00
14030,99.00,-10.00,-197.00,812.00,-168.00,18844.00,-2320.00
14047,79.00,15.00,-172.00,776.00,-176.00,18628.00,-2368.00
14063,62.00,2.00,-174.00,864.00,-76.00,18724.00,-2336.00
14080,91.00,-14.00,-163.00,824.00,-168.00,18580.00,-2336.00
14096,99.00,-5.00,-191.00,792.00,-160.00,18644.00,-2352.00
14112,77.00,-4.00,-154.00,760.00,-168.00,18828.00,-2368.00
14129,113.00,39.00,-182.00,880.00,-160.00,18728.00,-2320.00
14145,94.00,15.00,-160.00,912.00,-236.00,18588.00,-2352.00
14161,89.00,-34.00,-194.00,884.00,-140.00,18584.00,-2384.00
14178,110.00,-26.00,-203.00,856.00,-152.00,18820.00,-2368.00
14194,86.00,3.00,-182.00,896.00,-100.00,18808.00,-2368.00
14211,71.00,25.00,-178.00,804.00,-40.00,18780.00,-2336.00
14227,82.00,38.00,-186.00,868.00,-184.00,18600.00,-2336.00
14243,95.00,-5.00,-192.00,772.00,-84.00,18588.00,-2320.00
14260,82.00,-1.00,-186.00,768.00,-244.00,18720.00,-2368.00
14276,72.00,-11.00,-170.00,864.00,-180.00,18764.00,-2352.00
14292,86.00,0.00,-163.00,836.00,-212.00,18872.00,-2368.00
14309,88.00,33.00,-186.00,832.00,-164.00,18724.00,-2352.00
14325,85.00,-8.00,-159.00,836.00,-92.00,18632.00,-2304.00
14342,91.00,-1.00,-149.00,816.00,-156.00,18656.00,-2352.00
14358,110.00,18.00,-174.00,804.00,-148.00,18780.00,-2368.00
14374,97.00,-5.00,-164.00,776.00,-140.00,18744.00,-2336.00
14391,76.00,41.00,-177.00,844.00,-124.00,18540.00,-2352.00
14407,83.00,-10.00,-150.00,956.00,-172.00,18636.00,-2368.00
14424,67.00,-28.00,-178.00,856.00,-68.00,18616.00,-2336.00
14440,60.00,5.00,-167.00,752.00,-140.00,18740.00,-2352.00
14456,91.00,-13.00,-169.00,800.00,-188.00,18628.00,-2304.00
14473,89.00,-17.00,-181.00,812.00,-128.00,18616.00,-2352.00
14489,107.00,7.00,-182.00,872.00,-172.00,18408.00,-2368.00
14505,82.00,-7.00,-173.00,804.00,-108.00,18764.00,-2336.00
14522,75.00,10.00,-165.00,736.00,-212.00,18780.00,-2352.00
14538,90.00,37.00,-177.00,772.00,-192.00,18660.00,-2336.00
14555,64.00,-4.00,-174.00,848.00,-92.00,18576.00,-2320.00
14571,77.00,-28.00,-182.00,764.00,-156.00,18676.00,-2336.00
14587,110.00,4.00,-180.00,820.00,-140.00,18744.00,-2352.00
14604,89.00,-4.00,-171.00,912.00,-124.00,18796.00,-2368.00
14620,77.00,17.00,-156.00,856.00,-228.00,18872.00,-2400.00
14637,83.00,11.00,-157.00,916.00,-80.00,18532.00,-2384.00
14653,95.00,-11.00,-161.00,860.00,-144.00,18556.00,-2368.00
14669,95.00,-31.00,-187.00,808.00,-80.00,18780.00,-2384.00
14686,74.00,-32.00,-195.00,768.00,-124.00,18756.00,-2368.00
14702,86.00,7.00,-170.00,676.00,-284.00,18860.00,-2336.00
14718,91.00,24.00,-185.00,820.00,-68.00,18452.00,-2352.00
14735,81.00,42.00,-191.00,856.00,-148.00,18520.00,-2368.00
14751,91.00,-7.00,-164.00,980.00,-128.00,18700.00,-2352.00
14768,94.00,-21.00,-208.00,840.00,-112.00,18768.00,-2336.00
14784,86.00,3.00,-176.00,804.00,-104.00,18732.00,-2384.00
14800,60.00,16.00,-176.00,832.00,-184.00,18656.00,-2368.00
14817,80.00,29.00,-190.00,792.00,-276.00,18684.00,-2368.00
14833,76.00,-8.00,-206.00,852.00,-176.00,18592.00,-2384.00
14850,96.00,-20.00,-195.00,768.00,-88.00,18860.00,-2368.00
14866,82.00,4.00,-169.00,848.00,-228.00,18820.00,-2352.00
14882,75.00,5.00,-178.00,836.00,-76.00,18636.00,-2368.00
14899,77.00,-1.00,-180.00,764.00,-168.00,18520.00,-2352.00
14914,84.00,-18.00,-151.00,912.00,-240.00,18700.00,-2336.00
14931,99.00,-22.00,-181.00,652.00,-176.00,18764.00,-2352.00
14948,101.00,-16.00,-178.00,832.00,-132.00,18728.00,-2352.00
14964,100.00,26.00,-165.00,892.00,-184.00,18664.00,-2336.00
14981,70.00,-10.00,-163.00,744.00,-96.00,18608.00,-2336.00
14997,94.00,-2.00,-144.00,808.00,-168.00,18596.00,-2352.00
15013,98.00,-12.00,-157.00,848.00,-124.00,18784.00,-2368.00
15030,70.00,-3.00,-162.00,820.00,-108.00,18820.00,-2352.00
15046,96.00,26.00,-180.00,900.00,-156.00,18552.00,-2368.00
15063,85.00,-11.00,-176.00,936.00,-136.00,18616.00,-2368.00
15079,68.00,-18.00,-167.00,792.00,-220.00,18724.00,-2352.00
15095,92.00,17.00,-167.00,840.00,-228.00,18816.00,-2384.00
15112,65.00,-12.00,-162.00,836.00,-224.00,18800.00,-2368.00
15128,69.00,58.00,-168.00,732.00,-88.00,18812.00,-2352.00
15144,82.00,-6.00,-180.00,936.00,-244.00,18468.00,-2368.00
15161,76.00,-40.00,-167.00,764.00,-188.00,18836.00,-2384.00
15177,69.00,2.00,-179.00,792.00,-196.00,18940.00,-2368.00
15194,56.00,-6.00,-186.00,784.00,-68.00,18676.00,-2320.00
15210,89.00,10.00,-223.00,808.00,-48.00,18740.00,-2336.00
15226,81.00,-3.00,-148.00,776.00,-112.00,18408.00,-2320.00
15243,78.00,-23.00,-185.00,888.00,-120.00,18620.00,-2368.00
15259,99.00,-9.00,-173.00,812.00,-120.00,18772.00,-2352.00
15276,84.00,9.00,-188.00,812.00,-144.00,18676.00,-2384.00
15291,87.00,21.00,-168.00,860.00,-160.00,18580.00,-2336.00
15308,105.00,11.00,-185.00,920.00,-200.00,18676.00,-2320.00
15325,96.00,5.00,-187.00,908.00,-140.00,18704.00,-2368.00
15341,82.00,-19.00,-209.00,856.00,-156.00,18768.00,-2368.00
15357,104.00,-16.00,-158.00,788.00,-124.00,18724.00,-2352.00
15374,75.00,20.00,-192.00,900.00,-268.00,18752.00,-2352.00
15390,85.00,-14.00,-195.00,836.00,-240.00,18560.00,-2368.00
15407,91.00,5.00,-204.00,812.00,-120.00,18652.00,-2352.00
15423,101.00,17.00,-160.00,760.00,-52.00,18732.00,-2336.00
15439,70.00,13.00,-172.00,776.00,-252.00,18916.00,-2368.00
15456,112.00,13.00,-172.00,856.00,-36.00,18784.00,-2320.00
15472,79.00,11.00,-171.00,808.00,-220.00,18552.00,-2336.00
15489,79.00,-25.00,-159.00,836.00,-128.00,18592.00,-2352.00
15505,87.00,2.00,-149.00,964.00,-88.00,18792.00,-2384.00
15521,80.00,9.00,-158.00,820.00,-96.00,18748.00,-2384.00
15538,81.00,18.00,-178.00,868.00,-180.00,18628.00,-2368.00
15554,119.00,-16.00,-176.00,896.00,-176.00,18504.00,-2320.00
15570,85.00,-52.00,-182.00,832.00,-168.00,18636.00,-2368.00
15587,66.00,20.00,-185.00,808.00,-152.00,18680.00,-2336.00
15603,94.00,7.00,-171.00,792.00,-80.00,18912.00,-2352.00
15620,59.00,19.00,-172.00,756.00,-116.00,18700.00,-2368.00
15636,79.00,35.00,-178.00,792.00,-48.00,18556.00,-2384.00
15652,90.00,-25.00,-175.00,816.00,-92.00,18508.00,-2336.00
15669,79.00,21.00,-175.00,648.00,-148.00,18640.00,-2352.00
15685,93.00,25.00,-165.00,808.00,-188.00,18788.00,-2352.00
15702,94.00,12.00,-178.00,712.00,-164.00,18644.00,-2336.00
15718,105.00,39.00,-181.00,828.00,-152.00,18512.00,-2352.00
15734,98.00,5.00,-161.00,824.00,-76.00,18548.00,-2352.00
15751,121.00,-20.00,-181.00,824.00,-152.00,18744.00,-2352.00
15767,71.00,12.00,-164.00,732.00,-156.00,18816.00,-2352.00
15783,75.00,14.00,-219.00,760.00,-260.00,18708.00,-2368.00
15800,102.00,20.00,-168.00,784.00,-36.00,18484.00,-2336.00
15816,85.00,-22.00,-177.00,860.00,-148.00,18704.00,-2320.00
15833,67.00,-11.00,-156.00,796.00,-104.00,18796.00,-2336.00
15849,100.00,17.00,-195.00,636.00,-140.00,18976.00,-2368.00
15865,96.00,18.00,-161.00,800.00,-76.00,18780.00,-2320.00
15882,83.00,-8.00,-206.00,900.00,-104.00,18404.00,-2336.00
15898,98.00,-51.00,-157.00,812.00,-248.00,18560.00,-2352.00
15915,119.00,0.00,-162.00,752.00,-132.00,18936.00,-2352.00
15931,94.00,-15.00,-161.00,840.00,-192.00,18600.00,-2368.00
15947,98.00,23.00,-182.00,808.00,-168.00,18716.00,-2352.00
15964,95.00,12.00,-192.00,864.00,-144.00,18672.00,-2336.00
15980,100.00,-3.00,-192.00,852.00,-180.00,18588.00,-2336.00
15996,106.00,-36.00,-174.00,832.00,-112.00,18676.00,-2352.00
16013,78.00,1.00,-181.00,748.00,-108.00,18764.00,-2368.00
16029,90.00,16.00,-161.00,828.00,-88.00,18664.00,-2368.00
16046,89.00,20.00,-173.00,788.00,-72.00,18500.00,-2352.00
16062,62.00,-9.00,-151.00,840.00,-140.00,18560.00,-2336.00
16078,99.00,18.00,-164.00,824.00,-188.00,18736.00,-2368.00
16095,82.00,16.00,-180.00,792.00,-144.00,18812.00,-2336.00
16111,74.00,7.00,-201.00,792.00,-228.00,18736.00,-2352.00
16128,82.00,9.00,-152.00,828.00,-268.00,18616.00,-2336.00
16144,68.00,-21.00,-151.00,960.00,-196.00,18588.00,-2352.00
16160,74.00,-45.00,-157.00,860.00,-116.00,18860.00,-2336.00
16177,90.00,-20.00,-183.00,868.00,-176.00,18784.00,-2336.00
16193,103.00,35.00,-181.00,776.00,-176.00,18620.00,-2352.00
16209,89.00,11.00,-167.00,828.00,-84.00,18520.00,-2384.00
16226,88.00,-21.00,-196.00,900.00,-216.00,18712.00,-2368.00
16242,90.00,-16.00,-170.00,888.00,-92.00,18716.00,-2352.00
16259,70.00,-6.00,-164.00,704.00,-196.00,18908.00,-2368.00
16275,83.00,59.00,-161.00,728.00,-168.00,18616.00,-2352.00
16291,81.00,2.00,-170.00,872.00,-168.00,18516.00,-2336.00
16308,89.00,-22.00,-167.00,804.00,-220.00,18688.00,-2352.00
16324,110.00,1.00,-157.00,828.00,-188.00,18668.00,-2352.00
16340,90.00,1.00,-186.00,844.00,-144.00,18724.00,-2336.00
16357,78.00,32.00,-192.00,856.00,-196.00,18552.00,-2384.00
16373,74.00,28.00,-166.00,800.00,-156.00,18360.00,-2368.00
16390,84.00,-27.00,-189.00,824.00,-132.00,18536.00,-2336.00
16406,88.00,0.00,-198.00,792.00,-128.00,18716.00,-2352.00
16422,72.00,15.00,-168.00,884.00,-104.00,18872.00,-2368.00
16439,88.00,5.00,-170.00,868.00,-68.00,18524.00,-2352.00
16455,95.00,37.00,-172.00,872.00,-136.00,18520.00,-2336.00
16472,76.00,-17.00,-166.00,804.00,-140.00,18584.00,-2384.00
16488,77.00,-15.00,-167.00,712.00,-280.00,18752.00,-2352.00
16504,84.00,1.00,-188.00,852.00,-124.00,18844.00,-2336.00
16521,88.00,34.00,-184.00,840.00,-200.00,18620.00,-2384.00
16537,102.00,13.00,-189.00,784.00,-136.00,18548.00,-2368.00
16553,87.00,-4.00,-197.00,804.00,-140.00,18504.00,-2368.00
16570,95.00,9.00,-159.00,804.00,-184.00,18896.00,-2320.00
16586,90.00,29.00,-180.00,776.00,-220.00,18732.00,-2336.00
16603,88.00,10.00,-187.00,888.00,-132.00,18824.00,-2352.00
16619,79.00,13.00,-169.00,708.00,-176.00,18612.00,-2352.00
16635,97.00,-14.00,-198.00,836.00,-16.00,18544.00,-2336.00
16652,92.00,-38.00,-194.00,900.00,-232.00,18692.00,-2352.00
16668,77.00,13.00,-209.00,760.00,-268.00,18760.00,-2400.00
16685,96.00,46.00,-168.00,780.00,-112.00,18600.00,-2368.00
16701,84.00,-15.00,-170.00,932.00,-152.00,18644.00,-2352.00
16717,87.00,-13.00,-211.00,732.00,-164.00,18732.00,-2352.00
16734,81.00,0.00,-153.00,776.00,-172.00,18664.00,-2368.00
16750,86.00,-7.00,-173.00,856.00,-200.00,18760.00,-2368.00
16766,80.00,12.00,-169.00,748.00,-216.00,18776.00,-2368.00
16783,81.00,14.00,-202.00,892.00,-188.00,18356.00,-2352.00
16799,96.00,-37.00,-180.00,796.00,-112.00,18628.00,-2368.00
16816,89.00,-5.00,-147.00,772.00,-116.00,18800.00,-2368.00
16832,104.00,10.00,-180.00,832.00,-164.00,18820.00,-2336.00
16848,71.00,-7.00,-170.00,860.00,-104.00,18756.00,-2368.00
16865,78.00,2.00,-183.00,680.00,-132.00,18536.00,-2352.00
16881,106.00,-11.00,-172.00,976.00,-68.00,18620.00,-2368.00
16898,76.00,-37.00,-164.00,824.00,-92.00,18672.00,-2368.00
16914,80.00,-31.00,-174.00,916.00,-160.00,18868.00,-2336.00
16930,68.00,32.00,-171.00,904.00,-176.00,18652.00,-2336.00
16947,75.00,5.00,-170.00,752.00,-92.00,18640.00,-2352.00
16963,86.00,-5.00,-190.00,904.00,-132.00,18660.00,-2368.00
16979,103.00,-13.00,-165.00,784.00,-132.00,18652.00,-2320.00
16996,105.00,23.00,-160.00,788.00,-188.00,18828.00,-2336.00
17012,107.00,32.00,-174.00,884.00,-112.00,18600.00,-2368.00
17029,77.00,45.00,-191.00,808.00,-196.00,18600.00,-2336.00
17045,95.00,-1.00,-177.00,816.00,-180.00,18528.00,-2384.00
17061,77.00,-49.00,-170.00,888.00,-148.00,18764.00,-2368.00
17078,77.00,-10.00,-163.00,792.00,-148.00,18736.00,-2336.00
17094,59.00,10.00,-168.00,832.00,-140.00,18624.00,-2384.00
17111,81.00,-14.00,-165.00,904.00,-152.00,18636.00,-2336.00
17127,81.00,-7.00,-148.00,788.00,-160.00,18532.00,-2368.00
17143,76.00,-24.00,-192.00,788.00,-88.00,18648.00,-2320.00
17160,74.00,-20.00,-179.00,740.00,-132.00,18780.00,-2368.00
17176,92.00,18.00,-167.00,840.00,-176.00,18768.00,-2352.00
17192,113.00,9.00,-182.00,860.00,-108.00,18620.00,-2368.00
17209,86.00,-9.00,-172.00,912.00,-72.00,18520.00,-2336.00
17225,117.00,-17.00,-163.00,764.00,-116.00,18644.00,-2368.00
17242,109.00,-19.00,-157.00,788.00,-120.00,18836.00,-2336.00
17258,102.00,-18.00,-196.00,868.00,-140.00,18888.00,-2368.00
17274,96.00,24.00,-199.00,688.00,-116.00,18664.00,-2368.00
17291,56.00,9.00,-169.00,796.00,-108.00,18572.00,-2384.00
17307,97.00,-35.00,-177.00,828.00,-176.00,18888.00,-2336.00
17324,74.00,21.00,-184.00,896.00,-172.00,18732.00,-2384.00
17340,80.00,3.00,-139.00,868.00,-96.00,18724.00,-2336.00
17356,62.00,22.00,-176.00,800.00,-208.00,18640.00,-2384.00
17373,80.00,-5.00,-200.00,912.00,-196.00,18608.00,-2336.00
17389,61.00,-20.00,-163.00,792.00,-252.00,18736.00,-2352.00
17405,86.00,15.00,-186.00,736.00,-180.00,18944.00,-2352.00
17422,67.00,11.00,-194.00,904.00,-132.00,18792.00,-2336.00
17438,79.00,14.00,-176.00,852.00,-140.00,18464.00,-2352.00
17455,98.00,-24.00,-183.00,824.00,-128.00,18656.00,-2352.00
17471,94.00,-7.00,-197.00,856.00,-224.00,18660.00,-2336.00
17487,85.00,16.00,-183.00,756.00,-140.00,18696.00,-2352.00
17504,73.00,6.00,-175.00,776.00,-156.00,18772.00,-2368.00
17520,84.00,3.00,-179.00,836.00,-68.00,18700.00,-2352.00
17537,72.00,-36.00,-126.00,784.00,-64.00,18460.00,-2368.00
17553,97.00,-22.00,-164.00,896.00,-120.00,18744.00,-2384.00
17569,79.00,-20.00,-181.00,736.00,-160.00,18916.00,-2368.00
17586,112.00,19.00,-171.00,844.00,-140.00,18712.00,-2336.00
17602,75.00,16.00,-183.00,832.00,-148.00,18536.00,-2352.00
17618,81.00,-46.00,-177.00,728.00,-72.00,18496.00,-2320.00
17635,101.00,19.00,-150.00,876.00,-108.00,18700.00,-2336.00
17651,87.00,-32.00,-189.00,812.00,-180.00,18732.00,-2368.00
17668,85.00,0.00,-183.00,836.00,-136.00,18796.00,-2320.00
17684,92.00,25.00,-173.00,812.00,-80.00,18628.00,-2336.00
17700,90.00,-27.00,-177.00,892.00,-128.00,18576.00,-2352.00
17717,97.00,1.00,-153.00,788.00,-192.00,18820.00,-2368.00
17733,72.00,5.00,-161.00,820.00,-228.00,18640.00,-2352.00
17750,75.00,8.00,-180.00,808.00,-124.00,18728.00,-2336.00
17766,88.00,41.00,-160.00,800.00,-172.00,18632.00,-2336.00
17782,89.00,-17.00,-161.00,820.00,-144.00,18496.00,-2368.00
17799,92.00,-25.00,-178.00,724.00,-188.00,18712.00,-2304.00
17815,89.00,24.00,-160.00,732.00,-188.00,18804.00,-2352.00
17831,86.00,5.00,-180.00,732.00,-232.00,18640.00,-2336.00
17848,81.00,32.00,-191.00,768.00,-128.00,18700.00,-2384.00
17864,86.00,-3.00,-170.00,916.00,-156.00,18604.00,-2352.00
17881,80.00,13.00,-187.00,852.00,-68.00,18680.00,-2336.00
17897,81.00,-9.00,-167.00,768.00,-172.00,18756.00,-2352.00
17913,93.00,17.00,-193.00,828.00,-124.00,18800.00,-2336.00
17930,81.00,-24.00,-157.00,776.00,-116.00,18500.00,-2352.00
17946,78.00,-18.00,-185.00,812.00,-216.00,18564.00,-2368.00
17963,92.00,-3.00,-168.00,852.00,-124.00,18724.00,-2336.00
17979,78.00,1.00,-153.00,820.00,-196.00,18600.00,-2320.00
17995,105.00,11.00,-175.00,800.00,-96.00,18680.00,-2336.00
18012,83.00,26.00,-179.00,752.00,-152.00,18572.00,-2352.00
18028,106.00,18.00,-166.00,852.00,-120.00,18576.00,-2368.00
18044,77.00,14.00,-187.00,832.00,-168.00,18564.00,-2336.00
18061,98.00,-5.00,-164.00,868.00,-176.00,18900.00,-2320.00
18077,75.00,10.00,-164.00,692.00,-176.00,18716.00,-2336.00
18094,95.00,26.00,-161.00,772.00,-76.00,18568.00,-2368.00
18110,75.00,-23.00,-170.00,856.00,-156.00,18600.00,-2352.00
18126,83.00,-35.00,-174.00,792.00,-116.00,18712.00,-2336.00
18144,103.00,-10.00,-142.00,912.00,-160.00,18824.00,-2336.00
18160,87.00,-1.00,-166.00,716.00,-144.00,18676.00,-2384.00
18177,90.00,3.00,-185.00,844.00,-228.00,18676.00,-2368.00
18193,107.00,-16.00,-209.00,828.00,-124.00,18536.00,-2416.00
18209,108.00,-38.00,-186.00,736.00,-144.00,18744.00,-2352.00
18226,69.00,-5.00,-170.00,836.00,-136.00,18720.00,-2352.00
18242,86.00,10.00,-168.00,896.00,-132.00,18688.00,-2336.00
18258,69.00,-8.00,-179.00,692.00,-212.00,18704.00,-2352.00
18275,94.00,-12.00,-174.00,756.00,-56.00,18480.00,-2368.00
18291,101.00,-19.00,-146.00,872.00,-120.00,18608.00,-2352.00
18308,87.00,-42.00,-167.00,824.00,-188.00,18808.00,-2352.00
18324,83.00,1.00,-167.00,868.00,-128.00,18592.00,-2336.00
18340,81.00,3.00,-153.00,792.00,-212.00,18628.00,-2352.00
18357,79.00,4.00,-173.00,688.00,-200.00,18648.00,-2368.00
18373,94.00,-20.00,-177.00,788.00,-304.00,18464.00,-2352.00
18390,72.00,-11.00,-171.00,820.00,-88.00,18676.00,-2384.00
18406,98.00,23.00,-158.00,892.00,-144.00,18808.00,-2368.00
18422,74.00,-9.00,-188.00,796.00,-244.00,18576.00,-2352.00
18439,88.00,-11.00,-163.00,772.00,-180.00,18608.00,-2336.00
18455,84.00,-2.00,-169.00,824.00,-172.00,18772.00,-2384.00
18471,87.00,-19.00,-185.00,848.00,-160.00,18744.00,-2368.00
18488,86.00,-14.00,-162.00,860.00,-208.00,18632.00,-2336.00
18504,90.00,21.00,-166.00,788.00,-196.00,18684.00,-2416.00
18521,65.00,12.00,-163.00,800.00,-148.00,18532.00,-2368.00
18537,98.00,-16.00,-196.00,792.00,-112.00,18456.00,-2336.00
18553,99.00,-2.00,-172.00,728.00,-156.00,18760.00,-2352.00
18570,92.00,-22.00,-184.00,760.00,-148.00,18784.00,-2336.00
18586,90.00,52.00,-163.00,844.00,-188.00,18680.00,-2352.00
18603,83.00,7.00,-184.00,988.00,-164.00,18496.00,-2336.00
18619,94.00,-50.00,-171.00,752.00,-204.00,18648.00,-2352.00
18635,90.00,-1.00,-190.00,848.00,-220.00,18676.00,-2352.00
18652,94.00,7.00,-145.00,888.00,-108.00,18828.00,-2336.00
18668,84.00,15.00,-197.00,892.00,-144.00,18632.00,-2352.00
18684,88.00,11.00,-175.00,868.00,-92.00,18648.00,-2336.00
18701,100.00,-46.00,-165.00,772.00,-184.00,18600.00,-2352.00
18717,88.00,-16.00,-181.00,780.00,-152.00,18884.00,-2384.00
18734,66.00,13.00,-167.00,788.00,-88.00,18600.00,-2368.00
18750,82.00,-8.00,-179.00,808.00,-200.00,18748.00,-2352.00
18766,78.00,21.00,-177.00,840.00,-96.00,18540.00,-2368.00
18783,58.00,-23.00,-181.00,804.00,-292.00,18664.00,-2368.00
18799,88.00,8.00,-166.00,748.00,-116.00,18740.00,-2336.00
18816,77.00,41.00,-188.00,836.00,-200.00,18716.00,-2384.00
18832,84.00,13.00,-186.00,860.00,-132.00,18572.00,-2368.00
18848,79.00,-4.00,-181.00,812.00,-180.00,18584.00,-2352.00
18865,100.00,-24.00,-179.00,740.00,-124.00,18564.00,-2368.00
18881,97.00,-18.00,-193.00,856.00,-84.00,18772.00,-2368.00
18897,61.00,9.00,-152.00,732.00,-124.00,18772.00,-2352.00
18914,70.00,25.00,-201.00,740.00,-124.00,18508.00,-2368.00
18930,101.00,-7.00,-169.00,864.00,-112.00,18480.00,-2352.00
18947,103.00,-45.00,-163.00,820.00,-104.00,18588.00,-2336.00
18963,102.00,-1.00,-171.00,880.00,-184.00,18852.00,-2336.00
18979,94.00,14.00,-183.00,816.00,-228.00,18728.00,-2368.00
18996,64.00,15.00,-172.00,736.00,-108.00,18552.00,-2384.00
19012,90.00,-19.00,-215.00,896.00,-268.00,18496.00,-2368.00
19028,83.00,-15.00,-164.00,776.00,-196.00,18560.00,-2336.00
19045,59.00,-6.00,-139.00,660.00,-176.00,18724.00,-2352.00
19061,54.00,-28.00,-152.00,824.00,-128.00,18776.00,-2336.00
19078,62.00,1.00,-186.00,664.00,-216.00,18784.00,-2320.00
19094,83.00,-23.00,-167.00,876.00,-140.00,18504.00,-2368.00
19110,87.00,-20.00,-197.00,788.00,-156.00,18732.00,-2336.00
19127,108.00,-7.00,-182.00,792.00,-164.00,18664.00,-2352.00
19143,90.00,13.00,-175.00,876.00,-132.00,18784.00,-2368.00
19160,100.00,0.00,-191.00,824.00,-184.00,18736.00,-2368.00
19176,67.00,7.00,-156.00,864.00,-180.00,18564.00,-2320.00
19192,80.00,-22.00,-196.00,876.00,-148.00,18656.00,-2336.00
19209,88.00,-7.00,-183.00,884.00,-152.00,18836.00,-2352.00
19225,85.00,-13.00,-156.00,740.00,-64.00,18632.00,-2368.00
19241,87.00,3.00,-184.00,788.00,-192.00,18648.00,-2384.00
19258,112.00,-14.00,-185.00,844.00,-128.00,18636.00,-2336.00
19274,81.00,-19.00,-184.00,824.00,-216.00,18688.00,-2336.00
19291,87.00,1.00,-197.00,800.00,-200.00,18628.00,-2352.00
19307,91.00,1.00,-173.00,812.00,-68.00,18832.00,-2336.00
19323,85.00,20.00,-182.00,872.00,-88.00,18520.00,-2352.00
19340,84.00,-26.00,-157.00,856.00,-160.00,18624.00,-2368.00
19356,85.00,-22.00,-166.00,828.00,-200.00,18624.00,-2352.00
19373,80.00,3.00,-156.00,848.00,-204.00,18780.00,-2368.00
19389,71.00,-25.00,-211.00,856.00,-96.00,18732.00,-2352.00
19405,89.00,20.00,-194.00,864.00,-180.00,18748.00,-2336.00
19422,75.00,-7.00,-192.00,840.00,-44.00,18508.00,-2336.00
19438,91.00,-37.00,-204.00,844.00,-124.00,18700.00,-2336.00
19454,99.00,7.00,-172.00,828.00,-176.00,18712.00,-2320.00
19471,79.00,-20.00,-190.00,832.00,-180.00,18628.00,-2368.00
19487,93.00,-12.00,-163.00,700.00,-104.00,18680.00,-2336.00
19504,77.00,9.00,-179.00,968.00,-204.00,18548.00,-2352.00
19520,89.00,-12.00,-175.00,772.00,-228.00,18644.00,-2368.00
19536,95.00,-9.00,-162.00,780.00,-192.00,18704.00,-2352.00
19553,111.00,-6.00,-147.00,828.00,-164.00,18788.00,-2336.00
19569,67.00,1.00,-189.00,888.00,-52.00,18648.00,-2368.00
19586,86.00,1.00,-191.00,800.00,-112.00,18424.00,-2336.00
19602,101.00,-57.00,-171.00,800.00,-96.00,18636.00,-2320.00
19618,64.00,-15.00,-175.00,768.00,-176.00,18824.00,-2352.00
19635,85.00,5.00,-192.00,776.00,-92.00,18852.00,-2336.00
19651,95.00,24.00,-171.00,844.00,-192.00,18808.00,-2368.00
19667,92.00,-4.00,-181.00,800.00,-160.00,18656.00,-2368.00
19684,78.00,-42.00,-198.00,820.00,-176.00,18648.00,-2384.00
19700,74.00,-6.00,-151.00,756.00,-140.00,18752.00,-2400.00
19717,69.00,-8.00,-180.00,876.00,-120.00,18772.00,-2384.00
19733,91.00,-2.00,-203.00,940.00,-144.00,18576.00,-2368.00
19748,91.00,-11.00,-185.00,888.00,-200.00,18496.00,-2352.00
19766,98.00,-62.00,-164.00,780.00,-156.00,18652.00,-2352.00
19782,80.00,-16.00,-183.00,924.00,-72.00,18660.00,-2336.00
19799,71.00,-13.00,-164.00,780.00,-132.00,18844.00,-2384.00
19815,105.00,45.00,-153.00,928.00,-72.00,18732.00,-2336.00
19831,93.00,31.00,-154.00,976.00,-60.00,18548.00,-2400.00
19848,83.00,-38.00,-162.00,772.00,-200.00,18668.00,-2352.00
19864,74.00,20.00,-143.00,844.00,-96.00,18956.00,-2368.00
19880,96.00,-29.00,-167.00,756.00,-148.00,18892.00,-2352.00
19897,59.00,1.00,-197.00,696.00,-192.00,18672.00,-2368.00
19913,82.00,1.00,-181.00,792.00,-180.00,18604.00,-2336.00
19930,79.00,-24.00,-183.00,792.00,-108.00,18716.00,-2320.00
19946,89.00,10.00,-173.00,804.00,-172.00,18864.00,-2368.00
19962,81.00,-14.00,-182.00,788.00,-160.00,18780.00,-2320.00
19979,73.00,40.00,-197.00,828.00,-168.00,18556.00,-2368.00
19995,79.00,35.00,-180.00,832.00,-136.00,18648.00,-2368.00
20012,83.00,15.00,-170.00,844.00,-116.00,18452.00,-2352.00
20028,86.00,-30.00,-160.00,828.00,-164.00,18660.00,-2384.00
20044,88.00,38.00,-161.00,696.00,-164.00,18960.00,-2368.00
20061,74.00,11.00,-152.00,824.00,-96.00,18580.00,-2384.00
20077,100.00,21.00,-182.00,800.00,-44.00,18568.00,-2368.00
20093,85.00,9.00,-153.00,864.00,-192.00,18440.00,-2352.00
20110,102.00,12.00,-207.00,668.00,-148.00,18732.00,-2368.00
20126,58.00,26.00,-182.00,788.00,-212.00,18780.00,-2368.00
20143,78.00,19.00,-188.00,832.00,-176.00,18696.00,-2352.00
20159,85.00,-3.00,-153.00,844.00,-200.00,18508.00,-2352.00
20175,74.00,-27.00,-153.00,820.00,-104.00,18732.00,-2368.00
20192,89.00,-14.00,-199.00,748.00,-144.00,18632.00,-2352.00
20208,70.00,31.00,-168.00,792.00,-144.00,18824.00,-2368.00
20225,101.00,13.00,-154.00,700.00,-148.00,18744.00,-2352.00
20241,59.00,-13.00,-138.00,776.00,-168.00,18588.00,-2352.00
20257,74.00,-39.00,-188.00,908.00,-224.00,18744.00,-2336.00
20274,79.00,-6.00,-172.00,768.00,-160.00,18788.00,-2400.00
20290,94.00,-1.00,-190.00,808.00,-160.00,18648.00,-2352.00
20306,69.00,8.00,-199.00,716.00,-128.00,18796.00,-2368.00
20323,103.00,34.00,-166.00,864.00,-112.00,18540.00,-2352.00
20339,93.00,-21.00,-168.00,804.00,-132.00,18588.00,-2368.00
20356,89.00,-3.00,-159.00,876.00,-72.00,18840.00,-2368.00
20372,77.00,-33.00,-181.00,760.00,-172.00,18860.00,-2368.00
20388,67.00,15.00,-186.00,720.00,-140.00,18732.00,-2352.00
20405,84.00,5.00,-213.00,756.00,-128.00,18508.00,-2352.00
20421,85.00,2.00,-158.00,888.00,-100.00,18720.00,-2368.00
20438,86.00,-11.00,-167.00,880.00,-196.00,18676.00,-2352.00
20454,72.00,28.00,-181.00,764.00,-152.00,18760.00,-2368.00
20470,74.00,-4.00,-184.00,772.00,-232.00,18672.00,-2368.00
20487,84.00,-2.00,-165.00,820.00,-152.00,18528.00,-2352.00
20503,76.00,5.00,-185.00,772.00,-160.00,18448.00,-2352.00
20519,83.00,5.00,-184.00,892.00,-144.00,18712.00,-2368.00
20536,83.00,-38.00,-182.00,840.00,-264.00,18868.00,-2352.00
20552,101.00,17.00,-171.00,816.00,-160.00,18628.00,-2336.00
20569,99.00,-3.00,-160.00,864.00,-160.00,18588.00,-2320.00
20585,78.00,-5.00,-180.00,792.00,-160.00,18560.00,-2368.00
20601,100.00,-28.00,-168.00,872.00,-104.00,18644.00,-2352.00
20618,57.00,7.00,-163.00,808.00,-224.00,18872.00,-2368.00
20634,84.00,-2.00,-190.00,900.00,-156.00,18704.00,-2352.00
20651,106.00,-14.00,-201.00,828.00,-184.00,18612.00,-2368.00
20667,96.00,-37.00,-153.00,792.00,-104.00,18692.00,-2336.00
20683,83.00,-5.00,-176.00,820.00,-188.00,18628.00,-2368.00
20700,102.00,-24.00,-195.00,808.00,-88.00,18648.00,-2352.00
20716,78.00,-11.00,-170.00,704.00,-60.00,18676.00,-2368.00
20732,105.00,14.00,-178.00,812.00,-144.00,18544.00,-2352.00
20749,99.00,-17.00,-188.00,900.00,-144.00,18608.00,-2368.00
20765,75.00,-4.00,-167.00,760.00,-156.00,18624.00,-2368.00
20782,91.00,-5.00,-179.00,864.00,-264.00,18768.00,-2352.00
20798,71.00,5.00,-168.00,800.00,-224.00,18884.00,-2368.00
20814,94.00,50.00,-181.00,788.00,-112.00,18664.00,-2352.00
20831,78.00,7.00,-186.00,856.00,-100.00,18672.00,-2368.00
20847,88.00,-11.00,-157.00,808.00,-44.00,18732.00,-2336.00
20864,68.00,1.00,-185.00,856.00,-140.00,18668.00,-2352.00
20880,85.00,5.00,-173.00,880.00,-116.00,18724.00,-2368.00
20896,80.00,5.00,-182.00,816.00,-144.00,18628.00,-2352.00
20913,87.00,1.00,-177.00,892.00,-92.00,18740.00,-2368.00
20929,90.00,-10.00,-186.00,880.00,-220.00,18692.00,-2336.00
20945,106.00,-12.00,-174.00,732.00,-80.00,18812.00,-2368.00
20962,100.00,17.00,-176.00,916.00,-180.00,18756.00,-2352.00
20978,80.00,-2.00,-184.00,904.00,-180.00,18464.00,-2352.00
20995,109.00,-39.00,-182.00,844.00,-200.00,18656.00,-2368.00
21011,82.00,-3.00,-159.00,756.00,-72.00,18760.00,-2400.00
21027,82.00,-34.00,-174.00,792.00,-104.00,18788.00,-2368.00
21044,94.00,23.00,-169.00,816.00,-136.00,18752.00,-2336.00
21060,86.00,31.00,-184.00,928.00,-96.00,18656.00,-2352.00
21076,88.00,-23.00,-179.00,916.00,-32.00,18748.00,-2368.00
21093,100.00,-5.00,-196.00,788.00,-84.00,18696.00,-2352.00
21109,99.00,-25.00,-152.00,840.00,-104.00,18788.00,-2336.00
21126,65.00,28.00,-180.00,808.00,-148.00,18816.00,-2320.00
21142,81.00,-5.00,-193.00,764.00,-96.00,18544.00,-2384.00
21158,100.00,-23.00,-163.00,832.00,-184.00,18644.00,-2352.00
21175,94.00,-29.00,-185.00,816.00,-160.00,18772.00,-2352.00
21191,92.00,9.00,-145.00,888.00,-284.00,18768.00,-2336.00
21208,86.00,20.00,-159.00,676.00,-64.00,18800.00,-2384.00
21224,81.00,1.00,-179.00,920.00,-232.00,18420.00,-2336.00
21240,76.00,-23.00,-178.00,912.00,-216.00,18608.00,-2384.00
21257,77.00,-5.00,-179.00,768.00,-80.00,18700.00,-2384.00
21272,99.00,-10.00,-182.00,820.00,-204.00,18808.00,-2352.00
21289,80.00,28.00,-176.00,736.00,-204.00,18632.00,-2368.00
21306,88.00,0.00,-200.00,872.00,-192.00,18520.00,-2368.00
21321,86.00,-45.00,-166.00,832.00,-172.00,18676.00,-2320.00
21338,91.00,-10.00,-197.00,804.00,-168.00,18660.00,-2368.00
21355,74.00,3.00,-174.00,800.00,-136.00,18756.00,-2336.00
21370,72.00,18.00,-184.00,852.00,-60.00,18684.00,-2336.00
21387,95.00,-23.00,-190.00,852.00,-188.00,18544.00,-2368.00
21403,94.00,9.00,-165.00,788.00,-140.00,18748.00,-2352.00
21420,88.00,-10.00,-160.00,848.00,-216.00,18548.00,-2336.00
21436,76.00,-19.00,-180.00,804.00,-212.00,18776.00,-2368.00
21453,101.00,9.00,-168.00,820.00,-172.00,18716.00,-2384.00
21470,92.00,24.00,-156.00,892.00,-192.00,18552.00,-2336.00
21486,105.00,-2.00,-142.00,748.00,-60.00,18660.00,-2368.00
21502,102.00,4.00,-174.00,820.00,-124.00,18676.00,-2384.00
21519,81.00,-42.00,-184.00,780.00,-184.00,18508.00,-2368.00
21535,92.00,3.00,-152.00,824.00,-112.00,18716.00,-2352.00
21552,75.00,-2.00,-174.00,764.00,-220.00,18536.00,-2368.00
21568,76.00,-4.00,-177.00,932.00,-140.00,18548.00,-2352.00
21584,103.00,-43.00,-166.00,788.00,-116.00,18632.00,-2384.00
21601,79.00,18.00,-156.00,768.00,-184.00,18684.00,-2368.00
21617,70.00,28.00,-177.00,740.00,-296.00,18576.00,-2336.00
21634,82.00,42.00,-171.00,780.00,-168.00,18532.00,-2352.00
21650,74.00,-19.00,-174.00,920.00,-216.00,18544.00,-2336.00
21666,93.00,6.00,-183.00,736.00,-144.00,18780.00,-2368.00
21683,73.00,-5.00,-181.00,792.00,-100.00,18780.00,-2384.00
21699,86.00,20.00,-159.00,780.00,-144.00,18728.00,-2336.00
21715,78.00,30.00,-168.00,764.00,-196.00,18616.00,-2352.00
21732,102.00,4.00,-174.00,868.00,-96.00,18612.00,-2368.00
21748,84.00,-24.00,-174.00,816.00,-72.00,18744.00,-2352.00
21765,78.00,27.00,-188.00,840.00,-172.00,18788.00,-2336.00
21781,76.00,-5.00,-179.00,876.00,-144.00,18576.00,-2368.00
21797,100.00,-9.00,-191.00,864.00,-120.00,18600.00,-2352.00
21814,94.00,31.00,-176.00,872.00,-216.00,18528.00,-2336.00
21830,97.00,-26.00,-154.00,808.00,-92.00,18704.00,-2368.00
21847,86.00,26.00,-178.00,620.00,-132.00,18704.00,-2384.00
21863,76.00,50.00,-179.00,764.00,-216.00,18824.00,-2368.00
21879,79.00,-1.00,-183.00,852.00,-144.00,18496.00,-2320.00
21896,85.00,2.00,-183.00,820.00,-76.00,18584.00,-2368.00
21911,115.00,-1.00,-177.00,816.00,-212.00,18720.00,-2352.00
21928,96.00,-26.00,-165.00,812.00,-108.00,18792.00,-2368.00
21945,88.00,39.00,-164.00,880.00,-84.00,18848.00,-2368.00
21961,73.00,6.00,-180.00,800.00,-64.00,18672.00,-2384.00
21977,106.00,6.00,-146.00,836.00,-144.00,18512.00,-2352.00
21993,88.00,-5.00,-168.00,760.00,-140.00,18888.00,-2352.00
22009,93.00,-24.00,-182.00,804.00,-168.00,18748.00,-2368.00
22026,79.00,-24.00,-164.00,848.00,-104.00,18860.00,-2384.00
22042,69.00,11.00,-184.00,856.00,-120.00,18744.00,-2320.00
22060,92.00,-30.00,-163.00,940.00,-100.00,18616.00,-2368.00
22076,92.00,-22.00,-139.00,896.00,-68.00,18660.00,-2352.00
22092,92.00,3.00,-192.00,696.00,-88.00,18760.00,-2368.00
22108,74.00,15.00,-203.00,724.00,-144.00,18680.00,-2352.00
22124,97.00,32.00,-179.00,832.00,-156.00,18576.00,-2368.00
22140,89.00,-11.00,-153.00,820.00,-188.00,18556.00,-2368.00
22158,99.00,-25.00,-175.00,864.00,-124.00,18720.00,-2384.00
22174,96.00,11.00,-162.00,732.00,-156.00,18780.00,-2336.00
22191,68.00,-18.00,-175.00,828.00,-168.00,18724.00,-2336.00
22207,75.00,2.00,-182.00,872.00,-140.00,18572.00,-2384.00
22223,95.00,-11.00,-169.00,860.00,-144.00,18776.00,-2368.00
22240,85.00,-36.00,-179.00,932.00,-152.00,18584.00,-2352.00
22256,77.00,0.00,-181.00,732.00,-248.00,18684.00,-2352.00
22273,80.00,33.00,-216.00,824.00,-112.00,18748.00,-2352.00
22289,96.00,2.00,-149.00,796.00,-216.00,18628.00,-2352.00
22305,83.00,-15.00,-202.00,784.00,-248.00,18640.00,-2368.00
22322,87.00,2.00,-174.00,804.00,-108.00,18600.00,-2352.00
22338,111.00,-12.00,-197.00,776.00,-116.00,18708.00,-2368.00
22354,88.00,18.00,-188.00,956.00,-144.00,18824.00,-2368.00
22371,100.00,34.00,-197.00,856.00,-88.00,18644.00,-2384.00
22387,78.00,-20.00,-177.00,748.00,-172.00,18576.00,-2400.00
22404,93.00,7.00,-202.00,808.00,-84.00,18648.00,-2368.00
22420,95.00,19.00,-165.00,920.00,-96.00,18780.00,-2368.00
22436,98.00,-9.00,-181.00,760.00,-200.00,18600.00,-2352.00
22453,96.00,23.00,-172.00,732.00,-104.00,18608.00,-2336.00
22469,86.00,14.00,-171.00,804.00,-236.00,18528.00,-2352.00
22486,85.00,-46.00,-154.00,820.00,-160.00,18696.00,-2352.00
22502,56.00,-16.00,-176.00,864.00,-132.00,18732.00,-2368.00
22518,80.00,11.00,-155.00,836.00,-140.00,18556.00,-2352.00
22535,88.00,23.00,-175.00,792.00,-64.00,18548.00,-2384.00
22551,67.00,-31.00,-160.00,852.00,-116.00,18608.00,-2368.00
22567,92.00,-25.00,-201.00,864.00,-64.00,18744.00,-2352.00
22584,88.00,-2.00,-179.00,732.00,-48.00,18704.00,-2336.00
22599,82.00,-23.00,-166.00,788.00,-64.00,18700.00,-2368.00
22616,96.00,5.00,-181.00,792.00,-104.00,18512.00,-2368.00
22632,97.00,7.00,-167.00,820.00,-168.00,18572.00,-2352.00
22648,89.00,-29.00,-165.00,824.00,-128.00,18692.00,-2368.00
22665,93.00,-24.00,-189.00,760.00,-256.00,18752.00,-2352.00
22681,95.00,8.00,-182.00,768.00,-204.00,18796.00,-2368.00
22697,67.00,-6.00,-143.00,832.00,-148.00,18576.00,-2384.00
22714,86.00,-19.00,-159.00,788.00,-32.00,18732.00,-2368.00
22730,96.00,-25.00,-207.00,752.00,-124.00,18768.00,-2368.00
22747,64.00,1.00,-170.00,792.00,-200.00,18764.00,-2352.00
22763,82.00,19.00,-166.00,856.00,-124.00,18800.00,-2368.00
22779,67.00,14.00,-172.00,864.00,-232.00,18708.00,-2352.00
22796,72.00,8.00,-176.00,772.00,-32.00,18680.00,-2368.00
22812,105.00,-9.00,-174.00,908.00,-192.00,18660.00,-2384.00
22829,73.00,16.00,-160.00,872.00,-172.00,18824.00,-2368.00
22845,89.00,5.00,-169.00,724.00,-144.00,18880.00,-2368.00
22861,60.00,41.00,-185.00,836.00,-64.00,18512.00,-2352.00
22878,91.00,-6.00,-201.00,884.00,-148.00,18504.00,-2368.00
22894,103.00,-6.00,-190.00,812.00,-120.00,18608.00,-2352.00
22910,76.00,-1.00,-183.00,772.00,-160.00,18872.00,-2352.00
22927,96.00,13.00,-176.00,792.00,-164.00,18608.00,-2336.00
22943,106.00,38.00,-177.00,804.00,-128.00,18688.00,-2352.00
22961,78.00,-12.00,-190.00,924.00,-152.00,18400.00,-2320.00
22977,82.00,-21.00,-164.00,752.00,-168.00,18588.00,-2368.00
22993,90.00,7.00,-161.00,792.00,-152.00,18868.00,-2336.00
23010,78.00,1.00,-164.00,816.00,-196.00,18800.00,-2368.00
23026,93.00,16.00,-161.00,788.00,-204.00,18576.00,-2336.00
23043,97.00,-3.00,-172.00,888.00,-64.00,18488.00,-2352.00
23058,89.00,14.00,-166.00,824.00,-184.00,18692.00,-2336.00
23074,69.00,-1.00,-200.00,792.00,-108.00,18684.00,-2352.00
23091,85.00,22.00,-188.00,856.00,-196.00,18776.00,-2336.00
23107,105.00,-6.00,-151.00,956.00,-108.00,18668.00,-2368.00
23124,107.00,25.00,-156.00,836.00,-136.00,18700.00,-2352.00
23141,88.00,-29.00,-189.00,892.00,-136.00,18624.00,-2384.00
23157,63.00,-46.00,-178.00,724.00,-204.00,18824.00,-2336.00
23174,94.00,18.00,-162.00,784.00,-176.00,18784.00,-2336.00
23190,78.00,-16.00,-175.00,932.00,-184.00,18548.00,-2352.00
23206,87.00,-12.00,-173.00,792.00,-176.00,18656.00,-2336.00
23223,89.00,9.00,-157.00,752.00,-108.00,18696.00,-2368.00
23239,79.00,-9.00,-174.00,800.00,-176.00,18892.00,-2352.00
23256,86.00,41.00,-151.00,792.00,-220.00,18720.00,-2336.00
23272,90.00,1.00,-202.00,856.00,-144.00,18676.00,-2384.00
23288,95.00,-16.00,-174.00,872.00,-260.00,18644.00,-2368.00
23305,107.00,-16.00,-141.00,812.00,-112.00,18816.00,-2368.00
23321,89.00,-6.00,-155.00,796.00,-180.00,18764.00,-2352.00
23337,70.00,-4.00,-160.00,884.00,-156.00,18652.00,-2368.00
23354,85.00,-11.00,-190.00,856.00,-120.00,18488.00,-2352.00
23370,87.00,15.00,-186.00,836.00,-136.00,18548.00,-2368.00
23387,119.00,-2.00,-182.00,816.00,-148.00,18616.00,-2336.00
23403,89.00,16.00,-189.00,892.00,-64.00,18900.00,-2384.00
23419,100.00,-35.00,-188.00,844.00,-244.00,18752.00,-2336.00
23436,100.00,26.00,-184.00,856.00,-116.00,18532.00,-2368.00
23452,91.00,-9.00,-155.00,860.00,-60.00,18512.00,-2368.00
23469,103.00,6.00,-181.00,876.00,-140.00,18764.00,-2336.00
23485,84.00,-37.00,-181.00,756.00,-136.00,18676.00,-2336.00
23501,46.00,3.00,-174.00,792.00,-228.00,18732.00,-2320.00
23518,81.00,13.00,-179.00,852.00,-208.00,18648.00,-2368.00
23534,78.00,8.00,-167.00,868.00,-224.00,18648.00,-2352.00
23550,90.00,-3.00,-174.00,824.00,-108.00,18640.00,-2368.00
23567,94.00,5.00,-189.00,888.00,-72.00,18820.00,-2368.00
23583,91.00,-2.00,-166.00,868.00,-68.00,18644.00,-2336.00
23600,66.00,53.00,-173.00,872.00,-232.00,18760.00,-2352.00
23616,77.00,-2.00,-151.00,808.00,-156.00,18632.00,-2368.00
23632,93.00,-8.00,-176.00,864.00,-132.00,18628.00,-2352.00
23649,107.00,-13.00,-199.00,788.00,-84.00,18800.00,-2400.00
23665,90.00,2.00,-175.00,780.00,-156.00,18788.00,-2368.00
23682,87.00,59.00,-177.00,880.00,-92.00,18568.00,-2384.00
23697,81.00,22.00,-149.00,820.00,-116.00,18516.00,-2368.00
23714,85.00,0.00,-178.00,840.00,-84.00,18836.00,-2352.00
23730,94.00,2.00,-176.00,808.00,-124.00,18772.00,-2368.00
23746,85.00,-21.00,-163.00,844.00,-132.00,18760.00,-2368.00
23762,76.00,37.00,-168.00,824.00,-140.00,18684.00,-2368.00
23779,96.00,-16.00,-186.00,888.00,-140.00,18500.00,-2368.00
23795,80.00,-24.00,-194.00,800.00,-92.00,18576.00,-2352.00
23812,93.00,-9.00,-205.00,852.00,-176.00,18996.00,-2368.00
23828,81.00,12.00,-203.00,840.00,-172.00,18924.00,-2320.00
23844,69.00,37.00,-180.00,776.00,-128.00,18744.00,-2352.00
23861,75.00,0.00,-181.00,884.00,-200.00,18684.00,-2368.00
23877,98.00,-29.00,-164.00,880.00,-120.00,18568.00,-2384.00
23894,93.00,-6.00,-167.00,756.00,-120.00,18704.00,-2368.00
23910,89.00,12.00,-151.00,916.00,-220.00,18744.00,-2352.00
23926,116.00,13.00,-185.00,772.00,-140.00,18580.00,-2352.00
23944,90.00,22.00,-192.00,856.00,-128.00,18772.00,-2368.00
23960,97.00,-19.00,-177.00,980.00,-176.00,18664.00,-2368.00
23976,93.00,-23.00,-172.00,832.00,-108.00,18916.00,-2352.00
23993,81.00,13.00,-176.00,760.00,-140.00,18944.00,-2336.00
24009,84.00,5.00,-193.00,840.00,-176.00,18632.00,-2368.00
24026,81.00,-12.00,-165.00,836.00,-124.00,18564.00,-2368.00
24042,88.00,-10.00,-199.00,880.00,-164.00,18556.00,-2336.00
24058,100.00,0.00,-141.00,804.00,-160.00,18776.00,-2352.00
24075,64.00,-3.00,-187.00,812.00,-204.00,18716.00,-2368.00
24091,87.00,53.00,-175.00,768.00,-148.00,18680.00,-2352.00
24108,94.00,2.00,-197.00,840.00,-196.00,18576.00,-2368.00
24124,98.00,-5.00,-182.00,864.00,-216.00,18592.00,-2368.00
24140,106.00,13.00,-170.00,792.00,-120.00,18716.00,-2384.00
24157,77.00,-18.00,-188.00,876.00,-104.00,18760.00,-2368.00
24173,64.00,47.00,-193.00,800.00,-212.00,18628.00,-2336.00
24189,85.00,25.00,-165.00,776.00,-192.00,18540.00,-2384.00
24206,99.00,-40.00,-181.00,920.00,-144.00,18552.00,-2368.00
24222,92.00,8.00,-174.00,688.00,-148.00,18724.00,-2368.00
24239,86.00,4.00,-172.00,768.00,-152.00,18708.00,-2352.00
24255,99.00,-4.00,-162.00,872.00,-240.00,18708.00,-2336.00
24271,99.00,24.00,-162.00,920.00,-172.00,18544.00,-2336.00
24288,86.00,-21.00,-174.00,808.00,-204.00,18548.00,-2400.00
24304,104.00,-36.00,-190.00,784.00,-144.00,18672.00,-2352.00
24321,80.00,-1.00,-193.00,884.00,-88.00,18720.00,-2352.00
24337,136.00,483.00,-227.00,1848.00,180.00,16484.00,-2368.00
24353,48.00,56.00,-178.00,1392.00,-84.00,18400.00,-2336.00
24370,106.00,-16.00,-163.00,1380.00,-168.00,18200.00,-2368.00
24386,69.00,-58.00,-156.00,988.00,-152.00,18624.00,-2336.00
24402,83.00,-14.00,-185.00,780.00,-232.00,18516.00,-2352.00
24419,88.00,-12.00,-188.00,824.00,-148.00,18656.00,-2336.00
24435,69.00,21.00,-166.00,1000.00,-56.00,18528.00,-2368.00
24452,88.00,30.00,-186.00,768.00,32.00,18548.00,-2352.00
24468,84.00,-13.00,-156.00,868.00,-96.00,18772.00,-2368.00
24484,88.00,-2.00,-176.00,752.00,-136.00,18832.00,-2320.00
24501,98.00,12.00,-184.00,824.00,-160.00,18616.00,-2368.00
24517,67.00,3.00,-168.00,792.00,-128.00,18540.00,-2352.00
24534,103.00,-17.00,-144.00,828.00,0.00,18664.00,-2368.00
24550,83.00,-12.00,-156.00,840.00,-196.00,18784.00,-2352.00
24566,78.00,-16.00,-129.00,824.00,-288.00,18808.00,-2384.00
24583,59.00,15.00,-183.00,904.00,-164.00,18684.00,-2336.00
24599,93.00,-2.00,-191.00,808.00,-160.00,18660.00,-2320.00
24615,95.00,-4.00,-199.00,836.00,-176.00,18740.00,-2368.00
24632,90.00,-26.00,-185.00,724.00,-104.00,18752.00,-2400.00
24648,69.00,34.00,-160.00,832.00,-232.00,18884.00,-2352.00
24665,74.00,-17.00,-181.00,756.00,-228.00,18876.00,-2368.00
24681,68.00,25.00,-183.00,848.00,-28.00,18540.00,-2368.00
24697,89.00,-22.00,-194.00,916.00,-176.00,18656.00,-2352.00
24714,67.00,-10.00,-160.00,780.00,28.00,18792.00,-2368.00
24730,86.00,1.00,-191.00,872.00,-128.00,18800.00,-2352.00
24747,85.00,27.00,-171.00,736.00,-236.00,18736.00,-2368.00
24763,77.00,53.00,-172.00,828.00,-288.00,18544.00,-2400.00
24779,87.00,-1.00,-175.00,872.00,-164.00,18480.00,-2352.00
24796,105.00,-17.00,-172.00,816.00,-88.00,18784.00,-2368.00
24812,86.00,-17.00,-169.00,808.00,-64.00,18744.00,-2352.00
24828,84.00,-1.00,-169.00,768.00,-44.00,18784.00,-2368.00
24845,108.00,8.00,-175.00,792.00,-180.00,18496.00,-2352.00
24861,107.00,-6.00,-181.00,724.00,-144.00,18792.00,-2368.00
24878,68.00,9.00,-187.00,868.00,-132.00,18760.00,-2368.00
24894,109.00,0.00,-178.00,768.00,-116.00,18656.00,-2352.00
24910,91.00,30.00,-177.00,752.00,-144.00,18736.00,-2336.00
24927,73.00,28.00,-149.00,900.00,-180.00,18532.00,-2320.00
24943,94.00,-21.00,-183.00,780.00,-208.00,18528.00,-2384.00
24960,95.00,-10.00,-161.00,792.00,-132.00,18724.00,-2336.00
24976,92.00,0.00,-205.00,760.00,-188.00,18828.00,-2336.00
24992,83.00,36.00,-207.00,808.00,-176.00,18504.00,-2336.00
25009,97.00,1.00,-152.00,888.00,-116.00,18544.00,-2368.00
25025,65.00,-8.00,-172.00,864.00,-140.00,18464.00,-2384.00
25041,106.00,-13.00,-173.00,760.00,-204.00,18832.00,-2336.00
25058,103.00,14.00,-184.00,844.00,-80.00,18852.00,-2368.00
25074,82.00,5.00,-157.00,812.00,-84.00,18680.00,-2384.00
25091,58.00,33.00,-171.00,820.00,-128.00,18592.00,-2336.00
25107,57.00,-6.00,-169.00,876.00,-124.00,18660.00,-2384.00
25123,72.00,-28.00,-163.00,740.00,-140.00,18652.00,-2336.00
25140,99.00,18.00,-181.00,856.00,-172.00,18804.00,-2352.00
25156,88.00,9.00,-170.00,728.00,-212.00,18708.00,-2336.00
25172,71.00,-19.00,-167.00,844.00,-92.00,18648.00,-2384.00
25189,64.00,-14.00,-138.00,780.00,-132.00,18596.00,-2368.00
25205,100.00,-59.00,-179.00,768.00,-236.00,18724.00,-2336.00
25222,90.00,23.00,-162.00,884.00,-76.00,18776.00,-2368.00
25238,91.00,15.00,-188.00,720.00,-72.00,18700.00,-2368.00
25254,74.00,-2.00,-166.00,848.00,-180.00,18560.00,-2352.00
25271,108.00,-37.00,-178.00,812.00,-144.00,18584.00,-2400.00
25287,78.00,-13.00,-196.00,816.00,-128.00,18800.00,-2368.00
25304,98.00,9.00,-179.00,752.00,-168.00,19000.00,-2384.00
25320,79.00,23.00,-170.00,800.00,-144.00,18740.00,-2368.00
25336,75.00,7.00,-174.00,844.00,-128.00,18496.00,-2336.00
25353,74.00,4.00,-171.00,828.00,8.00,18508.00,-2384.00
25369,107.00,-24.00,-160.00,764.00,-152.00,18848.00,-2336.00
25385,106.00,-11.00,-183.00,820.00,-176.00,18672.00,-2336.00
25402,70.00,20.00,-185.00,812.00,-120.00,18788.00,-2400.00
25418,80.00,31.00,-177.00,920.00,-124.00,18616.00,-2352.00
25435,96.00,-28.00,-188.00,860.00,-156.00,18568.00,-2352.00
25451,88.00,-10.00,-177.00,748.00,-92.00,18736.00,-2368.00
25467,83.00,-17.00,-169.00,836.00,-268.00,18844.00,-2352.00
25484,64.00,6.00,-164.00,796.00,-184.00,18744.00,-2368.00
25500,58.00,36.00,-163.00,772.00,-156.00,18636.00,-2352.00
25517,83.00,-9.00,-173.00,868.00,-144.00,18632.00,-2352.00
25533,98.00,7.00,-181.00,768.00,-100.00,18784.00,-2368.00
25549,97.00,71.00,-170.00,1068.00,-96.00,18608.00,-2352.00
25566,97.00,14.00,-165.00,1136.00,-240.00,18608.00,-2368.00
25582,79.00,16.00,-187.00,1100.00,-264.00,18772.00,-2368.00
25598,86.00,25.00,-166.00,1008.00,-228.00,18512.00,-2384.00
25615,79.00,-36.00,-147.00,936.00,-240.00,18680.00,-2384.00
25631,84.00,-24.00,-157.00,820.00,-240.00,18840.00,-2384.00
25648,90.00,18.00,-168.00,764.00,-152.00,18708.00,-2368.00
25664,75.00,14.00,-201.00,828.00,-132.00,18416.00,-2352.00
25680,86.00,16.00,-189.00,824.00,-144.00,18532.00,-2368.00
25697,87.00,-27.00,-162.00,960.00,-220.00,18616.00,-2336.00
25713,89.00,12.00,-175.00,884.00,-180.00,18756.00,-2352.00
25730,76.00,3.00,-190.00,856.00,-76.00,18780.00,-2352.00
25746,111.00,-27.00,-178.00,844.00,-228.00,18692.00,-2352.00
