t,gx,gy,gz,ax,ay,az,temp
3,402.00,799.00,-5.00,-520.00,136.00,18016.00,-656.00
59,376.00,129.00,292.00,-476.00,304.00,17948.00,-656.00
115,-126.00,-34.00,-290.00,-848.00,264.00,18484.00,-656.00
172,-159.00,-138.00,-233.00,-728.00,296.00,17868.00,-640.00
228,294.00,587.00,29.00,-1068.00,76.00,18192.00,-656.00
284,230.00,-1015.00,-530.00,-844.00,124.00,18200.00,-656.00
340,207.00,-984.00,-277.00,-560.00,184.00,18136.00,-656.00
397,69.00,-365.00,-140.00,-440.00,120.00,18580.00,-656.00
453,-143.00,-996.00,-363.00,-712.00,296.00,18260.00,-672.00
509,-472.00,-1314.00,230.00,-120.00,0.00,18600.00,-656.00
566,434.00,-205.00,44.00,-448.00,280.00,17932.00,-672.00
622,16.00,-387.00,-325.00,-224.00,60.00,18452.00,-672.00
678,343.00,-175.00,-5.00,-68.00,232.00,18388.00,-672.00
735,183.00,468.00,-188.00,-188.00,-128.00,18728.00,-672.00
791,210.00,-289.00,-232.00,-168.00,248.00,18100.00,-656.00
847,4.00,363.00,95.00,-16.00,144.00,18636.00,-656.00
904,248.00,-241.00,-360.00,-128.00,316.00,17900.00,-688.00
960,145.00,166.00,-192.00,-48.00,-24.00,18440.00,-688.00
1016,226.00,91.00,-451.00,-264.00,84.00,18084.00,-656.00
1073,-321.00,-133.00,-227.00,-76.00,160.00,18456.00,-672.00
1129,340.00,-138.00,-378.00,-224.00,112.00,18236.00,-656.00
1185,-152.00,-597.00,-470.00,20.00,244.00,18116.00,-640.00
1242,431.00,281.00,-125.00,-268.00,108.00,18328.00,-656.00
1298,-30.00,-431.00,-379.00,56.00,140.00,18228.00,-656.00
1354,182.00,-69.00,-159.00,116.00,48.00,18764.00,-624.00
1411,417.00,443.00,-257.00,-260.00,212.00,18284.00,-672.00
1467,-16.00,-306.00,-246.00,-60.00,76.00,18356.00,-656.00
1523,55.00,-14.00,-172.00,-224.00,376.00,18132.00,-656.00
1580,36.00,408.00,-198.00,164.00,-84.00,18896.00,-672.00
1636,68.00,148.00,-124.00,-228.00,228.00,18032.00,-688.00
1692,132.00,94.00,-379.00,-4.00,200.00,18744.00,-672.00
1748,78.00,78.00,68.00,-144.00,372.00,18152.00,-640.00
1805,130.00,-119.00,-418.00,8.00,232.00,18452.00,-656.00
1861,241.00,156.00,-115.00,-100.00,12.00,18540.00,-688.00
1917,18.00,16.00,-129.00,-80.00,348.00,17960.00,-688.00
1974,118.00,-8.00,-207.00,-164.00,-44.00,18892.00,-672.00
2030,94.00,-78.00,-221.00,-12.00,320.00,17924.00,-672.00
2086,153.00,210.00,-290.00,92.00,-4.00,18900.00,-656.00
2142,164.00,-242.00,-123.00,-120.00,332.00,18012.00,-656.00
2199,-32.00,-58.00,-216.00,-96.00,172.00,18796.00,-656.00
2255,346.00,117.00,-128.00,-24.00,396.00,17976.00,-656.00
2312,12.00,194.00,-74.00,136.00,148.00,18476.00,-688.00
2368,223.00,-80.00,-286.00,-120.00,312.00,18240.00,-688.00
2424,-12.00,98.00,-163.00,-76.00,272.00,18272.00,-656.00
2481,296.00,-7.00,-272.00,-152.00,184.00,18232.00,-656.00
2537,-129.00,-208.00,-232.00,-8.00,248.00,18212.00,-672.00
2593,156.00,-111.00,-160.00,-152.00,220.00,18280.00,-656.00
2650,-19.00,21.00,-257.00,-80.00,316.00,18056.00,-656.00
2706,237.00,72.00,-138.00,-64.00,192.00,18488.00,-656.00
2762,-4.00,43.00,-163.00,-184.00,360.00,18020.00,-672.00
2818,235.00,-53.00,-94.00,-64.00,152.00,18472.00,-688.00
2874,56.00,-208.00,-178.00,-120.00,420.00,18216.00,-688.00
2930,200.00,5.00,-224.00,44.00,212.00,18464.00,-672.00
2987,75.00,-65.00,-265.00,8.00,300.00,18376.00,-624.00
3043,234.00,-26.00,-182.00,-44.00,236.00,18280.00,-688.00
3099,89.00,-228.00,-203.00,-72.00,208.00,18168.00,-640.00
3155,96.00,-11.00,-163.00,-24.00,320.00,18272.00,-688.00
3212,88.00,-146.00,-177.00,-20.00,220.00,18424.00,-688.00
3268,20.00,-117.00,-166.00,72.00,288.00,18016.00,-672.00
3324,161.00,73.00,-212.00,28.00,236.00,18460.00,-688.00
3381,48.00,135.00,-60.00,-216.00,228.00,18344.00,-640.00
3437,197.00,145.00,-211.00,216.00,340.00,18344.00,-656.00
3493,168.00,48.00,-246.00,64.00,220.00,18696.00,-688.00
3550,-193.00,-523.00,-342.00,48.00,272.00,18384.00,-672.00
3606,-245.00,-300.00,-31.00,128.00,208.00,18428.00,-720.00
3662,198.00,267.00,-169.00,248.00,208.00,18236.00,-704.00
3719,100.00,29.00,-170.00,24.00,264.00,18256.00,-672.00
3775,257.00,-207.00,-208.00,128.00,328.00,18280.00,-656.00
3832,350.00,447.00,-95.00,116.00,148.00,18768.00,-688.00
3889,-57.00,68.00,-378.00,200.00,284.00,18236.00,-672.00
3945,-140.00,83.00,-213.00,28.00,220.00,18144.00,-688.00
4001,70.00,720.00,-90.00,88.00,308.00,17904.00,-672.00
4057,385.00,458.00,-11.00,-284.00,192.00,18056.00,-688.00
4114,31.00,36.00,520.00,280.00,360.00,18648.00,-672.00
4170,-345.00,562.00,-21.00,-296.00,432.00,18680.00,-688.00
4227,74.00,-209.00,623.00,-48.00,212.00,18380.00,-672.00
4283,68.00,357.00,477.00,-600.00,272.00,17988.00,-688.00
4339,-244.00,-779.00,23.00,300.00,80.00,18408.00,-672.00
4396,645.00,221.00,335.00,-208.00,288.00,18136.00,-688.00
4452,217.00,-70.00,-352.00,-192.00,460.00,18832.00,-656.00
4508,601.00,557.00,-406.00,-64.00,516.00,17748.00,-704.00
4564,-63.00,545.00,-9.00,116.00,388.00,18976.00,-688.00
4621,297.00,-561.00,218.00,-404.00,668.00,18296.00,-672.00
4677,54.00,318.00,-17.00,-40.00,168.00,18540.00,-672.00
4733,-215.00,515.00,-4.00,-136.00,396.00,18424.00,-672.00
4790,-70.00,-63.00,-388.00,-160.00,444.00,18228.00,-656.00
4846,-280.00,373.00,342.00,-208.00,328.00,18124.00,-672.00
4902,597.00,-70.00,217.00,-476.00,456.00,18292.00,-640.00
4959,267.00,-313.00,56.00,-16.00,528.00,18164.00,-624.00
5015,234.00,-125.00,-221.00,-276.00,384.00,18544.00,-672.00
5071,-23.00,46.00,-96.00,-152.00,352.00,18308.00,-640.00
5128,80.00,-73.00,-198.00,-220.00,472.00,18468.00,-640.00
5184,-188.00,-135.00,-299.00,-324.00,432.00,18488.00,-656.00
5240,-39.00,210.00,-141.00,-224.00,312.00,18108.00,-656.00
5297,-38.00,236.00,-143.00,-284.00,416.00,18248.00,-640.00
5353,205.00,319.00,206.00,-192.00,212.00,18588.00,-656.00
5409,-40.00,83.00,60.00,-236.00,404.00,18500.00,-624.00
5466,-175.00,-323.00,-145.00,-288.00,336.00,18448.00,-656.00
5522,-224.00,-425.00,50.00,-84.00,292.00,18228.00,-624.00
5578,11.00,-207.00,-115.00,-240.00,400.00,18132.00,-672.00
5635,142.00,-75.00,-134.00,-260.00,220.00,18324.00,-656.00
5691,349.00,-888.00,-148.00,-392.00,412.00,18208.00,-640.00
5747,74.00,-697.00,-256.00,64.00,176.00,18528.00,-608.00
5804,-32.00,-570.00,-356.00,84.00,284.00,18328.00,-656.00
5860,34.00,-343.00,-172.00,116.00,308.00,18468.00,-640.00
5916,-55.00,-526.00,-182.00,212.00,244.00,18228.00,-656.00
5974,86.00,318.00,-179.00,304.00,300.00,18328.00,-592.00
6030,85.00,-571.00,-358.00,252.00,308.00,18228.00,-608.00
6086,48.00,647.00,-275.00,256.00,280.00,18440.00,-592.00
6142,60.00,-316.00,-345.00,216.00,72.00,18356.00,-640.00
6199,-54.00,1694.00,429.00,0.00,264.00,18104.00,-624.00
6255,-20.00,1862.00,112.00,200.00,424.00,18436.00,-624.00
6311,-144.00,3919.00,-54.00,-16.00,232.00,18388.00,-624.00
6368,-154.00,7867.00,-69.00,-900.00,528.00,17948.00,-640.00
6424,680.00,4456.00,-1012.00,-2080.00,120.00,18532.00,-624.00
6480,240.00,-3239.00,-617.00,-2104.00,68.00,18260.00,-608.00
6537,271.00,-5431.00,-239.00,-1652.00,408.00,17944.00,-608.00
6593,-229.00,-3417.00,677.00,-960.00,360.00,18240.00,-624.00
6650,18.00,-3519.00,932.00,-572.00,360.00,18248.00,-624.00
6707,13.00,3654.00,-3667.00,-296.00,80.00,18248.00,-624.00
6763,1052.00,-524.00,-2649.00,-496.00,392.00,18256.00,-640.00
6819,-149.00,-1656.00,-1369.00,-284.00,476.00,18424.00,-592.00
6876,893.00,-1846.00,-1379.00,-152.00,396.00,18376.00,-624.00
6932,111.00,-185.00,-1015.00,-120.00,248.00,18132.00,-640.00
6988,457.00,-455.00,-1849.00,-64.00,144.00,18368.00,-624.00
7046,486.00,-160.00,-1824.00,-352.00,292.00,18124.00,-608.00
7102,641.00,-1159.00,-1819.00,-24.00,256.00,18384.00,-640.00
7158,1143.00,857.00,-2078.00,-268.00,608.00,18220.00,-640.00
7215,857.00,1458.00,-3099.00,-172.00,480.00,18336.00,-624.00
7271,738.00,2662.00,-6325.00,56.00,344.00,18788.00,-624.00
7327,2829.00,599.00,-10637.00,-1132.00,500.00,18096.00,-608.00
7385,4150.00,2758.00,-13502.00,-740.00,1532.00,18628.00,-624.00
7441,2234.00,1525.00,-12829.00,-1884.00,1380.00,18084.00,-624.00
7497,-658.00,-6410.00,-17302.00,-492.00,120.00,17976.00,-608.00
7555,2852.00,238.00,-5365.00,-944.00,464.00,18412.00,-624.00
7611,3330.00,1993.00,4334.00,-1116.00,1464.00,17808.00,-592.00
7667,74.00,605.00,22797.00,-1224.00,1392.00,19184.00,-592.00
7724,-362.00,-4066.00,32767.00,-20.00,2092.00,18048.00,-608.00
7781,-4117.00,-2452.00,24609.00,80.00,1520.00,18784.00,-592.00
7837,-3555.00,2530.00,29048.00,-164.00,2640.00,17492.00,-624.00
7894,-2998.00,3843.00,25240.00,436.00,1720.00,18972.00,-608.00
7951,-2683.00,5857.00,16806.00,-1352.00,1248.00,18076.00,-608.00
8007,-57.00,-2228.00,3724.00,-2508.00,1004.00,18408.00,-640.00
8064,225.00,-8277.00,-21316.00,-1072.00,276.00,17896.00,-624.00
8121,-3127.00,785.00,-32768.00,2132.00,2204.00,18084.00,-608.00
8177,-2906.00,-3165.00,-29969.00,1776.00,724.00,18488.00,-608.00
8233,181.00,3659.00,-27193.00,3116.00,-1316.00,16676.00,-608.00
8291,4004.00,2380.00,-23241.00,140.00,-280.00,18340.00,-608.00
8347,1234.00,1900.00,-17911.00,976.00,1704.00,19920.00,-624.00
8403,1683.00,3699.00,-12023.00,8.00,28.00,17836.00,-624.00
8460,920.00,3243.00,2259.00,-336.00,-716.00,18220.00,-624.00
8517,-13.00,3781.00,32767.00,228.00,1048.00,19228.00,-608.00
8573,-1648.00,-6248.00,32767.00,188.00,1712.00,16876.00,-608.00
8630,-7809.00,-957.00,32767.00,-644.00,-1348.00,16944.00,-608.00
8687,-4423.00,122.00,32767.00,-516.00,384.00,17972.00,-624.00
8743,-3394.00,2174.00,21703.00,-1288.00,-88.00,20416.00,-608.00
8800,-1410.00,1001.00,10200.00,704.00,-612.00,18448.00,-608.00
8856,1083.00,-3118.00,-10943.00,-1120.00,-1648.00,17928.00,-624.00
8913,3544.00,3992.00,-32768.00,1748.00,-32.00,18976.00,-592.00
8970,2395.00,4501.00,-32768.00,1372.00,876.00,17660.00,-592.00
9026,-1100.00,402.00,-24842.00,-1128.00,380.00,18108.00,-624.00
9083,3395.00,2289.00,-28171.00,876.00,-364.00,17912.00,-608.00
9140,4339.00,-4878.00,-20371.00,280.00,364.00,17736.00,-624.00
9196,4510.00,-1186.00,-9243.00,1944.00,2016.00,18972.00,-592.00
9253,870.00,1000.00,1845.00,608.00,540.00,18384.00,-608.00
9310,842.00,5219.00,27337.00,908.00,608.00,19828.00,-624.00
9366,-651.00,10482.00,32767.00,2024.00,4000.00,17700.00,-624.00
9423,-6972.00,8438.00,32767.00,-516.00,752.00,18324.00,-624.00
9480,-7011.00,2755.00,31636.00,-1392.00,3224.00,16464.00,-592.00
9536,-1772.00,3856.00,18542.00,-2604.00,1248.00,18344.00,-560.00
9593,-314.00,527.00,4495.00,-2524.00,-16.00,17328.00,-624.00
9650,-397.00,-4274.00,-8716.00,-2216.00,196.00,18824.00,-608.00
9706,-792.00,-6225.00,-32768.00,-2100.00,832.00,19104.00,-608.00
9762,936.00,-14334.00,-32768.00,2192.00,648.00,17428.00,-608.00
9820,-216.00,-548.00,-31016.00,952.00,2892.00,18772.00,-624.00
9876,3470.00,6152.00,-23176.00,1608.00,-248.00,17924.00,-608.00
9932,5497.00,831.00,-20470.00,920.00,1500.00,19208.00,-608.00
9990,2026.00,3508.00,-14585.00,528.00,1836.00,17404.00,-592.00
10046,1665.00,5147.00,1379.00,128.00,-228.00,19136.00,-640.00
10102,3431.00,3079.00,21535.00,-268.00,1768.00,18532.00,-624.00
10160,600.00,826.00,32767.00,876.00,5104.00,18340.00,-624.00
10216,-8604.00,4075.00,32767.00,704.00,1440.00,18420.00,-608.00
10272,-6137.00,-321.00,32767.00,-332.00,2548.00,16828.00,-608.00
10330,-3850.00,464.00,23478.00,-88.00,1324.00,18724.00,-656.00
10386,-1870.00,774.00,14235.00,784.00,264.00,17428.00,-640.00
10442,-1451.00,932.00,3526.00,-392.00,524.00,17396.00,-624.00
10499,4634.00,4534.00,-13083.00,-1124.00,836.00,18172.00,-608.00
10556,5181.00,3393.00,-32768.00,-852.00,824.00,19740.00,-608.00
10612,3184.00,-2110.00,-32768.00,2524.00,2512.00,17736.00,-624.00
10670,957.00,1688.00,-23495.00,156.00,1700.00,18644.00,-608.00
10726,-460.00,-4556.00,-26309.00,-724.00,1164.00,17924.00,-640.00
10782,3325.00,5243.00,-18716.00,96.00,1844.00,18852.00,-608.00
10840,2593.00,6054.00,-11380.00,-404.00,576.00,17584.00,-624.00
10896,-1303.00,-1050.00,5357.00,-1068.00,-212.00,18564.00,-656.00
10952,852.00,-2877.00,18817.00,-948.00,260.00,19564.00,-624.00
11010,-2545.00,-3766.00,32767.00,900.00,2076.00,18140.00,-608.00
11066,-4809.00,7813.00,32767.00,2264.00,1176.00,17332.00,-640.00
11122,-6220.00,-3377.00,29919.00,-1220.00,-1592.00,17232.00,-624.00
11180,3268.00,1291.00,29733.00,448.00,1584.00,16480.00,-608.00
11236,5070.00,-3285.00,17410.00,1376.00,-260.00,16200.00,-608.00
11293,5620.00,619.00,10605.00,2396.00,364.00,17536.00,-640.00
11350,1149.00,1598.00,3195.00,120.00,2228.00,19344.00,-656.00
11406,-1144.00,-11106.00,-18484.00,-3160.00,-196.00,18504.00,-624.00
11463,-8048.00,-474.00,-32768.00,3964.00,3544.00,16340.00,-576.00
11520,-839.00,11503.00,-32768.00,3304.00,996.00,16904.00,-608.00
11576,3195.00,3203.00,-30648.00,-600.00,1368.00,17660.00,-640.00
11633,7871.00,1564.00,-26926.00,524.00,1508.00,18080.00,-640.00
11689,6952.00,-7026.00,-20820.00,216.00,2572.00,18344.00,-640.00
11747,3351.00,4821.00,-8867.00,1044.00,1768.00,18780.00,-640.00
11803,746.00,617.00,11680.00,-48.00,1540.00,19040.00,-608.00
11859,-940.00,-4106.00,32767.00,100.00,3512.00,18184.00,-624.00
11917,-4193.00,3867.00,32767.00,1056.00,3208.00,16880.00,-624.00
11973,-4568.00,6000.00,32767.00,32.00,3108.00,18968.00,-592.00
12029,-6172.00,5638.00,25677.00,-1088.00,2304.00,17696.00,-592.00
12087,-5153.00,-1033.00,17886.00,-1316.00,1412.00,18496.00,-624.00
12143,-337.00,60.00,7500.00,-820.00,876.00,17272.00,-608.00
12199,-899.00,-8828.00,-9372.00,-1204.00,740.00,18216.00,-592.00
12257,-2258.00,2575.00,-31035.00,2344.00,1440.00,18664.00,-624.00
12313,-129.00,-3366.00,-32768.00,3264.00,1704.00,17244.00,-624.00
12370,1801.00,-991.00,-27593.00,2440.00,2684.00,17896.00,-592.00
12427,2082.00,8224.00,-32768.00,2328.00,2272.00,18220.00,-656.00
12483,1212.00,3400.00,-28604.00,1388.00,1400.00,18532.00,-608.00
12540,478.00,3641.00,-14376.00,684.00,796.00,18916.00,-592.00
12597,-352.00,648.00,-505.00,-1336.00,156.00,17620.00,-608.00
12653,352.00,-1257.00,15774.00,-1292.00,832.00,18648.00,-592.00
12710,2695.00,-973.00,32767.00,344.00,3032.00,18184.00,-608.00
12767,-1513.00,12192.00,32767.00,80.00,2360.00,16480.00,-640.00
12823,-11989.00,2923.00,32767.00,-1296.00,2628.00,18036.00,-608.00
12880,-3234.00,-5674.00,32683.00,-1412.00,3004.00,18424.00,-624.00
12937,-3442.00,-9996.00,13870.00,-2380.00,-392.00,17452.00,-624.00
12994,-92.00,-2411.00,10332.00,608.00,-116.00,19264.00,-592.00
13050,1649.00,-8197.00,-8263.00,864.00,792.00,19692.00,-640.00
13107,1303.00,-7211.00,-31422.00,1212.00,2704.00,18160.00,-608.00
13164,-4070.00,427.00,-32768.00,2880.00,2620.00,17948.00,-608.00
13220,-2244.00,7922.00,-27008.00,3020.00,1900.00,16356.00,-608.00
13277,1786.00,10015.00,-24017.00,-360.00,2096.00,18880.00,-624.00
13334,222.00,-2633.00,-23266.00,276.00,836.00,19456.00,-624.00
13390,-2153.00,-79.00,-17789.00,-24.00,1532.00,18120.00,-592.00
13447,455.00,-3618.00,-2117.00,-1152.00,-668.00,18104.00,-608.00
13504,4153.00,-2092.00,14784.00,452.00,-396.00,18112.00,-624.00
13560,5517.00,5223.00,32767.00,1564.00,3132.00,18540.00,-624.00
13618,-2807.00,11575.00,27406.00,3020.00,3080.00,15492.00,-608.00
13674,-4148.00,4638.00,27002.00,-356.00,2808.00,17912.00,-624.00
13730,-1115.00,-5103.00,22340.00,-20.00,2836.00,19304.00,-624.00
13788,-1817.00,4222.00,19894.00,-556.00,1540.00,17880.00,-592.00
13844,-1530.00,473.00,9962.00,-1124.00,804.00,18332.00,-592.00
13900,-415.00,-5925.00,-2290.00,1208.00,-140.00,18592.00,-608.00
13958,-1469.00,-5686.00,-21865.00,-524.00,704.00,18880.00,-640.00
14014,-1486.00,1489.00,-28068.00,1344.00,2008.00,18500.00,-624.00
14071,1268.00,-4195.00,-18138.00,1032.00,1928.00,18396.00,-608.00
14128,-2491.00,2128.00,-30075.00,-28.00,164.00,19504.00,-592.00
14184,5760.00,1426.00,-17834.00,652.00,1928.00,17340.00,-576.00
14241,-986.00,-5394.00,-1362.00,-1784.00,3912.00,16164.00,-608.00
14298,-4630.00,357.00,-11590.00,3360.00,3076.00,17240.00,-608.00
14354,1751.00,4413.00,-4393.00,1820.00,1412.00,19676.00,-608.00
14411,2985.00,-1065.00,-2765.00,3304.00,2616.00,18608.00,-608.00
14468,-5909.00,14090.00,9921.00,2076.00,2056.00,18692.00,-608.00
14525,1685.00,10651.00,30892.00,-1712.00,3984.00,15804.00,-592.00
14581,-8472.00,20807.00,32303.00,-6748.00,2736.00,20336.00,-560.00
14639,-4230.00,-5620.00,24703.00,-4636.00,2224.00,16164.00,-592.00
14695,-4372.00,-13602.00,28526.00,-4776.00,4264.00,18564.00,-624.00
14751,-819.00,-10430.00,16375.00,-944.00,2376.00,19228.00,-576.00
14809,2154.00,-9101.00,981.00,-168.00,972.00,17452.00,-608.00
14865,2434.00,-12192.00,-16635.00,1124.00,3192.00,19108.00,-560.00
14922,-9069.00,-18871.00,-16129.00,5636.00,2856.00,17120.00,-608.00
14979,-8549.00,99.00,-21869.00,6712.00,2748.00,16780.00,-624.00
15035,-7942.00,15255.00,-32768.00,4104.00,1320.00,17116.00,-576.00
15092,-69.00,14770.00,-23689.00,364.00,1156.00,18892.00,-592.00
15149,1797.00,-5897.00,-24530.00,996.00,1540.00,19772.00,-592.00
15206,-3443.00,5822.00,-12902.00,1076.00,2904.00,19532.00,-608.00
15262,-1404.00,6655.00,-6794.00,260.00,-732.00,18716.00,-656.00
15319,2772.00,-743.00,3770.00,-1040.00,-692.00,17684.00,-608.00
15376,269.00,-889.00,29972.00,-3796.00,676.00,18100.00,-592.00
15432,2285.00,-5409.00,32767.00,1652.00,2576.00,17796.00,-608.00
15489,-1297.00,6741.00,32767.00,1292.00,2540.00,17952.00,-608.00
15546,877.00,4486.00,30702.00,620.00,1904.00,18732.00,-592.00
15602,-794.00,8910.00,20973.00,-1284.00,1536.00,18916.00,-576.00
15660,-592.00,-1695.00,5842.00,-140.00,-68.00,16868.00,-576.00
15716,-1015.00,-3355.00,-8838.00,-1380.00,1892.00,17656.00,-576.00
15772,-2533.00,-961.00,-32768.00,-228.00,1692.00,19400.00,-608.00
15830,-2175.00,-5297.00,-32768.00,3424.00,2624.00,17464.00,-576.00
15886,-430.00,-1969.00,-25589.00,1348.00,564.00,17248.00,-624.00
15942,832.00,3095.00,-21459.00,1532.00,268.00,18024.00,-576.00
16000,3679.00,3049.00,-23821.00,1500.00,656.00,17828.00,-544.00
16056,-1274.00,9618.00,-15320.00,-272.00,2392.00,17840.00,-576.00
16112,969.00,3761.00,-10820.00,-892.00,-908.00,19556.00,-576.00
16169,-49.00,2390.00,45.00,-2872.00,-220.00,19748.00,-592.00
16226,1963.00,-4940.00,17365.00,-1768.00,-528.00,17476.00,-624.00
16282,-2736.00,-10350.00,32767.00,-48.00,1596.00,17428.00,-592.00
16339,-3565.00,-10121.00,32767.00,1332.00,116.00,17524.00,-624.00
16396,-4354.00,-5562.00,32537.00,1784.00,-812.00,19028.00,-592.00
16452,3200.00,5903.00,31748.00,1520.00,492.00,17532.00,-608.00
16509,879.00,1349.00,15820.00,12.00,-740.00,19692.00,-608.00
16566,-1776.00,1576.00,5315.00,1368.00,-1384.00,17088.00,-576.00
16622,-2260.00,-4396.00,-15690.00,-1156.00,-556.00,19280.00,-576.00
16679,-191.00,-2091.00,-32768.00,4884.00,1360.00,18124.00,-608.00
16736,1603.00,10354.00,-31410.00,3268.00,-256.00,18556.00,-576.00
16793,2179.00,4261.00,-21197.00,-400.00,2440.00,17632.00,-592.00
16849,3836.00,5357.00,-32360.00,652.00,764.00,19148.00,-592.00
16906,4307.00,8372.00,-24084.00,-168.00,1204.00,18220.00,-576.00
16963,-2386.00,-176.00,-9962.00,-2880.00,392.00,18300.00,-608.00
17019,1605.00,-4087.00,-7586.00,-2120.00,1724.00,19012.00,-576.00
17077,-769.00,-1288.00,2518.00,-1192.00,-524.00,18656.00,-608.00
17133,-411.00,-1306.00,15159.00,-704.00,396.00,17780.00,-592.00
17189,-820.00,-3219.00,32767.00,-504.00,1544.00,19180.00,-608.00
17246,-2439.00,-5273.00,32767.00,872.00,76.00,18288.00,-576.00
17303,-4517.00,-2377.00,32767.00,1216.00,1180.00,17712.00,-624.00
17359,-335.00,-582.00,27581.00,3480.00,-796.00,18984.00,-592.00
17417,-2593.00,-1231.00,18281.00,1248.00,-476.00,17756.00,-624.00
17473,1233.00,-61.00,8055.00,528.00,-352.00,17780.00,-624.00
17529,-49.00,695.00,-6268.00,-1072.00,-80.00,18056.00,-624.00
17586,657.00,-3188.00,-32215.00,1656.00,-108.00,18700.00,-592.00
17643,386.00,-4323.00,-32768.00,3404.00,1632.00,16764.00,-608.00
17699,434.00,5039.00,-32768.00,5032.00,1308.00,18352.00,-608.00
17756,4622.00,14212.00,-28393.00,-136.00,1336.00,18880.00,-608.00
17813,3198.00,-3749.00,-24732.00,-892.00,1036.00,18308.00,-608.00
17869,-3036.00,4235.00,-19452.00,572.00,892.00,18052.00,-608.00
17927,688.00,2583.00,-5737.00,-1068.00,-196.00,18284.00,-592.00
17983,2775.00,3692.00,9229.00,-2660.00,-296.00,20164.00,-576.00
18039,1772.00,-291.00,25606.00,-872.00,2192.00,16776.00,-592.00
18097,382.00,-2142.00,32767.00,-824.00,3196.00,18744.00,-592.00
18153,-3848.00,654.00,32767.00,592.00,2384.00,17812.00,-608.00
18209,-8845.00,4825.00,32767.00,152.00,2628.00,19172.00,-608.00
18267,-6123.00,236.00,24662.00,508.00,1668.00,18744.00,-592.00
18323,-1730.00,1607.00,15023.00,-1316.00,600.00,17612.00,-624.00
18379,-1237.00,2.00,2541.00,-716.00,684.00,18104.00,-592.00
18436,769.00,-6645.00,-11512.00,-724.00,532.00,18496.00,-592.00
18493,227.00,-3813.00,-32768.00,936.00,920.00,19124.00,-608.00
18549,-2455.00,-1014.00,-32768.00,4364.00,2100.00,17568.00,-656.00
18606,1171.00,6726.00,-29211.00,516.00,1680.00,18324.00,-624.00
18663,1983.00,5713.00,-27057.00,536.00,1364.00,17860.00,-592.00
18719,-391.00,-470.00,-23532.00,840.00,508.00,18616.00,-592.00
18776,-2164.00,605.00,-16441.00,-1320.00,668.00,17192.00,-624.00
18833,-554.00,1788.00,-2290.00,-120.00,-900.00,20372.00,-592.00
18889,2809.00,581.00,15094.00,-1468.00,-652.00,17716.00,-576.00
18946,74.00,-6137.00,32767.00,-464.00,1412.00,18068.00,-592.00
19003,1975.00,-1109.00,32767.00,1568.00,1424.00,17804.00,-608.00
19059,-7827.00,-1153.00,32767.00,1124.00,2728.00,19256.00,-576.00
19117,-3297.00,8728.00,26039.00,-2596.00,-1300.00,17400.00,-592.00
19173,-764.00,-581.00,17699.00,204.00,56.00,18008.00,-624.00
19229,1115.00,1472.00,11265.00,-1128.00,848.00,18320.00,-624.00
19287,-1417.00,-3222.00,1558.00,-232.00,228.00,16200.00,-592.00
19343,-3512.00,-8767.00,-14701.00,-3544.00,364.00,18076.00,-608.00
19399,-5832.00,-3206.00,-32768.00,672.00,604.00,19100.00,-608.00
19457,-3749.00,-11208.00,-32768.00,4496.00,1808.00,16132.00,-592.00
19513,-1220.00,-52.00,-32768.00,5148.00,980.00,16344.00,-608.00
19569,-702.00,6003.00,-22497.00,2960.00,-864.00,18724.00,-592.00
19627,983.00,8085.00,-22064.00,1256.00,1396.00,18936.00,-640.00
19683,-191.00,5109.00,-7243.00,1196.00,-340.00,21244.00,-640.00
19739,1919.00,394.00,-1683.00,96.00,332.00,18104.00,-592.00
19796,-3064.00,6724.00,7165.00,112.00,-372.00,19116.00,-624.00
19853,2568.00,6385.00,27042.00,804.00,1524.00,18960.00,-608.00
19909,1443.00,3608.00,32767.00,920.00,3880.00,17908.00,-608.00
19966,-8791.00,5080.00,32767.00,-1400.00,1248.00,18536.00,-608.00
20023,-5801.00,4720.00,32767.00,-4200.00,2556.00,17820.00,-576.00
20080,-2755.00,2198.00,17948.00,-4868.00,784.00,15980.00,-624.00
20136,-3579.00,-4945.00,2196.00,-424.00,-1104.00,18964.00,-576.00
20193,-1101.00,-4587.00,-8877.00,-1712.00,1420.00,19460.00,-608.00
20250,2737.00,-3011.00,-22070.00,-1332.00,976.00,17496.00,-608.00
20306,1251.00,-1210.00,-32768.00,1920.00,-12.00,19712.00,-608.00
20363,5003.00,1895.00,-31686.00,1092.00,1560.00,16512.00,-640.00
20420,4265.00,433.00,-24766.00,-1052.00,1624.00,18168.00,-608.00
20476,-24.00,569.00,-26841.00,2112.00,1084.00,19084.00,-640.00
20534,-4756.00,388.00,-13062.00,492.00,1552.00,20000.00,-592.00
20590,617.00,7624.00,-7826.00,144.00,428.00,18712.00,-608.00
20646,261.00,1259.00,891.00,-1856.00,-420.00,18828.00,-624.00
20703,3581.00,2147.00,18145.00,-2868.00,84.00,17904.00,-624.00
20760,6555.00,-4101.00,32767.00,-924.00,2484.00,17252.00,-624.00
20816,5157.00,-1779.00,31213.00,-160.00,1820.00,17788.00,-624.00
20874,-2203.00,5803.00,27774.00,1728.00,2200.00,17148.00,-624.00
20930,-4492.00,7732.00,28005.00,316.00,3620.00,19448.00,-624.00
20986,-5845.00,-3996.00,20885.00,1188.00,4056.00,18100.00,-624.00
21044,-3176.00,3572.00,16132.00,188.00,2160.00,17872.00,-624.00
21100,-2167.00,-1389.00,4928.00,244.00,572.00,17844.00,-624.00
21156,-274.00,1962.00,-6774.00,-280.00,1848.00,17876.00,-608.00
21214,-2093.00,-2192.00,-32768.00,-2828.00,1052.00,18592.00,-624.00
21270,229.00,-263.00,-32768.00,5640.00,3900.00,17252.00,-624.00
21327,3377.00,7009.00,-26688.00,-524.00,2168.00,18532.00,-592.00
21384,-1175.00,-9011.00,-25850.00,-1116.00,1880.00,19068.00,-592.00
21440,-732.00,-4051.00,-30851.00,720.00,2364.00,18588.00,-592.00
21497,1730.00,695.00,-14405.00,-1900.00,-688.00,20788.00,-608.00
21554,-5064.00,-2913.00,-6008.00,440.00,-488.00,17508.00,-640.00
21610,-396.00,-3791.00,2176.00,716.00,656.00,18780.00,-592.00
21667,4618.00,7300.00,20482.00,-528.00,-1016.00,18780.00,-608.00
21724,4181.00,9374.00,32767.00,172.00,1840.00,19420.00,-640.00
21780,-3681.00,3915.00,32767.00,892.00,844.00,17232.00,-576.00
21837,-6188.00,10691.00,32767.00,-2716.00,2452.00,16356.00,-592.00
21894,-4224.00,-5932.00,32767.00,-2012.00,2344.00,17100.00,-608.00
21951,-2083.00,600.00,23038.00,-1764.00,1576.00,18324.00,-624.00
22007,822.00,-726.00,12631.00,-820.00,2260.00,17704.00,-592.00
22064,-1293.00,-2732.00,1314.00,-1004.00,916.00,18208.00,-576.00
22121,243.00,-3131.00,-10259.00,-1984.00,1792.00,18720.00,-608.00
22177,-1816.00,-7956.00,-26742.00,-2688.00,2368.00,19488.00,-608.00
22235,-6113.00,-7711.00,-32768.00,3600.00,2188.00,18116.00,-592.00
22291,-1887.00,-1880.00,-32768.00,2552.00,1660.00,17476.00,-592.00
22347,-740.00,4560.00,-25897.00,2652.00,664.00,17636.00,-608.00
22405,-2681.00,1886.00,-24383.00,500.00,1832.00,18844.00,-624.00
22461,-406.00,5705.00,-16235.00,1444.00,-880.00,19448.00,-592.00
22517,2265.00,3995.00,1548.00,1528.00,-1808.00,18548.00,-592.00
22575,3611.00,4590.00,13913.00,-1204.00,-800.00,17260.00,-624.00
22631,3834.00,2868.00,32767.00,480.00,892.00,18364.00,-624.00
22688,-654.00,-757.00,32767.00,636.00,2068.00,17640.00,-640.00
22745,-2673.00,-1724.00,32767.00,252.00,2784.00,18584.00,-624.00
22801,-1452.00,6437.00,32767.00,-2112.00,-492.00,16660.00,-608.00
22858,-1373.00,-3239.00,20839.00,532.00,1552.00,18748.00,-608.00
22915,-871.00,3379.00,12746.00,-2024.00,24.00,17544.00,-608.00
22971,-3190.00,-1297.00,-10534.00,-1388.00,1116.00,18812.00,-592.00
23028,-5470.00,-1161.00,-32768.00,-400.00,752.00,18580.00,-592.00
23085,-2852.00,-12418.00,-32768.00,4272.00,48.00,18544.00,-592.00
23142,-1864.00,-1606.00,-27624.00,3748.00,876.00,17900.00,-624.00
23198,-840.00,1461.00,-21577.00,2580.00,-992.00,18748.00,-592.00
23255,-1778.00,-840.00,-20422.00,2172.00,-268.00,17820.00,-624.00
23312,-1855.00,5058.00,-16410.00,3444.00,408.00,19520.00,-592.00
23368,259.00,2792.00,-6521.00,1684.00,-980.00,17148.00,-624.00
23425,-3557.00,-95.00,-4515.00,1716.00,-1076.00,18308.00,-592.00
23482,1382.00,4527.00,13684.00,412.00,-2668.00,19032.00,-624.00
23538,2622.00,7371.00,32767.00,-168.00,1948.00,19664.00,-624.00
23595,259.00,17173.00,32767.00,1216.00,2928.00,17184.00,-624.00
23652,-6129.00,28.00,32767.00,-3000.00,1480.00,16788.00,-592.00
23708,-5163.00,-4604.00,30895.00,-3108.00,2324.00,17612.00,-624.00
23766,-536.00,-1917.00,23445.00,-5032.00,2052.00,17572.00,-592.00
23822,-2187.00,-3647.00,9167.00,-1992.00,164.00,18036.00,-624.00
23878,1657.00,-4350.00,-7246.00,-1960.00,1592.00,18924.00,-624.00
23936,1830.00,-9742.00,-29263.00,-4576.00,6784.00,20052.00,-592.00
23992,1866.00,-20185.00,-32768.00,4504.00,3540.00,18016.00,-640.00
24049,-242.00,-3374.00,-32768.00,5444.00,3016.00,16368.00,-624.00
24105,259.00,1070.00,-19373.00,1292.00,2488.00,17440.00,-624.00
24162,-2723.00,-2863.00,-28029.00,860.00,1720.00,19052.00,-624.00
24219,-1581.00,2676.00,-16735.00,1600.00,1848.00,19048.00,-624.00
24275,-1541.00,-743.00,-7827.00,1348.00,656.00,19196.00,-592.00
24333,-2165.00,4434.00,4171.00,1312.00,700.00,18356.00,-624.00
24389,6355.00,3636.00,25144.00,596.00,724.00,18928.00,-640.00
24445,9143.00,4845.00,32767.00,-884.00,4196.00,18536.00,-592.00
24503,-823.00,2327.00,29862.00,2456.00,2244.00,17036.00,-592.00
24559,-4211.00,5947.00,29112.00,-116.00,4116.00,17984.00,-624.00
24615,-1199.00,1985.00,20652.00,-888.00,1480.00,15676.00,-624.00
24673,-1438.00,5611.00,22513.00,184.00,4104.00,18440.00,-592.00
24729,-4668.00,7253.00,22522.00,-2320.00,3172.00,18232.00,-624.00
24786,-3924.00,-105.00,5429.00,-3252.00,76.00,17784.00,-608.00
24843,-869.00,-5361.00,-14011.00,-2500.00,2696.00,18764.00,-592.00
24899,-1045.00,-12683.00,-32768.00,764.00,552.00,18048.00,-624.00
24956,-4224.00,-6653.00,-32768.00,5928.00,2340.00,15944.00,-592.00
25013,-3258.00,5049.00,-32415.00,3752.00,3332.00,18168.00,-592.00
25070,1459.00,15556.00,-26376.00,908.00,1792.00,18268.00,-624.00
25126,3668.00,6283.00,-27063.00,-1164.00,1568.00,19068.00,-576.00
25183,-2322.00,-3755.00,-8237.00,-1752.00,1392.00,18732.00,-608.00
25240,-2499.00,-3401.00,-2889.00,-1612.00,-36.00,18612.00,-624.00
25296,-320.00,-1852.00,15417.00,-1148.00,416.00,18904.00,-640.00
25353,1966.00,-5073.00,32767.00,76.00,2076.00,19276.00,-624.00
25410,283.00,6652.00,32767.00,2384.00,2436.00,16892.00,-656.00
25466,-5721.00,9000.00,32767.00,596.00,1220.00,18844.00,-592.00
25524,-4519.00,-869.00,27155.00,-6092.00,1732.00,17560.00,-608.00
25580,4343.00,-5356.00,14134.00,764.00,-300.00,18372.00,-608.00
25636,1757.00,1671.00,17819.00,2448.00,2008.00,17392.00,-608.00
25694,152.00,-2302.00,4439.00,-744.00,2952.00,19884.00,-576.00
25750,-421.00,372.00,58.00,268.00,456.00,18484.00,-592.00
25806,-2083.00,-4234.00,-18412.00,-2372.00,3692.00,19264.00,-624.00
25864,-5162.00,-2783.00,-32768.00,1472.00,1248.00,16456.00,-592.00
25920,-3974.00,-610.00,-32768.00,4596.00,1296.00,17400.00,-608.00
25976,-324.00,390.00,-25617.00,1068.00,952.00,17800.00,-608.00
26034,-739.00,5836.00,-22873.00,328.00,1124.00,18272.00,-592.00
26090,-2197.00,785.00,-15570.00,424.00,216.00,18632.00,-592.00
26146,-515.00,-237.00,-11930.00,-1020.00,368.00,19208.00,-608.00
26204,267.00,621.00,-5484.00,512.00,-2040.00,18192.00,-640.00
26260,4063.00,-3203.00,12011.00,860.00,-1192.00,18384.00,-592.00
26316,658.00,-1233.00,30770.00,-948.00,1120.00,17392.00,-592.00
26374,-2293.00,3037.00,29689.00,1432.00,228.00,17636.00,-624.00
26430,-3776.00,992.00,22682.00,-272.00,8.00,17496.00,-624.00
26486,-1165.00,-1586.00,18869.00,676.00,432.00,18216.00,-592.00
26543,-374.00,3686.00,11808.00,312.00,-1476.00,17076.00,-624.00
26600,851.00,-1204.00,-1008.00,44.00,-364.00,19272.00,-592.00
26656,1672.00,387.00,-4402.00,-1488.00,876.00,18796.00,-608.00
26713,583.00,-2145.00,-3016.00,512.00,-708.00,18204.00,-592.00
26770,180.00,-2967.00,-3936.00,476.00,620.00,17676.00,-640.00
26826,208.00,1203.00,-2773.00,508.00,-668.00,18944.00,-624.00
26883,-1045.00,-5447.00,-3504.00,-68.00,664.00,19040.00,-640.00
26939,-163.00,194.00,-1587.00,1088.00,392.00,19576.00,-624.00
26995,2392.00,3863.00,-817.00,1040.00,612.00,18196.00,-608.00
27053,1180.00,2185.00,-1886.00,1168.00,592.00,18300.00,-592.00
27109,1111.00,1014.00,-1098.00,596.00,756.00,17708.00,-592.00
27165,684.00,-1649.00,-420.00,588.00,188.00,17992.00,-592.00
27223,382.00,-4541.00,-1177.00,1036.00,-88.00,18252.00,-608.00
27279,702.00,2734.00,-127.00,1012.00,592.00,17348.00,-592.00
27335,-498.00,-3568.00,-2062.00,1536.00,972.00,18512.00,-576.00
27392,42.00,-10141.00,4652.00,2008.00,36.00,19600.00,-624.00
27449,1301.00,10434.00,4582.00,704.00,1424.00,19760.00,-640.00
27505,919.00,8782.00,-2497.00,220.00,976.00,16156.00,-576.00
27561,2257.00,7655.00,-4555.00,-484.00,-44.00,18500.00,-592.00
27618,-2321.00,-1245.00,-2947.00,-1656.00,1696.00,18836.00,-608.00
27675,-3463.00,-2439.00,-3648.00,-868.00,528.00,18600.00,-624.00
27731,15.00,1409.00,-316.00,76.00,420.00,17404.00,-608.00
27788,256.00,-2445.00,-899.00,-1144.00,-152.00,18304.00,-608.00
27845,1110.00,-862.00,-1020.00,-692.00,616.00,18492.00,-592.00
27901,-285.00,-1923.00,128.00,160.00,456.00,18268.00,-608.00
27958,23.00,-865.00,-558.00,76.00,424.00,18460.00,-624.00
28014,-43.00,-161.00,663.00,348.00,436.00,18148.00,-576.00
28070,73.00,390.00,1694.00,-172.00,12.00,18716.00,-576.00
28127,-331.00,-956.00,-342.00,568.00,196.00,17980.00,-576.00
28183,-43.00,94.00,-261.00,60.00,-76.00,18300.00,-576.00
28239,75.00,53.00,-308.00,164.00,408.00,18180.00,-608.00
28296,204.00,583.00,136.00,-192.00,136.00,18416.00,-608.00
28352,-577.00,-224.00,-302.00,144.00,212.00,18588.00,-576.00
28409,-303.00,930.00,-693.00,-100.00,0.00,18136.00,-576.00
28466,-4.00,402.00,-297.00,324.00,28.00,18312.00,-592.00
28522,-482.00,-236.00,-858.00,112.00,112.00,18440.00,-608.00
28578,-366.00,781.00,586.00,-132.00,252.00,18404.00,-592.00
28635,-46.00,748.00,-371.00,-180.00,-160.00,17940.00,-560.00
28691,-114.00,158.00,-621.00,-180.00,36.00,18176.00,-592.00
28747,-49.00,-649.00,-158.00,-292.00,-208.00,18424.00,-592.00
28804,-47.00,663.00,334.00,104.00,48.00,18324.00,-592.00
28860,388.00,-168.00,-479.00,-560.00,-268.00,18592.00,-576.00
28916,-305.00,550.00,-249.00,208.00,-100.00,18208.00,-608.00
28973,-467.00,-393.00,-39.00,-104.00,-356.00,18324.00,-608.00
29030,-450.00,-244.00,-262.00,144.00,-268.00,18552.00,-576.00
29086,-529.00,-522.00,-688.00,-472.00,-368.00,17876.00,-608.00
29143,-1143.00,529.00,-134.00,340.00,-240.00,18140.00,-576.00
29199,-4664.00,-1199.00,40.00,-312.00,-692.00,18152.00,-624.00
29255,-3003.00,-270.00,-1241.00,92.00,-1560.00,17864.00,-592.00
29313,-665.00,-338.00,320.00,124.00,-1448.00,17992.00,-608.00
29369,-301.00,339.00,165.00,-172.00,-1452.00,17108.00,-624.00
29425,-1148.00,-623.00,-628.00,20.00,-1348.00,18328.00,-624.00
29481,-495.00,-25.00,196.00,76.00,-1712.00,18120.00,-608.00
29538,450.00,377.00,499.00,200.00,-1832.00,18284.00,-608.00
29594,2198.00,1374.00,648.00,152.00,-1300.00,18160.00,-608.00
29651,3634.00,1384.00,784.00,-308.00,-1528.00,18344.00,-624.00
29708,3144.00,751.00,631.00,-480.00,-1016.00,18212.00,-624.00
29764,699.00,-339.00,800.00,-40.00,-404.00,18776.00,-640.00
29820,-5193.00,-740.00,584.00,-332.00,-772.00,18896.00,-640.00
29878,-11484.00,611.00,-2091.00,200.00,-2092.00,18448.00,-640.00
29934,-16443.00,-3313.00,-2806.00,-324.00,-3264.00,17324.00,-640.00
29990,-11987.00,-335.00,-828.00,480.00,-5936.00,16476.00,-608.00
30048,-5920.00,-1671.00,-1712.00,148.00,-7016.00,17232.00,-624.00
30104,-5722.00,-544.00,-245.00,896.00,-7556.00,16724.00,-624.00
30160,-6055.00,-200.00,-18.00,848.00,-7796.00,16544.00,-656.00
30217,-9404.00,644.00,-110.00,660.00,-8616.00,15304.00,-640.00
30274,-10907.00,516.00,360.00,160.00,-9436.00,14436.00,-608.00
30330,-11851.00,-1855.00,-468.00,448.00,-11480.00,14752.00,-624.00
30387,-8860.00,-376.00,-1043.00,292.00,-11720.00,12868.00,-656.00
30444,-2854.00,214.00,-986.00,932.00,-12924.00,12440.00,-624.00
30500,-146.00,-526.00,-660.00,1000.00,-12348.00,12556.00,-608.00
30557,7671.00,-445.00,1375.00,616.00,-11884.00,12756.00,-624.00
30614,16594.00,618.00,-434.00,808.00,-11520.00,15004.00,-640.00
30670,20163.00,-526.00,-3074.00,936.00,-9436.00,14784.00,-656.00
30727,23142.00,1827.00,-60.00,1096.00,-7188.00,16732.00,-624.00
30784,27026.00,4033.00,2368.00,692.00,-3456.00,16616.00,-608.00
30840,32432.00,3372.00,1273.00,-260.00,-416.00,17904.00,-640.00
30897,32767.00,2286.00,1372.00,-196.00,4556.00,16164.00,-640.00
30954,30547.00,10.00,-1919.00,-808.00,8364.00,16168.00,-656.00
31010,22868.00,-598.00,-252.00,-1120.00,10952.00,15132.00,-640.00
31067,11689.00,-1158.00,-1724.00,-360.00,12620.00,13480.00,-640.00
31124,-919.00,450.00,-191.00,-920.00,13340.00,13492.00,-640.00
31180,-14606.00,-2412.00,-1309.00,-1436.00,12220.00,12928.00,-656.00
31238,-26173.00,-571.00,28.00,108.00,10472.00,14632.00,-608.00
31294,-32594.00,-519.00,2387.00,-192.00,7420.00,16316.00,-624.00
31350,-32723.00,-1952.00,-448.00,80.00,3180.00,17340.00,-640.00
31408,-31188.00,923.00,-471.00,152.00,-564.00,17480.00,-624.00
31464,-25996.00,-2247.00,-1301.00,340.00,-4168.00,16468.00,-656.00
31520,-27637.00,514.00,-610.00,268.00,-8776.00,16112.00,-624.00
31578,-22774.00,-1873.00,-4335.00,984.00,-10364.00,14524.00,-656.00
31634,-8376.00,284.00,109.00,-220.00,-14288.00,13348.00,-656.00
31690,3940.00,842.00,-1079.00,292.00,-11840.00,13572.00,-640.00
31748,13610.00,-666.00,3408.00,1200.00,-11672.00,13612.00,-640.00
31804,21590.00,-248.00,1016.00,516.00,-9756.00,14864.00,-640.00
31860,28167.00,932.00,1719.00,288.00,-7224.00,16468.00,-624.00
31918,32767.00,1542.00,2877.00,-60.00,-2004.00,16800.00,-624.00
31974,32767.00,-654.00,-1469.00,528.00,2444.00,17032.00,-640.00
32030,31493.00,931.00,-2801.00,-892.00,5696.00,17340.00,-656.00
32088,24410.00,616.00,-4657.00,-140.00,8912.00,16340.00,-656.00
32144,14010.00,-882.00,-5814.00,904.00,12104.00,15564.00,-640.00
32200,5553.00,1886.00,-1428.00,-2008.00,11260.00,13600.00,-640.00
32258,-6686.00,-305.00,1263.00,-1728.00,12060.00,14580.00,-640.00
32314,-15740.00,-1181.00,2297.00,-796.00,10572.00,14164.00,-640.00
32371,-26370.00,-1546.00,1397.00,-1144.00,9240.00,16672.00,-608.00
32428,-30241.00,-5653.00,2112.00,1488.00,5672.00,16308.00,-592.00
32485,-29879.00,401.00,2456.00,648.00,1652.00,17688.00,-656.00
32541,-19566.00,-721.00,1040.00,144.00,-1960.00,16984.00,-640.00
32598,-20912.00,1422.00,-212.00,204.00,-3424.00,17108.00,-656.00
32655,-22436.00,-846.00,-2278.00,212.00,-6476.00,16580.00,-656.00
32711,-5701.00,1617.00,814.00,-836.00,-9912.00,16408.00,-640.00
32768,2446.00,-1849.00,-309.00,468.00,-8496.00,16264.00,-624.00
32825,11966.00,227.00,-1908.00,84.00,-8168.00,16584.00,-624.00
32881,19292.00,-168.00,803.00,396.00,-5764.00,16524.00,-640.00
32937,28882.00,-475.00,877.00,-192.00,-3200.00,17232.00,-656.00
32994,29566.00,987.00,-2998.00,276.00,1208.00,17908.00,-640.00
33051,30217.00,-777.00,-293.00,124.00,4456.00,17908.00,-640.00
33107,24272.00,-609.00,-2884.00,236.00,7512.00,17000.00,-624.00
33164,19182.00,-222.00,-2561.00,12.00,9724.00,15284.00,-656.00
33221,9743.00,-669.00,904.00,76.00,11860.00,14420.00,-608.00
33277,-1012.00,-55.00,991.00,-72.00,11640.00,13640.00,-656.00
33334,-8279.00,31.00,2100.00,-104.00,11096.00,13724.00,-656.00
33390,-20063.00,270.00,439.00,116.00,10120.00,15464.00,-640.00
33447,-24599.00,379.00,1490.00,768.00,7668.00,16772.00,-608.00
33504,-32437.00,951.00,328.00,652.00,4704.00,17264.00,-656.00
33560,-30731.00,-268.00,102.00,840.00,368.00,17592.00,-672.00
33617,-24329.00,-1671.00,-1543.00,912.00,-3188.00,17128.00,-656.00
33674,-9202.00,1020.00,-214.00,572.00,-6524.00,18008.00,-656.00
33730,-7728.00,374.00,506.00,268.00,-6464.00,17888.00,-624.00
33787,-8454.00,-1457.00,-2188.00,892.00,-7992.00,16664.00,-624.00
33844,-3880.00,1155.00,650.00,596.00,-8688.00,16524.00,-656.00
33900,319.00,653.00,697.00,492.00,-8316.00,15240.00,-640.00
33956,9858.00,1273.00,2220.00,-528.00,-8696.00,15704.00,-592.00
34014,17231.00,-852.00,152.00,76.00,-7264.00,16840.00,-608.00
34070,29593.00,126.00,-171.00,828.00,-3500.00,17280.00,-624.00
34126,30310.00,2956.00,-1928.00,1788.00,-144.00,20168.00,-640.00
34184,27077.00,4052.00,-817.00,236.00,4088.00,16944.00,-640.00
34240,24750.00,235.00,-1707.00,-1572.00,6012.00,17348.00,-640.00
34296,16658.00,-21.00,-1915.00,-224.00,9000.00,16140.00,-640.00
34354,10797.00,-521.00,-238.00,-1688.00,10228.00,14636.00,-624.00
34410,7454.00,114.00,456.00,-1220.00,10584.00,13148.00,-656.00
34466,-63.00,276.00,969.00,-1996.00,11544.00,13984.00,-640.00
34524,-8028.00,-431.00,1209.00,-1184.00,11172.00,14224.00,-656.00
34580,-18995.00,690.00,4886.00,-816.00,9972.00,14924.00,-656.00
34636,-31682.00,1020.00,1132.00,88.00,7236.00,16556.00,-624.00
34694,-32116.00,-1526.00,508.00,-52.00,3932.00,18324.00,-640.00
34750,-32768.00,-2623.00,-311.00,1132.00,492.00,18132.00,-592.00
34806,-22747.00,-1128.00,-2855.00,-76.00,-5672.00,16692.00,-656.00
34864,-11433.00,-1630.00,-1099.00,456.00,-7700.00,17172.00,-640.00
34920,-8063.00,-670.00,-843.00,796.00,-7696.00,16136.00,-592.00
34976,372.00,1169.00,1797.00,24.00,-9464.00,15692.00,-640.00
35034,16675.00,-1034.00,2370.00,-440.00,-8384.00,16644.00,-608.00
35090,23856.00,-212.00,1718.00,1184.00,-4528.00,18152.00,-608.00
35146,29631.00,-102.00,-738.00,1168.00,-984.00,16472.00,-640.00
35204,32767.00,-508.00,-1646.00,100.00,3352.00,17012.00,-640.00
35260,32767.00,259.00,-3599.00,816.00,7156.00,16164.00,-624.00
35316,22858.00,-1072.00,-1050.00,16.00,10408.00,16472.00,-624.00
35374,12996.00,-284.00,-3207.00,-124.00,11432.00,13596.00,-624.00
35430,3001.00,243.00,-452.00,-772.00,12908.00,13744.00,-656.00
35486,-6006.00,-1243.00,1700.00,-588.00,12384.00,13284.00,-640.00
35544,-13743.00,-898.00,2649.00,-296.00,11052.00,12888.00,-640.00
35600,-24147.00,-152.00,3673.00,136.00,9368.00,14892.00,-608.00
35657,-32165.00,3833.00,1600.00,768.00,6496.00,16600.00,-640.00
35714,-32768.00,2101.00,-1353.00,920.00,2732.00,18448.00,-608.00
35770,-32768.00,-871.00,-5621.00,-1088.00,-1484.00,14368.00,-640.00
35827,-32768.00,182.00,-3402.00,60.00,-5168.00,13832.00,-640.00
35884,-13088.00,-1482.00,-4362.00,-568.00,-9028.00,14728.00,-624.00
35940,-5567.00,-20.00,-390.00,-116.00,-11808.00,13672.00,-656.00
35997,790.00,-3662.00,5271.00,860.00,-12164.00,15356.00,-624.00
36054,6634.00,-666.00,588.00,800.00,-11628.00,15464.00,-624.00
36110,7173.00,-540.00,3564.00,152.00,-14748.00,14640.00,-640.00
36167,20896.00,-1788.00,86.00,1012.00,-7436.00,15908.00,-640.00
36224,32139.00,779.00,322.00,740.00,-4628.00,16124.00,-656.00
36280,32767.00,-326.00,-218.00,1168.00,1012.00,17372.00,-656.00
36337,32767.00,-2039.00,-4264.00,1312.00,5988.00,17592.00,-608.00
36393,28721.00,1937.00,-2734.00,-12.00,9708.00,16024.00,-624.00
36450,14314.00,2275.00,-3326.00,-588.00,11996.00,15460.00,-640.00
36507,1221.00,-391.00,-1101.00,-620.00,12168.00,13920.00,-608.00
36563,-11175.00,507.00,1963.00,-1264.00,11744.00,13036.00,-672.00
36621,-20674.00,-2270.00,3582.00,-392.00,10360.00,15272.00,-640.00
36677,-28072.00,-1144.00,1617.00,196.00,7636.00,15820.00,-624.00
36733,-32768.00,2186.00,2025.00,528.00,4100.00,17608.00,-640.00
36791,-32076.00,544.00,-213.00,568.00,704.00,17476.00,-640.00
36847,-30620.00,-887.00,-1226.00,364.00,-3896.00,17288.00,-624.00
36903,-18414.00,678.00,-1880.00,8.00,-6256.00,16632.00,-656.00
36961,-9339.00,-750.00,-917.00,-28.00,-8904.00,15896.00,-656.00
37017,2968.00,838.00,98.00,-24.00,-10236.00,15628.00,-624.00
37073,18744.00,-2448.00,-1067.00,-104.00,-9104.00,16468.00,-640.00
37130,28212.00,-137.00,55.00,1108.00,-5236.00,17412.00,-640.00
37187,31533.00,-4269.00,-3345.00,1404.00,-308.00,17660.00,-624.00
37243,32077.00,-1571.00,-2394.00,1256.00,2892.00,17852.00,-656.00
37301,30706.00,-1881.00,-2500.00,1720.00,6612.00,16504.00,-640.00
37357,25533.00,-1996.00,-3593.00,1004.00,9188.00,15936.00,-688.00
37413,15915.00,794.00,-1016.00,880.00,12828.00,15620.00,-656.00
37471,-2395.00,425.00,-200.00,388.00,11908.00,13180.00,-656.00
37527,-10298.00,2295.00,-1591.00,892.00,12216.00,14140.00,-624.00
37584,-17744.00,-2941.00,255.00,1764.00,10480.00,15492.00,-656.00
37641,-24075.00,-9469.00,-908.00,1112.00,8860.00,16816.00,-672.00
37697,-25500.00,0.00,2265.00,2596.00,5536.00,14680.00,-656.00
37754,-25084.00,4546.00,1324.00,-212.00,116.00,17160.00,-656.00
37811,-32740.00,2223.00,-4687.00,644.00,-404.00,17200.00,-656.00
37867,-16550.00,-289.00,1694.00,2564.00,-5344.00,15900.00,-624.00
37924,-3987.00,4.00,798.00,1748.00,-5928.00,17924.00,-656.00
37981,2963.00,-2755.00,-61.00,740.00,-6188.00,18596.00,-640.00
38037,15486.00,4020.00,-4048.00,504.00,-5496.00,17940.00,-624.00
38094,26181.00,6893.00,772.00,1180.00,-2124.00,16964.00,-640.00
38151,17618.00,5538.00,-1635.00,-72.00,-244.00,17992.00,-640.00
38207,19142.00,9638.00,6419.00,-1216.00,2756.00,19132.00,-624.00
38264,15491.00,7855.00,1062.00,-2524.00,4444.00,16564.00,-640.00
38321,18020.00,9402.00,3250.00,-2368.00,6740.00,15916.00,-656.00
38378,14837.00,3187.00,764.00,-3020.00,8888.00,15216.00,-624.00
38434,16250.00,-683.00,-3932.00,-3196.00,10612.00,14216.00,-656.00
38491,3750.00,-8329.00,-4373.00,-3260.00,11800.00,14808.00,-640.00
38548,-17625.00,-3538.00,2841.00,-2108.00,10352.00,14232.00,-624.00
38604,-32553.00,-3850.00,3341.00,-2552.00,8540.00,16164.00,-640.00
38662,-32768.00,-4152.00,7669.00,-1140.00,4836.00,17648.00,-656.00
38718,-32768.00,-6660.00,2982.00,-488.00,-100.00,15600.00,-624.00
38775,-19300.00,-188.00,-3623.00,-1660.00,-4964.00,18264.00,-624.00
38832,-21195.00,-3859.00,101.00,-496.00,-4568.00,15608.00,-608.00
38888,-8125.00,-2092.00,2130.00,-352.00,-9328.00,17724.00,-608.00
38945,617.00,-2253.00,323.00,-712.00,-8856.00,16132.00,-624.00
39002,11032.00,256.00,-33.00,164.00,-7856.00,16252.00,-608.00
39058,20726.00,-304.00,-985.00,-260.00,-5960.00,17272.00,-624.00
39115,30283.00,1377.00,526.00,620.00,-2272.00,17060.00,-656.00
39172,32767.00,77.00,-1177.00,-392.00,1360.00,18248.00,-656.00
39228,30823.00,1297.00,-1743.00,-244.00,5496.00,17640.00,-640.00
39285,24039.00,1031.00,-1548.00,-868.00,8452.00,16184.00,-608.00
39342,16879.00,-1568.00,-1943.00,-400.00,10880.00,14776.00,-640.00
39398,6111.00,-883.00,416.00,-728.00,12940.00,15160.00,-624.00
39455,-7285.00,1268.00,1648.00,-864.00,11484.00,13692.00,-640.00
39512,-18601.00,-763.00,-119.00,-592.00,10360.00,13988.00,-640.00
39568,-20491.00,-316.00,-397.00,160.00,8772.00,15076.00,-672.00
39625,-23381.00,-2835.00,116.00,-264.00,5760.00,17104.00,-624.00
39682,-31532.00,-1340.00,123.00,-248.00,2844.00,17960.00,-656.00
39738,-32768.00,-4508.00,-2547.00,472.00,-1088.00,17972.00,-656.00
39795,-28051.00,-1221.00,-608.00,860.00,-6244.00,16160.00,-656.00
39852,-14579.00,-158.00,-2316.00,264.00,-8296.00,17684.00,-656.00
39908,-6717.00,9.00,1875.00,856.00,-10756.00,15048.00,-624.00
39965,7943.00,-49.00,-1168.00,796.00,-9496.00,15320.00,-624.00
40022,19373.00,422.00,350.00,444.00,-8492.00,16884.00,-608.00
40078,26627.00,476.00,-405.00,860.00,-4916.00,17508.00,-640.00
40135,27807.00,1699.00,-647.00,56.00,-1636.00,17592.00,-624.00
40192,32158.00,1690.00,368.00,536.00,2824.00,16104.00,-640.00
40248,32767.00,5109.00,76.00,864.00,6588.00,17300.00,-656.00
40304,29517.00,903.00,-4971.00,564.00,10360.00,16172.00,-640.00
40361,18749.00,1243.00,-2934.00,-1008.00,12352.00,14176.00,-608.00
40418,7951.00,987.00,-277.00,-1808.00,13472.00,13808.00,-624.00
40475,-4210.00,-116.00,893.00,-1424.00,12968.00,12044.00,-656.00
40531,-16904.00,147.00,1856.00,-964.00,12300.00,12940.00,-624.00
40588,-28589.00,6.00,2490.00,-956.00,10920.00,15576.00,-656.00
40645,-32768.00,-2901.00,1957.00,-12.00,7164.00,16768.00,-608.00
40701,-32768.00,-3990.00,692.00,408.00,1184.00,17848.00,-624.00
40758,-32768.00,-457.00,-576.00,380.00,-4156.00,16352.00,-624.00
40815,-21295.00,-664.00,-1879.00,432.00,-9136.00,14768.00,-624.00
40871,-8745.00,-1056.00,-2636.00,512.00,-9404.00,15436.00,-656.00
40928,3589.00,-644.00,1024.00,820.00,-10660.00,14744.00,-624.00
40985,16160.00,-1224.00,1067.00,720.00,-9564.00,15404.00,-656.00
41041,24667.00,-1735.00,581.00,732.00,-7668.00,16352.00,-624.00
41098,32739.00,1591.00,-248.00,1636.00,-2692.00,17148.00,-640.00
41155,32767.00,2569.00,-646.00,988.00,1956.00,16548.00,-640.00
41211,32767.00,2141.00,-868.00,276.00,6124.00,16568.00,-672.00
41268,26099.00,-130.00,-1369.00,-472.00,9344.00,15840.00,-640.00
41325,14347.00,874.00,-1373.00,-20.00,11368.00,14576.00,-640.00
41381,8773.00,-235.00,-880.00,-220.00,12852.00,12936.00,-656.00
41438,-2012.00,974.00,58.00,-212.00,12844.00,12740.00,-656.00
41495,-15223.00,-72.00,-829.00,-104.00,13636.00,12288.00,-640.00
41551,-22707.00,583.00,765.00,-212.00,10204.00,14348.00,-656.00
41608,-27840.00,-550.00,1619.00,172.00,7400.00,16572.00,-624.00
41665,-32768.00,835.00,700.00,-32.00,4332.00,17968.00,-656.00
41721,-32768.00,-2806.00,-1150.00,396.00,84.00,19172.00,-672.00
41778,-29520.00,-411.00,-1800.00,180.00,-3856.00,16888.00,-624.00
41835,-13175.00,-552.00,-693.00,-672.00,-9140.00,16520.00,-656.00
41891,-11097.00,-1611.00,-2530.00,416.00,-8676.00,16008.00,-624.00
41948,69.00,299.00,-595.00,884.00,-8900.00,15660.00,-656.00
42004,9831.00,978.00,378.00,-184.00,-9384.00,15924.00,-656.00
42061,25168.00,112.00,875.00,432.00,-7236.00,17092.00,-640.00
42118,32043.00,2283.00,-1522.00,532.00,-2200.00,17680.00,-656.00
42174,32767.00,4924.00,-1489.00,-84.00,1908.00,18324.00,-624.00
42231,24948.00,-455.00,-3551.00,-624.00,4896.00,17020.00,-624.00
42288,24559.00,1523.00,-4239.00,212.00,7668.00,16676.00,-640.00
42344,20964.00,860.00,-1826.00,-432.00,10264.00,14728.00,-640.00
42401,12948.00,11.00,-2108.00,-1568.00,11980.00,14732.00,-640.00
42458,-1311.00,-1038.00,624.00,-1828.00,12232.00,13088.00,-640.00
42515,-14794.00,800.00,-150.00,-1052.00,11512.00,13316.00,-624.00
42571,-23464.00,-1136.00,3540.00,-476.00,9920.00,14308.00,-624.00
42628,-28840.00,-1211.00,2155.00,-204.00,6716.00,16768.00,-656.00
42685,-32768.00,-1015.00,2344.00,180.00,3388.00,17564.00,-624.00
42741,-32768.00,-1555.00,-428.00,356.00,-1344.00,17432.00,-624.00
42799,-32768.00,-240.00,105.00,436.00,-6112.00,16356.00,-624.00
42855,-18744.00,-937.00,-3033.00,-1412.00,-8176.00,16780.00,-640.00
42911,-7345.00,-855.00,-2387.00,668.00,-11680.00,15372.00,-640.00
42969,95.00,-38.00,639.00,708.00,-11212.00,13532.00,-640.00
43025,10039.00,-372.00,1167.00,-656.00,-14028.00,13696.00,-640.00
43081,6633.00,261.00,-1837.00,1696.00,-10596.00,15052.00,-640.00
43138,-3842.00,1330.00,5266.00,1112.00,-8900.00,14140.00,-640.00
43195,880.00,-3293.00,-5338.00,1356.00,-8972.00,14156.00,-640.00
43251,2291.00,-909.00,2154.00,1012.00,-10248.00,14464.00,-640.00
43309,11046.00,-1023.00,2996.00,-572.00,-10160.00,14180.00,-608.00
43365,21672.00,-671.00,-1586.00,1340.00,-7296.00,15832.00,-640.00
43421,32767.00,2605.00,3021.00,184.00,-3148.00,15276.00,-640.00
43479,32767.00,1853.00,-3775.00,1392.00,-212.00,17396.00,-640.00
43535,32767.00,916.00,-1262.00,1492.00,6764.00,16668.00,-624.00
43592,17837.00,1045.00,-275.00,436.00,8580.00,18560.00,-624.00
43649,5414.00,211.00,-304.00,228.00,9720.00,16192.00,-608.00
43705,4368.00,1492.00,-2394.00,260.00,10312.00,15456.00,-624.00
43762,-3882.00,-102.00,-395.00,-432.00,10196.00,15352.00,-624.00
43819,-14836.00,515.00,221.00,-24.00,9724.00,15440.00,-656.00
43875,-24652.00,-375.00,1736.00,172.00,7008.00,16044.00,-656.00
43931,-29292.00,253.00,826.00,-72.00,4176.00,17728.00,-624.00
43988,-32768.00,-1297.00,248.00,528.00,648.00,17560.00,-640.00
44045,-31400.00,-2050.00,-2344.00,516.00,-4140.00,17032.00,-656.00
44101,-19550.00,-16.00,-1523.00,284.00,-6532.00,17956.00,-640.00
44158,-10165.00,-2294.00,-3428.00,1036.00,-8796.00,16092.00,-624.00
44215,-8990.00,-132.00,-69.00,1700.00,-10068.00,14500.00,-640.00
44271,9403.00,281.00,352.00,124.00,-11024.00,14904.00,-656.00
44328,21617.00,235.00,314.00,1372.00,-8996.00,16060.00,-656.00
44385,29186.00,2299.00,-48.00,1300.00,-4632.00,16620.00,-640.00
44441,32641.00,2203.00,-483.00,788.00,-888.00,17372.00,-640.00
44498,31651.00,874.00,-758.00,448.00,2988.00,17532.00,-640.00
44555,26921.00,-1614.00,-2693.00,900.00,6284.00,17172.00,-624.00
44611,19219.00,1913.00,-1306.00,940.00,8320.00,16504.00,-656.00
44668,10204.00,-975.00,249.00,-164.00,10004.00,15768.00,-640.00
44725,106.00,-1956.00,-2187.00,-780.00,10440.00,14964.00,-656.00
44781,-2344.00,-1967.00,-75.00,1264.00,9536.00,12968.00,-656.00
44838,-1875.00,-722.00,-2127.00,672.00,10128.00,14624.00,-624.00
44895,-14048.00,2413.00,615.00,1016.00,9264.00,15460.00,-640.00
44951,-29777.00,1483.00,980.00,212.00,7516.00,16768.00,-608.00
45008,-32768.00,212.00,1368.00,720.00,3648.00,17400.00,-608.00
45065,-29057.00,-479.00,1051.00,1140.00,-792.00,17352.00,-624.00
45121,-26578.00,-449.00,-1104.00,144.00,-4328.00,18172.00,-656.00
45178,-21369.00,-903.00,-1314.00,700.00,-8136.00,16264.00,-640.00
45235,-11066.00,419.00,-374.00,212.00,-9796.00,16148.00,-608.00
45291,-7413.00,-62.00,649.00,-4.00,-10108.00,14748.00,-656.00
45348,6456.00,0.00,-367.00,-56.00,-10156.00,14332.00,-624.00
45405,20791.00,619.00,1506.00,344.00,-9356.00,16248.00,-656.00
45461,29791.00,2141.00,580.00,400.00,-4940.00,17088.00,-640.00
45517,32217.00,3135.00,426.00,0.00,-1332.00,17664.00,-608.00
45575,32767.00,661.00,-1535.00,-396.00,2652.00,17088.00,-640.00
45631,30097.00,382.00,-4582.00,-228.00,6216.00,17724.00,-656.00
45687,23817.00,2906.00,-2346.00,-1428.00,9388.00,15184.00,-656.00
45745,9595.00,424.00,-712.00,-1760.00,10588.00,14568.00,-656.00
45801,2571.00,-74.00,-1377.00,-1860.00,11944.00,14496.00,-688.00
45857,-5080.00,-1576.00,1450.00,-1180.00,11596.00,13664.00,-656.00
45915,-15830.00,-1816.00,2214.00,-1632.00,10280.00,14016.00,-624.00
45971,-27197.00,-1648.00,1312.00,-492.00,8492.00,16580.00,-624.00
46028,-32768.00,-1252.00,1892.00,508.00,4960.00,17640.00,-624.00
46085,-32768.00,-913.00,884.00,204.00,300.00,17180.00,-624.00
46141,-31928.00,-807.00,-87.00,12.00,-4432.00,17480.00,-608.00
46198,-25695.00,-941.00,-559.00,-380.00,-8520.00,15984.00,-656.00
46255,-16008.00,-601.00,-2720.00,828.00,-8872.00,14776.00,-624.00
46311,-3334.00,1377.00,1506.00,-988.00,-13156.00,14156.00,-640.00
46368,10356.00,-2216.00,-445.00,-572.00,-12280.00,14384.00,-656.00
46425,23750.00,-1014.00,685.00,696.00,-9300.00,15628.00,-624.00
46481,31992.00,-1853.00,-2368.00,844.00,-5408.00,16540.00,-624.00
46538,32767.00,1228.00,-3277.00,1424.00,-276.00,17468.00,-624.00
46595,32767.00,1728.00,-1194.00,-8.00,3880.00,17400.00,-624.00
46651,29296.00,1207.00,-3143.00,480.00,7192.00,17572.00,-672.00
46708,17639.00,1874.00,-2026.00,-808.00,9476.00,15868.00,-640.00
46765,5368.00,-137.00,-1842.00,-604.00,10896.00,14972.00,-624.00
46822,-2936.00,-536.00,25.00,-620.00,10960.00,14128.00,-640.00
46878,-10789.00,-2669.00,2544.00,-808.00,9904.00,14408.00,-624.00
46935,-17929.00,-2632.00,2949.00,0.00,8632.00,15148.00,-624.00
46991,-25300.00,-4782.00,4711.00,600.00,6364.00,17404.00,-624.00
47048,-32768.00,-545.00,2931.00,1424.00,3752.00,17100.00,-656.00
47105,-32768.00,2764.00,-229.00,1300.00,-2012.00,17892.00,-656.00
47162,-32768.00,1268.00,-847.00,2056.00,-5820.00,15792.00,-624.00
47218,-23481.00,2637.00,-1013.00,1036.00,-10620.00,14612.00,-624.00
47276,-14287.00,-420.00,-2154.00,492.00,-13652.00,13388.00,-640.00
47332,1168.00,500.00,1189.00,1136.00,-13436.00,12332.00,-624.00
47388,10939.00,-818.00,2416.00,748.00,-12032.00,13136.00,-656.00
47446,21431.00,65.00,1908.00,788.00,-10340.00,14320.00,-656.00
47502,30011.00,1657.00,327.00,400.00,-6700.00,16232.00,-624.00
47558,32767.00,995.00,52.00,1400.00,-2396.00,16584.00,-624.00
47616,32767.00,776.00,-2008.00,1484.00,1984.00,17112.00,-640.00
47672,30599.00,89.00,-1956.00,928.00,6172.00,18564.00,-672.00
47728,16600.00,1477.00,-2026.00,0.00,8192.00,16920.00,-640.00
47785,5521.00,1597.00,-1907.00,-608.00,9420.00,16276.00,-656.00
47842,191.00,102.00,-847.00,-520.00,9624.00,14692.00,-624.00
47898,-3931.00,576.00,-607.00,-824.00,9540.00,14840.00,-608.00
47954,-7853.00,-1459.00,654.00,208.00,9084.00,15248.00,-624.00
48012,-7873.00,-1255.00,344.00,-512.00,7928.00,15020.00,-624.00
48068,-8747.00,-365.00,693.00,116.00,7288.00,17620.00,-640.00
48124,-13899.00,-3120.00,270.00,188.00,6420.00,17828.00,-656.00
48182,-14665.00,-198.00,1577.00,692.00,3864.00,17944.00,-624.00
48238,-12969.00,-2394.00,2453.00,688.00,2508.00,17892.00,-656.00
48294,-3889.00,-903.00,2501.00,600.00,932.00,17900.00,-624.00
48352,-483.00,-613.00,2193.00,2004.00,928.00,17756.00,-608.00
48408,-802.00,-1319.00,1826.00,836.00,824.00,19068.00,-624.00
48464,-2665.00,686.00,147.00,980.00,604.00,17980.00,-640.00
48521,1499.00,-380.00,-1422.00,-324.00,684.00,18396.00,-624.00
48577,5505.00,-617.00,-5070.00,1068.00,784.00,17700.00,-640.00
48634,4041.00,-1363.00,-1629.00,1368.00,1436.00,17944.00,-608.00
48691,1668.00,-1869.00,-408.00,1976.00,1388.00,19128.00,-640.00
48747,-246.00,-2717.00,-774.00,2420.00,1848.00,17144.00,-640.00
48804,234.00,-1557.00,-772.00,2844.00,1608.00,18660.00,-656.00
48861,-1126.00,-6786.00,2848.00,2900.00,1396.00,17812.00,-656.00
48917,-1215.00,-5295.00,1427.00,3196.00,1512.00,17928.00,-656.00
48974,-1880.00,-10834.00,567.00,3676.00,1284.00,18120.00,-624.00
49031,-476.00,-14777.00,764.00,5536.00,1156.00,16876.00,-656.00
49088,-2077.00,-24972.00,-479.00,7976.00,540.00,16668.00,-656.00
49144,-4638.00,-23211.00,-1243.00,11036.00,852.00,12892.00,-624.00
49201,-528.00,-14262.00,1778.00,13984.00,740.00,13192.00,-640.00
49258,-1831.00,14523.00,-1443.00,13836.00,412.00,11428.00,-640.00
49314,3541.00,27115.00,-4226.00,10824.00,124.00,14644.00,-608.00
49372,6114.00,32767.00,-4886.00,5548.00,860.00,17152.00,-624.00
49428,155.00,32767.00,-4285.00,1532.00,2524.00,19816.00,-624.00
49484,-448.00,28741.00,-1257.00,-2612.00,1420.00,16980.00,-656.00
49542,-298.00,32767.00,-1254.00,-6772.00,1336.00,15964.00,-608.00
49598,-3277.00,20364.00,-5399.00,-10260.00,1660.00,15780.00,-608.00
49655,-5287.00,-9655.00,-7700.00,-13492.00,-288.00,11812.00,-656.00
49712,-2396.00,-32768.00,-4268.00,-6860.00,-348.00,13688.00,-656.00
49769,8448.00,-32768.00,1857.00,-2212.00,568.00,17892.00,-624.00
49825,3740.00,-32768.00,5986.00,6564.00,1784.00,18152.00,-592.00
49882,3009.00,-16801.00,3604.00,8432.00,-108.00,13308.00,-640.00
49939,3145.00,-15559.00,-889.00,8528.00,292.00,14716.00,-640.00
49995,1877.00,-21999.00,-169.00,11296.00,748.00,14756.00,-656.00
50052,-970.00,-9879.00,5463.00,10592.00,1588.00,10044.00,-656.00
50109,2211.00,15036.00,-352.00,15148.00,1504.00,12428.00,-624.00
50165,2454.00,32767.00,-617.00,13008.00,1384.00,14136.00,-624.00
50223,2612.00,32767.00,-2594.00,5356.00,1616.00,17220.00,-640.00
50279,-3255.00,32767.00,-6466.00,2760.00,-200.00,21936.00,-672.00
50336,-2564.00,28096.00,-2473.00,-8504.00,-44.00,17128.00,-640.00
50393,-7381.00,30034.00,-1421.00,-6824.00,1284.00,17252.00,-624.00
50449,-2084.00,17728.00,1498.00,-11404.00,884.00,13280.00,-640.00
50506,243.00,-10008.00,-3191.00,-12624.00,-732.00,11660.00,-640.00
50563,-1598.00,-32768.00,504.00,-11604.00,-968.00,12728.00,-608.00
50620,-1038.00,-32768.00,850.00,-2112.00,-20.00,18536.00,-640.00
50676,-2737.00,-32768.00,-6514.00,2636.00,-1040.00,13384.00,-624.00
50733,2009.00,-32768.00,-5810.00,12468.00,-716.00,13976.00,-592.00
50790,971.00,-32768.00,-3533.00,14052.00,3812.00,9624.00,-624.00
50846,-835.00,13686.00,2022.00,18504.00,68.00,12552.00,-592.00
50904,6913.00,32767.00,-2006.00,13000.00,364.00,14440.00,-624.00
50960,-627.00,32767.00,3461.00,5536.00,616.00,18076.00,-592.00
51016,-8772.00,32767.00,-2160.00,-692.00,-808.00,16740.00,-624.00
51074,-6030.00,32767.00,9285.00,-7016.00,2184.00,19036.00,-608.00
51130,7009.00,14225.00,-5243.00,-18832.00,-592.00,8624.00,-640.00
51186,7877.00,17832.00,602.00,-9952.00,1132.00,10296.00,-608.00
51244,5540.00,-13084.00,2631.00,-19020.00,996.00,8492.00,-608.00
51300,7453.00,-32768.00,-4436.00,-10772.00,2304.00,11072.00,-608.00
51357,5282.00,-32768.00,1813.00,-9808.00,1952.00,14820.00,-640.00
51414,967.00,-32768.00,792.00,2452.00,2148.00,18708.00,-592.00
51471,-7362.00,-32768.00,4274.00,7088.00,188.00,11856.00,-608.00
51527,-6524.00,-32768.00,763.00,15692.00,1216.00,18188.00,-576.00
51584,-18.00,-1401.00,-504.00,14856.00,824.00,11960.00,-608.00
51641,-241.00,32767.00,-3838.00,12208.00,1368.00,13128.00,-624.00
51697,2224.00,32767.00,5904.00,7100.00,1940.00,18900.00,-624.00
51753,-8025.00,32767.00,1998.00,-992.00,-536.00,13332.00,-608.00
51811,-8187.00,32767.00,4108.00,-7876.00,-832.00,16172.00,-592.00
51867,-2173.00,32767.00,267.00,-10112.00,280.00,13288.00,-624.00
51924,-1096.00,15409.00,2202.00,-13464.00,-1096.00,8984.00,-592.00
51981,514.00,-11836.00,1070.00,-16176.00,-616.00,9116.00,-576.00
52037,2938.00,-32768.00,2150.00,-15728.00,-1152.00,13852.00,-592.00
52094,2979.00,-32768.00,-5107.00,-5460.00,-124.00,14572.00,-608.00
52151,-3656.00,-32768.00,-4358.00,3028.00,-1632.00,17992.00,-576.00
52208,5746.00,-32251.00,-3541.00,7088.00,1252.00,14420.00,-592.00
52264,-334.00,-25352.00,-1434.00,11100.00,-128.00,15768.00,-624.00
52322,1778.00,-27562.00,-2819.00,13704.00,336.00,13700.00,-592.00
52378,-1333.00,9150.00,2268.00,13888.00,100.00,10076.00,-592.00
52434,331.00,32767.00,-1768.00,12464.00,524.00,14540.00,-592.00
52492,112.00,32767.00,3680.00,8472.00,1088.00,16240.00,-624.00
52548,2591.00,32767.00,-4154.00,-236.00,-784.00,15420.00,-656.00
52605,1704.00,32767.00,-2164.00,-11116.00,-248.00,15736.00,-624.00
52662,-384.00,27955.00,-5404.00,-12056.00,-100.00,13820.00,-592.00
52718,-2069.00,16360.00,306.00,-11404.00,-1012.00,11328.00,-592.00
52775,2635.00,1446.00,1743.00,-14740.00,-856.00,8192.00,-608.00
52832,2174.00,-32768.00,4038.00,-14440.00,768.00,12544.00,-624.00
52889,-4621.00,-32768.00,4904.00,-2396.00,-452.00,17688.00,-608.00
52945,3138.00,-32768.00,1676.00,3124.00,2016.00,14336.00,-608.00
53002,1053.00,-32768.00,41.00,9592.00,-292.00,14100.00,-592.00
53059,223.00,-21808.00,-1792.00,11408.00,1484.00,13280.00,-592.00
53115,-1466.00,-20756.00,2244.00,17080.00,1132.00,11692.00,-608.00
53173,759.00,-2690.00,764.00,15908.00,1556.00,9376.00,-624.00
53229,978.00,32767.00,-3630.00,14084.00,-536.00,11900.00,-608.00
53285,3915.00,32767.00,410.00,8704.00,1128.00,15580.00,-608.00
53343,2221.00,32767.00,-3027.00,2196.00,1856.00,18524.00,-576.00
53399,191.00,32767.00,-4181.00,-4784.00,1176.00,16508.00,-608.00
53456,-2219.00,32767.00,-7155.00,-11600.00,748.00,17000.00,-576.00
53513,-155.00,26127.00,1673.00,-11316.00,1100.00,9908.00,-624.00
53569,2166.00,-1617.00,-1584.00,-15300.00,420.00,8100.00,-592.00
53626,1163.00,-32768.00,3034.00,-14368.00,632.00,8036.00,-592.00
53683,-1720.00,-32768.00,2872.00,-9580.00,780.00,16788.00,-656.00
53740,-2637.00,-32768.00,872.00,3388.00,860.00,15588.00,-592.00
53796,1222.00,-32768.00,-2478.00,8320.00,752.00,15712.00,-576.00
53853,2195.00,-32768.00,-1413.00,8852.00,932.00,11908.00,-576.00
53910,-1674.00,-15454.00,-362.00,18480.00,1320.00,11916.00,-608.00
53966,804.00,-9392.00,-642.00,15076.00,1900.00,10036.00,-592.00
54023,0.00,8018.00,640.00,17060.00,1144.00,8196.00,-592.00
54080,245.00,32767.00,-294.00,14000.00,1768.00,12148.00,-560.00
54136,20.00,32767.00,2306.00,9724.00,1532.00,15084.00,-592.00
54193,-10036.00,32767.00,1337.00,2896.00,408.00,20572.00,-608.00
54250,3999.00,32767.00,7563.00,-4296.00,540.00,14484.00,-544.00
54306,6913.00,32767.00,-9892.00,-16740.00,-476.00,12072.00,-576.00
54364,2604.00,20571.00,-2746.00,-9000.00,732.00,7092.00,-592.00
54420,-1476.00,-20013.00,1757.00,-17312.00,-116.00,9152.00,-608.00
54476,-938.00,-32768.00,-681.00,-11592.00,1144.00,10384.00,-576.00
54534,5303.00,-32768.00,717.00,-9828.00,3752.00,14924.00,-608.00
54590,-7259.00,-32768.00,-323.00,884.00,-996.00,15476.00,-608.00
54646,8567.00,-32768.00,-5672.00,11308.00,-556.00,17000.00,-592.00
54704,4067.00,-32768.00,1268.00,10592.00,1572.00,11916.00,-608.00
54760,-1882.00,-18784.00,1004.00,16892.00,724.00,12392.00,-608.00
54817,1361.00,-1049.00,84.00,16332.00,1296.00,9364.00,-608.00
54874,-780.00,32767.00,-532.00,15964.00,932.00,11140.00,-592.00
54930,6342.00,32767.00,11833.00,9596.00,2332.00,14148.00,-624.00
54987,-252.00,32767.00,-1305.00,2916.00,604.00,18008.00,-608.00
55044,7689.00,32767.00,-7994.00,-5436.00,-452.00,12488.00,-592.00
55101,137.00,32767.00,4451.00,-7948.00,1524.00,13140.00,-592.00
55157,76.00,13273.00,-1616.00,-18176.00,1072.00,11164.00,-592.00
55214,-1759.00,2691.00,-523.00,-13152.00,872.00,10564.00,-624.00
55271,-1168.00,-23418.00,607.00,-15324.00,992.00,8412.00,-576.00
55327,-3104.00,-32768.00,2726.00,-8800.00,2968.00,15696.00,-576.00
55385,-5369.00,-32768.00,-1834.00,-2028.00,520.00,15240.00,-608.00
55441,4814.00,-32768.00,-1928.00,9108.00,-1288.00,20024.00,-608.00
55497,-5018.00,-32768.00,4533.00,9272.00,180.00,11524.00,-576.00
55555,-4289.00,-30479.00,-8912.00,13744.00,880.00,12644.00,-608.00
55611,-1795.00,-32768.00,-266.00,16444.00,1456.00,6252.00,-608.00
55668,498.00,-4603.00,-2595.00,18968.00,732.00,7272.00,-576.00
55725,2684.00,32767.00,-990.00,17740.00,676.00,8456.00,-592.00
55781,6907.00,32767.00,5430.00,12184.00,1424.00,11784.00,-576.00
55838,128.00,32767.00,319.00,-2768.00,1612.00,17320.00,-592.00
55895,6173.00,32767.00,-2057.00,-2660.00,2008.00,18608.00,-592.00
55952,7142.00,32767.00,-6846.00,-7588.00,2708.00,16740.00,-592.00
56008,2017.00,15948.00,-2126.00,-11740.00,936.00,10796.00,-592.00
56065,398.00,9170.00,-1873.00,-12244.00,2784.00,13124.00,-576.00
56122,280.00,-32768.00,5631.00,-13468.00,1816.00,9740.00,-576.00
56178,-7731.00,-32768.00,10630.00,-3636.00,2328.00,17000.00,-608.00
56236,-11858.00,-32768.00,1102.00,1672.00,1432.00,17304.00,-592.00
56292,-5953.00,-26454.00,1582.00,11284.00,2008.00,9988.00,-592.00
56349,1294.00,-30974.00,2469.00,17324.00,764.00,12412.00,-576.00
56406,-2290.00,-21276.00,-786.00,14996.00,340.00,9188.00,-576.00
56462,-3697.00,-3763.00,655.00,20256.00,224.00,6808.00,-640.00
56519,2671.00,32767.00,-1208.00,14036.00,132.00,9328.00,-624.00
56576,4110.00,32767.00,5683.00,10632.00,256.00,14000.00,-592.00
56632,9864.00,32767.00,1965.00,5312.00,452.00,17620.00,-592.00
56689,6974.00,32767.00,-8782.00,-2356.00,1584.00,18296.00,-592.00
56745,5798.00,32767.00,-9898.00,-7444.00,2104.00,17048.00,-624.00
56803,39.00,22699.00,-5142.00,-11200.00,2444.00,15256.00,-640.00
56859,-281.00,13179.00,-2401.00,-11528.00,1920.00,11836.00,-608.00
56916,-1940.00,-24932.00,3442.00,-13244.00,1448.00,12032.00,-608.00
56973,-4326.00,-32768.00,9325.00,-7128.00,1084.00,15556.00,-592.00
57030,1956.00,-32768.00,3964.00,-2892.00,1528.00,17032.00,-560.00
57086,-7438.00,-32768.00,5765.00,9360.00,1920.00,17192.00,-592.00
57143,-5346.00,-32768.00,3995.00,10580.00,-72.00,13708.00,-608.00
57200,-3635.00,-32768.00,1713.00,14328.00,-328.00,10856.00,-576.00
57256,-3675.00,-19972.00,-775.00,17112.00,104.00,7888.00,-624.00
57314,-2387.00,32767.00,-695.00,17508.00,264.00,8396.00,-608.00
57370,4200.00,32767.00,-594.00,12724.00,-624.00,13536.00,-592.00
57426,4012.00,32767.00,-689.00,6444.00,-676.00,15028.00,-592.00
57484,7144.00,32767.00,-3216.00,-3256.00,964.00,17680.00,-560.00
57540,6730.00,32767.00,-5145.00,-6284.00,1020.00,16856.00,-592.00
57596,4462.00,29774.00,-7433.00,-8852.00,1460.00,15316.00,-592.00
57654,-628.00,18871.00,-1510.00,-11940.00,2112.00,11948.00,-592.00
57710,-797.00,9536.00,-2897.00,-13428.00,1476.00,11440.00,-608.00
57767,-1122.00,-10860.00,4151.00,-13272.00,1368.00,10504.00,-624.00
57824,-5814.00,-32768.00,4344.00,-9744.00,-152.00,16032.00,-608.00
57881,-1923.00,-32768.00,7017.00,-236.00,2116.00,17836.00,-608.00
57937,-2987.00,-32768.00,569.00,7376.00,484.00,17684.00,-576.00
57994,-4105.00,-32768.00,1160.00,8148.00,-1672.00,11256.00,-640.00
58051,-2745.00,-21529.00,61.00,13768.00,-544.00,10888.00,-640.00
58107,-2075.00,-11200.00,-1361.00,16860.00,-664.00,8840.00,-608.00
58165,-2030.00,32767.00,-771.00,16952.00,-1088.00,11264.00,-576.00
58221,4318.00,32767.00,-1653.00,11988.00,-660.00,12200.00,-624.00
58277,10048.00,32767.00,-1984.00,-3476.00,-1200.00,15456.00,-592.00
58335,9193.00,32767.00,-2114.00,-6520.00,2004.00,18280.00,-576.00
58391,-4637.00,27583.00,-5843.00,-11464.00,1908.00,14184.00,-624.00
58448,-1850.00,23883.00,-4435.00,-11440.00,924.00,11796.00,-576.00
58505,-363.00,9579.00,-109.00,-13416.00,696.00,10408.00,-608.00
58562,1289.00,3265.00,91.00,-14116.00,352.00,9176.00,-640.00
58618,787.00,-17447.00,2311.00,-15480.00,96.00,8960.00,-608.00
58675,-6326.00,-32768.00,11610.00,-7160.00,1080.00,15300.00,-560.00
58732,-6231.00,-32768.00,14945.00,-3068.00,444.00,16808.00,-640.00
58788,-7657.00,-32768.00,1717.00,5528.00,148.00,16972.00,-624.00
58846,-5100.00,-32768.00,-5154.00,7344.00,-424.00,13996.00,-624.00
58902,-4868.00,-27526.00,-3255.00,13540.00,-2156.00,10964.00,-592.00
58958,-901.00,-14029.00,-493.00,14788.00,-620.00,10736.00,-592.00
59016,-1039.00,15588.00,-120.00,17676.00,-996.00,9992.00,-608.00
59072,4178.00,32767.00,-4778.00,13476.00,-1348.00,13672.00,-608.00
59129,3101.00,32767.00,-3926.00,4544.00,-208.00,16624.00,-592.00
59186,8835.00,32767.00,-3331.00,-984.00,104.00,16376.00,-592.00
59242,6818.00,32767.00,-1199.00,-5888.00,1440.00,15716.00,-592.00
59299,2940.00,25263.00,-2804.00,-10672.00,1528.00,13664.00,-624.00
59356,-107.00,15840.00,-2462.00,-12468.00,1544.00,12564.00,-624.00
59413,-981.00,-4355.00,534.00,-13372.00,2068.00,10276.00,-592.00
59469,-6287.00,-32768.00,8306.00,-12572.00,1460.00,15328.00,-592.00
59527,-5004.00,-32768.00,6800.00,-2768.00,1828.00,16824.00,-608.00
59583,-641.00,-32768.00,6974.00,1808.00,860.00,17260.00,-608.00
59639,-8269.00,-32768.00,1203.00,9640.00,264.00,15640.00,-576.00
59697,-5765.00,-24544.00,-1251.00,11316.00,-424.00,13428.00,-608.00
59753,-3678.00,-24940.00,-1171.00,16000.00,-548.00,10500.00,-592.00
59810,-681.00,7463.00,-3324.00,16000.00,180.00,11048.00,-592.00
59867,4662.00,32767.00,-2040.00,14760.00,-308.00,12480.00,-624.00
59923,4499.00,32767.00,-146.00,7312.00,1036.00,15832.00,-576.00
59980,6969.00,32767.00,2587.00,-652.00,924.00,18116.00,-576.00
60037,7372.00,32767.00,-4220.00,-4368.00,1896.00,17344.00,-592.00
60094,2074.00,30683.00,-4659.00,-9944.00,2112.00,15396.00,-544.00
60150,207.00,24816.00,-5809.00,-11216.00,2356.00,12684.00,-576.00
60207,295.00,11447.00,-2034.00,-12696.00,1780.00,10980.00,-592.00
60264,-1037.00,-18517.00,1137.00,-15348.00,2704.00,9468.00,-592.00
60320,-5482.00,-32768.00,4806.00,-10680.00,-340.00,14652.00,-608.00
60378,-6008.00,-32768.00,10896.00,-476.00,1188.00,14984.00,-592.00
60434,-4230.00,-32768.00,3191.00,9936.00,676.00,17664.00,-560.00
60491,-3895.00,-32768.00,3842.00,9008.00,-260.00,12932.00,-608.00
60548,-3464.00,-15299.00,1574.00,17224.00,-1224.00,10196.00,-608.00
60605,-3598.00,2859.00,-3758.00,15916.00,260.00,10348.00,-592.00
60661,2925.00,32767.00,42.00,12452.00,-1672.00,12568.00,-592.00
60718,3654.00,32767.00,-1965.00,8896.00,548.00,15684.00,-608.00
60775,8470.00,32767.00,-763.00,-1140.00,-108.00,18500.00,-576.00
60831,9445.00,32767.00,-5124.00,-5456.00,852.00,17004.00,-560.00
60888,6080.00,32767.00,-4626.00,-10372.00,1832.00,14904.00,-608.00
60945,1556.00,17252.00,-4907.00,-12932.00,1584.00,12252.00,-608.00
61001,-1230.00,4811.00,-1163.00,-13024.00,2080.00,12340.00,-624.00
61059,-2482.00,-24718.00,2990.00,-14640.00,1332.00,11796.00,-608.00
61115,-5053.00,-32768.00,602.00,-11972.00,2216.00,14788.00,-592.00
61172,-689.00,-32768.00,5882.00,-464.00,924.00,16784.00,-576.00
61229,-1316.00,-32768.00,3221.00,6520.00,1232.00,16016.00,-560.00
61286,-3910.00,-32768.00,3011.00,11244.00,784.00,13540.00,-608.00
61342,-524.00,-20174.00,1137.00,13028.00,-1008.00,13020.00,-592.00
61399,-1580.00,10540.00,-2667.00,15924.00,640.00,10876.00,-592.00
61456,2894.00,32767.00,-4488.00,12972.00,48.00,12752.00,-624.00
61512,2896.00,32767.00,-1109.00,5832.00,1164.00,15132.00,-592.00
61570,7298.00,32767.00,-79.00,-2348.00,868.00,17808.00,-576.00
61626,5317.00,32767.00,-3345.00,-6360.00,1564.00,16884.00,-592.00
61682,1954.00,29250.00,-6144.00,-10176.00,1172.00,14716.00,-608.00
61740,1949.00,20276.00,-4889.00,-11328.00,1800.00,11144.00,-592.00
61796,-567.00,3493.00,-211.00,-14588.00,1348.00,10368.00,-576.00
61853,-2528.00,-12072.00,3072.00,-12964.00,1884.00,11264.00,-576.00
61910,-4415.00,-32768.00,8160.00,-12880.00,372.00,14492.00,-624.00
61967,-6163.00,-32768.00,4889.00,-508.00,696.00,15436.00,-576.00
62023,-1108.00,-32768.00,6535.00,5424.00,1116.00,15840.00,-608.00
62080,-2344.00,-32768.00,3772.00,12380.00,-12.00,15492.00,-608.00
62137,-2663.00,-15604.00,-750.00,13932.00,444.00,11896.00,-592.00
62193,-3852.00,8757.00,-3396.00,15600.00,488.00,12260.00,-592.00
62251,2003.00,32767.00,-7411.00,12020.00,-1404.00,10760.00,-592.00
62307,9174.00,32767.00,2602.00,564.00,1084.00,13504.00,-576.00
62364,7912.00,32767.00,-5272.00,-5428.00,2072.00,17212.00,-576.00
62420,3890.00,32767.00,-7165.00,-10480.00,2028.00,14664.00,-624.00
62477,-3438.00,13559.00,-4135.00,-11804.00,2920.00,13108.00,-624.00
62534,-10127.00,-17628.00,1391.00,-9944.00,1840.00,11860.00,-560.00
62590,-837.00,2666.00,-844.00,-11564.00,720.00,13940.00,-576.00
62648,-1116.00,-32768.00,5221.00,-12748.00,-648.00,12492.00,-624.00
62704,-2130.00,-32768.00,4200.00,584.00,840.00,16304.00,-576.00
62761,-3288.00,-32768.00,12082.00,4048.00,2572.00,16360.00,-608.00
62818,-6320.00,-26403.00,1923.00,11080.00,-1588.00,12928.00,-592.00
62875,-3532.00,527.00,-3776.00,15716.00,-4.00,12180.00,-608.00
62931,-664.00,-2809.00,-3329.00,13700.00,-600.00,13544.00,-576.00
62988,1373.00,22212.00,-795.00,15112.00,720.00,12228.00,-608.00
63045,5683.00,32767.00,-3034.00,8752.00,-304.00,15848.00,-576.00
63101,6469.00,32767.00,-3109.00,4384.00,604.00,15504.00,-608.00
63158,10728.00,32767.00,-6056.00,-4416.00,1400.00,18388.00,-576.00
63215,5032.00,32767.00,-3577.00,-7572.00,2336.00,15976.00,-560.00
63271,2030.00,31422.00,-8206.00,-10328.00,1508.00,13360.00,-608.00
63329,-1979.00,9095.00,-3570.00,-8648.00,308.00,9472.00,-624.00
63385,-2442.00,-10471.00,2564.00,-13592.00,1652.00,11364.00,-576.00
63442,-2811.00,-32768.00,4601.00,-12120.00,912.00,12244.00,-624.00
63499,-6689.00,-32768.00,2961.00,-5804.00,900.00,14996.00,-608.00
63555,-6468.00,-32768.00,2714.00,1652.00,1168.00,17540.00,-608.00
63612,-6271.00,-32768.00,4001.00,5940.00,-796.00,14220.00,-576.00
63669,-1307.00,-21796.00,1896.00,9936.00,-616.00,15456.00,-592.00
63726,-1458.00,-23162.00,814.00,12852.00,-1032.00,12788.00,-592.00
63782,-514.00,3291.00,-426.00,16056.00,-388.00,11932.00,-592.00
63839,619.00,29590.00,-4231.00,11224.00,-744.00,14724.00,-592.00
63896,-34.00,32767.00,-4667.00,9184.00,-368.00,15432.00,-592.00
63952,4588.00,32767.00,-1696.00,716.00,-1060.00,17388.00,-592.00
64009,3886.00,32767.00,-7478.00,-4816.00,-304.00,16580.00,-592.00
64066,188.00,27482.00,-6448.00,-10976.00,-1304.00,13952.00,-592.00
64122,-1962.00,21119.00,-7011.00,-13260.00,-788.00,11636.00,-560.00
64180,-5894.00,-524.00,-1254.00,-13364.00,-2408.00,10752.00,-576.00
64236,-535.00,-6920.00,-3279.00,-11708.00,-2072.00,10092.00,-592.00
64293,-589.00,-18342.00,-563.00,-12396.00,-3552.00,13340.00,-592.00
64350,-361.00,-22296.00,-1318.00,-9516.00,-3600.00,13428.00,-592.00
64406,1952.00,-15262.00,18201.00,-5472.00,-2060.00,16812.00,-624.00
64463,3840.00,2136.00,4061.00,-11856.00,2704.00,16140.00,-576.00
64520,2259.00,3652.00,-888.00,-7136.00,468.00,9508.00,-592.00
64577,7630.00,922.00,-8651.00,-9404.00,2204.00,15860.00,-608.00
64633,8929.00,-12249.00,-10349.00,4180.00,-1512.00,16092.00,-624.00
64690,1565.00,-12147.00,-5208.00,-444.00,32.00,20300.00,-608.00
64747,1769.00,-5084.00,-801.00,-496.00,940.00,21112.00,-592.00
64803,794.00,-5763.00,-1646.00,-564.00,680.00,18432.00,-608.00
64860,-342.00,-1156.00,-337.00,-1492.00,1892.00,19308.00,-592.00
64916,193.00,850.00,-1290.00,-1164.00,1344.00,18616.00,-624.00
64973,-1462.00,-3587.00,-936.00,-2836.00,1628.00,19024.00,-608.00
65030,-667.00,367.00,-828.00,-1624.00,716.00,18420.00,-640.00
65086,-874.00,-1292.00,-1327.00,-2428.00,836.00,18656.00,-608.00
65143,-2130.00,-683.00,-830.00,-432.00,276.00,17560.00,-608.00
65200,-185.00,-1111.00,-245.00,-3140.00,48.00,17708.00,-608.00
65256,-529.00,584.00,-799.00,-1504.00,56.00,18072.00,-624.00
65312,261.00,-1251.00,-206.00,-2560.00,180.00,17632.00,-592.00
65369,202.00,1266.00,-738.00,-1512.00,168.00,18580.00,-640.00
