t,gx,gy,gz,ax,ay,az,temp
3,-765.00,2397.00,296.00,3332.00,-624.00,18860.00,-3152.00
59,-501.00,1000.00,757.00,2712.00,-828.00,16264.00,-3168.00
115,553.00,1171.00,-146.00,1428.00,-476.00,19248.00,-3152.00
172,148.00,-857.00,-451.00,1320.00,-128.00,18592.00,-3152.00
228,579.00,581.00,124.00,2100.00,176.00,19236.00,-3168.00
285,91.00,-123.00,-224.00,2112.00,264.00,18560.00,-3168.00
342,42.00,115.00,7.00,1772.00,-84.00,18760.00,-3184.00
398,-470.00,-404.00,-233.00,1908.00,-172.00,18628.00,-3152.00
454,384.00,401.00,-74.00,2196.00,176.00,18956.00,-3168.00
510,-612.00,-48.00,-22.00,1916.00,-112.00,18280.00,-3168.00
567,-173.00,477.00,-232.00,1756.00,-376.00,18692.00,-3184.00
623,-216.00,402.00,-134.00,1964.00,-288.00,18448.00,-3168.00
679,517.00,42.00,14.00,1752.00,-240.00,18556.00,-3152.00
736,348.00,105.00,81.00,1644.00,-152.00,18772.00,-3184.00
792,357.00,374.00,144.00,1688.00,-76.00,18692.00,-3168.00
848,-136.00,-499.00,-400.00,1548.00,-72.00,18432.00,-3136.00
905,208.00,343.00,-173.00,2040.00,-240.00,18724.00,-3152.00
962,-2.00,127.00,-32.00,1552.00,-232.00,18616.00,-3168.00
1018,71.00,-162.00,-285.00,1976.00,-136.00,18348.00,-3168.00
1075,314.00,139.00,-69.00,1780.00,-244.00,18628.00,-3184.00
1131,182.00,127.00,-294.00,1812.00,-72.00,18520.00,-3168.00
1187,-150.00,350.00,243.00,1992.00,-132.00,18756.00,-3152.00
1244,-65.00,-113.00,-238.00,1304.00,-184.00,18280.00,-3168.00
1300,-214.00,-72.00,-317.00,1764.00,-252.00,18780.00,-3120.00
1357,-35.00,-113.00,-347.00,1852.00,-184.00,18464.00,-3168.00
1414,304.00,240.00,-16.00,1884.00,-144.00,18684.00,-3152.00
1470,122.00,27.00,-135.00,1744.00,-308.00,18612.00,-3200.00
1526,425.00,339.00,3.00,1896.00,-136.00,18716.00,-3184.00
1583,82.00,61.00,-31.00,1692.00,-228.00,18348.00,-3168.00
1639,50.00,318.00,222.00,1652.00,-316.00,18684.00,-3168.00
1695,15.00,434.00,125.00,1552.00,-124.00,18040.00,-3120.00
1752,306.00,173.00,71.00,1356.00,-160.00,18488.00,-3136.00
1808,69.00,-1408.00,-1200.00,1428.00,-240.00,19524.00,-3184.00
1865,351.00,-103.00,786.00,1720.00,-248.00,19052.00,-3152.00
1922,642.00,351.00,13.00,1084.00,100.00,19104.00,-3152.00
1978,-537.00,180.00,78.00,1588.00,256.00,18876.00,-3200.00
2034,187.00,569.00,-729.00,1744.00,148.00,17876.00,-3136.00
2091,681.00,-47.00,-400.00,1592.00,-176.00,18296.00,-3168.00
2148,599.00,580.00,-592.00,1924.00,-48.00,18748.00,-3136.00
2204,315.00,522.00,57.00,1596.00,156.00,18860.00,-3184.00
2260,491.00,132.00,-243.00,1492.00,136.00,18448.00,-3168.00
2317,314.00,345.00,113.00,1428.00,280.00,18728.00,-3152.00
2373,-69.00,-125.00,-227.00,1236.00,64.00,18800.00,-3152.00
2429,-139.00,27.00,-127.00,1632.00,-52.00,18720.00,-3168.00
2486,-63.00,374.00,-196.00,1120.00,96.00,18460.00,-3152.00
2542,44.00,161.00,666.00,1604.00,-12.00,19152.00,-3184.00
2599,554.00,528.00,600.00,1556.00,164.00,18704.00,-3136.00
2656,368.00,-112.00,-68.00,1408.00,32.00,18864.00,-3168.00
2712,-37.00,106.00,53.00,1340.00,68.00,18680.00,-3136.00
2768,370.00,-163.00,-276.00,1540.00,184.00,18468.00,-3136.00
2825,28.00,-248.00,-153.00,1436.00,124.00,18536.00,-3136.00
2881,605.00,-363.00,-309.00,1212.00,108.00,18244.00,-3136.00
2937,108.00,-147.00,-266.00,1476.00,196.00,18892.00,-3120.00
2995,228.00,-98.00,-132.00,1660.00,344.00,18896.00,-3120.00
3051,244.00,-147.00,-449.00,1244.00,48.00,18652.00,-3136.00
3107,-92.00,173.00,-1159.00,1272.00,260.00,18804.00,-3152.00
3164,-423.00,-1037.00,-1741.00,1160.00,80.00,18708.00,-3168.00
3220,-18.00,-1203.00,-3756.00,1816.00,52.00,18564.00,-3120.00
3276,-36.00,-635.00,-3185.00,1864.00,128.00,18388.00,-3168.00
3334,310.00,-646.00,-2819.00,2164.00,112.00,18576.00,-3168.00
3390,773.00,566.00,-2180.00,1116.00,412.00,18544.00,-3168.00
3446,648.00,-206.00,-3060.00,2080.00,216.00,19032.00,-3136.00
3503,916.00,555.00,-3639.00,1952.00,596.00,18460.00,-3200.00
3560,147.00,467.00,-2643.00,1316.00,596.00,18540.00,-3152.00
3616,591.00,-939.00,-4229.00,2028.00,792.00,18780.00,-3136.00
3673,-144.00,-1404.00,-3206.00,1120.00,812.00,18432.00,-3184.00
3729,850.00,-1931.00,-5904.00,1956.00,788.00,18620.00,-3168.00
3786,-65.00,-996.00,-5913.00,2184.00,868.00,18528.00,-3168.00
3843,598.00,-717.00,-7198.00,3384.00,924.00,18800.00,-3136.00
3899,600.00,-566.00,-7389.00,2240.00,1032.00,18436.00,-3136.00
3955,908.00,-1490.00,-9180.00,2392.00,1132.00,18348.00,-3152.00
4013,-355.00,-623.00,-7365.00,2772.00,1256.00,18656.00,-3168.00
4069,-1150.00,-280.00,-6047.00,3372.00,1084.00,19160.00,-3136.00
4125,-535.00,410.00,-849.00,3904.00,1112.00,18140.00,-3152.00
4183,-579.00,2106.00,10367.00,4180.00,1064.00,19332.00,-3152.00
4239,-235.00,7143.00,18818.00,2100.00,1840.00,18836.00,-3168.00
4295,481.00,2424.00,18400.00,1016.00,1236.00,19216.00,-3152.00
4353,-732.00,1282.00,14240.00,1736.00,848.00,18984.00,-3168.00
4409,-1172.00,1024.00,12638.00,640.00,500.00,18140.00,-3120.00
4466,1108.00,675.00,12856.00,2712.00,360.00,18580.00,-3168.00
4523,4.00,3137.00,11180.00,204.00,792.00,18256.00,-3104.00
4579,-1069.00,2561.00,10168.00,996.00,388.00,18680.00,-3136.00
4635,-1778.00,5670.00,9545.00,-396.00,336.00,18800.00,-3152.00
4692,-1378.00,4602.00,7621.00,-888.00,480.00,17984.00,-3120.00
4749,-2643.00,9229.00,11161.00,-2976.00,-540.00,18920.00,-3152.00
4805,-1202.00,-756.00,2875.00,-3384.00,-604.00,18612.00,-3152.00
4862,19.00,-5413.00,-16.00,-2204.00,264.00,17988.00,-3152.00
4919,490.00,-9875.00,-10078.00,-3560.00,-88.00,19240.00,-3168.00
4975,-3391.00,-8029.00,-19776.00,988.00,-184.00,18912.00,-3152.00
5032,-2407.00,-147.00,-17334.00,888.00,12.00,18136.00,-3136.00
5089,-599.00,984.00,-16247.00,-296.00,-1456.00,17936.00,-3168.00
5145,462.00,-2827.00,-23639.00,544.00,-260.00,17620.00,-3152.00
5201,2195.00,-2295.00,-16105.00,1304.00,-64.00,18772.00,-3152.00
5259,3286.00,-5345.00,-20192.00,2252.00,588.00,18068.00,-3136.00
5315,2174.00,-5045.00,-15663.00,2948.00,524.00,18288.00,-3152.00
5372,2074.00,-2371.00,-14939.00,3224.00,1456.00,18284.00,-3152.00
5429,1159.00,-1372.00,-8947.00,4140.00,828.00,17864.00,-3168.00
5485,153.00,2660.00,-3981.00,4588.00,2164.00,18844.00,-3152.00
5542,-86.00,5949.00,-1708.00,2544.00,1420.00,18172.00,-3136.00
5599,2226.00,4772.00,11113.00,4452.00,2092.00,20176.00,-3152.00
5655,25.00,1076.00,20925.00,3444.00,3100.00,20988.00,-3168.00
5712,-6761.00,2130.00,31634.00,1736.00,3256.00,23844.00,-3152.00
5769,-3445.00,-668.00,21958.00,1316.00,1156.00,16964.00,-3136.00
5826,-5168.00,5907.00,19644.00,3440.00,64.00,19100.00,-3136.00
5882,1219.00,-767.00,6684.00,1476.00,-1704.00,16740.00,-3152.00
5939,1651.00,9954.00,21267.00,2984.00,-936.00,22056.00,-3152.00
5996,-4103.00,5138.00,12648.00,512.00,-112.00,17216.00,-3120.00
6052,5794.00,-1561.00,1388.00,-6864.00,-156.00,19312.00,-3152.00
6109,-1255.00,3222.00,8554.00,-4576.00,-2332.00,21048.00,-3168.00
6166,2310.00,1812.00,8507.00,-68.00,40.00,18652.00,-3168.00
6222,764.00,1298.00,8818.00,-3072.00,-736.00,17212.00,-3120.00
6279,-2003.00,-4487.00,-108.00,-3496.00,-248.00,22512.00,-3136.00
6335,-2163.00,-6059.00,-12475.00,32.00,-816.00,17584.00,-3040.00
6392,-291.00,-2195.00,-20027.00,-632.00,-280.00,17880.00,-3056.00
6449,472.00,-2126.00,-21403.00,224.00,-1156.00,18644.00,-3040.00
6505,995.00,3082.00,-16670.00,2584.00,-720.00,18932.00,-2976.00
6562,1711.00,1433.00,-16335.00,-44.00,-860.00,19136.00,-2976.00
6619,3744.00,-47.00,-17824.00,740.00,-288.00,17760.00,-2976.00
6675,3933.00,4516.00,-14409.00,1072.00,-364.00,20060.00,-2912.00
6732,1906.00,-4540.00,-20061.00,456.00,832.00,18600.00,-2912.00
6789,2739.00,-5336.00,-18435.00,732.00,1072.00,18720.00,-2864.00
6845,1582.00,-1242.00,-13456.00,1108.00,648.00,18976.00,-2832.00
6902,-812.00,384.00,-10790.00,2212.00,1268.00,19636.00,-2848.00
6959,1006.00,2308.00,-4129.00,972.00,1236.00,18512.00,-2848.00
7016,-1243.00,1648.00,1587.00,1312.00,1308.00,19236.00,-2800.00
7072,-623.00,-1131.00,11292.00,-40.00,804.00,18452.00,-2816.00
7129,-1283.00,-1216.00,16235.00,1296.00,976.00,18764.00,-2784.00
7186,292.00,-1120.00,19803.00,900.00,516.00,18172.00,-2752.00
7242,3514.00,2754.00,20259.00,1644.00,1844.00,19488.00,-2800.00
7299,2838.00,998.00,18669.00,172.00,1040.00,18764.00,-2736.00
7356,1456.00,-2256.00,12991.00,1700.00,1148.00,19060.00,-2752.00
7412,820.00,-3278.00,15228.00,1436.00,1704.00,18892.00,-2752.00
7469,-71.00,1695.00,13991.00,2376.00,1472.00,18712.00,-2688.00
7526,2728.00,3066.00,15554.00,2056.00,1296.00,18548.00,-2672.00
7582,89.00,702.00,8764.00,1364.00,852.00,19632.00,-2672.00
7639,-938.00,-339.00,7547.00,1540.00,1340.00,18288.00,-2640.00
7696,-3741.00,135.00,5732.00,948.00,1312.00,19240.00,-2656.00
7752,-3410.00,3572.00,-9813.00,-524.00,-188.00,19592.00,-2640.00
7809,-1352.00,-4257.00,-15645.00,2048.00,-80.00,19004.00,-2656.00
7866,-1634.00,4995.00,-17666.00,1620.00,772.00,18128.00,-2624.00
7922,649.00,4743.00,-18708.00,-800.00,-1508.00,18196.00,-2640.00
7979,1928.00,3070.00,-22270.00,1112.00,1028.00,19136.00,-2640.00
8036,3314.00,-4560.00,-16674.00,1360.00,264.00,18784.00,-2608.00
8092,1819.00,1080.00,-19953.00,1808.00,1240.00,19576.00,-2608.00
8150,4913.00,2032.00,-15791.00,280.00,1644.00,18464.00,-2608.00
8206,3591.00,18.00,-14077.00,212.00,1460.00,19036.00,-2640.00
8262,2162.00,65.00,-11635.00,160.00,1884.00,18144.00,-2624.00
8320,3326.00,-600.00,-8642.00,-244.00,2384.00,18284.00,-2640.00
8376,689.00,-1518.00,-2785.00,292.00,2004.00,19144.00,-2656.00
8432,-739.00,-3285.00,6211.00,428.00,2456.00,18576.00,-2672.00
8488,-5284.00,982.00,18221.00,1420.00,1792.00,19124.00,-2656.00
8546,-3031.00,-1385.00,21222.00,1744.00,2876.00,19064.00,-2672.00
8602,-1853.00,-5750.00,21127.00,1780.00,288.00,19272.00,-2672.00
8659,-2003.00,2993.00,18650.00,3180.00,1648.00,19584.00,-2704.00
8716,1334.00,2204.00,18877.00,100.00,-108.00,17836.00,-2672.00
8772,584.00,-3453.00,14647.00,860.00,-48.00,19076.00,-2720.00
8829,3237.00,-72.00,16010.00,408.00,-128.00,18064.00,-2672.00
8886,808.00,627.00,15265.00,1284.00,136.00,18732.00,-2672.00
8942,724.00,1646.00,9817.00,2900.00,260.00,17656.00,-2688.00
8998,890.00,-402.00,10554.00,1052.00,484.00,18756.00,-2608.00
9056,693.00,1588.00,6917.00,1880.00,336.00,18916.00,-2592.00
9112,-1316.00,-428.00,3606.00,804.00,320.00,19276.00,-2640.00
9168,-1193.00,-191.00,-2929.00,1088.00,92.00,18484.00,-2640.00
9226,-2509.00,1409.00,-15732.00,1320.00,-160.00,19516.00,-2592.00
9282,95.00,1508.00,-20654.00,932.00,364.00,18480.00,-2560.00
9338,-705.00,2328.00,-18119.00,2152.00,-220.00,18728.00,-2592.00
9396,428.00,-2269.00,-16270.00,964.00,-436.00,18552.00,-2592.00
9452,2201.00,3102.00,-17832.00,1132.00,388.00,18776.00,-2592.00
9508,4589.00,-147.00,-13066.00,1696.00,-304.00,18424.00,-2624.00
9566,3919.00,-716.00,-12889.00,788.00,1928.00,18172.00,-2624.00
9622,2603.00,-1296.00,-11669.00,1572.00,1208.00,19152.00,-2624.00
9678,34.00,1180.00,-12219.00,992.00,1988.00,17928.00,-2640.00
9736,-2388.00,517.00,-14496.00,732.00,1956.00,19448.00,-2624.00
9792,-1381.00,-450.00,-8786.00,504.00,1596.00,18656.00,-2608.00
9848,-3087.00,-664.00,-7847.00,392.00,1180.00,18516.00,-2640.00
9906,-1946.00,-737.00,-4876.00,504.00,436.00,18496.00,-2656.00
9962,-741.00,172.00,1508.00,1396.00,700.00,18304.00,-2656.00
10018,959.00,-1107.00,10378.00,1132.00,948.00,18392.00,-2672.00
10075,494.00,-1267.00,18929.00,960.00,164.00,18136.00,-2688.00
10132,-1465.00,-2204.00,20021.00,1416.00,784.00,18276.00,-2672.00
10188,-564.00,-3131.00,13267.00,952.00,-136.00,18068.00,-2688.00
10246,299.00,-2155.00,15334.00,576.00,96.00,17528.00,-2704.00
10302,1262.00,-275.00,11632.00,2904.00,40.00,18788.00,-2720.00
10358,-86.00,449.00,12996.00,1740.00,408.00,18420.00,-2704.00
10415,2799.00,5653.00,16328.00,3172.00,84.00,19476.00,-2672.00
10472,1451.00,6649.00,11132.00,-1052.00,-136.00,18000.00,-2704.00
10528,2325.00,5814.00,13538.00,2116.00,472.00,18592.00,-2704.00
10586,2277.00,2194.00,7655.00,-2272.00,308.00,17772.00,-2704.00
10642,243.00,-1332.00,674.00,-1080.00,532.00,18640.00,-2720.00
10698,-844.00,-1544.00,-2119.00,-728.00,924.00,18656.00,-2688.00
10756,-2745.00,-6241.00,-16266.00,-116.00,436.00,18800.00,-2672.00
10812,-1358.00,-2273.00,-12692.00,448.00,1000.00,17424.00,-2688.00
10869,-684.00,-721.00,-14512.00,1020.00,-248.00,18824.00,-2672.00
10926,1733.00,-1405.00,-18721.00,1840.00,352.00,19100.00,-2656.00
10982,2025.00,1642.00,-16848.00,1628.00,912.00,18968.00,-2656.00
11039,1140.00,-110.00,-15943.00,572.00,960.00,19448.00,-2624.00
11096,690.00,-2635.00,-14982.00,608.00,928.00,18948.00,-2608.00
11152,2611.00,-730.00,-9291.00,1688.00,1308.00,18276.00,-2576.00
11209,596.00,1711.00,-10913.00,1472.00,916.00,18632.00,-2560.00
11266,259.00,4433.00,-8773.00,1320.00,1668.00,19068.00,-2560.00
11323,-1684.00,-1117.00,-10286.00,116.00,1472.00,18864.00,-2528.00
11379,-169.00,-381.00,-7805.00,512.00,1036.00,18224.00,-2528.00
11436,395.00,-3373.00,-6567.00,752.00,300.00,18324.00,-2544.00
11493,-1120.00,2865.00,2733.00,1544.00,892.00,18536.00,-2496.00
11549,239.00,3702.00,10509.00,396.00,860.00,18660.00,-2528.00
11606,-2134.00,1304.00,20685.00,728.00,1100.00,19792.00,-2512.00
11663,-2978.00,1058.00,24755.00,616.00,1664.00,18972.00,-2544.00
11719,-4132.00,-1183.00,17773.00,0.00,-84.00,18456.00,-2544.00
11776,-3272.00,843.00,13776.00,-224.00,-496.00,18308.00,-2528.00
11833,1969.00,-2726.00,16298.00,1264.00,124.00,18208.00,-2544.00
11889,1475.00,60.00,11143.00,860.00,-312.00,18832.00,-2544.00
11945,1583.00,-2617.00,13052.00,640.00,336.00,18628.00,-2560.00
12003,-893.00,693.00,11332.00,1368.00,868.00,19156.00,-2528.00
12059,1683.00,-111.00,7884.00,764.00,272.00,18420.00,-2544.00
12115,980.00,1737.00,10142.00,980.00,764.00,18932.00,-2528.00
12173,78.00,205.00,5807.00,376.00,684.00,18756.00,-2512.00
12229,-676.00,-2193.00,-3420.00,76.00,652.00,18668.00,-2528.00
12285,-2347.00,-670.00,-12565.00,824.00,636.00,19188.00,-2480.00
12343,-1370.00,143.00,-13617.00,1928.00,360.00,18928.00,-2512.00
12399,-2220.00,1329.00,-14828.00,1844.00,-316.00,18604.00,-2496.00
12455,-973.00,520.00,-16623.00,840.00,276.00,18652.00,-2496.00
12513,1096.00,193.00,-10942.00,1080.00,92.00,18752.00,-2512.00
12569,2181.00,-148.00,-13220.00,852.00,196.00,18996.00,-2496.00
12625,2661.00,-538.00,-12206.00,1356.00,384.00,19176.00,-2464.00
12683,1535.00,-700.00,-11744.00,308.00,1228.00,18236.00,-2464.00
12739,799.00,1255.00,-13196.00,1100.00,1368.00,18420.00,-2480.00
12796,-173.00,1741.00,-12583.00,704.00,716.00,18540.00,-2496.00
12853,1008.00,84.00,-9585.00,544.00,1044.00,18476.00,-2448.00
12909,-67.00,360.00,-8348.00,132.00,1324.00,19032.00,-2464.00
12965,-1071.00,-1213.00,-7608.00,124.00,660.00,18760.00,-2448.00
13023,455.00,-638.00,-220.00,816.00,732.00,18792.00,-2464.00
13079,630.00,964.00,5745.00,180.00,524.00,18400.00,-2432.00
13135,1982.00,123.00,14317.00,1244.00,1720.00,18884.00,-2448.00
13193,-589.00,201.00,20366.00,-720.00,2180.00,19000.00,-2448.00
13249,-1121.00,-600.00,19482.00,1052.00,1528.00,18236.00,-2464.00
13305,-3672.00,2741.00,17763.00,932.00,288.00,18956.00,-2432.00
13363,-3547.00,862.00,13697.00,-160.00,824.00,18116.00,-2432.00
13419,-1547.00,592.00,17843.00,1168.00,76.00,18516.00,-2416.00
13475,1347.00,-418.00,14164.00,-1020.00,-452.00,18208.00,-2448.00
13533,745.00,-51.00,11597.00,564.00,-396.00,18080.00,-2448.00
13589,3816.00,3131.00,11301.00,1704.00,-344.00,18816.00,-2448.00
13646,557.00,818.00,6757.00,388.00,868.00,18720.00,-2480.00
13703,356.00,-1800.00,1266.00,92.00,408.00,18816.00,-2432.00
13759,-1901.00,97.00,-7395.00,20.00,1052.00,18820.00,-2464.00
13815,-2078.00,87.00,-11842.00,280.00,84.00,18868.00,-2464.00
13872,-1258.00,-1485.00,-16327.00,612.00,224.00,18936.00,-2448.00
13929,1362.00,-3896.00,-14476.00,976.00,172.00,18492.00,-2448.00
13985,2425.00,-229.00,-16666.00,536.00,292.00,18192.00,-2464.00
14043,3753.00,924.00,-17762.00,1868.00,1072.00,18836.00,-2496.00
14099,1313.00,657.00,-16274.00,1040.00,1400.00,18696.00,-2464.00
14155,1740.00,1842.00,-16972.00,16.00,1108.00,18528.00,-2496.00
14213,-2237.00,-1821.00,-17385.00,488.00,1600.00,18400.00,-2480.00
14269,-3016.00,-523.00,-17990.00,1428.00,812.00,19192.00,-2496.00
14326,-2995.00,-1135.00,-13371.00,540.00,648.00,18716.00,-2512.00
14383,-3606.00,533.00,-10675.00,972.00,-200.00,19040.00,-2512.00
14439,-2202.00,-270.00,-8924.00,40.00,-764.00,18656.00,-2512.00
14496,-57.00,-902.00,-5070.00,828.00,-924.00,18936.00,-2512.00
14553,56.00,-1621.00,-681.00,1276.00,-800.00,18756.00,-2528.00
14609,-153.00,1259.00,12496.00,1080.00,-1376.00,18476.00,-2560.00
14666,2088.00,-2783.00,25291.00,1600.00,396.00,19096.00,-2576.00
14723,3129.00,928.00,29952.00,860.00,520.00,18848.00,-2544.00
14779,1431.00,-20.00,26922.00,360.00,-140.00,18300.00,-2528.00
14836,326.00,3299.00,19743.00,44.00,708.00,17824.00,-2544.00
14893,-1908.00,-1100.00,16222.00,-284.00,448.00,17356.00,-2592.00
14949,-1185.00,1288.00,17724.00,520.00,116.00,18184.00,-2592.00
15006,2320.00,-3326.00,12081.00,888.00,116.00,18016.00,-2560.00
15063,1054.00,1618.00,14335.00,2880.00,500.00,20212.00,-2576.00
15119,1005.00,2744.00,10120.00,-1060.00,220.00,18928.00,-2592.00
15176,-729.00,-3549.00,5400.00,684.00,588.00,18444.00,-2560.00
15233,949.00,2678.00,5284.00,-1212.00,328.00,18652.00,-2608.00
15289,-1106.00,-3397.00,-9979.00,-1428.00,372.00,18412.00,-2560.00
15346,-893.00,2558.00,-16574.00,1880.00,208.00,18380.00,-2560.00
15403,-1702.00,-1577.00,-19747.00,568.00,-108.00,18384.00,-2560.00
15460,-1600.00,3.00,-18231.00,1644.00,172.00,18056.00,-2560.00
15516,462.00,2137.00,-15925.00,360.00,-656.00,18076.00,-2544.00
15572,1804.00,-2869.00,-16391.00,832.00,-732.00,18560.00,-2528.00
15630,2341.00,301.00,-17031.00,1440.00,1112.00,17828.00,-2608.00
15686,1613.00,2222.00,-22503.00,1572.00,-548.00,19076.00,-2576.00
15744,2468.00,-67.00,-19463.00,1200.00,1280.00,18356.00,-2560.00
15800,1480.00,2272.00,-17266.00,244.00,832.00,19292.00,-2560.00
15856,1443.00,796.00,-9304.00,504.00,408.00,18812.00,-2592.00
15913,484.00,311.00,-5438.00,488.00,448.00,18612.00,-2576.00
15970,53.00,-111.00,90.00,300.00,1048.00,18392.00,-2544.00
16026,-1110.00,-462.00,9866.00,388.00,-124.00,18580.00,-2576.00
16082,1.00,-3705.00,25305.00,1028.00,1436.00,18392.00,-2592.00
16140,746.00,-951.00,29658.00,1344.00,1488.00,18340.00,-2560.00
16196,-189.00,3577.00,25312.00,-1372.00,3272.00,19120.00,-2592.00
16252,-1647.00,-1842.00,18641.00,700.00,200.00,19428.00,-2560.00
16310,762.00,974.00,17320.00,996.00,668.00,17524.00,-2592.00
16366,-790.00,-95.00,11582.00,984.00,616.00,18428.00,-2576.00
16422,2120.00,158.00,13626.00,1628.00,136.00,18292.00,-2624.00
16480,493.00,-1064.00,12495.00,412.00,256.00,19136.00,-2576.00
16536,-175.00,391.00,8244.00,64.00,1040.00,18204.00,-2576.00
16592,358.00,6.00,6002.00,688.00,432.00,18448.00,-2576.00
16649,-1105.00,56.00,2987.00,512.00,904.00,18628.00,-2608.00
16706,-814.00,-2537.00,-2236.00,784.00,460.00,18628.00,-2592.00
16762,-1928.00,2149.00,-7629.00,944.00,280.00,18732.00,-2592.00
16819,-2478.00,-602.00,-17559.00,904.00,-464.00,18768.00,-2592.00
16876,-1756.00,539.00,-16567.00,2512.00,600.00,19092.00,-2592.00
16932,-1554.00,4318.00,-13269.00,544.00,-552.00,18088.00,-2592.00
16989,1478.00,803.00,-15937.00,148.00,-772.00,19304.00,-2592.00
17046,1760.00,-2337.00,-13439.00,512.00,460.00,18488.00,-2608.00
17102,2421.00,339.00,-16843.00,480.00,-300.00,18664.00,-2576.00
17159,2169.00,-1422.00,-19341.00,1256.00,272.00,18944.00,-2576.00
17216,761.00,1035.00,-18871.00,636.00,820.00,18232.00,-2608.00
17272,1741.00,453.00,-14574.00,296.00,644.00,18588.00,-2608.00
17329,-2088.00,2607.00,-15734.00,712.00,484.00,19432.00,-2592.00
17386,-2282.00,2194.00,-12001.00,264.00,84.00,18336.00,-2592.00
17442,-839.00,1331.00,-5744.00,-108.00,-768.00,19148.00,-2624.00
17499,-600.00,-1323.00,4952.00,48.00,-208.00,18356.00,-2576.00
17556,-1267.00,-4584.00,16021.00,-52.00,-704.00,19148.00,-2624.00
17612,12.00,-5397.00,24866.00,1124.00,452.00,18740.00,-2624.00
17669,-474.00,-4587.00,21227.00,1320.00,-712.00,18976.00,-2624.00
17726,2630.00,-1478.00,18749.00,1464.00,500.00,17308.00,-2624.00
17782,2025.00,1068.00,20503.00,1144.00,672.00,19376.00,-2592.00
17840,422.00,-1398.00,14704.00,796.00,-536.00,18648.00,-2592.00
17896,938.00,-1430.00,9583.00,1728.00,128.00,18052.00,-2560.00
17952,2442.00,-938.00,14702.00,2316.00,-388.00,18720.00,-2576.00
18010,2472.00,2250.00,11874.00,1732.00,740.00,18880.00,-2576.00
18066,1001.00,7826.00,17206.00,1800.00,752.00,18180.00,-2560.00
18123,2535.00,1677.00,10108.00,-700.00,472.00,19140.00,-2560.00
18180,1553.00,346.00,5723.00,-552.00,-100.00,17788.00,-2560.00
18236,-673.00,-554.00,-2177.00,740.00,444.00,19152.00,-2576.00
18292,-1570.00,-583.00,-9164.00,-1332.00,1048.00,18268.00,-2560.00
18350,-2846.00,1396.00,-18616.00,2028.00,-4.00,18476.00,-2560.00
18406,-2877.00,-638.00,-17982.00,-68.00,476.00,17572.00,-2560.00
18463,-153.00,657.00,-19228.00,1228.00,-568.00,18788.00,-2512.00
18520,1384.00,-2193.00,-17763.00,1404.00,4.00,18756.00,-2544.00
18576,1663.00,-4.00,-17867.00,532.00,-112.00,18700.00,-2560.00
18632,455.00,2847.00,-17066.00,1008.00,148.00,18904.00,-2544.00
18690,-159.00,2477.00,-16172.00,-400.00,224.00,18608.00,-2576.00
18746,-386.00,3705.00,-16288.00,592.00,-744.00,18916.00,-2528.00
18802,925.00,3578.00,-13527.00,-412.00,536.00,17856.00,-2528.00
18860,1008.00,-55.00,-11083.00,-168.00,-564.00,18068.00,-2528.00
18916,1102.00,-304.00,-10736.00,-616.00,48.00,18540.00,-2512.00
18972,1438.00,-1602.00,-7524.00,-252.00,92.00,18812.00,-2544.00
19030,246.00,-2243.00,-168.00,352.00,-792.00,18756.00,-2560.00
19086,530.00,-1447.00,8159.00,364.00,-208.00,18420.00,-2496.00
19142,385.00,-2865.00,12140.00,1224.00,-288.00,19000.00,-2528.00
19200,1757.00,-467.00,20507.00,1080.00,624.00,18348.00,-2528.00
19256,1003.00,780.00,16745.00,1264.00,268.00,17640.00,-2560.00
19312,2753.00,-1986.00,21892.00,1364.00,344.00,19032.00,-2496.00
19369,1080.00,-288.00,18410.00,1684.00,1216.00,18252.00,-2480.00
19426,935.00,101.00,15275.00,1168.00,892.00,18676.00,-2512.00
19483,1262.00,2988.00,17133.00,1400.00,1184.00,18552.00,-2528.00
19539,3233.00,-1532.00,13457.00,1268.00,1036.00,18372.00,-2512.00
19597,1528.00,-1114.00,12222.00,160.00,1504.00,18656.00,-2464.00
19653,277.00,2912.00,12324.00,2280.00,1932.00,18456.00,-2496.00
19709,-1235.00,3204.00,9814.00,780.00,1092.00,18428.00,-2480.00
19767,741.00,-301.00,4181.00,1280.00,1128.00,18996.00,-2512.00
19823,-2058.00,-931.00,481.00,388.00,1000.00,18968.00,-2496.00
19879,-1415.00,804.00,-4039.00,908.00,452.00,18592.00,-2496.00
19937,-408.00,2295.00,-11021.00,636.00,868.00,18472.00,-2480.00
19993,-1098.00,1548.00,-16135.00,240.00,448.00,19048.00,-2464.00
20049,-1058.00,2894.00,-18400.00,528.00,-200.00,17900.00,-2464.00
20107,1125.00,3552.00,-20705.00,-1148.00,-60.00,18544.00,-2464.00
20163,731.00,837.00,-22377.00,104.00,404.00,17796.00,-2464.00
20219,1538.00,2481.00,-22350.00,648.00,400.00,18472.00,-2448.00
20277,1621.00,1309.00,-14754.00,-296.00,580.00,18256.00,-2480.00
20333,-980.00,-2849.00,-11895.00,-1596.00,84.00,19148.00,-2512.00
20390,936.00,-1108.00,-13190.00,-784.00,-624.00,19112.00,-2480.00
20447,-299.00,-3861.00,-12139.00,-408.00,-784.00,18288.00,-2480.00
20503,-220.00,-7.00,-11012.00,-232.00,-460.00,18728.00,-2464.00
20560,1826.00,1096.00,-6956.00,672.00,-692.00,18312.00,-2480.00
20617,1525.00,324.00,-4422.00,756.00,-228.00,18468.00,-2480.00
20673,1954.00,-2023.00,5298.00,552.00,-644.00,18456.00,-2432.00
20729,645.00,-3427.00,13225.00,540.00,64.00,18172.00,-2480.00
20787,657.00,-7100.00,24210.00,1672.00,904.00,19016.00,-2464.00
20843,1787.00,1075.00,25756.00,1376.00,1004.00,18372.00,-2432.00
20900,-115.00,3543.00,21235.00,1136.00,124.00,17348.00,-2448.00
20957,-4622.00,4767.00,22893.00,1116.00,940.00,19596.00,-2416.00
21013,-2543.00,33.00,16898.00,-144.00,-1284.00,18288.00,-2416.00
21070,179.00,-825.00,9628.00,188.00,-1380.00,19616.00,-2416.00
21127,1953.00,-1982.00,8737.00,1988.00,-928.00,18652.00,-2400.00
21183,1363.00,-327.00,8212.00,452.00,160.00,19244.00,-2400.00
21240,1900.00,1062.00,12006.00,2372.00,-40.00,17512.00,-2432.00
21297,-740.00,-5663.00,9682.00,-80.00,4.00,19284.00,-2432.00
21353,277.00,-4351.00,-1850.00,1572.00,616.00,16676.00,-2400.00
21410,1491.00,-1315.00,-6814.00,2628.00,-456.00,19468.00,-2400.00
21467,919.00,5925.00,-8267.00,1004.00,-68.00,19068.00,-2400.00
21523,2000.00,6619.00,-12649.00,1672.00,296.00,19216.00,-2384.00
21580,1821.00,1664.00,-13350.00,-588.00,1592.00,19032.00,-2352.00
21637,1121.00,3882.00,-21365.00,-340.00,468.00,18688.00,-2368.00
21694,1244.00,525.00,-18434.00,16.00,1544.00,19540.00,-2368.00
21750,1354.00,831.00,-15944.00,-1460.00,996.00,18204.00,-2336.00
21807,338.00,-1488.00,-20872.00,-712.00,136.00,18400.00,-2336.00
21864,2359.00,3267.00,-18781.00,-1180.00,-28.00,18172.00,-2368.00
21920,2828.00,3594.00,-16052.00,-1676.00,924.00,18124.00,-2368.00
21977,2418.00,383.00,-12726.00,-2368.00,616.00,18228.00,-2352.00
22034,-894.00,-4111.00,-10709.00,-1748.00,704.00,18520.00,-2384.00
22090,170.00,-4762.00,-6915.00,-936.00,-172.00,18376.00,-2352.00
22148,438.00,-1571.00,-54.00,-892.00,208.00,18460.00,-2384.00
22204,-69.00,-3479.00,4643.00,-632.00,212.00,18264.00,-2352.00
22260,105.00,-8368.00,11290.00,-380.00,-176.00,18864.00,-2368.00
22317,-862.00,-8876.00,27293.00,1660.00,928.00,19100.00,-2368.00
22374,842.00,-4213.00,27447.00,-752.00,276.00,17500.00,-2368.00
22430,557.00,2920.00,20147.00,1012.00,176.00,18472.00,-2352.00
22487,2235.00,-608.00,13794.00,1016.00,-4.00,19968.00,-2352.00
22544,-1387.00,-730.00,11575.00,812.00,1272.00,18020.00,-2320.00
22600,4576.00,-339.00,21751.00,3188.00,392.00,19972.00,-2336.00
22657,280.00,-2414.00,12954.00,1232.00,156.00,18824.00,-2352.00
22714,2364.00,2071.00,18009.00,3808.00,240.00,18832.00,-2352.00
22770,3426.00,1175.00,15687.00,428.00,2444.00,17556.00,-2320.00
22828,1481.00,2751.00,9142.00,-172.00,-12.00,18352.00,-2304.00
22884,738.00,-1589.00,-4296.00,860.00,-68.00,20008.00,-2320.00
22940,-659.00,-203.00,-4760.00,1232.00,936.00,18308.00,-2304.00
22996,-1697.00,-549.00,-18736.00,16.00,188.00,19248.00,-2320.00
23054,1057.00,3132.00,-13214.00,1016.00,1136.00,17848.00,-2320.00
23110,-4595.00,5341.00,-23396.00,796.00,2056.00,20004.00,-2336.00
23168,-806.00,-1650.00,-17641.00,604.00,-452.00,17592.00,-2288.00
23224,-106.00,2981.00,-14109.00,696.00,-256.00,18972.00,-2320.00
23280,1423.00,-1327.00,-16224.00,428.00,-856.00,18504.00,-2304.00
23337,733.00,955.00,-17245.00,576.00,728.00,18664.00,-2288.00
23394,3709.00,3554.00,-15964.00,0.00,-576.00,18180.00,-2304.00
23450,3551.00,2968.00,-15680.00,36.00,1340.00,19192.00,-2288.00
23507,-117.00,6280.00,-12359.00,-784.00,20.00,18308.00,-2320.00
23564,2676.00,4018.00,-9229.00,-1388.00,-112.00,18364.00,-2320.00
23620,-637.00,621.00,-6896.00,-1452.00,932.00,18600.00,-2352.00
23677,-75.00,153.00,-5881.00,-1536.00,-352.00,17880.00,-2336.00
23734,-215.00,-2389.00,-107.00,-1376.00,216.00,18192.00,-2368.00
23790,376.00,-4238.00,9248.00,-752.00,160.00,18960.00,-2352.00
23847,-737.00,-5313.00,18513.00,-432.00,68.00,19124.00,-2336.00
23904,1157.00,-4951.00,18909.00,608.00,-232.00,18512.00,-2368.00
23960,551.00,1117.00,20964.00,844.00,1120.00,18884.00,-2368.00
24017,2869.00,-769.00,26137.00,940.00,1344.00,18020.00,-2400.00
24074,-193.00,160.00,18502.00,208.00,960.00,18804.00,-2336.00
24130,-208.00,3773.00,17704.00,-32.00,1228.00,17916.00,-2320.00
24187,1231.00,473.00,13115.00,1600.00,1044.00,19432.00,-2320.00
24244,64.00,672.00,11314.00,-1136.00,992.00,18748.00,-2320.00
24300,604.00,-626.00,15473.00,4972.00,1728.00,17756.00,-2320.00
24357,2354.00,-1164.00,6804.00,-172.00,1632.00,17976.00,-2288.00
24414,426.00,4592.00,7816.00,1884.00,1140.00,19408.00,-2320.00
24470,32.00,-246.00,6026.00,-632.00,1496.00,18784.00,-2288.00
24527,-318.00,-780.00,1508.00,816.00,1068.00,18704.00,-2304.00
24584,-149.00,-1720.00,-1509.00,140.00,1276.00,18424.00,-2240.00
24640,-2700.00,-3854.00,-15633.00,-268.00,928.00,18568.00,-2272.00
24697,-4482.00,1117.00,-21287.00,1700.00,568.00,19468.00,-2240.00
24754,-3266.00,-3014.00,-25252.00,1360.00,48.00,17060.00,-2256.00
24811,-2058.00,-3339.00,-23723.00,3648.00,2668.00,19164.00,-2256.00
24867,-2122.00,869.00,-21848.00,2020.00,-168.00,18004.00,-2240.00
24924,905.00,2673.00,-24391.00,2080.00,488.00,18512.00,-2288.00
24981,1292.00,5829.00,-18309.00,1292.00,676.00,18084.00,-2288.00
25037,5814.00,2884.00,-16863.00,744.00,1216.00,18408.00,-2272.00
25095,4544.00,3699.00,-10217.00,640.00,1932.00,19400.00,-2336.00
25151,-192.00,4801.00,-10637.00,272.00,1524.00,18128.00,-2288.00
25207,1891.00,2579.00,-2077.00,-1124.00,1628.00,18564.00,-2320.00
25265,-408.00,15.00,5600.00,-488.00,1268.00,18624.00,-2304.00
25321,-810.00,-5639.00,17899.00,-492.00,1704.00,18172.00,-2352.00
25378,-1778.00,-1347.00,10172.00,436.00,1428.00,18884.00,-2352.00
25435,-1028.00,-610.00,14499.00,-352.00,2172.00,18420.00,-2336.00
25491,-171.00,-33.00,22897.00,240.00,1036.00,18536.00,-2368.00
25548,206.00,-1643.00,18968.00,472.00,1936.00,17252.00,-2368.00
25605,2845.00,-1073.00,15957.00,1244.00,1856.00,18820.00,-2336.00
25662,1546.00,-367.00,23209.00,1768.00,2320.00,19604.00,-2320.00
25718,-2489.00,7398.00,22573.00,872.00,2720.00,18096.00,-2320.00
25775,-3559.00,3358.00,14531.00,-184.00,1572.00,17940.00,-2336.00
25832,207.00,-650.00,7844.00,1328.00,652.00,18388.00,-2304.00
25888,1280.00,-1479.00,8038.00,732.00,1744.00,19720.00,-2304.00
25945,-1718.00,-988.00,6227.00,1500.00,952.00,19632.00,-2304.00
26002,-616.00,-1332.00,6246.00,1792.00,2248.00,18392.00,-2272.00
26058,570.00,-1151.00,-936.00,-200.00,728.00,18188.00,-2272.00
26115,-1920.00,-626.00,-14136.00,704.00,688.00,18844.00,-2272.00
26172,-1727.00,2710.00,-11607.00,1932.00,736.00,18800.00,-2240.00
26228,-2972.00,-3394.00,-21964.00,748.00,540.00,19368.00,-2272.00
26286,222.00,-540.00,-17864.00,72.00,444.00,18168.00,-2272.00
26342,1032.00,-1106.00,-27927.00,2268.00,664.00,18476.00,-2272.00
26398,2278.00,2242.00,-20763.00,1028.00,1444.00,19432.00,-2288.00
26456,1578.00,1653.00,-19493.00,1532.00,856.00,19264.00,-2272.00
26512,1629.00,2232.00,-22117.00,188.00,1608.00,18248.00,-2272.00
26569,2234.00,7322.00,-15441.00,-316.00,1296.00,17804.00,-2288.00
26626,2524.00,2180.00,-11308.00,-480.00,2076.00,18312.00,-2304.00
26682,-436.00,2718.00,-8292.00,-1116.00,1652.00,19456.00,-2304.00
26739,-501.00,-783.00,-3859.00,-1316.00,1088.00,18852.00,-2320.00
26796,-1018.00,59.00,690.00,-1516.00,1192.00,18272.00,-2288.00
26853,-2546.00,-3858.00,6182.00,-1252.00,828.00,17988.00,-2304.00
26909,-463.00,-7092.00,13554.00,-152.00,1512.00,18664.00,-2320.00
26966,3038.00,5581.00,19690.00,1256.00,1640.00,16320.00,-2288.00
27023,3469.00,349.00,24244.00,-56.00,1236.00,20032.00,-2304.00
27079,6430.00,-1445.00,20429.00,1704.00,1776.00,18556.00,-2336.00
27137,1424.00,-2162.00,13500.00,596.00,3152.00,18572.00,-2304.00
27193,151.00,-343.00,17111.00,2496.00,3224.00,17584.00,-2320.00
27249,-640.00,1612.00,15464.00,2092.00,2644.00,18704.00,-2272.00
27307,-421.00,5505.00,15922.00,2700.00,2188.00,17764.00,-2272.00
27363,-1571.00,5327.00,14918.00,1568.00,2104.00,18840.00,-2320.00
27420,-1311.00,5556.00,12446.00,252.00,2388.00,17648.00,-2304.00
27476,-903.00,-1803.00,3206.00,1004.00,1052.00,18452.00,-2304.00
27534,429.00,-68.00,5986.00,4144.00,4140.00,17624.00,-2320.00
27590,260.00,-856.00,2305.00,40.00,1240.00,18820.00,-2336.00
27646,-855.00,-1339.00,-4350.00,1808.00,1296.00,18716.00,-2288.00
27704,-821.00,567.00,-4468.00,1492.00,1364.00,18632.00,-2320.00
27760,-762.00,1431.00,-6039.00,1456.00,1352.00,18168.00,-2320.00
27816,-1532.00,704.00,-8005.00,1852.00,768.00,18620.00,-2304.00
27874,-2285.00,-692.00,-7618.00,1076.00,1000.00,18272.00,-2288.00
27930,-2134.00,-977.00,-9373.00,948.00,324.00,18732.00,-2320.00
27986,-1193.00,1568.00,-10823.00,1768.00,324.00,17912.00,-2320.00
28044,829.00,2779.00,-8924.00,1580.00,628.00,18716.00,-2320.00
28100,-551.00,2218.00,-7710.00,-920.00,212.00,18664.00,-2320.00
28156,1769.00,-399.00,-8769.00,1912.00,312.00,17112.00,-2336.00
28214,246.00,1749.00,-2631.00,864.00,460.00,18696.00,-2304.00
28270,2500.00,-1880.00,-3841.00,-48.00,200.00,17464.00,-2352.00
28326,1871.00,-494.00,-241.00,1048.00,1232.00,19116.00,-2336.00
28384,784.00,-2256.00,-1280.00,724.00,1612.00,18596.00,-2336.00
28440,-782.00,-2340.00,-2303.00,2020.00,1620.00,18220.00,-2368.00
28496,-1005.00,-831.00,-1590.00,984.00,1408.00,18028.00,-2368.00
28554,667.00,-638.00,1374.00,2092.00,1020.00,18596.00,-2352.00
28610,-1139.00,243.00,2160.00,624.00,672.00,18532.00,-2384.00
28666,-1653.00,-171.00,231.00,1216.00,352.00,18188.00,-2400.00
28724,1.00,-1252.00,1750.00,1464.00,1372.00,18184.00,-2352.00
28780,811.00,-50.00,-368.00,2432.00,972.00,18468.00,-2368.00
28836,77.00,-629.00,956.00,2396.00,1332.00,18436.00,-2368.00
28893,-473.00,2270.00,-949.00,1432.00,732.00,18452.00,-2416.00
28950,-635.00,-1596.00,-141.00,1240.00,796.00,18436.00,-2400.00
29006,-268.00,2062.00,-781.00,1556.00,888.00,18472.00,-2384.00
29063,-701.00,1096.00,-658.00,1672.00,184.00,18916.00,-2416.00
29119,-1430.00,1349.00,-548.00,620.00,-248.00,17736.00,-2400.00
29176,-1318.00,1795.00,479.00,-96.00,-160.00,18248.00,-2416.00
29233,234.00,-1377.00,157.00,1236.00,524.00,17644.00,-2400.00
29289,123.00,214.00,-567.00,1312.00,1524.00,17228.00,-2384.00
29346,15.00,-1591.00,324.00,600.00,44.00,18600.00,-2432.00
29403,-144.00,1096.00,-909.00,636.00,680.00,18132.00,-2432.00
29459,-105.00,-368.00,725.00,684.00,328.00,18744.00,-2416.00
29515,-653.00,436.00,-908.00,1048.00,-256.00,18920.00,-2416.00
29572,-797.00,1132.00,615.00,624.00,-288.00,18440.00,-2432.00
29629,370.00,264.00,238.00,804.00,-464.00,18524.00,-2432.00
29685,339.00,704.00,34.00,732.00,-224.00,18380.00,-2432.00
29742,312.00,-779.00,770.00,212.00,-96.00,18172.00,-2432.00
29798,491.00,340.00,-966.00,860.00,-40.00,18980.00,-2432.00
29854,62.00,22.00,-494.00,704.00,108.00,18476.00,-2432.00
29911,177.00,514.00,-294.00,492.00,-36.00,18404.00,-2448.00
29967,215.00,191.00,-182.00,676.00,12.00,18368.00,-2448.00
30024,329.00,68.00,-263.00,592.00,-148.00,18452.00,-2448.00
30081,494.00,-375.00,-75.00,556.00,-144.00,18444.00,-2432.00
30137,448.00,-137.00,-210.00,420.00,128.00,18464.00,-2464.00
30193,265.00,-112.00,-411.00,408.00,44.00,18760.00,-2464.00
30249,-251.00,149.00,208.00,812.00,216.00,18624.00,-2464.00
30306,346.00,400.00,-459.00,280.00,-32.00,18296.00,-2464.00
30362,-79.00,158.00,157.00,584.00,288.00,18492.00,-2464.00
30419,215.00,196.00,-563.00,224.00,108.00,18292.00,-2496.00
30476,157.00,61.00,-52.00,564.00,192.00,18540.00,-2464.00
30532,104.00,-69.00,-385.00,240.00,128.00,18352.00,-2480.00
30588,-59.00,150.00,-94.00,736.00,220.00,18556.00,-2464.00
30645,114.00,-261.00,40.00,504.00,100.00,18292.00,-2496.00
30701,412.00,-293.00,-63.00,636.00,204.00,18276.00,-2480.00
30757,-214.00,37.00,57.00,536.00,216.00,18432.00,-2480.00
30814,308.00,524.00,-567.00,116.00,-12.00,18536.00,-2496.00
30871,86.00,421.00,-248.00,404.00,196.00,18676.00,-2496.00
30927,3.00,532.00,-398.00,68.00,-68.00,18316.00,-2512.00
30984,21.00,146.00,-348.00,684.00,292.00,18860.00,-2464.00
31040,-282.00,57.00,226.00,84.00,-60.00,18232.00,-2464.00
31096,160.00,-269.00,144.00,544.00,8.00,18820.00,-2496.00
31153,-17.00,460.00,-209.00,360.00,-68.00,18164.00,-2496.00
31209,202.00,261.00,-190.00,172.00,272.00,18300.00,-2480.00
31265,232.00,-116.00,38.00,516.00,40.00,18664.00,-2512.00
31322,-329.00,387.00,-624.00,276.00,160.00,18624.00,-2544.00
31378,208.00,214.00,-281.00,728.00,456.00,18644.00,-2512.00
31435,199.00,84.00,-78.00,-24.00,-240.00,18260.00,-2512.00
31492,131.00,261.00,-109.00,536.00,320.00,18604.00,-2528.00
31548,456.00,59.00,-192.00,-56.00,124.00,18128.00,-2528.00
31604,-110.00,280.00,-618.00,276.00,488.00,18232.00,-2544.00
31661,-512.00,83.00,-540.00,-264.00,4.00,18420.00,-2528.00
31717,-1083.00,380.00,401.00,348.00,-684.00,19028.00,-2528.00
31773,363.00,-529.00,-440.00,204.00,488.00,18520.00,-2544.00
31831,739.00,-166.00,-231.00,-216.00,-232.00,18444.00,-2496.00
31887,-149.00,936.00,-491.00,-380.00,-304.00,18172.00,-2496.00
31943,1643.00,1674.00,-70.00,1736.00,372.00,18972.00,-2528.00
32000,165.00,2105.00,168.00,-868.00,-204.00,18008.00,-2512.00
32056,-25.00,1144.00,71.00,616.00,540.00,18672.00,-2528.00
32113,-2077.00,1081.00,-2392.00,1000.00,-124.00,17548.00,-2512.00
32169,206.00,-110.00,117.00,-572.00,524.00,19244.00,-2512.00
32226,395.00,796.00,-1658.00,-792.00,-116.00,18500.00,-2464.00
32282,-2316.00,637.00,-1023.00,-300.00,820.00,19528.00,-2480.00
32339,-575.00,366.00,-414.00,340.00,-880.00,18704.00,-2496.00
32396,-704.00,-272.00,-83.00,-708.00,-164.00,17932.00,-2480.00
32452,270.00,377.00,872.00,-492.00,-968.00,18840.00,-2448.00
32508,-379.00,-1397.00,844.00,-20.00,-248.00,18376.00,-2448.00
32565,677.00,-86.00,834.00,-552.00,-192.00,18944.00,-2480.00
32622,676.00,810.00,-184.00,-488.00,-416.00,18472.00,-2480.00
32678,673.00,969.00,-255.00,-124.00,140.00,18800.00,-2464.00
32735,-143.00,311.00,363.00,-988.00,-92.00,18288.00,-2464.00
32791,182.00,75.00,-103.00,-24.00,-260.00,18556.00,-2464.00
32847,188.00,236.00,88.00,-736.00,-264.00,18276.00,-2480.00
32904,75.00,1161.00,-191.00,-384.00,-276.00,18372.00,-2480.00
32961,246.00,669.00,463.00,-952.00,-216.00,18568.00,-2496.00
33017,225.00,1550.00,-238.00,-928.00,-180.00,18212.00,-2464.00
33074,-95.00,2453.00,-614.00,-1476.00,-136.00,18540.00,-2496.00
33130,63.00,1254.00,355.00,-1344.00,-240.00,18128.00,-2512.00
33186,105.00,2382.00,-362.00,-1860.00,-52.00,18332.00,-2528.00
33244,-772.00,3195.00,44.00,-1172.00,-892.00,18088.00,-2512.00
33300,-100.00,7477.00,-116.00,-2792.00,-160.00,17760.00,-2496.00
33356,-175.00,8602.00,-500.00,-3840.00,-328.00,17832.00,-2512.00
33414,-404.00,8328.00,-808.00,-4448.00,-360.00,17732.00,-2480.00
33470,815.00,13685.00,-1429.00,-3952.00,-1612.00,18604.00,-2528.00
33526,-703.00,12562.00,-916.00,-7080.00,-144.00,17012.00,-2496.00
33584,-931.00,9716.00,-154.00,-8060.00,-436.00,14764.00,-2560.00
33640,702.00,11588.00,807.00,-8676.00,-736.00,14948.00,-2544.00
33696,1815.00,11211.00,379.00,-11740.00,-436.00,14664.00,-2480.00
33754,-510.00,4885.00,-274.00,-11116.00,-112.00,12672.00,-2528.00
33810,187.00,-1737.00,-435.00,-12316.00,-376.00,12872.00,-2512.00
33866,-1497.00,-21157.00,-500.00,-11340.00,-356.00,13516.00,-2480.00
33924,-1473.00,-32768.00,1457.00,-8648.00,-1676.00,15704.00,-2560.00
33980,-115.00,-32768.00,3088.00,-3336.00,-28.00,17464.00,-2544.00
34037,-868.00,-21495.00,1064.00,56.00,-908.00,17700.00,-2528.00
34094,1302.00,-22724.00,1262.00,2704.00,-412.00,18540.00,-2560.00
34150,1653.00,-19361.00,564.00,4848.00,-556.00,16636.00,-2528.00
34207,839.00,-18175.00,301.00,8344.00,-76.00,17168.00,-2512.00
34264,1773.00,-16151.00,-928.00,9500.00,-640.00,15376.00,-2528.00
34321,-298.00,-11528.00,-1944.00,12448.00,180.00,14972.00,-2528.00
34377,292.00,-6174.00,-307.00,11516.00,136.00,13972.00,-2544.00
34434,641.00,-835.00,316.00,13440.00,-172.00,13196.00,-2512.00
34491,842.00,17929.00,857.00,10760.00,60.00,15168.00,-2528.00
34547,-1151.00,26251.00,-1345.00,10240.00,-200.00,16624.00,-2512.00
34604,-1904.00,25134.00,-460.00,6088.00,320.00,16952.00,-2528.00
34661,-2135.00,27172.00,-1223.00,3160.00,-300.00,18264.00,-2528.00
34717,-937.00,26324.00,-2911.00,-264.00,-812.00,17980.00,-2512.00
34775,424.00,30775.00,-3956.00,-3072.00,-896.00,18208.00,-2544.00
34831,360.00,24952.00,-1979.00,-6292.00,-716.00,16336.00,-2512.00
34887,-3265.00,25003.00,-1642.00,-10020.00,-220.00,14844.00,-2544.00
34945,1809.00,10596.00,1325.00,-10204.00,-1400.00,12264.00,-2512.00
35001,1661.00,12243.00,196.00,-12204.00,-1036.00,12812.00,-2528.00
35058,1676.00,2441.00,1000.00,-13424.00,-400.00,10988.00,-2544.00
35115,619.00,-8186.00,1489.00,-13220.00,-64.00,11928.00,-2544.00
35172,2717.00,-26909.00,705.00,-11648.00,124.00,12584.00,-2512.00
35228,3578.00,-24548.00,2721.00,-8816.00,-104.00,15780.00,-2544.00
35286,-34.00,-32768.00,2264.00,-5076.00,-184.00,16916.00,-2576.00
35342,1011.00,-25769.00,73.00,-1404.00,820.00,17560.00,-2512.00
35398,1020.00,-23386.00,582.00,1464.00,1248.00,19196.00,-2528.00
35456,1375.00,-20919.00,1081.00,3392.00,1004.00,17300.00,-2560.00
35512,1046.00,-17746.00,782.00,7124.00,848.00,17240.00,-2544.00
35569,68.00,-18548.00,156.00,8484.00,1836.00,17100.00,-2576.00
35625,-226.00,-13023.00,-735.00,10316.00,616.00,16608.00,-2560.00
35682,-395.00,-12925.00,104.00,9992.00,836.00,14628.00,-2528.00
35739,-568.00,-7616.00,1914.00,13496.00,628.00,12492.00,-2544.00
35795,-756.00,-7478.00,2988.00,11836.00,304.00,12888.00,-2544.00
35852,-742.00,-2142.00,1144.00,13532.00,388.00,11988.00,-2512.00
35909,-267.00,3883.00,-2287.00,13660.00,316.00,12532.00,-2544.00
35965,1062.00,19102.00,-293.00,13400.00,520.00,14104.00,-2544.00
36023,588.00,27773.00,-3094.00,10276.00,300.00,14160.00,-2544.00
36079,-151.00,30842.00,-615.00,6944.00,816.00,16444.00,-2544.00
36135,-180.00,25670.00,-2467.00,4200.00,1172.00,18532.00,-2528.00
36193,612.00,26543.00,-2061.00,764.00,1432.00,17860.00,-2560.00
36249,2917.00,22885.00,-1751.00,-2384.00,456.00,18472.00,-2528.00
36306,1546.00,29265.00,-2083.00,-4920.00,1300.00,16884.00,-2528.00
36363,1450.00,24352.00,-1429.00,-8868.00,1092.00,16336.00,-2528.00
36420,666.00,20373.00,-1219.00,-10736.00,1176.00,12780.00,-2544.00
36476,-289.00,12054.00,-304.00,-12048.00,1364.00,13032.00,-2528.00
36534,-726.00,2744.00,569.00,-13252.00,748.00,10860.00,-2528.00
36590,-664.00,-2496.00,-802.00,-13460.00,1492.00,11912.00,-2576.00
36646,-963.00,-11683.00,-1210.00,-12228.00,1288.00,12056.00,-2544.00
36704,-3385.00,-29384.00,576.00,-10908.00,596.00,15360.00,-2576.00
36760,-1540.00,-32768.00,-368.00,-6596.00,168.00,15848.00,-2544.00
36817,-508.00,-32768.00,448.00,-3448.00,240.00,17696.00,-2544.00
36874,577.00,-32768.00,-26.00,1748.00,224.00,17280.00,-2560.00
36930,1870.00,-23422.00,-165.00,4132.00,276.00,16804.00,-2576.00
36987,694.00,-25630.00,1405.00,8652.00,536.00,17296.00,-2576.00
37044,-21.00,-18956.00,-789.00,10040.00,632.00,15348.00,-2544.00
37100,498.00,-14252.00,152.00,12036.00,720.00,14020.00,-2528.00
37157,-631.00,-10383.00,-303.00,12912.00,132.00,12288.00,-2560.00
37214,-1687.00,-11296.00,235.00,14764.00,1028.00,13368.00,-2544.00
37271,-1183.00,-6204.00,154.00,15680.00,952.00,10824.00,-2560.00
37327,1072.00,-2874.00,-277.00,14760.00,496.00,10532.00,-2560.00
37384,1637.00,4113.00,-310.00,15956.00,176.00,9888.00,-2544.00
37441,1020.00,16504.00,-1735.00,14180.00,444.00,12120.00,-2544.00
37497,49.00,32469.00,-1216.00,12524.00,1236.00,14212.00,-2544.00
37555,-1110.00,30903.00,1500.00,9292.00,1212.00,15220.00,-2576.00
37611,-1272.00,32767.00,-304.00,5880.00,772.00,17352.00,-2560.00
37667,-719.00,25238.00,562.00,1560.00,424.00,18764.00,-2560.00
37725,804.00,30041.00,-1579.00,-1952.00,0.00,16620.00,-2576.00
37781,2251.00,27722.00,-347.00,-5548.00,344.00,17360.00,-2528.00
37837,1818.00,32125.00,-3110.00,-8840.00,276.00,15564.00,-2544.00
37895,1868.00,26092.00,-2138.00,-11984.00,1604.00,14028.00,-2560.00
37951,188.00,13867.00,938.00,-13968.00,572.00,10416.00,-2544.00
38008,-2864.00,11031.00,1091.00,-13908.00,1220.00,10412.00,-2560.00
38065,295.00,1803.00,764.00,-14724.00,236.00,7448.00,-2544.00
38122,-811.00,-4284.00,597.00,-14692.00,1192.00,9392.00,-2560.00
38178,-2655.00,-25525.00,-2227.00,-14300.00,960.00,11196.00,-2576.00
38235,-4876.00,-27139.00,-901.00,-10444.00,-236.00,12708.00,-2560.00
38292,-3074.00,-32768.00,115.00,-6800.00,-300.00,16516.00,-2560.00
38348,-1012.00,-32768.00,608.00,-3312.00,208.00,17796.00,-2560.00
38406,2178.00,-28931.00,-2753.00,2828.00,1628.00,16404.00,-2560.00
38462,2457.00,-23079.00,79.00,4568.00,-548.00,18612.00,-2560.00
38519,2167.00,-24312.00,-2904.00,6852.00,432.00,18488.00,-2576.00
38576,1929.00,-20980.00,-230.00,9432.00,324.00,17136.00,-2560.00
38632,2456.00,-16676.00,41.00,11928.00,684.00,14520.00,-2608.00
38689,2089.00,-13363.00,-920.00,11040.00,584.00,12704.00,-2576.00
38746,2057.00,-7059.00,-871.00,14288.00,940.00,12604.00,-2576.00
38803,-243.00,-3081.00,-437.00,15828.00,976.00,12724.00,-2576.00
38859,-1032.00,689.00,297.00,15048.00,1220.00,11636.00,-2560.00
38916,-1161.00,4782.00,490.00,14420.00,1020.00,11652.00,-2592.00
38973,-26.00,20153.00,-1423.00,13484.00,604.00,12684.00,-2592.00
39029,-1009.00,30177.00,-2437.00,10756.00,1024.00,14952.00,-2608.00
39087,-1216.00,32216.00,-2998.00,7516.00,992.00,16848.00,-2560.00
39143,-154.00,29283.00,-447.00,3584.00,972.00,17892.00,-2560.00
39199,-1651.00,27253.00,-401.00,-172.00,660.00,18636.00,-2592.00
39257,1511.00,32767.00,-2275.00,-4132.00,1192.00,17972.00,-2576.00
39313,2407.00,28899.00,-2728.00,-6644.00,328.00,16252.00,-2560.00
39370,2396.00,24297.00,-1812.00,-11052.00,1048.00,14908.00,-2560.00
39427,-1367.00,13704.00,-1739.00,-12000.00,1580.00,12984.00,-2576.00
39484,-1296.00,11885.00,-1071.00,-13028.00,700.00,10256.00,-2560.00
39540,542.00,9640.00,401.00,-14604.00,-380.00,10088.00,-2560.00
39598,-536.00,-167.00,-494.00,-15460.00,1088.00,10536.00,-2560.00
39654,-2525.00,-17902.00,1181.00,-13260.00,612.00,10324.00,-2576.00
39710,-148.00,-17242.00,647.00,-12488.00,832.00,12044.00,-2560.00
39768,-1660.00,-32768.00,-1141.00,-9228.00,1764.00,14944.00,-2528.00
39824,-3352.00,-28290.00,1621.00,-6952.00,128.00,16928.00,-2528.00
39881,-683.00,-32768.00,1148.00,-1672.00,-404.00,17312.00,-2576.00
39938,1590.00,-26471.00,-220.00,2636.00,-104.00,18048.00,-2544.00
39995,3316.00,-27028.00,2895.00,5524.00,564.00,16596.00,-2560.00
40051,1200.00,-16448.00,-646.00,8024.00,-52.00,16264.00,-2592.00
40108,2310.00,-18327.00,862.00,11456.00,724.00,15124.00,-2592.00
40165,-257.00,-12222.00,599.00,11916.00,900.00,14692.00,-2592.00
40221,-5.00,-11989.00,-447.00,14192.00,808.00,13140.00,-2576.00
40278,266.00,-10464.00,-315.00,13692.00,316.00,11432.00,-2592.00
40335,206.00,-8925.00,21.00,15088.00,804.00,11392.00,-2592.00
40391,-1102.00,-659.00,-941.00,15320.00,476.00,10664.00,-2608.00
40448,-431.00,-564.00,-466.00,16072.00,1328.00,10360.00,-2576.00
40505,296.00,11454.00,91.00,15372.00,636.00,11136.00,-2592.00
40561,-552.00,26151.00,-260.00,14200.00,96.00,12200.00,-2576.00
40617,-1711.00,31541.00,-586.00,10352.00,700.00,15192.00,-2608.00
40675,-2806.00,29660.00,-1731.00,7116.00,-72.00,16264.00,-2576.00
40731,-624.00,27903.00,-1314.00,4308.00,68.00,17896.00,-2608.00
40788,1004.00,30073.00,-1404.00,-556.00,-412.00,17808.00,-2560.00
40845,2791.00,26561.00,-374.00,-2868.00,548.00,17904.00,-2560.00
40901,4533.00,22916.00,-279.00,-5976.00,620.00,16392.00,-2560.00
40958,4121.00,27168.00,15.00,-8984.00,968.00,15840.00,-2560.00
41015,-1989.00,10123.00,-244.00,-10208.00,1728.00,13248.00,-2576.00
41072,-909.00,10743.00,-813.00,-11776.00,1416.00,12852.00,-2560.00
41128,-252.00,2336.00,106.00,-12548.00,1172.00,11864.00,-2560.00
41186,-1249.00,-1528.00,-490.00,-12708.00,1024.00,11652.00,-2592.00
41242,-686.00,-12657.00,-626.00,-12176.00,980.00,12480.00,-2560.00
41298,29.00,-18298.00,-1405.00,-10464.00,1020.00,13708.00,-2560.00
41356,-3637.00,-32768.00,-2223.00,-7372.00,748.00,16552.00,-2576.00
41412,-3363.00,-32768.00,868.00,-3448.00,108.00,17040.00,-2544.00
41469,-1185.00,-21908.00,-595.00,488.00,-424.00,18488.00,-2560.00
41526,135.00,-28158.00,294.00,2320.00,-648.00,17392.00,-2560.00
41582,2198.00,-20284.00,-743.00,5716.00,4.00,17096.00,-2592.00
41639,1232.00,-22574.00,-123.00,9548.00,56.00,16672.00,-2560.00
41696,2179.00,-18118.00,368.00,9652.00,108.00,14992.00,-2560.00
41752,629.00,-13586.00,-326.00,12552.00,232.00,13700.00,-2560.00
41809,845.00,-14362.00,476.00,11480.00,36.00,12076.00,-2592.00
41866,322.00,-7319.00,565.00,16156.00,168.00,10992.00,-2576.00
41922,1001.00,-2628.00,863.00,14808.00,636.00,11252.00,-2592.00
41979,360.00,5560.00,-722.00,15352.00,264.00,11016.00,-2592.00
42036,-21.00,16251.00,-683.00,13636.00,128.00,12468.00,-2576.00
42092,-1921.00,21880.00,-2003.00,13864.00,484.00,14512.00,-2576.00
42149,-527.00,30595.00,-1949.00,9468.00,-344.00,15200.00,-2576.00
42206,-362.00,28949.00,-1500.00,7664.00,-320.00,16888.00,-2576.00
42263,5007.00,18015.00,476.00,4156.00,848.00,19180.00,-2576.00
42319,3851.00,23721.00,-1508.00,556.00,824.00,18760.00,-2576.00
42376,4466.00,27842.00,224.00,-2760.00,1828.00,18412.00,-2576.00
42433,2626.00,28090.00,-153.00,-5592.00,1524.00,17008.00,-2560.00
42489,2870.00,29669.00,-835.00,-7060.00,1720.00,15776.00,-2576.00
42547,-1905.00,20237.00,-2566.00,-10232.00,2488.00,13652.00,-2576.00
42603,-1369.00,14106.00,-1667.00,-12480.00,1544.00,11524.00,-2592.00
42660,873.00,11817.00,-1568.00,-14104.00,1824.00,10096.00,-2576.00
42717,-1167.00,-3101.00,244.00,-14020.00,2272.00,10432.00,-2560.00
42774,-125.00,-32768.00,1638.00,-12436.00,1288.00,10872.00,-2560.00
42830,-1074.00,-20911.00,-1683.00,-10708.00,1108.00,13720.00,-2560.00
42888,-3907.00,-32768.00,6.00,-6248.00,1608.00,16328.00,-2608.00
42944,-1473.00,-27546.00,5021.00,-3268.00,1328.00,16904.00,-2576.00
43001,-1761.00,-32768.00,4788.00,2852.00,924.00,18504.00,-2576.00
43058,1883.00,-23645.00,822.00,3348.00,1068.00,15544.00,-2592.00
43115,2382.00,-27117.00,-782.00,9360.00,684.00,16708.00,-2592.00
43171,452.00,-22787.00,1653.00,9148.00,1320.00,15040.00,-2608.00
43228,1070.00,-19995.00,-1663.00,14480.00,872.00,13320.00,-2560.00
43285,-2322.00,-9663.00,-1611.00,12728.00,1408.00,12004.00,-2592.00
43341,-2870.00,-4055.00,-2125.00,14384.00,1296.00,11088.00,-2608.00
43399,-1139.00,-6839.00,-335.00,14212.00,1120.00,10440.00,-2576.00
43455,-249.00,197.00,-1103.00,15824.00,1264.00,10848.00,-2592.00
43512,612.00,11640.00,-279.00,13940.00,1372.00,11132.00,-2576.00
43569,-691.00,28316.00,-2284.00,13104.00,1100.00,12860.00,-2560.00
43626,-1916.00,26594.00,507.00,8452.00,1540.00,14000.00,-2592.00
43682,-663.00,23867.00,1211.00,8752.00,1316.00,17204.00,-2592.00
43739,1433.00,22658.00,-1896.00,3596.00,540.00,17204.00,-2576.00
43796,1657.00,21114.00,1350.00,1724.00,924.00,17616.00,-2592.00
43852,1473.00,30146.00,-975.00,-1572.00,1164.00,18116.00,-2544.00
43910,1795.00,25849.00,-1201.00,-4264.00,1800.00,17448.00,-2608.00
43966,906.00,22366.00,-945.00,-7728.00,1760.00,15164.00,-2576.00
44023,2806.00,12926.00,-1248.00,-8512.00,1296.00,15340.00,-2608.00
44080,1912.00,16564.00,-3408.00,-10936.00,1868.00,12088.00,-2544.00
44137,69.00,9877.00,-1553.00,-11872.00,1604.00,12292.00,-2592.00
44193,955.00,5113.00,-1772.00,-12740.00,1316.00,10780.00,-2592.00
44250,-347.00,-9519.00,-523.00,-13404.00,1584.00,11140.00,-2592.00
44307,-155.00,-21948.00,-880.00,-11516.00,1264.00,12672.00,-2592.00
44363,-1619.00,-30536.00,-382.00,-9240.00,1504.00,15524.00,-2560.00
44421,-5065.00,-32768.00,2110.00,-5792.00,1312.00,16204.00,-2560.00
44477,-1148.00,-28412.00,1723.00,-1776.00,460.00,17912.00,-2576.00
44534,-428.00,-22379.00,1766.00,1316.00,-288.00,17840.00,-2576.00
44591,-1310.00,-19537.00,1298.00,3796.00,-4.00,18248.00,-2608.00
44647,536.00,-14182.00,-188.00,7156.00,68.00,17056.00,-2592.00
44704,1966.00,-24336.00,2970.00,7800.00,-188.00,16004.00,-2576.00
44761,2228.00,-18953.00,2221.00,11424.00,504.00,16344.00,-2576.00
44818,1425.00,-13142.00,823.00,12488.00,100.00,14280.00,-2544.00
44874,1162.00,-5984.00,-1112.00,12920.00,208.00,13716.00,-2496.00
44932,346.00,-1446.00,-350.00,12728.00,272.00,12588.00,-2432.00
44988,-749.00,-690.00,-840.00,13352.00,388.00,13452.00,-2416.00
45044,-242.00,8147.00,-551.00,14084.00,200.00,13832.00,-2432.00
45102,-1666.00,22078.00,-734.00,12548.00,908.00,15320.00,-2432.00
45158,-1261.00,25796.00,-34.00,8820.00,116.00,15772.00,-2432.00
45214,226.00,31376.00,-921.00,5908.00,612.00,18464.00,-2448.00
45272,1643.00,25464.00,-3538.00,2316.00,-232.00,18208.00,-2464.00
45328,392.00,23121.00,-3282.00,-108.00,552.00,18964.00,-2432.00
45384,2660.00,24749.00,-1573.00,-4568.00,360.00,17400.00,-2464.00
45442,3988.00,29887.00,-3182.00,-4268.00,1756.00,16616.00,-2496.00
45498,2127.00,16082.00,47.00,-9848.00,1248.00,14628.00,-2480.00
45555,-1937.00,6284.00,16.00,-10632.00,944.00,13364.00,-2512.00
45612,978.00,10856.00,-1079.00,-11476.00,720.00,12496.00,-2496.00
45668,1579.00,9590.00,-1081.00,-12480.00,892.00,12108.00,-2512.00
45725,1388.00,10406.00,-967.00,-13404.00,1164.00,10088.00,-2480.00
45782,-504.00,-4012.00,834.00,-13712.00,1280.00,10060.00,-2496.00
45839,-1404.00,-15119.00,750.00,-12680.00,564.00,10832.00,-2464.00
45895,1485.00,-26253.00,-236.00,-11756.00,1480.00,13104.00,-2496.00
45953,-2581.00,-32768.00,-62.00,-6840.00,1492.00,17708.00,-2512.00
46009,-1381.00,-32768.00,5191.00,-3832.00,56.00,16988.00,-2512.00
46065,311.00,-31834.00,3253.00,464.00,640.00,18108.00,-2528.00
46123,-1046.00,-21944.00,4275.00,3908.00,324.00,17640.00,-2528.00
46179,1263.00,-24315.00,1589.00,7280.00,488.00,16956.00,-2496.00
46236,1046.00,-19120.00,2351.00,7376.00,156.00,14844.00,-2528.00
46292,1054.00,-20528.00,1167.00,12200.00,844.00,13836.00,-2528.00
46350,658.00,-14468.00,1176.00,13152.00,648.00,13344.00,-2512.00
46406,957.00,-3696.00,1176.00,13928.00,612.00,11748.00,-2544.00
46462,-1213.00,-6938.00,160.00,15652.00,528.00,11040.00,-2528.00
46520,-199.00,846.00,-316.00,15100.00,204.00,10604.00,-2528.00
46576,-428.00,10383.00,-1088.00,14644.00,192.00,11172.00,-2544.00
46633,-817.00,18317.00,-1151.00,14684.00,288.00,12844.00,-2512.00
46690,-1128.00,28540.00,-533.00,10856.00,616.00,14776.00,-2512.00
46746,96.00,31554.00,-227.00,8680.00,308.00,16168.00,-2544.00
46803,2506.00,29655.00,47.00,2848.00,448.00,17316.00,-2528.00
46860,5584.00,28025.00,-2528.00,696.00,252.00,18564.00,-2512.00
46916,6973.00,26755.00,-1648.00,-2724.00,1204.00,17168.00,-2512.00
46973,5675.00,26346.00,1033.00,-5876.00,3244.00,17260.00,-2528.00
47030,2194.00,19421.00,-1214.00,-9028.00,2932.00,17064.00,-2560.00
47087,-1309.00,21630.00,-3975.00,-10744.00,2344.00,12652.00,-2544.00
47143,-1258.00,10030.00,-3226.00,-11392.00,2204.00,12424.00,-2528.00
47201,-182.00,13519.00,-4558.00,-12728.00,1816.00,10844.00,-2560.00
47257,116.00,13295.00,-2966.00,-13544.00,1356.00,9852.00,-2544.00
47314,-269.00,2448.00,-815.00,-14072.00,1444.00,8200.00,-2560.00
47371,-892.00,-7721.00,374.00,-14468.00,1308.00,9324.00,-2544.00
47428,909.00,-22478.00,517.00,-13836.00,1188.00,10972.00,-2560.00
47484,-1913.00,-32768.00,-2516.00,-9288.00,1524.00,13648.00,-2544.00
47541,-4583.00,-32768.00,3103.00,-6836.00,1076.00,16584.00,-2560.00
47598,-3239.00,-32768.00,4210.00,-656.00,-192.00,18708.00,-2560.00
47654,-1681.00,-32768.00,2247.00,2264.00,-200.00,17340.00,-2528.00
47712,-2917.00,-27743.00,-4413.00,8400.00,344.00,16408.00,-2560.00
47768,1711.00,-21397.00,-436.00,8912.00,-364.00,15880.00,-2544.00
47825,525.00,-17608.00,-1538.00,12940.00,308.00,13428.00,-2544.00
47882,4145.00,-16476.00,-2350.00,12676.00,1016.00,11960.00,-2560.00
47939,2749.00,-10493.00,828.00,15676.00,972.00,11912.00,-2544.00
47995,1428.00,-5102.00,-63.00,14172.00,988.00,10724.00,-2528.00
48052,493.00,-2769.00,722.00,15920.00,904.00,10052.00,-2544.00
48109,221.00,11197.00,-760.00,15140.00,1160.00,10944.00,-2544.00
48165,-1274.00,24104.00,-398.00,13708.00,988.00,12028.00,-2576.00
48223,598.00,31020.00,655.00,11680.00,1392.00,14400.00,-2560.00
48279,-967.00,28965.00,798.00,8908.00,1844.00,18316.00,-2528.00
48335,-82.00,29628.00,-3103.00,5432.00,828.00,18388.00,-2560.00
48393,-151.00,29532.00,-749.00,884.00,948.00,18072.00,-2560.00
48449,874.00,31685.00,-2270.00,-2728.00,952.00,18548.00,-2528.00
48505,9.00,29599.00,-2066.00,-6916.00,820.00,15980.00,-2544.00
48563,-455.00,23854.00,-1589.00,-9324.00,884.00,14892.00,-2592.00
48619,-1286.00,10091.00,-907.00,-11272.00,536.00,12728.00,-2560.00
48676,1144.00,11558.00,-1344.00,-12788.00,376.00,12244.00,-2528.00
48733,327.00,7797.00,-708.00,-13200.00,1048.00,11360.00,-2544.00
48789,-546.00,-1761.00,106.00,-13816.00,492.00,9888.00,-2576.00
48846,51.00,-7050.00,139.00,-12996.00,300.00,11088.00,-2560.00
48903,-190.00,-22540.00,-467.00,-12216.00,504.00,12352.00,-2544.00
48959,-410.00,-28948.00,-1303.00,-8576.00,796.00,15620.00,-2576.00
49016,-737.00,-32768.00,2035.00,-5556.00,376.00,16532.00,-2544.00
49073,411.00,-32768.00,1919.00,-432.00,-296.00,17996.00,-2544.00
49130,885.00,-25731.00,-909.00,2496.00,144.00,18240.00,-2576.00
49186,-348.00,-26646.00,1736.00,6604.00,72.00,17436.00,-2528.00
49243,384.00,-22608.00,1401.00,7908.00,292.00,15300.00,-2528.00
49300,992.00,-18553.00,285.00,13720.00,152.00,14632.00,-2592.00
49356,2339.00,-17211.00,2293.00,13088.00,160.00,13400.00,-2528.00
49413,-516.00,-15803.00,26.00,16424.00,-68.00,11260.00,-2528.00
49470,904.00,-3101.00,-44.00,15520.00,752.00,9584.00,-2560.00
49526,783.00,-4204.00,-558.00,15560.00,272.00,9976.00,-2576.00
49583,75.00,998.00,-1120.00,16596.00,164.00,9752.00,-2560.00
49640,-1002.00,16498.00,-1393.00,15400.00,868.00,10892.00,-2560.00
49696,-835.00,32024.00,-1.00,13468.00,232.00,13436.00,-2528.00
49753,-512.00,30395.00,-388.00,9596.00,-688.00,14688.00,-2576.00
49810,-199.00,25589.00,-3302.00,7036.00,228.00,17356.00,-2544.00
49866,163.00,24575.00,-657.00,3536.00,1624.00,18404.00,-2528.00
49923,2607.00,26650.00,-252.00,1652.00,608.00,18888.00,-2576.00
49980,3835.00,30995.00,1107.00,-3764.00,448.00,16360.00,-2576.00
50036,2910.00,30006.00,-3205.00,-7560.00,1012.00,16540.00,-2544.00
50094,1197.00,30504.00,-3792.00,-9284.00,2440.00,16024.00,-2560.00
50150,-3101.00,20889.00,-5357.00,-12348.00,1064.00,11172.00,-2592.00
50207,1252.00,13008.00,-2884.00,-13592.00,388.00,10792.00,-2560.00
50264,452.00,5434.00,-953.00,-14212.00,228.00,8576.00,-2576.00
50321,-384.00,-3826.00,-45.00,-14332.00,476.00,9532.00,-2528.00
50377,858.00,-5711.00,53.00,-13868.00,364.00,9664.00,-2544.00
50434,2130.00,-25891.00,-1776.00,-13792.00,504.00,11508.00,-2560.00
50491,-723.00,-22333.00,911.00,-11508.00,876.00,13992.00,-2544.00
50547,-2191.00,-32768.00,940.00,-8364.00,404.00,16152.00,-2544.00
50604,-1398.00,-28278.00,3278.00,-3448.00,-80.00,18048.00,-2544.00
50661,-858.00,-32768.00,2186.00,-36.00,-444.00,17752.00,-2576.00
50717,919.00,-32768.00,2144.00,4188.00,-784.00,17852.00,-2560.00
50774,1916.00,-30973.00,2683.00,8716.00,-760.00,16156.00,-2560.00
50831,2279.00,-27618.00,48.00,12104.00,588.00,13276.00,-2576.00
50887,4159.00,-17184.00,-1412.00,13292.00,532.00,12000.00,-2576.00
50945,1129.00,-9147.00,-667.00,15652.00,264.00,11712.00,-2528.00
51001,-1758.00,-8067.00,-997.00,14840.00,416.00,9328.00,-2560.00
51057,2.00,-7687.00,-49.00,16516.00,936.00,8812.00,-2560.00
51115,268.00,-4577.00,1177.00,14712.00,600.00,7832.00,-2560.00
51171,424.00,2561.00,-2933.00,15924.00,940.00,8560.00,-2576.00
51227,-717.00,8447.00,-2128.00,16900.00,892.00,9036.00,-2560.00
51284,-2221.00,28155.00,-1469.00,15120.00,1016.00,11900.00,-2528.00
51341,-2091.00,32767.00,-2069.00,13044.00,1100.00,12364.00,-2528.00
51398,-1120.00,32767.00,961.00,7008.00,1012.00,16492.00,-2544.00
51454,849.00,32767.00,-4602.00,4628.00,168.00,17840.00,-2576.00
51511,-213.00,30790.00,-2668.00,-352.00,628.00,18964.00,-2544.00
51568,-577.00,32767.00,-2849.00,-3716.00,320.00,18300.00,-2544.00
51624,-919.00,29314.00,933.00,-8760.00,580.00,16564.00,-2576.00
51682,-1599.00,22462.00,-8085.00,-10652.00,372.00,10972.00,-2544.00
51738,1536.00,10351.00,-882.00,-11504.00,740.00,13476.00,-2528.00
51794,1758.00,7556.00,-427.00,-13424.00,-296.00,11092.00,-2528.00
51852,154.00,-8098.00,-86.00,-13832.00,688.00,12196.00,-2528.00
51908,1123.00,-3628.00,918.00,-12184.00,180.00,11300.00,-2576.00
51965,1550.00,-22476.00,480.00,-13464.00,616.00,13964.00,-2560.00
52022,-278.00,-14815.00,1313.00,-9684.00,584.00,14292.00,-2560.00
52078,-2043.00,-32768.00,3369.00,-7520.00,948.00,16524.00,-2560.00
52135,1302.00,-32768.00,3395.00,-1964.00,-216.00,17156.00,-2544.00
52192,693.00,-32768.00,6753.00,2216.00,712.00,17824.00,-2544.00
52249,-107.00,-26713.00,3223.00,6500.00,352.00,17124.00,-2544.00
52305,3573.00,-26624.00,3116.00,8544.00,760.00,14684.00,-2544.00
52362,5288.00,-21725.00,2755.00,12884.00,712.00,14392.00,-2544.00
52419,-878.00,-9097.00,351.00,12912.00,104.00,13160.00,-2560.00
52475,-368.00,-11261.00,944.00,14488.00,852.00,12508.00,-2560.00
52533,-530.00,-9449.00,-848.00,13696.00,576.00,10820.00,-2528.00
52589,244.00,-7155.00,-986.00,16588.00,784.00,10644.00,-2560.00
52645,-1797.00,-9731.00,-1247.00,14384.00,1476.00,8968.00,-2512.00
52703,516.00,-8793.00,-2304.00,17440.00,1380.00,8596.00,-2528.00
52759,167.00,1014.00,-1468.00,16928.00,1352.00,7440.00,-2528.00
52816,751.00,4021.00,-623.00,15596.00,1300.00,8700.00,-2560.00
52873,-1733.00,12719.00,-989.00,15508.00,1176.00,9456.00,-2544.00
52929,-1449.00,21032.00,-1709.00,14548.00,1460.00,11184.00,-2528.00
52986,-2277.00,32321.00,-344.00,14224.00,1332.00,12676.00,-2512.00
53043,-1569.00,24538.00,1883.00,9176.00,1872.00,16320.00,-2496.00
53100,-956.00,19250.00,-1998.00,8428.00,812.00,17792.00,-2512.00
53156,1920.00,17003.00,462.00,4056.00,584.00,17468.00,-2544.00
53214,4228.00,17904.00,-133.00,4168.00,1192.00,19572.00,-2544.00
53270,2496.00,22504.00,-3492.00,840.00,2124.00,17696.00,-2512.00
53326,-2395.00,32767.00,-2387.00,-1744.00,1932.00,17484.00,-2528.00
53384,-661.00,28520.00,-3692.00,-7832.00,1784.00,18204.00,-2544.00
53440,-1632.00,18845.00,-1528.00,-9740.00,1204.00,14792.00,-2544.00
53497,-825.00,18430.00,-4705.00,-11540.00,824.00,13528.00,-2528.00
53554,-752.00,8949.00,-1863.00,-12436.00,684.00,12240.00,-2576.00
53611,1021.00,4516.00,-2159.00,-11368.00,240.00,10900.00,-2544.00
53667,-957.00,-5946.00,880.00,-13920.00,216.00,10980.00,-2544.00
53725,1405.00,-22710.00,361.00,-11532.00,312.00,13004.00,-2544.00
53781,-1498.00,-30296.00,3400.00,-8424.00,956.00,15424.00,-2528.00
53837,-2009.00,-32768.00,610.00,-4328.00,496.00,17900.00,-2528.00
53895,224.00,-32768.00,821.00,856.00,1060.00,17024.00,-2528.00
53951,1523.00,-32768.00,2832.00,4376.00,-100.00,18036.00,-2528.00
54008,84.00,-21901.00,-1869.00,5396.00,-76.00,16132.00,-2496.00
54065,564.00,-23156.00,-693.00,10848.00,404.00,15292.00,-2528.00
54121,1408.00,-19375.00,-1883.00,11856.00,748.00,13756.00,-2528.00
54178,-416.00,-22045.00,-2636.00,14360.00,1512.00,12116.00,-2560.00
54235,-1283.00,-17240.00,-225.00,13740.00,816.00,9576.00,-2576.00
54292,-1237.00,-17999.00,20.00,16980.00,1020.00,7704.00,-2560.00
54348,1741.00,-9642.00,208.00,16668.00,1072.00,7032.00,-2528.00
54405,2056.00,-4720.00,376.00,16780.00,1240.00,5696.00,-2528.00
54462,955.00,-3621.00,549.00,17084.00,612.00,5072.00,-2528.00
54518,714.00,-3087.00,607.00,17268.00,872.00,5268.00,-2512.00
54575,-106.00,-1694.00,-76.00,17332.00,808.00,4036.00,-2528.00
54632,1286.00,430.00,-983.00,16920.00,1000.00,4476.00,-2544.00
54688,-742.00,3758.00,-1277.00,18472.00,1240.00,4404.00,-2512.00
54745,-912.00,15196.00,-401.00,18140.00,1228.00,6596.00,-2528.00
54802,-3807.00,32767.00,-959.00,15668.00,244.00,9024.00,-2512.00
54858,-3495.00,32767.00,430.00,13152.00,1532.00,11516.00,-2544.00
54916,-1974.00,32767.00,-3965.00,9740.00,324.00,15908.00,-2528.00
54972,-307.00,32767.00,-3682.00,4536.00,316.00,16296.00,-2528.00
55028,-761.00,32767.00,142.00,1036.00,324.00,18812.00,-2528.00
55086,-2953.00,32595.00,-2832.00,-3280.00,272.00,17468.00,-2512.00
55142,157.00,29171.00,-1020.00,-7332.00,388.00,16456.00,-2560.00
55199,2844.00,15936.00,-2550.00,-11192.00,612.00,16236.00,-2528.00
55256,1036.00,12644.00,-2071.00,-15400.00,-1136.00,12592.00,-2528.00
55313,-1987.00,7044.00,-601.00,-11900.00,836.00,12732.00,-2560.00
55369,1537.00,-5628.00,972.00,-9956.00,184.00,13604.00,-2560.00
55426,1779.00,-18524.00,4584.00,-11144.00,-8.00,14040.00,-2544.00
55483,2991.00,-30423.00,-1100.00,-7248.00,792.00,16052.00,-2544.00
55539,627.00,-29691.00,2094.00,-2492.00,2876.00,17160.00,-2560.00
55597,-1876.00,-26752.00,4506.00,-2748.00,-384.00,18504.00,-2528.00
55653,-3919.00,-21938.00,2726.00,2264.00,20.00,17772.00,-2544.00
55710,1979.00,-32768.00,6544.00,5060.00,-204.00,17932.00,-2576.00
55767,2712.00,-31021.00,1175.00,9456.00,812.00,15152.00,-2544.00
55823,2977.00,-32208.00,-1674.00,12220.00,780.00,13476.00,-2512.00
55880,1142.00,-24246.00,-2587.00,14176.00,1328.00,10140.00,-2528.00
55937,1894.00,-21478.00,-2860.00,16972.00,1704.00,7968.00,-2544.00
55994,4674.00,-14709.00,-821.00,16756.00,1512.00,6228.00,-2560.00
56050,160.00,-2604.00,-579.00,17640.00,1760.00,5272.00,-2528.00
56108,-211.00,-1311.00,562.00,17784.00,2160.00,4736.00,-2544.00
56164,50.00,9124.00,1100.00,17756.00,2008.00,5088.00,-2576.00
56220,-1975.00,16951.00,1290.00,15732.00,1532.00,6580.00,-2560.00
56278,-861.00,32767.00,-777.00,14808.00,1724.00,8664.00,-2560.00
56334,937.00,17623.00,2195.00,13408.00,1532.00,12336.00,-2528.00
56391,351.00,29992.00,660.00,11640.00,1012.00,14840.00,-2576.00
56448,93.00,23409.00,1607.00,9212.00,1704.00,16328.00,-2512.00
56504,-241.00,24926.00,-1314.00,4680.00,1160.00,17268.00,-2560.00
56561,1483.00,27391.00,-3858.00,2748.00,864.00,17268.00,-2544.00
56617,1897.00,20683.00,-2869.00,-1284.00,1164.00,17972.00,-2544.00
56675,956.00,22077.00,-2178.00,-3076.00,1764.00,17844.00,-2528.00
56731,-1232.00,19702.00,-2004.00,-6340.00,1152.00,16024.00,-2528.00
56788,-589.00,17083.00,-2033.00,-7668.00,1388.00,16568.00,-2560.00
56845,-991.00,16495.00,-1877.00,-10016.00,1192.00,13472.00,-2544.00
56902,-1229.00,10442.00,356.00,-12168.00,856.00,11980.00,-2528.00
56958,-1874.00,-2578.00,-1485.00,-12636.00,1528.00,13224.00,-2528.00
57016,981.00,-4066.00,-949.00,-10916.00,156.00,12204.00,-2576.00
57072,2312.00,-16966.00,-1331.00,-11924.00,1308.00,14448.00,-2560.00
57129,-3236.00,-32768.00,3478.00,-6416.00,184.00,15404.00,-2576.00
57186,-2013.00,-32768.00,1619.00,-3904.00,552.00,17936.00,-2544.00
57242,-2810.00,-32768.00,1242.00,1576.00,592.00,16652.00,-2528.00
57299,-673.00,-29578.00,858.00,5912.00,-128.00,16976.00,-2560.00
57356,1851.00,-32768.00,-442.00,10284.00,640.00,15084.00,-2512.00
57413,3639.00,-28145.00,-260.00,12528.00,-100.00,13140.00,-2576.00
57469,2143.00,-23242.00,-2015.00,15752.00,1288.00,9944.00,-2544.00
57527,449.00,-18855.00,2021.00,16356.00,436.00,8656.00,-2528.00
57583,3097.00,-7396.00,-1756.00,17144.00,-592.00,3144.00,-2560.00
57639,-406.00,-3858.00,291.00,16560.00,828.00,5864.00,-2528.00
57697,1264.00,3677.00,-1169.00,18084.00,1188.00,4388.00,-2544.00
57753,1182.00,14427.00,-1262.00,17128.00,816.00,7324.00,-2528.00
57809,-947.00,21604.00,-3090.00,17356.00,712.00,8592.00,-2544.00
57867,-2902.00,32767.00,-3318.00,14228.00,1556.00,10980.00,-2544.00
57923,-3999.00,32767.00,-3600.00,10372.00,1232.00,13488.00,-2496.00
57980,-1058.00,29477.00,128.00,8440.00,1648.00,16924.00,-2512.00
58037,101.00,30774.00,-974.00,3928.00,1332.00,17256.00,-2512.00
58094,2455.00,23420.00,-571.00,708.00,808.00,18316.00,-2544.00
58150,2036.00,31657.00,-5014.00,-2700.00,1404.00,18076.00,-2528.00
58208,1677.00,29889.00,-2673.00,-8460.00,-720.00,15492.00,-2544.00
58264,-463.00,26995.00,-3565.00,-10236.00,2176.00,16124.00,-2512.00
58321,-5128.00,22236.00,-2860.00,-11424.00,892.00,12028.00,-2528.00
58378,-1331.00,8515.00,-191.00,-13292.00,404.00,10972.00,-2528.00
58434,-895.00,4924.00,-342.00,-13388.00,-40.00,10412.00,-2528.00
58491,-142.00,-6368.00,-146.00,-13580.00,84.00,9932.00,-2512.00
58548,773.00,-19376.00,-528.00,-11432.00,712.00,11528.00,-2528.00
58604,225.00,-19217.00,869.00,-12180.00,236.00,13628.00,-2528.00
58661,-2996.00,-32768.00,634.00,-4604.00,1056.00,16380.00,-2528.00
58718,-4125.00,-26715.00,1413.00,-4772.00,-168.00,18172.00,-2496.00
58775,-1346.00,-32768.00,1586.00,1092.00,-628.00,17216.00,-2528.00
58831,1141.00,-19194.00,-235.00,1920.00,-516.00,17796.00,-2528.00
58888,1539.00,-32768.00,647.00,6836.00,180.00,17220.00,-2528.00
58945,2290.00,-24289.00,-300.00,7268.00,-468.00,13812.00,-2528.00
59001,2521.00,-31062.00,3147.00,13264.00,488.00,13272.00,-2560.00
59059,1728.00,-20586.00,-705.00,13748.00,-124.00,11180.00,-2528.00
59115,399.00,-11881.00,-1511.00,16548.00,640.00,8980.00,-2512.00
59172,1244.00,-12484.00,-361.00,16200.00,252.00,8108.00,-2496.00
59229,-37.00,-8124.00,-916.00,17024.00,756.00,6404.00,-2528.00
59285,493.00,423.00,-748.00,15452.00,252.00,5748.00,-2544.00
59341,-527.00,-475.00,-668.00,17388.00,616.00,5980.00,-2528.00
59399,-95.00,4170.00,97.00,17152.00,812.00,6228.00,-2512.00
59455,-813.00,11631.00,-634.00,16584.00,872.00,7456.00,-2496.00
59511,-1676.00,14147.00,-216.00,16320.00,852.00,8876.00,-2496.00
59569,-2186.00,15904.00,-12.00,14316.00,268.00,9916.00,-2464.00
59625,-2056.00,14261.00,557.00,14560.00,360.00,12564.00,-2448.00
59681,-1495.00,11985.00,285.00,11944.00,380.00,13364.00,-2464.00
59739,-1797.00,20424.00,67.00,10428.00,636.00,14048.00,-2432.00
59795,345.00,20020.00,943.00,8932.00,-272.00,15716.00,-2432.00
59852,248.00,22236.00,-1115.00,7024.00,360.00,17816.00,-2416.00
59909,2086.00,9106.00,932.00,4296.00,-340.00,17972.00,-2416.00
59965,2920.00,11142.00,-596.00,3768.00,288.00,18488.00,-2416.00
60022,3144.00,11148.00,-853.00,2740.00,504.00,18560.00,-2448.00
60079,1659.00,7061.00,39.00,300.00,520.00,18240.00,-2464.00
60135,1740.00,7183.00,-3612.00,860.00,648.00,18992.00,-2416.00
60192,1294.00,9279.00,-2302.00,96.00,824.00,18200.00,-2416.00
60249,-458.00,2459.00,547.00,-1416.00,1284.00,18676.00,-2400.00
60305,-545.00,2910.00,712.00,184.00,900.00,19092.00,-2448.00
60361,-2358.00,-1615.00,529.00,-1844.00,956.00,18324.00,-2464.00
60419,92.00,212.00,884.00,-1636.00,388.00,17148.00,-2432.00
60475,887.00,2146.00,-754.00,-752.00,908.00,18884.00,-2432.00
60531,55.00,-687.00,741.00,-3272.00,188.00,19120.00,-2464.00
60588,413.00,1255.00,539.00,-1040.00,708.00,18184.00,-2416.00
60645,-519.00,-2439.00,193.00,-1792.00,124.00,19148.00,-2432.00
60701,-600.00,853.00,282.00,-1540.00,756.00,18608.00,-2432.00
60758,-903.00,-1296.00,138.00,-540.00,552.00,17892.00,-2400.00
60814,-590.00,-404.00,-99.00,-1020.00,-4.00,18252.00,-2448.00
60871,14.00,407.00,-674.00,-1076.00,228.00,18468.00,-2448.00
60928,2.00,-825.00,-611.00,-952.00,220.00,18508.00,-2432.00
60984,-212.00,356.00,-28.00,-824.00,404.00,18708.00,-2448.00
61040,-407.00,86.00,-507.00,-888.00,8.00,18480.00,-2432.00
61096,-172.00,-130.00,-366.00,-1140.00,264.00,18204.00,-2400.00
61153,-50.00,-134.00,-261.00,-1100.00,52.00,18136.00,-2432.00
61209,-50.00,-1017.00,21.00,-972.00,-12.00,18356.00,-2400.00
61266,421.00,-1891.00,-379.00,-796.00,96.00,18308.00,-2400.00
61323,79.00,-255.00,-387.00,-444.00,-16.00,18608.00,-2432.00
61379,464.00,-367.00,14.00,-592.00,20.00,18424.00,-2432.00
61435,-68.00,217.00,183.00,-128.00,208.00,18744.00,-2416.00
61492,18.00,339.00,222.00,-760.00,60.00,18296.00,-2416.00
61548,155.00,382.00,-495.00,-392.00,20.00,18416.00,-2432.00
61604,22.00,231.00,-55.00,-372.00,156.00,18508.00,-2464.00
61661,222.00,122.00,-58.00,-584.00,204.00,18356.00,-2432.00
61717,-75.00,273.00,23.00,-628.00,272.00,18504.00,-2400.00
61774,17.00,-125.00,-209.00,-752.00,36.00,18408.00,-2416.00
61831,-427.00,819.00,-669.00,-604.00,208.00,18572.00,-2416.00
61887,-70.00,-243.00,142.00,-920.00,16.00,18420.00,-2448.00
61943,-452.00,200.00,-332.00,-684.00,-24.00,18628.00,-2448.00
62000,53.00,210.00,-125.00,-684.00,-176.00,18468.00,-2416.00
62056,325.00,-60.00,237.00,-680.00,-152.00,18604.00,-2432.00
62112,209.00,-177.00,-40.00,-648.00,56.00,18444.00,-2432.00
62169,-201.00,-40.00,-635.00,-788.00,-36.00,18264.00,-2416.00
62226,-727.00,-491.00,-370.00,-472.00,-140.00,18424.00,-2384.00
62282,-284.00,50.00,-132.00,-576.00,-276.00,18728.00,-2432.00
62339,-111.00,211.00,-378.00,-768.00,-248.00,18648.00,-2400.00
62395,152.00,102.00,182.00,-704.00,-156.00,18408.00,-2384.00
62451,297.00,111.00,-200.00,-760.00,-260.00,18536.00,-2416.00
62509,371.00,-34.00,40.00,-812.00,-224.00,18300.00,-2432.00
62565,194.00,-23.00,-50.00,-592.00,-152.00,18668.00,-2400.00
62621,232.00,168.00,-242.00,-740.00,-112.00,18396.00,-2416.00
62678,93.00,37.00,-150.00,-884.00,-204.00,18380.00,-2432.00
62734,-92.00,72.00,-138.00,-752.00,-60.00,18368.00,-2416.00
62790,91.00,-122.00,-209.00,-784.00,-160.00,18540.00,-2432.00
62846,109.00,259.00,-128.00,-724.00,-156.00,18480.00,-2416.00
62903,282.00,-245.00,72.00,-656.00,-168.00,18540.00,-2384.00
62959,85.00,-18.00,-214.00,-708.00,-272.00,18612.00,-2416.00
63016,313.00,-66.00,-22.00,-640.00,-68.00,18232.00,-2416.00
63073,445.00,-96.00,127.00,-740.00,-92.00,18428.00,-2432.00
63129,602.00,284.00,-124.00,-716.00,-116.00,18580.00,-2400.00
63185,-100.00,-119.00,-6.00,-800.00,24.00,18324.00,-2400.00
63242,329.00,17.00,-131.00,-548.00,-32.00,18424.00,-2416.00
63298,-68.00,-6.00,-286.00,-932.00,-92.00,18524.00,-2416.00
63354,414.00,840.00,-705.00,-1144.00,-208.00,17972.00,-2400.00
63411,1118.00,-524.00,-1064.00,-924.00,12.00,18492.00,-2416.00
63468,-498.00,-2233.00,1582.00,4.00,-96.00,17896.00,-2400.00
63524,-530.00,702.00,507.00,-888.00,136.00,18628.00,-2400.00
63581,623.00,-192.00,28.00,-788.00,-56.00,18976.00,-2416.00
63637,467.00,-3.00,321.00,-780.00,28.00,18480.00,-2416.00
63693,-63.00,-92.00,-132.00,-552.00,196.00,18540.00,-2400.00
63750,-248.00,374.00,-164.00,-756.00,176.00,18292.00,-2432.00
63806,162.00,-291.00,95.00,-820.00,84.00,18372.00,-2384.00
63862,97.00,59.00,-405.00,-772.00,16.00,18708.00,-2416.00
63919,-204.00,-161.00,-225.00,-804.00,156.00,18172.00,-2400.00
63976,278.00,-348.00,163.00,-648.00,-60.00,18236.00,-2416.00
64032,546.00,-1637.00,-121.00,-716.00,132.00,18316.00,-2384.00
64089,718.00,-1446.00,-1064.00,-380.00,128.00,18008.00,-2400.00
64145,175.00,747.00,488.00,-388.00,216.00,18444.00,-2400.00
64202,381.00,-184.00,-141.00,-712.00,72.00,18752.00,-2400.00
64259,264.00,-119.00,266.00,-436.00,144.00,18560.00,-2416.00
64315,-117.00,-537.00,-326.00,-336.00,184.00,18408.00,-2416.00
64371,291.00,-216.00,125.00,-376.00,84.00,18400.00,-2400.00
64428,743.00,-387.00,-66.00,-244.00,288.00,18732.00,-2432.00
64484,1653.00,-154.00,979.00,-104.00,540.00,18152.00,-2432.00
64541,3776.00,221.00,970.00,-76.00,720.00,18340.00,-2416.00
64598,5586.00,-937.00,-87.00,-252.00,1272.00,18568.00,-2400.00
64654,8276.00,-1067.00,-70.00,-84.00,2060.00,18544.00,-2416.00
64710,10105.00,-382.00,28.00,124.00,3340.00,18204.00,-2400.00
64766,9551.00,-1748.00,-373.00,-12.00,4572.00,17560.00,-2448.00
64824,9298.00,334.00,-538.00,312.00,5580.00,16784.00,-2416.00
64880,7360.00,-151.00,1388.00,388.00,6840.00,17652.00,-2400.00
64936,6673.00,-341.00,1943.00,536.00,7236.00,16732.00,-2432.00
64994,6499.00,106.00,972.00,384.00,8272.00,16224.00,-2400.00
65050,7578.00,376.00,-1462.00,440.00,8948.00,16188.00,-2384.00
65106,5521.00,-166.00,-1144.00,172.00,9632.00,15096.00,-2416.00
65164,4353.00,206.00,-1349.00,908.00,10216.00,15580.00,-2400.00
65220,1245.00,-1277.00,484.00,76.00,10296.00,15116.00,-2384.00
65276,-2331.00,215.00,-235.00,588.00,10284.00,15140.00,-2432.00
65334,-6998.00,1231.00,-1396.00,172.00,9784.00,15716.00,-2432.00
65390,-9625.00,888.00,-580.00,-376.00,9168.00,15900.00,-2400.00
65446,-12600.00,1536.00,6.00,64.00,7564.00,16600.00,-2432.00
65504,-14432.00,-363.00,-817.00,176.00,6336.00,16972.00,-2416.00
65560,-12742.00,-6500.00,696.00,556.00,4552.00,17940.00,-2416.00
65616,-13776.00,-1482.00,1016.00,132.00,2788.00,17728.00,-2416.00
65674,-12784.00,-3846.00,897.00,604.00,1208.00,18312.00,-2400.00
65730,-12499.00,-381.00,-149.00,1380.00,-600.00,18348.00,-2400.00
65787,-11018.00,-1817.00,-918.00,832.00,-2104.00,18764.00,-2400.00
65844,-7901.00,-712.00,-664.00,1540.00,-2816.00,17584.00,-2432.00
65900,-7284.00,-387.00,-308.00,1604.00,-3416.00,17892.00,-2416.00
65957,-6500.00,1352.00,116.00,1428.00,-4848.00,17792.00,-2432.00
66014,-5520.00,1197.00,-1440.00,1128.00,-5748.00,17540.00,-2416.00
66070,-9381.00,-742.00,-1196.00,944.00,-6596.00,17036.00,-2416.00
66127,-9960.00,-986.00,-157.00,1548.00,-7092.00,16348.00,-2416.00
66184,-5104.00,-39.00,488.00,1384.00,-8340.00,15888.00,-2416.00
66240,-1213.00,1522.00,-242.00,1208.00,-9256.00,15860.00,-2384.00
66297,3001.00,239.00,-442.00,1428.00,-8976.00,16124.00,-2416.00
66354,7403.00,1348.00,710.00,1380.00,-8432.00,16448.00,-2416.00
66411,9810.00,1518.00,-287.00,900.00,-7440.00,16500.00,-2416.00
66467,13668.00,2002.00,1248.00,616.00,-5280.00,16864.00,-2416.00
66524,15363.00,1031.00,-449.00,668.00,-4132.00,17784.00,-2416.00
66581,15669.00,2442.00,2094.00,280.00,-2040.00,18200.00,-2464.00
66637,15804.00,-768.00,-503.00,64.00,-108.00,18948.00,-2432.00
66694,14507.00,265.00,281.00,196.00,1748.00,18244.00,-2416.00
66751,13100.00,-449.00,-108.00,300.00,3340.00,18340.00,-2448.00
66807,10951.00,-602.00,324.00,548.00,4872.00,17460.00,-2416.00
66864,12273.00,-161.00,-1123.00,300.00,5976.00,17228.00,-2416.00
66921,12563.00,-941.00,-945.00,372.00,7400.00,16588.00,-2416.00
66977,11379.00,-1393.00,633.00,588.00,8712.00,15428.00,-2432.00
67035,9811.00,601.00,-1434.00,596.00,9996.00,15280.00,-2448.00
67091,6463.00,324.00,-206.00,600.00,10948.00,14572.00,-2432.00
67147,3480.00,-620.00,-230.00,588.00,11520.00,14680.00,-2400.00
67205,-1806.00,6.00,-111.00,544.00,11716.00,14792.00,-2432.00
67261,-6121.00,996.00,-2140.00,468.00,10892.00,14272.00,-2448.00
67317,-9426.00,49.00,-661.00,120.00,10428.00,15040.00,-2416.00
67374,-11674.00,-75.00,-918.00,-584.00,8824.00,15992.00,-2432.00
67431,-14815.00,-274.00,-523.00,680.00,8012.00,16148.00,-2432.00
67487,-16551.00,-1144.00,1155.00,72.00,5816.00,17048.00,-2416.00
67545,-15193.00,-1132.00,158.00,468.00,3940.00,17356.00,-2448.00
67601,-11382.00,-1772.00,-53.00,988.00,2120.00,18676.00,-2432.00
67657,-11017.00,-412.00,-226.00,940.00,856.00,18272.00,-2448.00
67715,-10837.00,-1040.00,-212.00,748.00,-512.00,17992.00,-2448.00
67771,-13328.00,68.00,-455.00,972.00,-2168.00,18092.00,-2432.00
67827,-12897.00,259.00,183.00,1104.00,-3844.00,18008.00,-2432.00
67885,-11519.00,702.00,299.00,1020.00,-5432.00,17720.00,-2432.00
67941,-6864.00,927.00,-68.00,900.00,-6076.00,16720.00,-2432.00
67997,-8917.00,734.00,-252.00,676.00,-7316.00,16920.00,-2448.00
68055,-10783.00,-758.00,-2209.00,548.00,-8256.00,15908.00,-2480.00
68111,-7215.00,649.00,-211.00,808.00,-9448.00,15352.00,-2448.00
68167,-1306.00,-425.00,-395.00,816.00,-10468.00,15328.00,-2432.00
68225,2495.00,587.00,269.00,440.00,-10332.00,15180.00,-2416.00
68281,7808.00,467.00,-54.00,420.00,-9676.00,15136.00,-2432.00
68337,11545.00,914.00,397.00,572.00,-8036.00,15932.00,-2416.00
68393,13881.00,-396.00,796.00,564.00,-6700.00,16768.00,-2384.00
68451,13576.00,674.00,1564.00,532.00,-5088.00,17696.00,-2432.00
68507,14431.00,-139.00,1269.00,500.00,-3156.00,17748.00,-2400.00
68564,13716.00,21.00,2197.00,180.00,-1712.00,18476.00,-2432.00
68621,13213.00,-1565.00,-506.00,696.00,-196.00,18616.00,-2432.00
68677,14767.00,-1600.00,-1542.00,988.00,1772.00,18104.00,-2432.00
68734,14057.00,29.00,1143.00,1216.00,3756.00,17392.00,-2432.00
68791,15581.00,-346.00,-1095.00,968.00,5576.00,17660.00,-2432.00
68847,14240.00,173.00,-698.00,1052.00,7088.00,16608.00,-2432.00
68904,11257.00,-112.00,-492.00,904.00,8496.00,15836.00,-2448.00
68961,9652.00,-1770.00,269.00,976.00,9508.00,15384.00,-2432.00
69018,10228.00,397.00,-1302.00,848.00,10476.00,14628.00,-2432.00
69074,10678.00,76.00,-417.00,1064.00,11732.00,13936.00,-2432.00
69131,7189.00,-271.00,-381.00,836.00,12520.00,13388.00,-2416.00
69188,2569.00,12.00,-201.00,716.00,12888.00,13284.00,-2464.00
69244,-3299.00,800.00,-996.00,700.00,13184.00,13024.00,-2448.00
69301,-6077.00,612.00,342.00,644.00,12196.00,13148.00,-2448.00
69358,-9445.00,1832.00,-1273.00,648.00,11644.00,14016.00,-2416.00
69414,-14279.00,3193.00,149.00,536.00,10128.00,14448.00,-2448.00
69471,-13179.00,497.00,-224.00,60.00,8928.00,15148.00,-2432.00
69528,-11975.00,1699.00,-463.00,208.00,7796.00,16712.00,-2416.00
69584,-12693.00,-84.00,-124.00,-204.00,5948.00,17268.00,-2416.00
69641,-12928.00,430.00,-445.00,164.00,4700.00,17640.00,-2432.00
69698,-15010.00,-476.00,84.00,-232.00,2668.00,18548.00,-2464.00
69754,-14656.00,242.00,-676.00,120.00,1224.00,17820.00,-2448.00
69811,-13848.00,-427.00,-612.00,68.00,-676.00,18368.00,-2432.00
69868,-11873.00,435.00,-343.00,276.00,-2056.00,18480.00,-2448.00
69924,-10817.00,80.00,-447.00,-384.00,-3916.00,17652.00,-2448.00
69981,-12161.00,212.00,-235.00,0.00,-4980.00,17908.00,-2432.00
70038,-10052.00,-89.00,-789.00,624.00,-6520.00,17312.00,-2448.00
70094,-6232.00,1061.00,493.00,-700.00,-7696.00,16552.00,-2432.00
70151,-6207.00,491.00,-1335.00,-40.00,-8556.00,16660.00,-2432.00
70208,-7450.00,-2593.00,-524.00,176.00,-8640.00,15360.00,-2448.00
70264,-6535.00,870.00,-83.00,-20.00,-9516.00,15140.00,-2448.00
70321,-2441.00,605.00,487.00,-160.00,-10748.00,14508.00,-2464.00
70377,6269.00,286.00,146.00,-12.00,-10368.00,14708.00,-2416.00
70434,13419.00,1415.00,731.00,-116.00,-8820.00,15500.00,-2448.00
70491,18657.00,-1002.00,945.00,184.00,-7616.00,16840.00,-2480.00
70547,19416.00,-865.00,-791.00,-112.00,-5128.00,17760.00,-2448.00
70604,17764.00,370.00,-119.00,-160.00,-2428.00,18180.00,-2448.00
70661,18362.00,374.00,546.00,-200.00,-504.00,18476.00,-2416.00
70717,19952.00,-275.00,-729.00,100.00,1732.00,17940.00,-2464.00
70774,18615.00,-2055.00,61.00,-340.00,4380.00,17932.00,-2416.00
70831,15704.00,-950.00,-963.00,128.00,6444.00,17204.00,-2416.00
70887,13929.00,-609.00,-344.00,-52.00,8132.00,16040.00,-2464.00
70944,12956.00,-1221.00,122.00,8.00,9284.00,15476.00,-2432.00
71001,13121.00,-455.00,-304.00,116.00,10784.00,14948.00,-2448.00
71057,12286.00,-954.00,482.00,372.00,12292.00,13816.00,-2448.00
71114,11301.00,-150.00,-138.00,560.00,13048.00,12464.00,-2448.00
71171,7225.00,546.00,-1069.00,456.00,13848.00,11804.00,-2448.00
71228,-2458.00,-7301.00,154.00,1384.00,13336.00,5784.00,-2448.00
71284,-6450.00,563.00,-640.00,204.00,13452.00,11676.00,-2448.00
71341,-9654.00,1928.00,-1034.00,388.00,13116.00,13044.00,-2448.00
71398,-12523.00,668.00,-257.00,-76.00,11844.00,13720.00,-2416.00
71454,-14021.00,465.00,-147.00,632.00,10792.00,14808.00,-2480.00
71512,-12984.00,231.00,112.00,76.00,9068.00,15196.00,-2480.00
71568,-14143.00,-85.00,872.00,-124.00,7528.00,16884.00,-2432.00
71624,-13800.00,1250.00,-669.00,668.00,6464.00,17196.00,-2464.00
71681,-14888.00,28.00,1012.00,-504.00,4180.00,18168.00,-2432.00
71738,-14280.00,360.00,-346.00,152.00,2616.00,17940.00,-2432.00
71794,-14960.00,156.00,379.00,-148.00,736.00,17896.00,-2448.00
71851,-14281.00,79.00,-120.00,-272.00,-976.00,17816.00,-2448.00
71908,-13553.00,208.00,-158.00,108.00,-2224.00,18380.00,-2464.00
71964,-12345.00,-22.00,-626.00,-248.00,-4560.00,17600.00,-2448.00
72020,-12061.00,-842.00,-991.00,-24.00,-5516.00,17020.00,-2448.00
72078,-13404.00,-378.00,-137.00,-140.00,-7024.00,16636.00,-2464.00
72134,-8333.00,-254.00,-573.00,-180.00,-9072.00,15784.00,-2464.00
72190,-4579.00,-823.00,-260.00,396.00,-9552.00,15568.00,-2448.00
72248,-2759.00,78.00,-443.00,-352.00,-9836.00,14592.00,-2432.00
72304,3256.00,90.00,65.00,340.00,-10108.00,15040.00,-2448.00
72360,8231.00,193.00,297.00,136.00,-9452.00,15824.00,-2432.00
72417,12141.00,497.00,1163.00,144.00,-7972.00,16628.00,-2448.00
72474,12921.00,941.00,2003.00,-264.00,-6700.00,16956.00,-2416.00
72530,13705.00,-814.00,546.00,-108.00,-4972.00,17324.00,-2416.00
72587,13540.00,-372.00,1503.00,248.00,-3200.00,18064.00,-2464.00
72644,16227.00,-499.00,1180.00,-528.00,-1492.00,18144.00,-2416.00
72700,15650.00,146.00,304.00,168.00,520.00,18264.00,-2480.00
72758,15399.00,-1472.00,240.00,140.00,2728.00,18352.00,-2464.00
72814,14718.00,-759.00,104.00,-236.00,4232.00,18020.00,-2464.00
72870,12300.00,-289.00,-732.00,248.00,5936.00,17520.00,-2432.00
72928,11435.00,-136.00,-5.00,364.00,7328.00,16916.00,-2448.00
72984,9802.00,53.00,-96.00,444.00,8508.00,16344.00,-2464.00
73040,11588.00,-109.00,-7.00,380.00,9648.00,15344.00,-2464.00
73097,10985.00,-194.00,-25.00,276.00,10504.00,14812.00,-2448.00
73154,8043.00,927.00,-977.00,92.00,11952.00,15136.00,-2480.00
73210,72.00,38.00,447.00,84.00,12212.00,14044.00,-2496.00
73267,-6286.00,1260.00,-593.00,92.00,11664.00,14148.00,-2464.00
73323,-9756.00,1204.00,-340.00,196.00,10832.00,14648.00,-2448.00
73380,-14017.00,1526.00,-231.00,-76.00,9588.00,15288.00,-2464.00
73437,-17347.00,78.00,-405.00,-60.00,7876.00,16516.00,-2448.00
73493,-17096.00,1837.00,-13.00,-748.00,6204.00,16188.00,-2464.00
73550,-16515.00,-303.00,-1019.00,-84.00,3924.00,18348.00,-2464.00
73607,-14706.00,-949.00,-30.00,-716.00,1848.00,18172.00,-2464.00
73663,-13212.00,-223.00,-1096.00,-376.00,-28.00,18764.00,-2480.00
73720,-12019.00,-1099.00,-573.00,-40.00,-1208.00,17492.00,-2448.00
73777,-10720.00,-771.00,-1118.00,-268.00,-2804.00,18308.00,-2464.00
73833,-11120.00,-2059.00,-1541.00,140.00,-4416.00,17784.00,-2464.00
73890,-11631.00,-941.00,-737.00,284.00,-5472.00,17696.00,-2448.00
73947,-8386.00,-1445.00,-1080.00,800.00,-6740.00,16896.00,-2448.00
74004,-7715.00,-334.00,-361.00,780.00,-7300.00,16848.00,-2448.00
74060,-7305.00,-1578.00,-941.00,1456.00,-8500.00,16284.00,-2432.00
74117,-7713.00,194.00,-53.00,1080.00,-9536.00,15716.00,-2480.00
74174,-10008.00,-118.00,-180.00,944.00,-10568.00,14824.00,-2432.00
74230,-7497.00,-495.00,-856.00,784.00,-11212.00,13556.00,-2464.00
74287,-1168.00,61.00,-793.00,1104.00,-11812.00,13448.00,-2464.00
74344,3705.00,208.00,675.00,856.00,-11940.00,13380.00,-2464.00
74400,10273.00,840.00,284.00,1700.00,-10896.00,14268.00,-2464.00
74457,13976.00,1221.00,1547.00,460.00,-9272.00,14836.00,-2464.00
74514,15955.00,274.00,-162.00,1160.00,-7900.00,16236.00,-2464.00
74570,13886.00,628.00,1006.00,584.00,-6324.00,17284.00,-2448.00
74628,12357.00,299.00,60.00,500.00,-4620.00,18004.00,-2480.00
74684,12905.00,1038.00,2117.00,692.00,-3124.00,18616.00,-2464.00
74740,15693.00,58.00,-96.00,92.00,-1836.00,18464.00,-2480.00
74798,15278.00,-370.00,287.00,272.00,688.00,18088.00,-2464.00
74854,16016.00,-74.00,-470.00,428.00,2416.00,18476.00,-2448.00
74910,14184.00,-577.00,-253.00,816.00,4352.00,17780.00,-2432.00
74967,13258.00,-1705.00,-191.00,472.00,5636.00,18508.00,-2432.00
75024,9380.00,-2.00,-192.00,744.00,7228.00,17060.00,-2464.00
75080,7949.00,-9.00,186.00,1112.00,8152.00,16392.00,-2432.00
75137,7887.00,-381.00,-364.00,612.00,8756.00,16156.00,-2448.00
75194,7808.00,807.00,-726.00,836.00,9600.00,15456.00,-2464.00
75250,4574.00,115.00,-307.00,592.00,10424.00,15484.00,-2464.00
75307,-3569.00,-728.00,86.00,452.00,10572.00,15908.00,-2480.00
75363,-8249.00,1044.00,-1511.00,1080.00,10296.00,15652.00,-2464.00
75420,-15134.00,-503.00,289.00,480.00,9076.00,15916.00,-2448.00
75476,-17502.00,1045.00,73.00,348.00,6788.00,16820.00,-2448.00
75534,-16980.00,1123.00,807.00,332.00,4720.00,17036.00,-2464.00
75590,-12900.00,-188.00,-1468.00,524.00,2620.00,18428.00,-2432.00
75646,-12613.00,-1154.00,-347.00,292.00,1248.00,17784.00,-2464.00
75704,-10846.00,-88.00,-665.00,940.00,-404.00,19120.00,-2480.00
75760,-12167.00,-28.00,322.00,140.00,-2016.00,18528.00,-2448.00
75816,-14748.00,-832.00,-1047.00,912.00,-3820.00,18372.00,-2464.00
75874,-16006.00,-1247.00,-293.00,976.00,-4700.00,17148.00,-2480.00
75930,-12261.00,-1683.00,-1872.00,1000.00,-6652.00,16540.00,-2448.00
75987,-13976.00,-1436.00,-1368.00,1356.00,-8508.00,15608.00,-2432.00
76044,-9891.00,-620.00,-1041.00,1896.00,-10204.00,15316.00,-2448.00
76101,-7067.00,-399.00,-998.00,1880.00,-10956.00,14504.00,-2432.00
76157,-5874.00,-206.00,-403.00,1436.00,-11692.00,13988.00,-2432.00
76214,-6119.00,-947.00,-1433.00,1684.00,-11924.00,13144.00,-2464.00
76271,631.00,-443.00,-648.00,1880.00,-12224.00,13148.00,-2448.00
76327,8002.00,1105.00,466.00,1636.00,-11652.00,13092.00,-2448.00
76385,14927.00,2046.00,777.00,1696.00,-10816.00,14200.00,-2480.00
76441,19053.00,1770.00,1237.00,996.00,-9104.00,15580.00,-2464.00
76498,16878.00,2662.00,1063.00,876.00,-7584.00,17460.00,-2480.00
76555,14277.00,874.00,1339.00,488.00,-5140.00,17684.00,-2480.00
76611,14460.00,274.00,565.00,624.00,-3440.00,17716.00,-2432.00
76668,17184.00,753.00,183.00,1260.00,-1372.00,17920.00,-2464.00
76725,19320.00,-1906.00,-248.00,316.00,1320.00,17912.00,-2464.00
76781,21819.00,440.00,-962.00,884.00,3184.00,18260.00,-2496.00
76838,19768.00,149.00,-606.00,808.00,6120.00,17904.00,-2432.00
76895,16713.00,-62.00,916.00,988.00,7492.00,16676.00,-2480.00
76951,14429.00,345.00,127.00,500.00,9660.00,15780.00,-2480.00
77008,12271.00,-393.00,228.00,1028.00,10964.00,14436.00,-2464.00
77065,11573.00,-348.00,1093.00,1016.00,11748.00,13304.00,-2448.00
77122,6798.00,-176.00,-8.00,1104.00,13084.00,12948.00,-2432.00
77178,-3453.00,222.00,179.00,488.00,12772.00,12984.00,-2480.00
77235,-11609.00,1661.00,-764.00,1028.00,12804.00,13360.00,-2448.00
77292,-17328.00,956.00,-299.00,1340.00,11672.00,14056.00,-2448.00
77348,-19598.00,-620.00,-365.00,-188.00,9336.00,13796.00,-2496.00
77406,-18831.00,389.00,-639.00,1352.00,7288.00,17212.00,-2464.00
77462,-16238.00,-1211.00,67.00,504.00,4988.00,17164.00,-2464.00
77518,-17465.00,-531.00,-793.00,1220.00,3184.00,18328.00,-2464.00
77576,-17285.00,-721.00,138.00,960.00,972.00,18224.00,-2464.00
77632,-18825.00,386.00,-38.00,1312.00,-1616.00,18316.00,-2448.00
77688,-19454.00,-316.00,-131.00,832.00,-3800.00,18144.00,-2448.00
77746,-16763.00,403.00,-164.00,1120.00,-5844.00,17132.00,-2448.00
77802,-12262.00,1455.00,806.00,668.00,-8576.00,16384.00,-2464.00
77858,-9151.00,-102.00,-209.00,868.00,-8552.00,16028.00,-2480.00
77916,-10746.00,992.00,790.00,820.00,-10864.00,15580.00,-2464.00
77972,-7267.00,2345.00,2499.00,796.00,-9720.00,13924.00,-2464.00
78029,-16850.00,1294.00,802.00,-68.00,-12056.00,13024.00,-2464.00
78086,-12057.00,-586.00,-1476.00,-172.00,-13104.00,11164.00,-2464.00
78142,-2793.00,-284.00,11.00,372.00,-14312.00,10452.00,-2464.00
78199,7914.00,178.00,1073.00,0.00,-14108.00,10960.00,-2480.00
78256,14762.00,679.00,2195.00,696.00,-12840.00,12488.00,-2464.00
78312,16580.00,1882.00,1213.00,-740.00,-11448.00,13664.00,-2480.00
78369,13677.00,-731.00,1204.00,-456.00,-10144.00,14936.00,-2432.00
78426,15063.00,-1973.00,-797.00,332.00,-8588.00,15728.00,-2464.00
78483,18671.00,-2363.00,278.00,-164.00,-5936.00,17080.00,-2464.00
78539,18574.00,-234.00,1402.00,132.00,-4384.00,18036.00,-2464.00
78596,19677.00,-891.00,-1124.00,-108.00,-1704.00,17908.00,-2464.00
78653,17624.00,-500.00,111.00,796.00,756.00,18380.00,-2464.00
78709,17342.00,-799.00,-921.00,320.00,2740.00,17908.00,-2480.00
78766,14467.00,-858.00,-739.00,400.00,4220.00,17060.00,-2480.00
78823,15397.00,-416.00,-794.00,568.00,6376.00,16844.00,-2464.00
78879,14787.00,-814.00,-809.00,-280.00,8516.00,15984.00,-2496.00
78937,13796.00,-1632.00,-540.00,-20.00,9724.00,14292.00,-2432.00
78993,9705.00,-519.00,201.00,1064.00,10852.00,14792.00,-2480.00
79049,3538.00,-122.00,-99.00,380.00,11352.00,14560.00,-2480.00
79107,-2718.00,1369.00,-946.00,320.00,11548.00,14696.00,-2464.00
79163,-9086.00,770.00,685.00,756.00,11036.00,13860.00,-2464.00
79219,-12959.00,965.00,-12.00,1128.00,9820.00,15996.00,-2464.00
79277,-16326.00,-80.00,157.00,196.00,8116.00,16632.00,-2480.00
79333,-16029.00,461.00,151.00,436.00,6368.00,16316.00,-2464.00
79389,-15765.00,454.00,-272.00,492.00,4356.00,18412.00,-2464.00
79447,-15654.00,-83.00,391.00,244.00,2408.00,17916.00,-2480.00
79503,-16372.00,-489.00,-796.00,832.00,552.00,17980.00,-2464.00
79559,-15097.00,-531.00,-1433.00,836.00,-1392.00,18640.00,-2480.00
79617,-13389.00,239.00,102.00,772.00,-2788.00,17936.00,-2480.00
79673,-13388.00,-85.00,-925.00,280.00,-5244.00,17664.00,-2448.00
79729,-13456.00,-508.00,-100.00,364.00,-6120.00,16404.00,-2464.00
79787,-14978.00,-53.00,-442.00,488.00,-8448.00,16032.00,-2464.00
79843,-14728.00,512.00,1657.00,316.00,-8616.00,15176.00,-2448.00
79899,-11730.00,-574.00,-437.00,820.00,-12312.00,14288.00,-2480.00
79956,-9527.00,-279.00,-239.00,684.00,-12136.00,12944.00,-2464.00
80013,-6172.00,108.00,107.00,956.00,-13056.00,12388.00,-2432.00
80069,-1942.00,-226.00,-301.00,340.00,-13896.00,11460.00,-2464.00
80126,5218.00,-267.00,-793.00,508.00,-13496.00,11668.00,-2464.00
80183,13543.00,363.00,1289.00,400.00,-12948.00,12528.00,-2480.00
80239,19103.00,-577.00,707.00,296.00,-10848.00,13888.00,-2480.00
80296,20639.00,755.00,1622.00,-156.00,-8348.00,15988.00,-2480.00
80353,19671.00,57.00,1846.00,100.00,-6456.00,16892.00,-2480.00
80410,20258.00,-1885.00,-1119.00,516.00,-4244.00,17896.00,-2448.00
80466,21032.00,-1499.00,-1105.00,248.00,-1592.00,17920.00,-2480.00
80523,19849.00,-1901.00,-1135.00,756.00,1044.00,18196.00,-2464.00
80580,19063.00,-194.00,-1804.00,1420.00,3236.00,18208.00,-2464.00
80636,17262.00,-613.00,-33.00,1000.00,5512.00,18096.00,-2464.00
80694,14093.00,-254.00,-834.00,928.00,7496.00,16424.00,-2464.00
80750,13785.00,62.00,-500.00,896.00,8496.00,15316.00,-2480.00
80806,13703.00,-716.00,-314.00,956.00,10192.00,14980.00,-2464.00
80864,14539.00,-885.00,-501.00,736.00,11692.00,13864.00,-2432.00
80920,7159.00,-602.00,-506.00,516.00,12608.00,13808.00,-2464.00
80976,-1509.00,877.00,426.00,864.00,12676.00,13012.00,-2496.00
81034,-4576.00,1489.00,-1310.00,904.00,12204.00,13056.00,-2448.00
81090,-9424.00,162.00,721.00,636.00,11424.00,13872.00,-2464.00
81146,-12218.00,1373.00,-1854.00,848.00,10780.00,14788.00,-2448.00
81204,-16391.00,-327.00,333.00,560.00,9224.00,15504.00,-2464.00
81260,-18873.00,-594.00,-543.00,428.00,7528.00,16556.00,-2496.00
81317,-19600.00,-257.00,241.00,1048.00,5276.00,17480.00,-2480.00
81374,-20484.00,-428.00,209.00,500.00,2608.00,18288.00,-2448.00
81430,-17915.00,746.00,266.00,1268.00,496.00,18224.00,-2464.00
81487,-16276.00,791.00,-500.00,396.00,-2296.00,17688.00,-2464.00
81544,-15021.00,-666.00,-940.00,1080.00,-4000.00,17740.00,-2464.00
81600,-19986.00,267.00,-1037.00,668.00,-6424.00,17140.00,-2464.00
81657,-14537.00,-868.00,-473.00,1020.00,-7956.00,15668.00,-2464.00
81714,-12872.00,685.00,78.00,796.00,-9748.00,14908.00,-2464.00
81771,-8388.00,-593.00,-655.00,668.00,-10716.00,14428.00,-2464.00
81827,-9832.00,23.00,-125.00,1628.00,-11344.00,14004.00,-2480.00
81884,-9622.00,395.00,199.00,884.00,-12840.00,12904.00,-2480.00
81941,-9033.00,-405.00,-1493.00,940.00,-13276.00,11732.00,-2464.00
81997,-4979.00,-657.00,-1910.00,616.00,-14180.00,10500.00,-2464.00
82054,4025.00,-608.00,-2675.00,1644.00,-14192.00,10804.00,-2464.00
82111,8620.00,2325.00,600.00,1712.00,-13240.00,11676.00,-2480.00
82167,17952.00,1203.00,1767.00,1264.00,-12256.00,12684.00,-2448.00
82225,20073.00,1612.00,2836.00,800.00,-10300.00,14636.00,-2464.00
82281,24288.00,1544.00,2957.00,1272.00,-7476.00,16420.00,-2480.00
82338,26295.00,2159.00,2398.00,552.00,-4596.00,17208.00,-2480.00
82395,25448.00,3393.00,4006.00,-892.00,-1712.00,17524.00,-2496.00
82452,23081.00,611.00,1869.00,76.00,1300.00,18656.00,-2464.00
82508,21225.00,473.00,1040.00,-356.00,3964.00,18172.00,-2480.00
82565,19571.00,-377.00,291.00,-664.00,6760.00,17488.00,-2480.00
82622,15440.00,-1224.00,-262.00,-492.00,8280.00,16252.00,-2480.00
82678,18090.00,169.00,-536.00,92.00,10028.00,14788.00,-2480.00
82735,16229.00,-1600.00,-556.00,-672.00,11328.00,13576.00,-2480.00
82792,13785.00,1568.00,-2472.00,-192.00,12728.00,11552.00,-2480.00
82848,11067.00,-806.00,893.00,-348.00,14336.00,11596.00,-2464.00
82906,2582.00,-682.00,-761.00,-848.00,14592.00,10576.00,-2464.00
82962,-6240.00,-486.00,-183.00,-748.00,14244.00,10804.00,-2480.00
83018,-11251.00,-2069.00,-770.00,-368.00,13684.00,11328.00,-2464.00
83076,-14918.00,-2349.00,1270.00,-76.00,12844.00,12264.00,-2480.00
83132,-15459.00,-2293.00,1582.00,660.00,11652.00,14652.00,-2480.00
83189,-16342.00,-2168.00,1259.00,652.00,9680.00,14068.00,-2464.00
83246,-12855.00,-408.00,525.00,976.00,8140.00,17040.00,-2464.00
83303,-14082.00,2.00,262.00,636.00,6452.00,16616.00,-2464.00
83359,-15475.00,601.00,1222.00,904.00,5172.00,18216.00,-2496.00
83416,-17378.00,732.00,-204.00,888.00,2912.00,18052.00,-2496.00
83473,-16798.00,517.00,327.00,1008.00,1240.00,18300.00,-2432.00
83529,-17136.00,-91.00,-904.00,888.00,-1620.00,18344.00,-2496.00
83586,-18889.00,477.00,142.00,512.00,-2980.00,17504.00,-2480.00
83643,-17485.00,317.00,176.00,68.00,-5936.00,17348.00,-2464.00
83699,-7104.00,-1400.00,-481.00,60.00,-6720.00,15940.00,-2448.00
83756,-5950.00,-696.00,-116.00,1156.00,-7904.00,16180.00,-2480.00
83812,-4984.00,-1084.00,-1433.00,1024.00,-8744.00,16388.00,-2464.00
83869,-10078.00,-553.00,-341.00,1252.00,-9448.00,16144.00,-2448.00
83926,-10599.00,-171.00,-258.00,1176.00,-11016.00,15228.00,-2448.00
83983,-11586.00,-610.00,-703.00,936.00,-10868.00,13324.00,-2480.00
84039,-5278.00,-272.00,-595.00,780.00,-12268.00,12312.00,-2464.00
84097,2472.00,-88.00,-1324.00,920.00,-13560.00,12404.00,-2464.00
84153,11538.00,1076.00,-1035.00,952.00,-11712.00,12896.00,-2464.00
84209,15635.00,2445.00,920.00,1688.00,-10284.00,14792.00,-2496.00
84267,21740.00,2275.00,3002.00,264.00,-8644.00,15724.00,-2464.00
84323,22195.00,1490.00,1139.00,972.00,-6164.00,17772.00,-2448.00
84380,23104.00,-211.00,1049.00,-56.00,-3148.00,17252.00,-2448.00
84436,23354.00,882.00,1532.00,652.00,96.00,18164.00,-2448.00
84493,22249.00,-1317.00,180.00,-104.00,2764.00,17968.00,-2464.00
84550,20037.00,-253.00,-465.00,716.00,4916.00,18120.00,-2432.00
84606,16714.00,967.00,-286.00,112.00,7184.00,16780.00,-2448.00
84663,15381.00,-1898.00,26.00,104.00,9016.00,15652.00,-2480.00
84720,13331.00,-397.00,-483.00,724.00,10404.00,15040.00,-2464.00
84776,12389.00,1292.00,-137.00,584.00,11452.00,13556.00,-2464.00
84834,10165.00,-109.00,1407.00,448.00,11816.00,12120.00,-2480.00
84890,7610.00,-1027.00,1416.00,416.00,13536.00,12896.00,-2448.00
84946,-1722.00,330.00,-315.00,980.00,14016.00,12660.00,-2496.00
85004,-8066.00,-990.00,29.00,152.00,12828.00,11952.00,-2448.00
85060,-12581.00,378.00,-894.00,1148.00,12916.00,14332.00,-2464.00
85116,-17639.00,-2309.00,-186.00,380.00,11080.00,14168.00,-2448.00
85174,-15027.00,504.00,133.00,1364.00,9328.00,15908.00,-2464.00
85230,-14996.00,-424.00,476.00,676.00,7328.00,16588.00,-2464.00
85287,-12239.00,372.00,-24.00,1064.00,5684.00,17752.00,-2464.00
85344,-11886.00,-1078.00,505.00,880.00,4472.00,18236.00,-2448.00
85400,-12007.00,-400.00,180.00,1140.00,3088.00,18500.00,-2480.00
85457,-14856.00,-71.00,802.00,876.00,1308.00,18240.00,-2480.00
85514,-15769.00,-1563.00,-529.00,1052.00,-760.00,18424.00,-2464.00
85570,-18133.00,-224.00,-98.00,1504.00,-2584.00,18492.00,-2464.00
85627,-21845.00,1498.00,821.00,1236.00,-4512.00,17796.00,-2464.00
85684,-17536.00,-383.00,-465.00,1412.00,-6520.00,16760.00,-2448.00
85741,-12612.00,536.00,708.00,732.00,-9236.00,14868.00,-2480.00
85797,-8472.00,-626.00,-1927.00,1320.00,-10648.00,14876.00,-2464.00
85854,-10757.00,153.00,-901.00,2068.00,-11712.00,14224.00,-2480.00
85911,-10147.00,1265.00,737.00,824.00,-12316.00,12568.00,-2432.00
85967,-3785.00,-604.00,-843.00,1136.00,-13648.00,11592.00,-2464.00
86025,5747.00,769.00,-988.00,1504.00,-13280.00,12088.00,-2464.00
86081,11348.00,1090.00,719.00,1352.00,-12392.00,13108.00,-2496.00
86138,13784.00,968.00,745.00,1172.00,-11268.00,14072.00,-2480.00
86195,18320.00,582.00,671.00,984.00,-9056.00,14824.00,-2432.00
86251,21357.00,-895.00,-777.00,660.00,-7292.00,17076.00,-2496.00
86308,21715.00,-537.00,-818.00,1348.00,-4344.00,17176.00,-2480.00
86365,20136.00,1742.00,1367.00,1060.00,-2324.00,18632.00,-2480.00
86422,21283.00,1527.00,543.00,528.00,884.00,17892.00,-2464.00
86478,18549.00,40.00,-1.00,716.00,3080.00,18952.00,-2448.00
86535,17735.00,-652.00,-78.00,492.00,5080.00,17848.00,-2448.00
86591,15214.00,418.00,-793.00,1220.00,7304.00,16560.00,-2464.00
86648,21781.00,2593.00,612.00,884.00,9080.00,13340.00,-2496.00
86705,17524.00,-1832.00,114.00,-420.00,11468.00,15800.00,-2496.00
86762,17897.00,641.00,-1377.00,800.00,12800.00,13344.00,-2464.00
86818,9344.00,-893.00,221.00,708.00,14288.00,12116.00,-2480.00
86875,-378.00,566.00,-484.00,452.00,14600.00,12264.00,-2496.00
86932,-9096.00,93.00,-208.00,464.00,13680.00,11440.00,-2448.00
86988,-11278.00,459.00,-721.00,200.00,12988.00,12744.00,-2464.00
87045,-14051.00,1050.00,335.00,816.00,12168.00,14140.00,-2432.00
87102,-12926.00,100.00,-864.00,200.00,10424.00,14156.00,-2464.00
87158,-13810.00,-187.00,454.00,228.00,8932.00,15932.00,-2464.00
87215,-14208.00,-1037.00,-622.00,1096.00,7732.00,16232.00,-2496.00
87272,-15916.00,-795.00,-123.00,444.00,5600.00,17448.00,-2464.00
87328,-17598.00,-6.00,-286.00,180.00,3876.00,17900.00,-2496.00
87385,-18226.00,-1387.00,-544.00,1000.00,1524.00,18840.00,-2448.00
87442,-19111.00,-451.00,-522.00,228.00,-792.00,18476.00,-2480.00
87498,-18275.00,-693.00,-679.00,1192.00,-2952.00,18176.00,-2464.00
87556,-13020.00,-286.00,135.00,756.00,-5380.00,17044.00,-2448.00
87612,-7232.00,-791.00,-1178.00,1188.00,-6496.00,17332.00,-2496.00
87668,-6122.00,-621.00,-511.00,1076.00,-7324.00,16888.00,-2464.00
87726,-6595.00,-992.00,-1227.00,1168.00,-8160.00,16572.00,-2464.00
87782,-6836.00,52.00,378.00,1300.00,-8252.00,15820.00,-2496.00
87838,-3466.00,-186.00,-885.00,1260.00,-9412.00,15436.00,-2464.00
87896,881.00,85.00,-643.00,1216.00,-9284.00,15412.00,-2448.00
87952,1559.00,944.00,541.00,2392.00,-9888.00,16484.00,-2464.00
88008,865.00,-8838.00,2269.00,388.00,-4420.00,15812.00,-2480.00
88066,7627.00,3969.00,-1429.00,-552.00,-11832.00,9168.00,-2432.00
88122,15845.00,1861.00,801.00,260.00,-5720.00,22956.00,-2480.00
88178,10166.00,1444.00,-1422.00,-944.00,-4640.00,17392.00,-2496.00
88236,8266.00,4263.00,-911.00,724.00,-4512.00,17712.00,-2480.00
88292,10781.00,1014.00,-131.00,364.00,-3396.00,19720.00,-2464.00
88349,11057.00,3340.00,702.00,316.00,-2976.00,17336.00,-2464.00
88406,8026.00,1311.00,1910.00,-864.00,-1724.00,17624.00,-2448.00
88462,5814.00,129.00,228.00,-1860.00,740.00,20712.00,-2448.00
88519,7120.00,3049.00,-1963.00,-1420.00,-152.00,15992.00,-2464.00
88576,3312.00,525.00,-730.00,-1884.00,2620.00,20128.00,-2464.00
88632,1462.00,-619.00,-969.00,-984.00,1156.00,17400.00,-2480.00
88689,3483.00,2361.00,-455.00,-1176.00,1476.00,18184.00,-2496.00
88745,145.00,-2542.00,549.00,-1436.00,1988.00,18408.00,-2464.00
88802,1994.00,276.00,-106.00,-1412.00,1884.00,18120.00,-2480.00
88859,-839.00,-2187.00,340.00,-1564.00,3204.00,19668.00,-2480.00
88915,-284.00,-506.00,795.00,-692.00,1776.00,17940.00,-2464.00
88972,435.00,-696.00,-539.00,-1344.00,1792.00,17932.00,-2496.00
89029,-538.00,-715.00,313.00,-780.00,2056.00,18364.00,-2496.00
