t,gx,gy,gz,ax,ay,az,temp
3,750.00,1154.00,-1390.00,760.00,316.00,18688.00,-1648.00
59,949.00,2596.00,99.00,232.00,-68.00,18260.00,-1600.00
115,-845.00,1123.00,878.00,512.00,-116.00,18516.00,-1600.00
172,232.00,599.00,41.00,48.00,512.00,18792.00,-1584.00
228,909.00,232.00,309.00,120.00,804.00,18676.00,-1552.00
284,-281.00,698.00,-57.00,-772.00,-128.00,18836.00,-1568.00
340,-1046.00,-1416.00,673.00,384.00,-356.00,19520.00,-1568.00
397,-485.00,2544.00,-281.00,-496.00,28.00,18060.00,-1504.00
453,299.00,86.00,375.00,-204.00,-108.00,18312.00,-1552.00
510,718.00,581.00,-517.00,-280.00,316.00,18736.00,-1552.00
567,571.00,-145.00,-96.00,-160.00,148.00,18424.00,-1568.00
623,335.00,102.00,-442.00,-308.00,328.00,18440.00,-1536.00
679,1607.00,-2713.00,107.00,836.00,452.00,18468.00,-1536.00
736,-692.00,-345.00,12.00,-772.00,660.00,18788.00,-1536.00
792,863.00,198.00,-79.00,240.00,752.00,18604.00,-1568.00
848,286.00,499.00,-190.00,104.00,604.00,18948.00,-1568.00
905,-233.00,-310.00,-99.00,88.00,320.00,18628.00,-1552.00
961,544.00,-113.00,9.00,-348.00,64.00,18132.00,-1584.00
1017,71.00,671.00,-383.00,-308.00,460.00,18552.00,-1568.00
1074,220.00,-713.00,318.00,-312.00,652.00,18528.00,-1552.00
1130,120.00,365.00,-283.00,12.00,524.00,18708.00,-1568.00
1186,341.00,-6.00,-209.00,-192.00,444.00,18284.00,-1600.00
1243,160.00,312.00,-332.00,-536.00,336.00,18196.00,-1616.00
1300,206.00,-7.00,199.00,-1020.00,48.00,18472.00,-1568.00
1356,-194.00,-129.00,-121.00,-312.00,280.00,18680.00,-1568.00
1413,-760.00,768.00,362.00,92.00,644.00,19044.00,-1584.00
1469,-1479.00,773.00,-914.00,-1508.00,784.00,18872.00,-1568.00
1525,-1015.00,-323.00,-890.00,344.00,388.00,18900.00,-1600.00
1582,-395.00,-1763.00,-7.00,76.00,492.00,16204.00,-1552.00
1638,-942.00,11610.00,517.00,980.00,172.00,18512.00,-1584.00
1695,740.00,3771.00,-1722.00,-1012.00,172.00,18468.00,-1616.00
1752,1181.00,-915.00,-1795.00,-904.00,-100.00,17260.00,-1584.00
1808,444.00,360.00,-3197.00,-1156.00,156.00,18976.00,-1552.00
1864,821.00,-6164.00,-1301.00,1264.00,188.00,19400.00,-1552.00
1922,-290.00,-289.00,153.00,344.00,-296.00,17572.00,-1568.00
1978,1142.00,2280.00,-671.00,264.00,268.00,19276.00,-1584.00
2034,1299.00,1446.00,-288.00,-280.00,732.00,18828.00,-1584.00
2091,-17.00,1942.00,231.00,120.00,516.00,18748.00,-1552.00
2147,547.00,-107.00,287.00,-332.00,812.00,19020.00,-1552.00
2204,-764.00,1200.00,-184.00,-616.00,604.00,18376.00,-1536.00
2260,-69.00,603.00,-68.00,-644.00,392.00,18104.00,-1536.00
2317,-1554.00,-817.00,421.00,12.00,484.00,18684.00,-1504.00
2373,-247.00,1844.00,-245.00,-748.00,540.00,17600.00,-1552.00
2429,-86.00,1340.00,-119.00,-1364.00,344.00,17916.00,-1520.00
2486,330.00,586.00,-173.00,-712.00,396.00,18208.00,-1552.00
2542,3.00,-778.00,389.00,-968.00,92.00,17968.00,-1536.00
2598,865.00,540.00,-427.00,-672.00,308.00,18172.00,-1568.00
2656,375.00,-355.00,139.00,-1036.00,308.00,18160.00,-1568.00
2712,1542.00,553.00,-290.00,-608.00,944.00,17152.00,-1552.00
2768,-75.00,-321.00,-590.00,-1916.00,940.00,17808.00,-1552.00
2825,-419.00,-2373.00,204.00,-464.00,456.00,18728.00,-1568.00
2881,205.00,-784.00,0.00,-296.00,488.00,18544.00,-1536.00
2937,1176.00,-1138.00,-445.00,-800.00,488.00,18732.00,-1520.00
2995,-542.00,380.00,423.00,-464.00,760.00,18596.00,-1520.00
3051,-324.00,1647.00,-665.00,-172.00,504.00,18844.00,-1504.00
3107,367.00,2778.00,68.00,-52.00,800.00,19036.00,-1472.00
3164,400.00,-502.00,2520.00,-336.00,212.00,19072.00,-1456.00
3220,-446.00,-2283.00,8658.00,1004.00,776.00,19572.00,-1456.00
3277,1440.00,-991.00,1604.00,-436.00,1380.00,17504.00,-1456.00
3334,826.00,3419.00,578.00,20.00,812.00,18472.00,-1440.00
3390,655.00,-1360.00,-1241.00,360.00,664.00,18040.00,-1424.00
3446,220.00,3700.00,-723.00,264.00,764.00,18572.00,-1424.00
3503,280.00,-2656.00,-313.00,440.00,468.00,19260.00,-1424.00
3560,1105.00,941.00,422.00,736.00,612.00,18312.00,-1424.00
3616,1147.00,-1604.00,-2148.00,88.00,884.00,18304.00,-1408.00
3673,799.00,861.00,8059.00,-3308.00,-996.00,20412.00,-1424.00
3729,198.00,-2551.00,1340.00,-264.00,1708.00,18096.00,-1424.00
3786,1396.00,-795.00,-229.00,2108.00,1316.00,18896.00,-1392.00
3843,-417.00,882.00,-2185.00,1288.00,1576.00,18036.00,-1408.00
3899,-290.00,1042.00,-1104.00,880.00,972.00,18740.00,-1376.00
3956,-381.00,869.00,-1213.00,260.00,992.00,18296.00,-1408.00
4013,-328.00,-187.00,-957.00,508.00,1164.00,18352.00,-1408.00
4069,-974.00,664.00,-3403.00,1328.00,1004.00,17920.00,-1408.00
4125,521.00,-1115.00,-2006.00,8.00,684.00,17984.00,-1376.00
4182,-73.00,950.00,-4556.00,1472.00,1028.00,18604.00,-1424.00
4239,-406.00,2201.00,-6355.00,600.00,920.00,18796.00,-1392.00
4295,763.00,422.00,-8624.00,224.00,856.00,18552.00,-1424.00
4352,-423.00,1109.00,-11214.00,780.00,804.00,18972.00,-1392.00
4408,989.00,2099.00,-11284.00,-32.00,1000.00,18172.00,-1392.00
4465,1988.00,332.00,-10624.00,-268.00,1092.00,18124.00,-1392.00
4521,915.00,592.00,-12602.00,-216.00,1224.00,18396.00,-1376.00
4578,1736.00,-40.00,-9378.00,324.00,1452.00,17852.00,-1360.00
4635,2486.00,-1017.00,-8300.00,-832.00,916.00,17948.00,-1392.00
4691,-11.00,1925.00,-6925.00,-640.00,1324.00,18388.00,-1392.00
4748,778.00,246.00,-5161.00,-948.00,1040.00,18376.00,-1360.00
4804,-1842.00,1189.00,-4196.00,-536.00,1188.00,17716.00,-1360.00
4861,770.00,308.00,-2513.00,-840.00,1164.00,18388.00,-1408.00
4918,-802.00,892.00,-2474.00,-800.00,1104.00,18184.00,-1376.00
4974,31.00,-184.00,-833.00,-780.00,956.00,18244.00,-1376.00
5030,-858.00,944.00,-1213.00,-972.00,720.00,18296.00,-1392.00
5087,730.00,-581.00,114.00,-892.00,896.00,18472.00,-1376.00
5144,374.00,200.00,33.00,-908.00,968.00,18236.00,-1392.00
5200,-189.00,-490.00,2226.00,-840.00,980.00,18304.00,-1408.00
5257,-212.00,-456.00,2335.00,-724.00,940.00,18016.00,-1392.00
5313,1231.00,-1033.00,1721.00,-424.00,888.00,18324.00,-1360.00
5369,267.00,-378.00,1735.00,-600.00,1016.00,18772.00,-1360.00
5427,-326.00,-882.00,3399.00,-128.00,1320.00,18544.00,-1392.00
5483,721.00,-743.00,6779.00,-264.00,1172.00,18380.00,-1344.00
5539,553.00,-1249.00,9433.00,40.00,1660.00,18372.00,-1360.00
5596,-232.00,-609.00,12854.00,300.00,1368.00,18312.00,-1360.00
5653,-420.00,-631.00,13750.00,812.00,1720.00,18776.00,-1360.00
5709,22.00,-54.00,13808.00,628.00,1448.00,18228.00,-1360.00
5766,-498.00,-560.00,15918.00,912.00,1592.00,17964.00,-1376.00
5822,381.00,-1575.00,14675.00,1372.00,1140.00,19088.00,-1360.00
5879,716.00,206.00,12414.00,1004.00,1452.00,18744.00,-1344.00
5936,-554.00,1997.00,10101.00,1092.00,912.00,18356.00,-1360.00
5992,-895.00,854.00,9385.00,1684.00,1140.00,17996.00,-1360.00
6049,340.00,-265.00,11023.00,1772.00,1104.00,18312.00,-1344.00
6106,-428.00,95.00,11140.00,1784.00,1276.00,18396.00,-1360.00
6162,354.00,-650.00,12161.00,1584.00,1200.00,18200.00,-1328.00
6219,-1433.00,1080.00,12089.00,2428.00,1012.00,18116.00,-1344.00
6276,-85.00,-957.00,11587.00,1252.00,924.00,18376.00,-1328.00
6332,-670.00,-875.00,10751.00,2160.00,492.00,18676.00,-1360.00
6389,-80.00,-278.00,8640.00,1912.00,472.00,18848.00,-1344.00
6446,-405.00,-391.00,3857.00,1556.00,544.00,18912.00,-1344.00
6502,-409.00,-222.00,-3429.00,1376.00,588.00,18636.00,-1312.00
6558,-717.00,-1021.00,-8719.00,2396.00,528.00,19064.00,-1344.00
6616,410.00,864.00,-11653.00,2472.00,200.00,18128.00,-1328.00
6672,1.00,1091.00,-13028.00,2216.00,416.00,17880.00,-1312.00
6728,862.00,1110.00,-13230.00,2656.00,256.00,18716.00,-1376.00
6786,555.00,1152.00,-12413.00,1420.00,1184.00,18596.00,-1360.00
6842,128.00,385.00,-12879.00,992.00,800.00,18584.00,-1344.00
6898,347.00,1862.00,-16448.00,948.00,920.00,18076.00,-1344.00
6956,1039.00,1872.00,-20252.00,596.00,1028.00,19032.00,-1328.00
7012,421.00,2420.00,-21330.00,848.00,1312.00,18128.00,-1344.00
7068,-293.00,2079.00,-16830.00,560.00,1500.00,18312.00,-1328.00
7126,-1031.00,2509.00,-16773.00,64.00,916.00,18768.00,-1376.00
7182,1410.00,682.00,-16627.00,-532.00,876.00,18420.00,-1328.00
7238,2212.00,-270.00,-11195.00,-688.00,868.00,18296.00,-1344.00
7294,1353.00,266.00,-15925.00,-852.00,848.00,18760.00,-1312.00
7352,2104.00,78.00,-11005.00,-512.00,1096.00,18216.00,-1328.00
7408,3024.00,-1664.00,-4244.00,-1216.00,744.00,18536.00,-1344.00
7464,94.00,70.00,-979.00,-648.00,996.00,18584.00,-1328.00
7521,-37.00,960.00,3541.00,68.00,1284.00,18412.00,-1344.00
7578,-957.00,-248.00,8371.00,-1472.00,984.00,17980.00,-1312.00
7634,424.00,-3519.00,16931.00,228.00,1548.00,17864.00,-1312.00
7691,2129.00,-420.00,15936.00,-616.00,1324.00,18704.00,-1328.00
7748,-997.00,-194.00,20794.00,-60.00,1936.00,18636.00,-1312.00
7804,-856.00,-378.00,24210.00,-152.00,1228.00,17352.00,-1328.00
7861,-1108.00,-1386.00,20203.00,116.00,1836.00,17840.00,-1328.00
7917,-305.00,519.00,19778.00,708.00,1088.00,19032.00,-1328.00
7974,-310.00,-507.00,13260.00,1312.00,1152.00,18644.00,-1312.00
8031,434.00,-377.00,11151.00,1440.00,1156.00,18576.00,-1296.00
8087,385.00,513.00,10023.00,1592.00,964.00,18372.00,-1312.00
8144,-1119.00,-951.00,13304.00,1568.00,1408.00,17564.00,-1296.00
8201,-361.00,-31.00,14063.00,2060.00,1344.00,18324.00,-1312.00
8257,621.00,2227.00,14351.00,2016.00,1000.00,18084.00,-1328.00
8314,-1990.00,-135.00,11685.00,1588.00,352.00,18636.00,-1344.00
8371,-162.00,298.00,4679.00,2004.00,660.00,18684.00,-1328.00
8427,-168.00,-851.00,-3388.00,1932.00,152.00,19064.00,-1312.00
8484,351.00,-663.00,-10812.00,1852.00,788.00,19260.00,-1312.00
8541,750.00,-443.00,-15552.00,2360.00,380.00,17792.00,-1296.00
8597,2858.00,2782.00,-18506.00,1924.00,1036.00,18060.00,-1312.00
8654,2007.00,1150.00,-17308.00,1288.00,1404.00,18632.00,-1344.00
8711,219.00,2106.00,-16164.00,784.00,1552.00,17940.00,-1312.00
8767,-65.00,131.00,-16735.00,580.00,1552.00,18112.00,-1296.00
8824,-1004.00,1630.00,-21689.00,424.00,1196.00,18676.00,-1312.00
8881,1043.00,1500.00,-25152.00,648.00,1476.00,18484.00,-1328.00
8937,1349.00,-1587.00,-17114.00,556.00,920.00,17644.00,-1328.00
8994,1143.00,741.00,-15506.00,-576.00,1504.00,18784.00,-1344.00
9051,1090.00,244.00,-15114.00,160.00,1348.00,18120.00,-1328.00
9107,936.00,820.00,-14879.00,-1412.00,812.00,17924.00,-1312.00
9164,-701.00,1630.00,-17900.00,604.00,1364.00,18132.00,-1328.00
9221,1030.00,551.00,-6725.00,-1356.00,1044.00,18524.00,-1312.00
9277,-80.00,241.00,-2344.00,-1436.00,936.00,18512.00,-1312.00
9334,-350.00,158.00,3306.00,-988.00,1356.00,18640.00,-1312.00
9391,-520.00,152.00,8922.00,-1376.00,560.00,18000.00,-1312.00
9447,986.00,-1805.00,18690.00,-1068.00,1144.00,18464.00,-1344.00
9503,1150.00,-465.00,19795.00,-852.00,1492.00,18516.00,-1280.00
9561,-1028.00,-770.00,22156.00,-380.00,1988.00,18144.00,-1296.00
9617,-1445.00,-817.00,22515.00,600.00,1596.00,18404.00,-1312.00
9673,-1220.00,-1968.00,21152.00,448.00,1944.00,18088.00,-1296.00
9731,-1845.00,-655.00,17633.00,1176.00,1336.00,18832.00,-1296.00
9787,158.00,-1248.00,14741.00,1640.00,1036.00,18704.00,-1328.00
9844,201.00,-547.00,12649.00,1456.00,1268.00,18496.00,-1312.00
9901,-44.00,-2298.00,16481.00,2556.00,1084.00,18564.00,-1296.00
9957,-2625.00,-2899.00,21919.00,1748.00,1360.00,18460.00,-1312.00
10014,-483.00,914.00,21749.00,2168.00,640.00,17852.00,-1312.00
10071,-90.00,648.00,12245.00,1260.00,376.00,19156.00,-1296.00
10127,1302.00,531.00,-2529.00,2600.00,-224.00,18656.00,-1312.00
10184,74.00,-542.00,-6812.00,3004.00,-120.00,18704.00,-1296.00
10241,-452.00,-272.00,-11838.00,2136.00,648.00,18396.00,-1312.00
10297,1780.00,1281.00,-16678.00,1844.00,856.00,18184.00,-1296.00
10354,1871.00,1584.00,-20264.00,1940.00,684.00,19024.00,-1296.00
10411,1233.00,1460.00,-22532.00,1684.00,1332.00,18412.00,-1264.00
10468,-248.00,1605.00,-22250.00,1116.00,1636.00,17760.00,-1296.00
10524,508.00,2498.00,-23749.00,860.00,1380.00,18288.00,-1296.00
10580,780.00,1531.00,-24638.00,204.00,1812.00,18500.00,-1312.00
10638,-587.00,2547.00,-21215.00,-148.00,1804.00,17640.00,-1280.00
10694,1898.00,71.00,-18443.00,-372.00,1164.00,18016.00,-1280.00
10750,699.00,-657.00,-18951.00,-904.00,784.00,18540.00,-1296.00
10808,1806.00,454.00,-18578.00,-280.00,1344.00,18472.00,-1280.00
10864,1166.00,363.00,-9600.00,-1328.00,984.00,18384.00,-1264.00
10921,430.00,-115.00,-5760.00,-684.00,1612.00,19180.00,-1248.00
10978,-164.00,-644.00,-5002.00,-1108.00,932.00,18036.00,-1296.00
11034,166.00,-152.00,-900.00,-1016.00,948.00,17876.00,-1248.00
11090,501.00,69.00,2326.00,-600.00,1388.00,18836.00,-1280.00
11148,1193.00,-1129.00,10260.00,-888.00,1164.00,18432.00,-1280.00
11204,1510.00,-1352.00,14572.00,-488.00,1404.00,18452.00,-1280.00
11260,1087.00,-91.00,9987.00,-448.00,1484.00,19036.00,-1280.00
11318,509.00,-741.00,14304.00,28.00,1816.00,17728.00,-1280.00
11374,-520.00,-432.00,15643.00,152.00,2388.00,18036.00,-1264.00
11430,-1249.00,-1021.00,19658.00,1672.00,2172.00,18212.00,-1248.00
11488,1434.00,-107.00,22002.00,1116.00,2672.00,17748.00,-1296.00
11544,-41.00,-915.00,22260.00,1444.00,2080.00,18464.00,-1232.00
11601,-1181.00,-734.00,16164.00,212.00,1852.00,18420.00,-1280.00
11658,-465.00,-737.00,12437.00,3028.00,1216.00,17892.00,-1296.00
11714,1169.00,1226.00,10957.00,3088.00,1556.00,18024.00,-1264.00
11771,-1268.00,-508.00,16094.00,3356.00,1436.00,18212.00,-1264.00
11828,-1665.00,38.00,20730.00,2596.00,1076.00,18068.00,-1232.00
11885,-1695.00,-682.00,16683.00,1260.00,588.00,18512.00,-1248.00
11941,987.00,1993.00,1809.00,1064.00,1032.00,18832.00,-1280.00
11998,-366.00,-2061.00,-5917.00,2932.00,888.00,18372.00,-1296.00
12055,-615.00,-1604.00,-8120.00,3012.00,636.00,18384.00,-1248.00
12111,990.00,-250.00,-10556.00,2688.00,944.00,18208.00,-1248.00
12168,1743.00,916.00,-15414.00,1988.00,1172.00,18216.00,-1280.00
12225,1394.00,1276.00,-20259.00,2308.00,1640.00,18656.00,-1248.00
12281,-18.00,2073.00,-22883.00,2252.00,1896.00,17952.00,-1232.00
12339,77.00,2369.00,-24440.00,2072.00,1788.00,18368.00,-1216.00
12395,-180.00,1949.00,-23328.00,1232.00,2768.00,18148.00,-1280.00
12452,-224.00,76.00,-18471.00,1616.00,2204.00,18288.00,-1280.00
12509,-427.00,-97.00,-19048.00,388.00,1960.00,18672.00,-1264.00
12565,-762.00,-587.00,-20284.00,48.00,1712.00,18232.00,-1248.00
12621,577.00,201.00,-17970.00,-48.00,1628.00,17924.00,-1232.00
12679,1596.00,-1926.00,-15927.00,-452.00,1500.00,18308.00,-1248.00
12735,314.00,5.00,-12157.00,220.00,2036.00,19036.00,-1280.00
12791,-430.00,964.00,-6315.00,52.00,1460.00,19380.00,-1264.00
12849,-1318.00,675.00,-1504.00,-800.00,1284.00,18348.00,-1264.00
12905,-1295.00,1140.00,1090.00,8.00,1288.00,18260.00,-1248.00
12961,595.00,907.00,6220.00,-716.00,1136.00,18840.00,-1232.00
13019,1918.00,-685.00,14891.00,-656.00,1592.00,18416.00,-1280.00
13075,449.00,625.00,19295.00,376.00,2264.00,18268.00,-1232.00
13131,-691.00,-388.00,17888.00,-696.00,1352.00,18096.00,-1248.00
13189,-662.00,439.00,12384.00,-200.00,1456.00,18432.00,-1248.00
13245,-1105.00,744.00,11679.00,904.00,1628.00,18120.00,-1264.00
13301,-165.00,194.00,19427.00,172.00,2440.00,17736.00,-1248.00
13359,902.00,-833.00,19836.00,52.00,1960.00,18724.00,-1264.00
13415,1155.00,-89.00,18631.00,692.00,2180.00,17592.00,-1248.00
13471,-313.00,-1037.00,20540.00,1424.00,1936.00,18384.00,-1232.00
13529,-1385.00,-82.00,17832.00,1656.00,1812.00,17900.00,-1248.00
13585,236.00,-777.00,15455.00,1136.00,1472.00,18164.00,-1248.00
13642,-970.00,-434.00,12359.00,1872.00,1460.00,18564.00,-1232.00
13699,-1097.00,688.00,11846.00,1732.00,1276.00,18536.00,-1264.00
13755,-1094.00,-482.00,14203.00,1916.00,1772.00,18416.00,-1232.00
13812,186.00,855.00,8742.00,1464.00,984.00,18784.00,-1216.00
13869,164.00,137.00,-3906.00,1408.00,684.00,18812.00,-1264.00
13925,1876.00,703.00,-10403.00,2492.00,748.00,18672.00,-1264.00
13982,-782.00,33.00,-12246.00,2236.00,956.00,18832.00,-1216.00
14039,1115.00,1069.00,-14799.00,2360.00,940.00,18060.00,-1232.00
14095,1993.00,567.00,-15720.00,1636.00,1548.00,18640.00,-1232.00
14152,531.00,1271.00,-19212.00,480.00,1868.00,18464.00,-1264.00
14209,72.00,-640.00,-26050.00,428.00,1844.00,18296.00,-1248.00
14266,892.00,2017.00,-28063.00,1104.00,2392.00,17612.00,-1232.00
14322,283.00,1362.00,-20964.00,1052.00,2460.00,18252.00,-1232.00
14379,-1704.00,2380.00,-15923.00,-964.00,1824.00,18528.00,-1248.00
14436,-281.00,1718.00,-18104.00,-1148.00,1280.00,18348.00,-1248.00
14492,-1305.00,1225.00,-21137.00,-1052.00,1160.00,18248.00,-1248.00
14550,-27.00,719.00,-18694.00,-768.00,612.00,18424.00,-1232.00
14606,2897.00,-554.00,-7911.00,-2624.00,-196.00,18192.00,-1232.00
14662,-441.00,199.00,-10907.00,-1292.00,460.00,18460.00,-1216.00
14720,-205.00,536.00,-4303.00,-1516.00,232.00,18116.00,-1232.00
14776,-749.00,724.00,-2978.00,-1392.00,268.00,18304.00,-1248.00
14832,461.00,-610.00,1870.00,-1056.00,100.00,18300.00,-1232.00
14889,704.00,-1550.00,8694.00,-1812.00,396.00,18600.00,-1232.00
14946,1035.00,-2315.00,13224.00,-392.00,336.00,19116.00,-1216.00
15002,2234.00,-2280.00,15162.00,-1660.00,604.00,18076.00,-1248.00
15059,2275.00,-2229.00,22451.00,312.00,1668.00,18204.00,-1216.00
15116,1687.00,-2745.00,26524.00,-152.00,1508.00,18180.00,-1248.00
15173,2570.00,-1394.00,22841.00,788.00,2328.00,18760.00,-1232.00
15229,-1743.00,-2407.00,20771.00,720.00,1992.00,18668.00,-1232.00
15286,2089.00,609.00,20442.00,2504.00,1592.00,19092.00,-1232.00
15343,-372.00,1103.00,15061.00,2876.00,1320.00,17664.00,-1264.00
15399,-1048.00,3482.00,11046.00,1896.00,1640.00,18360.00,-1232.00
15457,-1186.00,-863.00,16086.00,2904.00,916.00,18708.00,-1232.00
15513,2127.00,4055.00,16413.00,1568.00,876.00,17000.00,-1280.00
15570,4049.00,1955.00,17336.00,1240.00,1248.00,19148.00,-1216.00
15627,-1506.00,2514.00,14757.00,256.00,2444.00,18312.00,-1248.00
15684,-1270.00,1498.00,4235.00,200.00,2652.00,18560.00,-1216.00
15740,1102.00,640.00,-5288.00,1384.00,1192.00,18288.00,-1232.00
15797,2729.00,362.00,-8477.00,1232.00,1368.00,18552.00,-1280.00
15854,2149.00,1958.00,-8776.00,500.00,2128.00,18532.00,-1248.00
15910,-1307.00,2448.00,-9687.00,1428.00,2404.00,19012.00,-1216.00
15968,-2167.00,1092.00,-8685.00,2872.00,3700.00,15604.00,-1280.00
16024,-3283.00,-3863.00,-1945.00,2512.00,892.00,17152.00,-1248.00
16080,796.00,502.00,-3027.00,-1792.00,1680.00,17572.00,-1200.00
16138,1582.00,479.00,-12628.00,-536.00,2764.00,18612.00,-1200.00
16194,4837.00,9988.00,-26365.00,-1584.00,1832.00,18992.00,-1216.00
16251,215.00,654.00,-30865.00,-788.00,1748.00,18580.00,-1232.00
16308,-2258.00,-672.00,-23995.00,204.00,1820.00,18976.00,-1216.00
16364,-4504.00,-1291.00,-22337.00,-1404.00,420.00,18036.00,-1264.00
16421,2452.00,-1369.00,-21464.00,-148.00,-616.00,17036.00,-1248.00
16478,3756.00,-2936.00,-20960.00,-1492.00,-596.00,18728.00,-1232.00
16535,58.00,-220.00,-19776.00,-572.00,-76.00,17888.00,-1232.00
16591,2141.00,-259.00,-7710.00,568.00,-616.00,18456.00,-1232.00
16648,2512.00,-1917.00,-6733.00,-1032.00,-880.00,18072.00,-1216.00
16704,894.00,-777.00,-1501.00,1208.00,-132.00,19672.00,-1248.00
16761,1878.00,-420.00,8543.00,112.00,92.00,18872.00,-1248.00
16818,855.00,-663.00,17600.00,56.00,488.00,17936.00,-1232.00
16874,3375.00,145.00,19752.00,-60.00,84.00,18200.00,-1232.00
16930,3970.00,583.00,25457.00,24.00,1620.00,17648.00,-1248.00
16988,-1342.00,711.00,24038.00,652.00,1200.00,18692.00,-1232.00
17044,-1054.00,234.00,22554.00,-28.00,1264.00,17456.00,-1248.00
17100,-196.00,-838.00,20793.00,1248.00,1116.00,18280.00,-1248.00
17158,418.00,659.00,15764.00,540.00,1588.00,18088.00,-1264.00
17214,29.00,1135.00,13626.00,716.00,1068.00,18216.00,-1216.00
17270,385.00,1471.00,11004.00,1232.00,1224.00,18092.00,-1232.00
17328,-19.00,-353.00,13636.00,280.00,1480.00,18868.00,-1264.00
17384,69.00,198.00,15727.00,1764.00,1100.00,17480.00,-1248.00
17441,-1285.00,-1851.00,16480.00,512.00,1216.00,18928.00,-1232.00
17498,-1406.00,-1351.00,10683.00,1436.00,872.00,18332.00,-1264.00
17554,-26.00,-704.00,5789.00,1640.00,1176.00,18876.00,-1280.00
17611,-1394.00,-259.00,-1734.00,1456.00,868.00,18824.00,-1264.00
17668,-441.00,-3110.00,-8869.00,1604.00,760.00,19500.00,-1248.00
17724,-37.00,-199.00,-14349.00,2488.00,764.00,17356.00,-1232.00
17781,-593.00,1888.00,-13896.00,1696.00,596.00,17748.00,-1248.00
17838,-793.00,982.00,-11541.00,2784.00,324.00,18600.00,-1232.00
17894,574.00,1263.00,-11853.00,1372.00,1216.00,17912.00,-1216.00
17951,-1956.00,-93.00,-16660.00,1476.00,1356.00,19480.00,-1248.00
18008,-143.00,1830.00,-19904.00,2036.00,764.00,17808.00,-1248.00
18065,1289.00,2959.00,-21126.00,732.00,908.00,18244.00,-1248.00
18121,-283.00,2149.00,-23257.00,752.00,1380.00,18548.00,-1216.00
18178,-2039.00,3439.00,-26113.00,532.00,500.00,18420.00,-1248.00
18235,-569.00,1867.00,-25650.00,324.00,776.00,18424.00,-1232.00
18291,-642.00,1243.00,-22275.00,-468.00,-44.00,18160.00,-1248.00
18348,1897.00,3248.00,-16866.00,-1136.00,-508.00,18152.00,-1232.00
18405,2396.00,181.00,-12626.00,-880.00,-312.00,18020.00,-1248.00
18461,2071.00,701.00,-9592.00,-724.00,-364.00,18956.00,-1264.00
18518,864.00,-141.00,-4961.00,-1076.00,16.00,18484.00,-1248.00
18575,-1161.00,1554.00,-3851.00,252.00,552.00,18608.00,-1248.00
18631,586.00,620.00,2135.00,-840.00,488.00,18668.00,-1232.00
18688,1185.00,-366.00,8644.00,-1008.00,408.00,18440.00,-1280.00
18745,151.00,-1047.00,14098.00,-976.00,440.00,17960.00,-1264.00
18801,1934.00,243.00,20056.00,-1012.00,848.00,18160.00,-1216.00
18857,1152.00,-614.00,27085.00,-424.00,1584.00,18292.00,-1248.00
18915,-1862.00,-154.00,26213.00,184.00,1568.00,18744.00,-1264.00
18971,-2288.00,-2775.00,26153.00,188.00,1400.00,18388.00,-1200.00
19028,-1243.00,-2116.00,25020.00,-848.00,1404.00,17216.00,-1232.00
19085,199.00,-2182.00,22797.00,312.00,724.00,19064.00,-1232.00
19141,316.00,-46.00,16826.00,-160.00,2232.00,18576.00,-1248.00
19198,-1487.00,-1173.00,15651.00,1304.00,532.00,18092.00,-1232.00
19255,509.00,1087.00,13608.00,1184.00,1120.00,18844.00,-1200.00
19311,-1858.00,-1131.00,13914.00,1924.00,128.00,18252.00,-1232.00
19368,255.00,-1458.00,12418.00,1868.00,436.00,18604.00,-1232.00
19425,1285.00,-213.00,11500.00,2084.00,904.00,18484.00,-1248.00
19482,209.00,1135.00,7170.00,988.00,392.00,18372.00,-1248.00
19538,590.00,40.00,-2941.00,1156.00,1108.00,18500.00,-1248.00
19595,1799.00,-1427.00,-8901.00,1464.00,776.00,18568.00,-1264.00
19652,797.00,-895.00,-15053.00,1504.00,1272.00,18552.00,-1280.00
19708,517.00,1975.00,-21457.00,1136.00,1520.00,17824.00,-1248.00
19765,-198.00,348.00,-23389.00,2068.00,1496.00,18384.00,-1248.00
19822,-773.00,-836.00,-22810.00,1108.00,2064.00,18484.00,-1232.00
19878,-2082.00,-2425.00,-21312.00,1880.00,1500.00,17892.00,-1264.00
19936,2256.00,-492.00,-18133.00,2120.00,1252.00,17972.00,-1264.00
19992,-265.00,-918.00,-18133.00,1452.00,1408.00,18472.00,-1232.00
20049,-2315.00,2193.00,-19286.00,2168.00,1712.00,18380.00,-1232.00
20106,-1573.00,793.00,-19481.00,1844.00,1640.00,17692.00,-1232.00
20162,321.00,1573.00,-20342.00,444.00,1472.00,18116.00,-1264.00
20219,877.00,670.00,-15003.00,228.00,932.00,18164.00,-1264.00
20276,-649.00,3244.00,-18412.00,0.00,1272.00,18592.00,-1280.00
20332,-229.00,1937.00,-13965.00,180.00,516.00,18144.00,-1264.00
20389,1379.00,3088.00,-6950.00,-348.00,904.00,19724.00,-1280.00
20446,-928.00,1465.00,-5171.00,-824.00,568.00,18480.00,-1232.00
20502,-827.00,505.00,-2139.00,-1128.00,824.00,18392.00,-1248.00
20559,37.00,1664.00,1664.00,252.00,1280.00,18744.00,-1232.00
20616,416.00,1296.00,6311.00,-2504.00,460.00,18020.00,-1232.00
20672,-663.00,45.00,14351.00,-660.00,1500.00,19208.00,-1248.00
20729,1068.00,-927.00,18308.00,-1872.00,912.00,17724.00,-1232.00
20786,1508.00,739.00,22192.00,-532.00,1584.00,19212.00,-1216.00
20842,24.00,1130.00,20266.00,-2504.00,1912.00,17508.00,-1216.00
20899,-1932.00,-1376.00,19745.00,-348.00,1932.00,18328.00,-1232.00
20956,-403.00,-1149.00,19095.00,-1492.00,2244.00,17760.00,-1232.00
21013,-655.00,-39.00,18396.00,996.00,1824.00,17972.00,-1232.00
21069,-998.00,134.00,14658.00,-496.00,2376.00,18436.00,-1216.00
21126,-1370.00,-714.00,15124.00,580.00,1624.00,18256.00,-1232.00
21183,287.00,-450.00,13295.00,128.00,2224.00,18212.00,-1248.00
21239,-679.00,-337.00,14160.00,1512.00,1732.00,18112.00,-1200.00
21296,-467.00,-1212.00,15362.00,992.00,2496.00,18024.00,-1264.00
21353,-588.00,-740.00,14862.00,1756.00,1144.00,18548.00,-1232.00
21409,-1357.00,1120.00,12812.00,1656.00,1864.00,18316.00,-1248.00
21467,-914.00,741.00,12335.00,2248.00,720.00,18552.00,-1216.00
21523,-286.00,1261.00,7632.00,1320.00,1408.00,18336.00,-1200.00
21579,-639.00,109.00,1570.00,1376.00,1188.00,18432.00,-1232.00
21637,683.00,-1227.00,-6248.00,1032.00,1508.00,18568.00,-1248.00
21693,96.00,-1282.00,-13482.00,1372.00,1460.00,18568.00,-1216.00
21749,1290.00,1094.00,-18477.00,1572.00,1436.00,18164.00,-1232.00
21807,603.00,-56.00,-22513.00,1112.00,1892.00,18736.00,-1216.00
21863,339.00,-69.00,-23344.00,1344.00,1824.00,17940.00,-1248.00
21919,269.00,-505.00,-20611.00,1408.00,2912.00,17984.00,-1248.00
21977,1832.00,-577.00,-18473.00,1392.00,1976.00,18048.00,-1248.00
22033,155.00,-373.00,-16639.00,1104.00,2072.00,18620.00,-1248.00
22090,-1377.00,672.00,-19538.00,776.00,1712.00,18836.00,-1232.00
22147,-1620.00,1169.00,-20960.00,-104.00,1996.00,17584.00,-1264.00
22204,-798.00,303.00,-17766.00,252.00,1188.00,18552.00,-1200.00
22260,-1539.00,841.00,-15685.00,-936.00,1376.00,18512.00,-1216.00
22317,-3392.00,2021.00,-15643.00,-408.00,436.00,18148.00,-1216.00
22374,544.00,928.00,-14213.00,-1216.00,-332.00,17776.00,-1232.00
22430,1718.00,737.00,-10271.00,-972.00,-64.00,18288.00,-1216.00
22487,1607.00,-311.00,-8635.00,-1152.00,-52.00,18520.00,-1232.00
22544,359.00,-1276.00,-2669.00,-1224.00,-188.00,17896.00,-1216.00
22600,785.00,956.00,-1033.00,-360.00,504.00,18876.00,-1248.00
22657,-277.00,3209.00,3051.00,-412.00,612.00,19236.00,-1216.00
22713,-115.00,1466.00,9211.00,-1172.00,672.00,18988.00,-1200.00
22770,686.00,-499.00,19219.00,-1388.00,1244.00,18276.00,-1248.00
22827,623.00,-1128.00,24620.00,-688.00,1404.00,18352.00,-1216.00
22884,1267.00,-1193.00,21294.00,-1728.00,740.00,17880.00,-1200.00
22940,222.00,-2187.00,21393.00,-440.00,1692.00,18456.00,-1232.00
22996,-835.00,-989.00,19826.00,332.00,1736.00,17884.00,-1232.00
23054,-1320.00,-2017.00,21942.00,988.00,1340.00,18284.00,-1248.00
23110,1043.00,-2998.00,22264.00,1800.00,2312.00,18112.00,-1248.00
23168,309.00,-382.00,23179.00,772.00,2056.00,18840.00,-1248.00
23224,-493.00,45.00,18464.00,1608.00,1380.00,18784.00,-1232.00
23280,-954.00,-25.00,15410.00,1656.00,1296.00,18324.00,-1216.00
23337,652.00,1409.00,11157.00,2008.00,1132.00,18132.00,-1232.00
23394,338.00,960.00,10802.00,2216.00,996.00,18652.00,-1216.00
23450,-1060.00,258.00,10400.00,2144.00,1216.00,18072.00,-1248.00
23507,-653.00,717.00,7335.00,1572.00,776.00,18592.00,-1232.00
23564,-613.00,586.00,-1094.00,1140.00,1332.00,18388.00,-1216.00
23620,338.00,-111.00,-6321.00,1700.00,656.00,18688.00,-1232.00
23677,1527.00,-891.00,-12200.00,1704.00,1236.00,18344.00,-1248.00
23734,944.00,832.00,-17922.00,1420.00,920.00,18788.00,-1248.00
23790,1986.00,3303.00,-22618.00,948.00,2244.00,18068.00,-1232.00
23847,1851.00,475.00,-22411.00,404.00,1936.00,18192.00,-1232.00
23904,899.00,1192.00,-24451.00,580.00,1144.00,18352.00,-1216.00
23961,1461.00,2728.00,-22354.00,232.00,2172.00,17952.00,-1216.00
24017,-749.00,-1864.00,-16885.00,-156.00,1992.00,17992.00,-1248.00
24074,-1389.00,-313.00,-15200.00,-1284.00,1784.00,18036.00,-1216.00
24131,947.00,-1041.00,-16316.00,-948.00,1188.00,18224.00,-1216.00
24187,369.00,-886.00,-18837.00,-668.00,1300.00,18380.00,-1248.00
24245,-1057.00,-1324.00,-16118.00,-368.00,776.00,17868.00,-1216.00
24301,-54.00,592.00,-10097.00,408.00,772.00,18620.00,-1216.00
24357,931.00,1482.00,-11999.00,-2064.00,552.00,18164.00,-1200.00
24415,-1813.00,3452.00,-15425.00,-680.00,424.00,18272.00,-1200.00
24471,-1136.00,2397.00,-11660.00,-820.00,356.00,18488.00,-1184.00
24527,1888.00,1220.00,-9228.00,-1912.00,-404.00,18032.00,-1216.00
24585,1218.00,2018.00,-4927.00,-1284.00,208.00,18772.00,-1184.00
24641,2496.00,649.00,-2593.00,-2412.00,24.00,17588.00,-1216.00
24698,-73.00,817.00,1568.00,-1028.00,524.00,18344.00,-1248.00
24755,470.00,-4003.00,5148.00,-2368.00,-412.00,18184.00,-1168.00
24811,4297.00,3668.00,10988.00,-1672.00,192.00,17980.00,-1216.00
24868,-573.00,5228.00,13964.00,-1772.00,1752.00,19404.00,-1184.00
24925,-1845.00,6.00,17122.00,-4344.00,1808.00,17588.00,-1216.00
24981,-945.00,-2739.00,18253.00,-2128.00,1816.00,18440.00,-1232.00
25038,1635.00,-1245.00,16443.00,-2748.00,2224.00,17060.00,-1184.00
25095,-793.00,-1439.00,12259.00,-44.00,2376.00,18872.00,-1216.00
25152,-1235.00,-184.00,10944.00,-1952.00,2484.00,17368.00,-1200.00
25208,-1811.00,-1870.00,13922.00,-68.00,2164.00,18924.00,-1232.00
25265,279.00,-1109.00,13098.00,-300.00,2800.00,17428.00,-1216.00
25322,-279.00,612.00,12451.00,1772.00,2160.00,18712.00,-1216.00
25378,968.00,-1461.00,13405.00,636.00,2732.00,18632.00,-1216.00
25436,-431.00,265.00,14903.00,884.00,2644.00,18304.00,-1200.00
25492,-2148.00,817.00,15591.00,748.00,2696.00,17872.00,-1200.00
25548,-1902.00,-1927.00,17225.00,1008.00,2748.00,18316.00,-1216.00
25606,-1189.00,127.00,13745.00,1640.00,1796.00,18264.00,-1232.00
25662,-836.00,-866.00,13613.00,1428.00,1160.00,18144.00,-1200.00
25719,-756.00,-73.00,13258.00,1856.00,1236.00,18160.00,-1184.00
25776,-1687.00,-512.00,12494.00,1912.00,1004.00,18412.00,-1200.00
25832,-715.00,-276.00,10795.00,2256.00,500.00,18464.00,-1248.00
25889,954.00,329.00,-1334.00,1524.00,1160.00,19100.00,-1232.00
25946,229.00,-2431.00,-9802.00,2176.00,904.00,18372.00,-1184.00
26002,830.00,-21.00,-17345.00,2376.00,1300.00,18656.00,-1232.00
26059,-253.00,749.00,-20045.00,2356.00,1028.00,17884.00,-1200.00
26116,864.00,662.00,-16789.00,2444.00,1444.00,18052.00,-1216.00
26172,2829.00,754.00,-19762.00,1916.00,2200.00,18208.00,-1216.00
26229,-2138.00,931.00,-19454.00,540.00,1728.00,18740.00,-1232.00
26286,70.00,1442.00,-22986.00,2828.00,2920.00,18948.00,-1232.00
26343,-1058.00,906.00,-15079.00,1068.00,1744.00,17764.00,-1216.00
26399,-689.00,1304.00,-13490.00,480.00,1804.00,18520.00,-1216.00
26456,593.00,908.00,-12988.00,-488.00,1224.00,18024.00,-1216.00
26513,-190.00,3306.00,-19442.00,96.00,1536.00,19036.00,-1232.00
26569,460.00,-317.00,-18634.00,-408.00,1180.00,17952.00,-1184.00
26626,-651.00,589.00,-20284.00,-1464.00,788.00,18372.00,-1232.00
26683,126.00,1706.00,-13860.00,-852.00,680.00,18164.00,-1216.00
26739,488.00,1597.00,-14664.00,-1876.00,-132.00,18424.00,-1232.00
26797,-1002.00,2764.00,-20051.00,-1152.00,232.00,18072.00,-1232.00
26853,29.00,825.00,-10034.00,-1700.00,-356.00,17644.00,-1200.00
26909,-619.00,1254.00,-5779.00,-1640.00,-232.00,18416.00,-1216.00
26967,1291.00,-1191.00,2329.00,-1772.00,-232.00,18444.00,-1200.00
27023,-379.00,-1200.00,7604.00,-1296.00,176.00,18836.00,-1216.00
27079,-1384.00,-1690.00,13507.00,-2148.00,-352.00,17664.00,-1184.00
27137,1201.00,-1387.00,21949.00,-1480.00,248.00,18056.00,-1216.00
27193,3139.00,-794.00,24225.00,-1308.00,1020.00,18560.00,-1216.00
27250,-1162.00,237.00,24810.00,-872.00,1064.00,18600.00,-1184.00
27307,-205.00,-2033.00,24035.00,-1128.00,1304.00,18020.00,-1232.00
27364,445.00,493.00,23862.00,-1080.00,1236.00,17872.00,-1232.00
27420,-178.00,-1525.00,22680.00,-436.00,1760.00,19012.00,-1232.00
27476,-1306.00,-1628.00,21709.00,596.00,1756.00,18256.00,-1216.00
27534,-1084.00,-899.00,20185.00,756.00,1896.00,17936.00,-1216.00
27590,-983.00,-1081.00,19707.00,676.00,1652.00,18692.00,-1216.00
27646,-272.00,-563.00,17778.00,856.00,2136.00,18296.00,-1200.00
27704,-1088.00,-709.00,16741.00,1404.00,1472.00,18168.00,-1232.00
27760,-210.00,-1275.00,15218.00,1764.00,1264.00,18280.00,-1232.00
27817,-557.00,667.00,9387.00,1688.00,872.00,18620.00,-1216.00
27874,70.00,504.00,2809.00,1704.00,480.00,18220.00,-1232.00
27930,-857.00,-1298.00,-4045.00,1748.00,1568.00,18588.00,-1200.00
27987,-1808.00,-2091.00,-11337.00,2032.00,900.00,18836.00,-1216.00
28044,-1868.00,913.00,-18397.00,1692.00,884.00,18020.00,-1216.00
28100,-343.00,1830.00,-22020.00,2076.00,520.00,18256.00,-1216.00
28157,1209.00,1123.00,-20984.00,2068.00,436.00,18832.00,-1216.00
28214,-2388.00,-823.00,-17867.00,1660.00,1188.00,18056.00,-1216.00
28271,-2323.00,2379.00,-21013.00,1328.00,544.00,18856.00,-1216.00
28327,1937.00,2040.00,-26377.00,588.00,716.00,18148.00,-1216.00
28385,-419.00,1672.00,-22326.00,1548.00,768.00,17908.00,-1184.00
28441,-1253.00,2234.00,-19531.00,396.00,752.00,18656.00,-1216.00
28497,-548.00,863.00,-21578.00,-456.00,296.00,17940.00,-1232.00
28555,1719.00,1760.00,-22699.00,116.00,188.00,18200.00,-1216.00
28611,588.00,1115.00,-20386.00,-464.00,524.00,18448.00,-1200.00
28667,-110.00,3061.00,-16698.00,-1388.00,72.00,18592.00,-1248.00
28725,114.00,2990.00,-16697.00,88.00,448.00,18408.00,-1152.00
28781,-384.00,2186.00,-9004.00,-1480.00,-564.00,18116.00,-1184.00
28837,389.00,-156.00,-5626.00,-1076.00,-436.00,19160.00,-1232.00
28895,-91.00,669.00,314.00,-1348.00,-396.00,17896.00,-1216.00
28951,-27.00,1094.00,4297.00,-1320.00,-172.00,18380.00,-1216.00
29007,770.00,-1145.00,10799.00,-1824.00,-108.00,18320.00,-1168.00
29064,979.00,-536.00,15724.00,-364.00,444.00,18768.00,-1200.00
29121,814.00,-564.00,17606.00,-2140.00,236.00,17672.00,-1216.00
29177,-372.00,389.00,23222.00,260.00,1292.00,19156.00,-1200.00
29234,870.00,1191.00,22079.00,-3244.00,1020.00,17300.00,-1184.00
29291,-1056.00,-568.00,20162.00,-860.00,1252.00,18280.00,-1184.00
29347,-421.00,-2.00,20756.00,-2140.00,2120.00,16772.00,-1216.00
29405,673.00,-1573.00,25323.00,388.00,2036.00,18840.00,-1216.00
29461,-635.00,-387.00,22307.00,-1328.00,2732.00,18000.00,-1216.00
29517,-581.00,405.00,18270.00,1248.00,1352.00,18932.00,-1184.00
29575,-895.00,-303.00,14381.00,236.00,2096.00,18288.00,-1200.00
29631,-1435.00,-280.00,13280.00,976.00,1576.00,18784.00,-1216.00
29687,-479.00,-795.00,12319.00,1360.00,1768.00,18056.00,-1184.00
29745,-948.00,-1042.00,14465.00,1932.00,980.00,18108.00,-1216.00
29801,-1104.00,-503.00,15886.00,1796.00,1884.00,18172.00,-1232.00
29858,-242.00,-517.00,13541.00,1644.00,1196.00,18648.00,-1200.00
29915,-935.00,518.00,8049.00,1600.00,1324.00,18864.00,-1200.00
29971,-598.00,-45.00,519.00,1704.00,1088.00,19020.00,-1184.00
30028,242.00,-226.00,-6892.00,1876.00,1312.00,18584.00,-1216.00
30085,-521.00,-177.00,-12249.00,1744.00,1060.00,18544.00,-1184.00
30141,522.00,-818.00,-13808.00,1896.00,340.00,17468.00,-1200.00
30198,5.00,-2534.00,-13937.00,260.00,660.00,18884.00,-1216.00
30255,-575.00,-58.00,-17892.00,2032.00,1892.00,18516.00,-1168.00
30311,-5855.00,-2286.00,-22001.00,-1040.00,1788.00,19868.00,-1216.00
30368,-1960.00,-1264.00,-24868.00,2168.00,2048.00,16116.00,-1232.00
30425,549.00,3068.00,-21698.00,3208.00,-480.00,18544.00,-1216.00
30482,-33.00,2494.00,-22097.00,2004.00,1416.00,18112.00,-1232.00
30538,-221.00,3421.00,-19129.00,1684.00,464.00,18176.00,-1200.00
30595,481.00,2328.00,-20735.00,-60.00,1276.00,18488.00,-1216.00
30652,-169.00,5022.00,-25282.00,-184.00,816.00,18064.00,-1216.00
30708,-553.00,3229.00,-23879.00,-920.00,664.00,17364.00,-1200.00
30765,-314.00,1621.00,-19484.00,-2840.00,548.00,18664.00,-1184.00
30822,799.00,545.00,-18164.00,-2248.00,212.00,18800.00,-1216.00
30878,-1020.00,480.00,-8983.00,-980.00,-164.00,18444.00,-1232.00
30935,-82.00,-1402.00,-4113.00,-2224.00,-1020.00,17060.00,-1248.00
30992,259.00,-861.00,1957.00,-556.00,-368.00,18892.00,-1200.00
31048,-1010.00,-711.00,6216.00,-816.00,-180.00,18820.00,-1216.00
31105,50.00,-1238.00,12403.00,-1108.00,-100.00,18816.00,-1232.00
31162,1025.00,-2221.00,24204.00,-524.00,464.00,18020.00,-1216.00
31218,2290.00,-1679.00,24644.00,-828.00,128.00,17804.00,-1184.00
31275,2001.00,-923.00,23470.00,-196.00,192.00,18652.00,-1200.00
31332,507.00,-1207.00,18689.00,-104.00,1144.00,18292.00,-1216.00
31388,-217.00,-185.00,20537.00,-340.00,1532.00,18344.00,-1216.00
31444,1066.00,829.00,18741.00,2184.00,740.00,18924.00,-1200.00
31502,533.00,490.00,15223.00,56.00,1208.00,18828.00,-1232.00
31558,-267.00,462.00,13250.00,984.00,1784.00,18112.00,-1200.00
31614,-282.00,-852.00,14962.00,304.00,2264.00,17812.00,-1248.00
31672,-708.00,426.00,13431.00,1148.00,1380.00,18512.00,-1200.00
31728,-545.00,-909.00,15013.00,440.00,2320.00,17964.00,-1232.00
31785,-805.00,-410.00,15572.00,1396.00,1392.00,18680.00,-1216.00
31842,-882.00,189.00,15021.00,1636.00,1032.00,18068.00,-1216.00
31898,-10.00,476.00,11134.00,1836.00,1376.00,18412.00,-1232.00
31955,-438.00,477.00,5671.00,920.00,972.00,18432.00,-1184.00
32012,-690.00,386.00,460.00,1308.00,980.00,18272.00,-1232.00
32068,-331.00,-7.00,-7349.00,1104.00,752.00,19008.00,-1232.00
32124,-660.00,195.00,-10470.00,1472.00,840.00,18164.00,-1248.00
32182,-1050.00,-1385.00,-11761.00,2052.00,32.00,18372.00,-1232.00
32238,-537.00,652.00,-17276.00,1200.00,964.00,18672.00,-1200.00
32294,587.00,1923.00,-21442.00,1816.00,-92.00,18696.00,-1248.00
32352,84.00,945.00,-22642.00,-392.00,3440.00,18508.00,-1232.00
32408,-660.00,2208.00,-23590.00,1976.00,112.00,18804.00,-1280.00
32464,2086.00,289.00,-19685.00,552.00,844.00,17216.00,-1232.00
32522,1016.00,-37.00,-17193.00,2032.00,1200.00,18888.00,-1264.00
32578,589.00,1160.00,-16384.00,-152.00,1012.00,18156.00,-1248.00
32635,-405.00,1381.00,-17537.00,1740.00,1772.00,18764.00,-1248.00
32692,132.00,1110.00,-16061.00,-508.00,896.00,17608.00,-1248.00
32748,-30.00,657.00,-13791.00,-4.00,1240.00,19248.00,-1264.00
32804,-2715.00,491.00,-19001.00,-1116.00,500.00,18268.00,-1264.00
32862,-3167.00,2704.00,-20311.00,1196.00,652.00,18460.00,-1232.00
32918,-474.00,493.00,-14225.00,-1440.00,-644.00,18084.00,-1264.00
32975,1223.00,508.00,-2551.00,-1196.00,-664.00,19388.00,-1216.00
33032,146.00,-439.00,-778.00,144.00,-132.00,18708.00,-1232.00
33088,226.00,482.00,4508.00,-904.00,-340.00,18436.00,-1232.00
33144,-362.00,1013.00,9557.00,-984.00,-264.00,17992.00,-1248.00
33202,1133.00,-1201.00,15498.00,-1052.00,-264.00,18096.00,-1216.00
33258,1564.00,-864.00,17112.00,-1708.00,-440.00,18300.00,-1248.00
33315,940.00,-378.00,15467.00,-948.00,512.00,18544.00,-1248.00
33372,1838.00,-35.00,15434.00,-1136.00,940.00,18016.00,-1216.00
33428,-150.00,421.00,12548.00,-1104.00,1180.00,18260.00,-1216.00
33485,-509.00,-50.00,14044.00,-620.00,1200.00,17920.00,-1232.00
33542,156.00,-401.00,11806.00,-704.00,1252.00,18316.00,-1248.00
33598,569.00,-999.00,13451.00,4.00,1900.00,17796.00,-1232.00
33654,1272.00,-2413.00,14930.00,-640.00,2664.00,18612.00,-1216.00
33712,-2128.00,-2410.00,18984.00,16.00,2232.00,18364.00,-1248.00
33768,-1981.00,-1867.00,20784.00,2072.00,1468.00,17712.00,-1248.00
33825,-495.00,-2089.00,20167.00,928.00,1568.00,18436.00,-1280.00
33882,-1570.00,-518.00,16472.00,1644.00,352.00,18876.00,-1248.00
33939,-657.00,-107.00,13068.00,1472.00,1344.00,18540.00,-1232.00
33995,-2560.00,-180.00,13172.00,2360.00,304.00,18272.00,-1248.00
34052,-530.00,-826.00,14576.00,2328.00,-552.00,17880.00,-1280.00
34109,1632.00,2037.00,12838.00,1844.00,-4.00,18052.00,-1264.00
34165,878.00,524.00,6093.00,816.00,-16.00,19148.00,-1264.00
34222,1042.00,-417.00,-5395.00,1364.00,828.00,18232.00,-1264.00
34278,-216.00,253.00,-12794.00,2188.00,252.00,18724.00,-1248.00
34335,79.00,2278.00,-16794.00,1756.00,736.00,18020.00,-1232.00
34392,-755.00,1266.00,-18791.00,1304.00,588.00,18596.00,-1248.00
34449,1863.00,2747.00,-23313.00,1280.00,228.00,18360.00,-1232.00
34505,326.00,2209.00,-22338.00,732.00,716.00,18676.00,-1248.00
34562,182.00,1710.00,-20538.00,1016.00,472.00,18608.00,-1232.00
34619,2824.00,449.00,-18704.00,296.00,1604.00,17752.00,-1216.00
34675,323.00,-729.00,-13902.00,820.00,1048.00,18192.00,-1264.00
34732,-374.00,1319.00,-11943.00,80.00,944.00,18356.00,-1248.00
34789,518.00,-516.00,-7057.00,160.00,960.00,18220.00,-1264.00
34845,1076.00,-956.00,-3008.00,-200.00,1000.00,18540.00,-1264.00
34902,222.00,-418.00,1154.00,60.00,776.00,18116.00,-1264.00
34958,291.00,-2326.00,2092.00,32.00,708.00,18648.00,-1232.00
35015,-771.00,808.00,154.00,1040.00,1248.00,18420.00,-1264.00
35072,-3788.00,310.00,-2142.00,1400.00,1180.00,19124.00,-1232.00
35128,853.00,-1556.00,3212.00,-740.00,248.00,16400.00,-1264.00
35185,2623.00,-3654.00,4403.00,1404.00,976.00,18636.00,-1232.00
35241,-2383.00,4351.00,-1574.00,456.00,848.00,17356.00,-1232.00
35298,-151.00,1600.00,1411.00,556.00,-776.00,19160.00,-1264.00
35355,546.00,3396.00,2065.00,-572.00,-432.00,19168.00,-1280.00
35411,984.00,-341.00,-1005.00,-400.00,1144.00,18180.00,-1248.00
35468,-1837.00,-3252.00,-1290.00,-144.00,340.00,17464.00,-1264.00
35525,620.00,-438.00,168.00,880.00,-60.00,18088.00,-1280.00
35581,2594.00,2183.00,-1637.00,-712.00,788.00,18808.00,-1264.00
35638,2069.00,633.00,-1583.00,304.00,1064.00,18732.00,-1248.00
35694,603.00,555.00,-735.00,28.00,680.00,18284.00,-1280.00
35751,425.00,-156.00,564.00,-452.00,976.00,18448.00,-1280.00
35808,-12.00,-60.00,557.00,588.00,1236.00,18676.00,-1264.00
35864,-1725.00,-1149.00,-218.00,-44.00,796.00,18580.00,-1248.00
35920,-860.00,-413.00,-1108.00,-212.00,864.00,18144.00,-1280.00
35977,79.00,100.00,1230.00,-28.00,468.00,18588.00,-1248.00
36034,334.00,108.00,-903.00,-136.00,900.00,18480.00,-1280.00
36090,-980.00,252.00,403.00,268.00,736.00,18284.00,-1296.00
36147,170.00,-450.00,-853.00,-12.00,624.00,18348.00,-1312.00
36203,-519.00,983.00,-369.00,-128.00,772.00,18176.00,-1280.00
36259,313.00,-1137.00,527.00,732.00,536.00,18568.00,-1232.00
36316,259.00,521.00,-356.00,-244.00,668.00,18324.00,-1264.00
36373,-83.00,-646.00,373.00,300.00,648.00,18204.00,-1296.00
36429,-39.00,565.00,-409.00,-280.00,632.00,18312.00,-1280.00
36486,172.00,-635.00,-22.00,508.00,676.00,18616.00,-1280.00
36542,179.00,571.00,-54.00,-68.00,688.00,18576.00,-1264.00
36598,-6.00,105.00,-120.00,748.00,612.00,18728.00,-1280.00
36655,87.00,-221.00,251.00,20.00,752.00,18304.00,-1264.00
36711,18.00,131.00,-173.00,-120.00,776.00,18388.00,-1280.00
36767,-89.00,-171.00,-38.00,392.00,524.00,18208.00,-1264.00
36825,214.00,286.00,-42.00,240.00,760.00,18672.00,-1248.00
36881,-309.00,-442.00,-179.00,696.00,628.00,18272.00,-1264.00
36937,-240.00,-51.00,747.00,292.00,596.00,18320.00,-1296.00
36994,108.00,300.00,-444.00,4.00,480.00,18500.00,-1296.00
37050,276.00,-423.00,-193.00,304.00,336.00,18292.00,-1264.00
37106,432.00,222.00,-207.00,160.00,592.00,18288.00,-1264.00
37163,179.00,-135.00,-166.00,452.00,584.00,18488.00,-1264.00
37220,421.00,346.00,51.00,-92.00,764.00,18028.00,-1296.00
37276,-234.00,431.00,-306.00,668.00,500.00,18632.00,-1280.00
37332,-129.00,47.00,-574.00,172.00,716.00,18188.00,-1312.00
37389,179.00,-21.00,-366.00,236.00,636.00,18536.00,-1280.00
37445,513.00,-39.00,344.00,372.00,600.00,18240.00,-1328.00
37501,463.00,-48.00,28.00,120.00,668.00,18268.00,-1296.00
37558,166.00,-471.00,-622.00,568.00,776.00,18596.00,-1280.00
37615,163.00,-15.00,-402.00,364.00,812.00,18192.00,-1312.00
37671,403.00,-227.00,-230.00,0.00,740.00,18312.00,-1280.00
37728,158.00,-43.00,-697.00,84.00,784.00,18324.00,-1296.00
37784,548.00,-658.00,-24.00,396.00,820.00,18500.00,-1280.00
37840,-80.00,476.00,-229.00,188.00,840.00,18192.00,-1264.00
37897,656.00,-781.00,-110.00,440.00,824.00,18224.00,-1264.00
37953,124.00,390.00,-266.00,236.00,860.00,18596.00,-1328.00
38010,79.00,371.00,-352.00,736.00,768.00,18492.00,-1328.00
38067,-344.00,303.00,-208.00,100.00,1072.00,18396.00,-1312.00
38123,344.00,97.00,-225.00,412.00,736.00,18568.00,-1296.00
38179,-262.00,-49.00,-349.00,412.00,824.00,18284.00,-1280.00
38236,143.00,-14.00,-176.00,240.00,924.00,18508.00,-1312.00
38292,-29.00,-212.00,-352.00,260.00,804.00,18088.00,-1296.00
38348,-151.00,335.00,29.00,440.00,812.00,18376.00,-1280.00
38406,-170.00,240.00,-403.00,320.00,744.00,18356.00,-1312.00
38462,372.00,-556.00,-461.00,192.00,820.00,18220.00,-1312.00
38518,88.00,450.00,-184.00,268.00,824.00,18372.00,-1280.00
38575,64.00,-524.00,-412.00,308.00,764.00,18444.00,-1296.00
38631,143.00,291.00,-87.00,180.00,844.00,18532.00,-1264.00
38687,137.00,160.00,-201.00,356.00,724.00,18524.00,-1312.00
38745,244.00,-555.00,-301.00,184.00,936.00,18364.00,-1312.00
38801,14.00,345.00,-240.00,564.00,736.00,18700.00,-1312.00
38857,-409.00,7.00,-44.00,24.00,880.00,18324.00,-1296.00
38914,-16.00,-739.00,-580.00,-104.00,828.00,18248.00,-1280.00
38970,-432.00,-1148.00,-1963.00,472.00,684.00,18052.00,-1264.00
39026,-1905.00,-2046.00,1106.00,-1528.00,228.00,16924.00,-1280.00
39084,-262.00,-2322.00,1223.00,704.00,608.00,18484.00,-1312.00
39140,-1544.00,-112.00,158.00,1124.00,56.00,17616.00,-1296.00
39196,863.00,85.00,581.00,1960.00,12.00,18296.00,-1296.00
39252,-440.00,411.00,1592.00,1036.00,248.00,18236.00,-1280.00
39310,993.00,948.00,-274.00,716.00,308.00,18416.00,-1328.00
39366,844.00,453.00,-828.00,1248.00,304.00,18216.00,-1264.00
39422,757.00,1130.00,-984.00,1912.00,492.00,18836.00,-1296.00
39479,489.00,830.00,455.00,696.00,640.00,18508.00,-1312.00
39535,-7.00,728.00,-616.00,1352.00,676.00,18516.00,-1280.00
39592,358.00,789.00,615.00,220.00,668.00,18308.00,-1280.00
39649,313.00,289.00,-456.00,196.00,756.00,18752.00,-1280.00
39705,-57.00,-66.00,-234.00,88.00,600.00,18244.00,-1312.00
39761,122.00,-171.00,-1011.00,520.00,484.00,18092.00,-1280.00
39818,-410.00,379.00,-401.00,352.00,624.00,18484.00,-1296.00
39874,246.00,868.00,-762.00,356.00,640.00,18756.00,-1312.00
39931,-601.00,-221.00,-615.00,388.00,640.00,18504.00,-1280.00
39988,-79.00,468.00,-534.00,100.00,348.00,18240.00,-1280.00
40044,21.00,389.00,-800.00,44.00,468.00,18488.00,-1312.00
40100,540.00,936.00,-913.00,176.00,240.00,17920.00,-1296.00
40157,544.00,-158.00,-277.00,32.00,620.00,18440.00,-1312.00
40213,599.00,854.00,-815.00,776.00,676.00,18752.00,-1312.00
40270,299.00,1219.00,937.00,1660.00,116.00,18412.00,-1312.00
40327,-221.00,776.00,-515.00,-776.00,732.00,18560.00,-1312.00
40383,295.00,1096.00,-668.00,424.00,500.00,17824.00,-1344.00
40439,695.00,362.00,-508.00,-332.00,476.00,18440.00,-1312.00
40496,414.00,3055.00,558.00,232.00,872.00,19020.00,-1312.00
40553,-1064.00,400.00,1970.00,132.00,576.00,18700.00,-1312.00
40609,-1578.00,-1034.00,-838.00,-892.00,336.00,17076.00,-1296.00
40666,118.00,694.00,-265.00,196.00,224.00,19256.00,-1328.00
40722,1311.00,-130.00,-1306.00,-364.00,496.00,18200.00,-1328.00
40779,1307.00,-104.00,-1094.00,-156.00,660.00,18084.00,-1312.00
40836,350.00,-724.00,-886.00,-652.00,616.00,18032.00,-1312.00
40892,1304.00,9.00,608.00,384.00,-184.00,18632.00,-1344.00
40948,-37.00,105.00,1101.00,-1032.00,1760.00,18928.00,-1344.00
41006,617.00,-142.00,-285.00,-576.00,988.00,18400.00,-1312.00
41062,-269.00,-34.00,-1014.00,-536.00,732.00,17752.00,-1344.00
41118,852.00,-8.00,-688.00,-556.00,928.00,18476.00,-1344.00
41175,123.00,324.00,-182.00,-116.00,1008.00,18472.00,-1312.00
41231,271.00,-68.00,-370.00,-504.00,968.00,18200.00,-1328.00
41288,-195.00,197.00,-80.00,-348.00,940.00,18560.00,-1344.00
41345,-358.00,-783.00,213.00,-388.00,996.00,18504.00,-1344.00
41401,-311.00,176.00,313.00,-204.00,852.00,18508.00,-1312.00
41457,321.00,-189.00,9.00,-628.00,864.00,17928.00,-1328.00
41513,-131.00,88.00,-338.00,-164.00,620.00,18228.00,-1344.00
41570,283.00,-9.00,-287.00,-696.00,872.00,18212.00,-1344.00
41626,51.00,-15.00,-683.00,212.00,780.00,18456.00,-1360.00
41682,-223.00,-124.00,-299.00,-188.00,896.00,18212.00,-1344.00
41740,-123.00,-293.00,-124.00,-368.00,796.00,18532.00,-1344.00
41796,-183.00,-109.00,-323.00,-372.00,660.00,18316.00,-1344.00
41852,192.00,18.00,-118.00,-264.00,840.00,18640.00,-1344.00
41909,196.00,93.00,-370.00,-148.00,692.00,18340.00,-1360.00
41965,131.00,37.00,62.00,-196.00,888.00,18600.00,-1328.00
42021,151.00,-178.00,-294.00,-312.00,764.00,18104.00,-1344.00
42079,238.00,-56.00,253.00,-560.00,760.00,18484.00,-1344.00
42135,376.00,-620.00,-693.00,-472.00,720.00,18584.00,-1328.00
42191,679.00,-176.00,-947.00,-76.00,568.00,18272.00,-1360.00
42248,182.00,-135.00,-432.00,-192.00,1004.00,18388.00,-1360.00
42304,-93.00,163.00,-273.00,-68.00,760.00,18464.00,-1360.00
42360,384.00,151.00,-643.00,-480.00,1036.00,18392.00,-1312.00
42418,-951.00,-444.00,-360.00,-316.00,800.00,18648.00,-1360.00
42474,-1927.00,-2193.00,381.00,428.00,580.00,17820.00,-1328.00
42530,-5091.00,-2529.00,-108.00,360.00,224.00,19220.00,-1360.00
42587,-7513.00,-225.00,1131.00,1396.00,-648.00,19052.00,-1344.00
42644,-4771.00,2704.00,-1315.00,-52.00,-1460.00,17720.00,-1328.00
42700,-6793.00,1281.00,-1873.00,372.00,-1988.00,18536.00,-1344.00
42758,-6999.00,-2096.00,-327.00,164.00,-3008.00,18148.00,-1360.00
42814,-9339.00,-384.00,302.00,232.00,-4332.00,18016.00,-1344.00
42870,-9113.00,-1221.00,179.00,804.00,-5296.00,17756.00,-1360.00
42928,-13953.00,-904.00,1479.00,824.00,-6452.00,17204.00,-1344.00
42984,-9496.00,-81.00,1464.00,680.00,-8004.00,16716.00,-1360.00
43040,-10314.00,861.00,951.00,252.00,-9596.00,15372.00,-1344.00
43098,-7939.00,-293.00,-600.00,584.00,-10140.00,15180.00,-1360.00
43154,-6986.00,-3183.00,-2594.00,884.00,-10380.00,14444.00,-1360.00
43210,-2352.00,357.00,517.00,1124.00,-11556.00,13640.00,-1360.00
43268,7583.00,2401.00,1061.00,804.00,-11252.00,14376.00,-1360.00
43324,17733.00,1190.00,1975.00,712.00,-10208.00,15212.00,-1344.00
43381,24708.00,2060.00,300.00,232.00,-7072.00,16168.00,-1344.00
43438,24981.00,1999.00,930.00,112.00,-3808.00,16924.00,-1360.00
43494,18379.00,2688.00,665.00,176.00,-2056.00,18284.00,-1360.00
43551,12021.00,1630.00,749.00,-736.00,-12.00,18828.00,-1376.00
43608,11363.00,-151.00,-44.00,-1072.00,764.00,18888.00,-1344.00
43664,12503.00,762.00,598.00,-192.00,2840.00,18064.00,-1360.00
43721,15455.00,-2188.00,1170.00,-208.00,4576.00,17976.00,-1376.00
43778,15113.00,-2925.00,-727.00,16.00,6540.00,17532.00,-1360.00
43835,14197.00,378.00,-1368.00,104.00,8136.00,17200.00,-1344.00
43891,11222.00,670.00,-570.00,-672.00,8848.00,15224.00,-1392.00
43948,14138.00,-354.00,-1031.00,-112.00,10116.00,13908.00,-1376.00
44005,14437.00,-1093.00,-1558.00,492.00,12104.00,13276.00,-1376.00
44061,7687.00,-923.00,-477.00,-464.00,13360.00,13100.00,-1376.00
44119,-3355.00,-995.00,-872.00,-604.00,13452.00,13044.00,-1328.00
44175,-13424.00,-990.00,-1339.00,40.00,12544.00,13428.00,-1376.00
44231,-22921.00,-706.00,352.00,-252.00,11124.00,14648.00,-1360.00
44289,-22705.00,-1407.00,1201.00,412.00,8220.00,15892.00,-1344.00
44345,-17760.00,-1005.00,931.00,840.00,6076.00,16292.00,-1344.00
44401,-14469.00,559.00,370.00,16.00,3624.00,17532.00,-1360.00
44459,-12063.00,-1638.00,95.00,120.00,2208.00,17684.00,-1376.00
44515,-10258.00,421.00,840.00,144.00,724.00,17676.00,-1376.00
44571,-9478.00,-1913.00,141.00,584.00,-708.00,18748.00,-1376.00
44628,-12577.00,-1493.00,-93.00,1256.00,-1668.00,18608.00,-1360.00
44685,-16599.00,-2304.00,9.00,1420.00,-3504.00,18020.00,-1360.00
44741,-12923.00,-1843.00,17.00,992.00,-4112.00,17952.00,-1376.00
44798,-14852.00,-1223.00,-281.00,1272.00,-7892.00,14668.00,-1376.00
44855,-8564.00,21.00,135.00,928.00,-8472.00,16452.00,-1376.00
44911,-7276.00,286.00,-289.00,1256.00,-9184.00,15308.00,-1376.00
44968,-3973.00,-687.00,528.00,1380.00,-9492.00,14756.00,-1360.00
45025,-774.00,-76.00,13.00,1388.00,-10152.00,14680.00,-1376.00
45081,7321.00,27.00,-329.00,1724.00,-10224.00,15880.00,-1344.00
45138,14834.00,2290.00,-27.00,1676.00,-8608.00,16012.00,-1360.00
45195,19219.00,-131.00,1711.00,1308.00,-6436.00,16808.00,-1376.00
45252,16639.00,675.00,738.00,1136.00,-4604.00,17708.00,-1376.00
45308,13027.00,1891.00,-393.00,580.00,-3104.00,18200.00,-1392.00
45365,15594.00,2389.00,183.00,232.00,-964.00,17976.00,-1376.00
45422,16162.00,1271.00,-549.00,308.00,1124.00,18600.00,-1344.00
45478,18957.00,-207.00,-835.00,540.00,3364.00,17736.00,-1376.00
45535,18072.00,2377.00,-1073.00,176.00,5660.00,18128.00,-1376.00
45592,13429.00,-1100.00,-301.00,-36.00,7540.00,16968.00,-1376.00
45648,12300.00,428.00,-1110.00,112.00,8648.00,15584.00,-1344.00
45706,16069.00,-396.00,1025.00,-504.00,9768.00,14344.00,-1376.00
45762,18668.00,209.00,-928.00,288.00,11432.00,12820.00,-1360.00
45818,14355.00,632.00,-2321.00,56.00,13896.00,12400.00,-1376.00
45876,3099.00,-1057.00,740.00,-240.00,14404.00,11428.00,-1376.00
45932,-6159.00,-341.00,-1991.00,-316.00,14296.00,11172.00,-1376.00
45989,-10185.00,-211.00,-1857.00,-364.00,12984.00,12072.00,-1392.00
46046,-22229.00,2389.00,-1385.00,-144.00,11844.00,13732.00,-1360.00
46102,-27074.00,-1317.00,3011.00,128.00,9752.00,15620.00,-1376.00
46159,-19013.00,184.00,-2359.00,-1028.00,6556.00,16648.00,-1376.00
46216,-13319.00,106.00,62.00,-308.00,4888.00,17136.00,-1392.00
46273,-15626.00,-3166.00,1259.00,-660.00,2820.00,18068.00,-1376.00
46329,-12896.00,-1771.00,746.00,8.00,1444.00,18572.00,-1360.00
46386,-9463.00,-2833.00,2395.00,508.00,-132.00,18156.00,-1376.00
46443,-10214.00,-1701.00,914.00,460.00,-1068.00,17956.00,-1376.00
46499,-12856.00,-2013.00,-524.00,884.00,-2512.00,18560.00,-1376.00
46556,-13743.00,-1837.00,-801.00,1160.00,-4296.00,17584.00,-1392.00
46613,-14135.00,-1247.00,753.00,900.00,-5952.00,17176.00,-1392.00
46669,-10938.00,-2007.00,-1160.00,1680.00,-7608.00,16792.00,-1392.00
46727,-6430.00,-136.00,182.00,1656.00,-8096.00,15396.00,-1392.00
46783,-1866.00,-520.00,-1569.00,1456.00,-8748.00,15448.00,-1392.00
46840,2746.00,644.00,-62.00,1328.00,-8940.00,15596.00,-1376.00
46897,12046.00,2777.00,755.00,1064.00,-8244.00,16488.00,-1392.00
46953,17824.00,2856.00,-928.00,1040.00,-6876.00,16864.00,-1376.00
47010,19658.00,2386.00,66.00,932.00,-3884.00,18376.00,-1376.00
47067,18573.00,1081.00,604.00,624.00,-1776.00,17812.00,-1392.00
47123,14191.00,399.00,478.00,744.00,556.00,18388.00,-1408.00
47180,11369.00,2000.00,1101.00,-468.00,1380.00,17968.00,-1392.00
47237,15642.00,-1318.00,-505.00,20.00,3528.00,17380.00,-1392.00
47294,16999.00,302.00,-1259.00,784.00,5476.00,17236.00,-1408.00
47350,17039.00,-1650.00,36.00,456.00,7812.00,17660.00,-1392.00
47407,12734.00,549.00,-516.00,36.00,8928.00,16008.00,-1440.00
47464,8129.00,-705.00,-103.00,504.00,10392.00,15336.00,-1392.00
47520,10397.00,69.00,-375.00,572.00,10508.00,13672.00,-1408.00
47577,15466.00,-1114.00,-305.00,412.00,11876.00,12508.00,-1392.00
47634,17967.00,-691.00,-1176.00,812.00,13708.00,11808.00,-1408.00
47690,9654.00,32.00,-781.00,-96.00,14604.00,10196.00,-1376.00
47747,432.00,-1593.00,774.00,300.00,15660.00,9860.00,-1424.00
47804,-6885.00,-380.00,650.00,888.00,15088.00,10040.00,-1408.00
47860,-13741.00,935.00,-673.00,1048.00,14408.00,11688.00,-1392.00
47917,-22891.00,74.00,695.00,92.00,12564.00,12952.00,-1392.00
47974,-25608.00,-687.00,865.00,464.00,10092.00,14484.00,-1392.00
48030,-20092.00,-277.00,680.00,896.00,7420.00,15568.00,-1360.00
48087,-16221.00,-365.00,1263.00,712.00,5324.00,17288.00,-1408.00
48144,-12754.00,-468.00,-18.00,768.00,3748.00,17484.00,-1408.00
48200,-11103.00,-1559.00,960.00,1232.00,2400.00,17960.00,-1408.00
48257,-11864.00,819.00,928.00,1224.00,800.00,18820.00,-1344.00
48314,-14479.00,183.00,26.00,796.00,-824.00,18800.00,-1392.00
48370,-16373.00,422.00,-52.00,1084.00,-2760.00,18148.00,-1376.00
48427,-15902.00,-608.00,-1248.00,1036.00,-4792.00,17160.00,-1360.00
48484,-11110.00,-617.00,-1244.00,1240.00,-7112.00,17504.00,-1392.00
48540,-9800.00,264.00,-516.00,776.00,-7568.00,16568.00,-1392.00
48598,-8725.00,-819.00,-1272.00,1284.00,-8132.00,15928.00,-1424.00
48654,-7938.00,-170.00,514.00,960.00,-9800.00,15376.00,-1392.00
48710,-4286.00,-222.00,-284.00,1108.00,-10788.00,14796.00,-1392.00
48768,3029.00,114.00,-314.00,1368.00,-10508.00,15112.00,-1424.00
48824,7881.00,1695.00,1406.00,1444.00,-9984.00,15404.00,-1376.00
48880,14446.00,1816.00,1754.00,768.00,-8872.00,15948.00,-1408.00
48937,18521.00,1254.00,325.00,916.00,-6512.00,17112.00,-1392.00
48994,17066.00,350.00,127.00,632.00,-4176.00,17848.00,-1424.00
49051,16612.00,-786.00,209.00,336.00,-2412.00,17700.00,-1376.00
49107,13355.00,-242.00,-944.00,864.00,-356.00,18440.00,-1408.00
49164,13217.00,2481.00,-676.00,776.00,1276.00,18584.00,-1392.00
49221,13014.00,-96.00,-846.00,372.00,2868.00,17552.00,-1440.00
49277,13586.00,855.00,-795.00,196.00,4604.00,17724.00,-1392.00
49334,10565.00,1463.00,-1077.00,380.00,5848.00,17124.00,-1376.00
49391,9239.00,582.00,-919.00,56.00,6852.00,16860.00,-1376.00
49447,10355.00,885.00,-537.00,452.00,8640.00,16508.00,-1408.00
49504,12721.00,1829.00,-128.00,-348.00,9180.00,16000.00,-1392.00
49561,9698.00,265.00,-413.00,-360.00,10488.00,14884.00,-1408.00
49617,5907.00,-366.00,20.00,-256.00,11044.00,13720.00,-1456.00
49674,5198.00,627.00,-830.00,408.00,11400.00,13200.00,-1408.00
49731,2627.00,184.00,-736.00,-80.00,12328.00,13736.00,-1408.00
49787,-3178.00,489.00,-49.00,-232.00,11872.00,13196.00,-1392.00
49844,-10513.00,699.00,-1459.00,-332.00,11804.00,14336.00,-1408.00
49901,-18026.00,1549.00,207.00,-192.00,10152.00,15144.00,-1424.00
49957,-17366.00,18.00,815.00,-436.00,8220.00,15868.00,-1424.00
50014,-16454.00,787.00,-52.00,-68.00,6276.00,17400.00,-1408.00
50071,-13906.00,-2367.00,-400.00,-164.00,4292.00,17952.00,-1408.00
50127,-15089.00,-457.00,398.00,208.00,2708.00,18140.00,-1408.00
50184,-11511.00,74.00,-43.00,-612.00,760.00,17552.00,-1408.00
50241,-11602.00,-653.00,-317.00,-204.00,-500.00,18024.00,-1424.00
50297,-15649.00,-1405.00,-1649.00,-120.00,-2128.00,18268.00,-1376.00
50354,-12979.00,-921.00,-415.00,488.00,-4156.00,17248.00,-1408.00
50411,-10392.00,-186.00,-203.00,204.00,-5480.00,17544.00,-1392.00
50467,-11735.00,-606.00,-1236.00,444.00,-6784.00,17372.00,-1408.00
50524,-7595.00,-29.00,-735.00,608.00,-8132.00,15664.00,-1424.00
50581,-5466.00,-643.00,30.00,396.00,-8916.00,15724.00,-1376.00
50637,-257.00,65.00,230.00,540.00,-9040.00,15548.00,-1408.00
50694,609.00,-569.00,-470.00,844.00,-8836.00,15752.00,-1408.00
50750,5719.00,1399.00,1170.00,700.00,-8756.00,15792.00,-1440.00
50807,12003.00,-591.00,-70.00,104.00,-8288.00,16528.00,-1408.00
50864,16331.00,-438.00,-947.00,576.00,-6252.00,17244.00,-1408.00
50920,16415.00,1457.00,-133.00,804.00,-4276.00,17792.00,-1408.00
50977,15895.00,269.00,-107.00,272.00,-2356.00,18848.00,-1392.00
51034,15875.00,-335.00,-1066.00,404.00,-324.00,18452.00,-1408.00
51090,18911.00,467.00,-1617.00,664.00,2308.00,18408.00,-1424.00
51147,15200.00,598.00,-927.00,-76.00,3940.00,17916.00,-1424.00
51204,11578.00,352.00,-32.00,492.00,5892.00,18128.00,-1424.00
51260,10123.00,-688.00,-806.00,108.00,7008.00,16480.00,-1440.00
51317,9236.00,309.00,242.00,112.00,7716.00,15852.00,-1424.00
51374,12957.00,-644.00,-685.00,492.00,9144.00,15616.00,-1424.00
51430,14608.00,-495.00,-574.00,288.00,9988.00,13692.00,-1408.00
51487,13794.00,427.00,-1887.00,-476.00,12124.00,13764.00,-1408.00
51544,8857.00,-581.00,-619.00,48.00,12920.00,12472.00,-1424.00
51600,1838.00,770.00,-676.00,-268.00,13232.00,12160.00,-1376.00
51657,-2466.00,-220.00,-614.00,-236.00,13516.00,12260.00,-1424.00
51714,-6295.00,-695.00,1217.00,468.00,13232.00,13300.00,-1408.00
51770,-13195.00,178.00,403.00,244.00,12212.00,13756.00,-1392.00
51827,-19041.00,237.00,747.00,-248.00,10624.00,15184.00,-1424.00
51884,-21579.00,1675.00,-75.00,-364.00,7992.00,15932.00,-1408.00
51941,-20305.00,-466.00,542.00,460.00,6264.00,17648.00,-1440.00
51997,-17595.00,-1032.00,1024.00,336.00,3912.00,17328.00,-1440.00
52054,-16893.00,-876.00,1017.00,508.00,1608.00,18224.00,-1424.00
52111,-11844.00,314.00,494.00,-384.00,-472.00,18140.00,-1424.00
52167,-11044.00,-1001.00,308.00,544.00,-1696.00,18356.00,-1424.00
52224,-12583.00,-1053.00,-56.00,784.00,-3144.00,18672.00,-1424.00
52281,-15479.00,-963.00,-296.00,288.00,-4820.00,17520.00,-1408.00
52337,-13335.00,384.00,119.00,644.00,-6676.00,16884.00,-1456.00
52393,-9037.00,115.00,-655.00,228.00,-8308.00,16444.00,-1408.00
52451,-5713.00,-490.00,-275.00,748.00,-8540.00,15596.00,-1440.00
52507,2672.00,350.00,226.00,668.00,-9272.00,16068.00,-1456.00
52563,11385.00,320.00,-363.00,616.00,-8416.00,16636.00,-1392.00
52621,17194.00,317.00,-616.00,504.00,-6764.00,17092.00,-1440.00
52677,20272.00,1574.00,-710.00,664.00,-3716.00,17364.00,-1424.00
52733,19911.00,403.00,-736.00,224.00,-1680.00,18592.00,-1440.00
52791,17212.00,14.00,-1129.00,676.00,724.00,18184.00,-1424.00
52847,17114.00,603.00,-604.00,-276.00,2468.00,17952.00,-1408.00
52903,15031.00,-1044.00,-1900.00,484.00,4868.00,17872.00,-1424.00
52961,12057.00,-1021.00,-957.00,372.00,5996.00,17108.00,-1424.00
53017,9415.00,-1096.00,-961.00,140.00,7544.00,17152.00,-1440.00
53074,7762.00,1609.00,-1221.00,20.00,7900.00,15380.00,-1456.00
53131,6189.00,-404.00,53.00,444.00,9192.00,16172.00,-1408.00
53187,10929.00,113.00,-1105.00,280.00,9984.00,14516.00,-1408.00
53243,13731.00,-159.00,-1767.00,492.00,11488.00,14852.00,-1424.00
53301,9770.00,587.00,585.00,-152.00,12308.00,13416.00,-1376.00
53357,10226.00,379.00,-1602.00,-440.00,12828.00,12248.00,-1440.00
53414,11384.00,490.00,-787.00,-64.00,14260.00,11716.00,-1424.00
53471,4801.00,132.00,656.00,-240.00,15384.00,10852.00,-1440.00
53527,-6964.00,630.00,110.00,-496.00,14700.00,10516.00,-1392.00
53584,-12509.00,1729.00,402.00,608.00,13360.00,10704.00,-1440.00
53641,-13530.00,436.00,963.00,-396.00,13196.00,12628.00,-1456.00
53698,-17119.00,644.00,18.00,152.00,11600.00,14476.00,-1456.00
53754,-20506.00,382.00,408.00,-164.00,9776.00,16268.00,-1408.00
53811,-19430.00,822.00,380.00,148.00,7236.00,15908.00,-1440.00
53868,-15945.00,-440.00,922.00,-100.00,5024.00,17628.00,-1424.00
53924,-12745.00,-467.00,318.00,48.00,3756.00,18208.00,-1440.00
53981,-13471.00,43.00,565.00,-28.00,1756.00,18272.00,-1424.00
54037,-11338.00,149.00,99.00,-44.00,396.00,18260.00,-1456.00
54094,-9185.00,-918.00,327.00,232.00,-1292.00,18404.00,-1440.00
54151,-15322.00,1023.00,657.00,416.00,-2088.00,18104.00,-1424.00
54207,-17287.00,-442.00,-952.00,288.00,-4460.00,18048.00,-1456.00
54264,-11741.00,-348.00,-626.00,272.00,-6480.00,17476.00,-1440.00
54321,-11408.00,76.00,-960.00,176.00,-7252.00,16356.00,-1424.00
54377,-9585.00,63.00,181.00,512.00,-8460.00,15744.00,-1440.00
54433,-7961.00,-402.00,-113.00,-92.00,-9412.00,15016.00,-1440.00
54491,923.00,-394.00,-379.00,244.00,-10596.00,15140.00,-1440.00
54547,8312.00,575.00,-56.00,504.00,-10436.00,15876.00,-1456.00
54603,17825.00,2544.00,1236.00,336.00,-8232.00,15616.00,-1440.00
54661,19291.00,922.00,378.00,-484.00,-6168.00,17244.00,-1408.00
54717,21967.00,1666.00,364.00,-224.00,-3104.00,17656.00,-1456.00
54773,22390.00,-981.00,-1206.00,-92.00,-448.00,18272.00,-1424.00
54831,25144.00,1918.00,-473.00,-436.00,2380.00,17200.00,-1424.00
54887,24229.00,-703.00,-2128.00,-588.00,5660.00,17616.00,-1456.00
54944,15777.00,626.00,-571.00,-1100.00,7256.00,16340.00,-1440.00
55001,11420.00,-1049.00,-1258.00,-756.00,9408.00,15824.00,-1440.00
55057,8946.00,1237.00,-297.00,-800.00,9784.00,14768.00,-1440.00
55114,12205.00,-286.00,335.00,-732.00,10800.00,13880.00,-1456.00
55171,13914.00,-62.00,119.00,-432.00,12084.00,12484.00,-1440.00
55227,13671.00,-51.00,-177.00,-1000.00,13016.00,11192.00,-1440.00
55284,8080.00,495.00,-916.00,-728.00,14348.00,10968.00,-1456.00
55341,1910.00,-164.00,206.00,-572.00,14196.00,9740.00,-1440.00
55398,-3467.00,347.00,189.00,-492.00,14344.00,10020.00,-1424.00
55454,-7334.00,-475.00,688.00,-656.00,14024.00,10176.00,-1440.00
55511,-15245.00,670.00,666.00,-504.00,13228.00,12148.00,-1424.00
55568,-23521.00,575.00,671.00,-960.00,11976.00,14108.00,-1472.00
55624,-28067.00,436.00,600.00,-320.00,9060.00,15732.00,-1424.00
55681,-22258.00,-182.00,1106.00,-396.00,6020.00,16420.00,-1440.00
55738,-17056.00,-612.00,814.00,-728.00,3836.00,17448.00,-1408.00
55794,-14090.00,55.00,576.00,-488.00,1932.00,17880.00,-1424.00
55851,-13675.00,-1488.00,628.00,-92.00,124.00,18292.00,-1440.00
55908,-15495.00,-693.00,230.00,96.00,-1744.00,18356.00,-1440.00
55964,-15723.00,-563.00,155.00,-128.00,-3632.00,18112.00,-1456.00
56020,-14909.00,40.00,-290.00,-428.00,-5420.00,17380.00,-1440.00
56078,-11792.00,-927.00,-1127.00,420.00,-7456.00,17136.00,-1472.00
56134,-8942.00,245.00,-168.00,444.00,-7956.00,16012.00,-1424.00
56190,-8875.00,-478.00,-841.00,-196.00,-9148.00,15580.00,-1472.00
56248,-5407.00,85.00,113.00,320.00,-9948.00,15216.00,-1440.00
56304,649.00,-490.00,-837.00,460.00,-10024.00,14912.00,-1440.00
56360,1353.00,486.00,828.00,628.00,-10176.00,15124.00,-1440.00
56417,11411.00,694.00,990.00,-392.00,-10688.00,15216.00,-1456.00
56474,20824.00,-220.00,-397.00,-52.00,-7484.00,16024.00,-1440.00
56530,22378.00,-609.00,-1508.00,296.00,-4628.00,17068.00,-1440.00
56588,23091.00,-1331.00,-1059.00,716.00,-2320.00,18848.00,-1456.00
56644,20388.00,102.00,-1626.00,660.00,636.00,18108.00,-1456.00
56700,17945.00,965.00,-1742.00,216.00,2960.00,18200.00,-1424.00
56758,17022.00,1141.00,-1170.00,-64.00,4976.00,17296.00,-1440.00
56814,14899.00,-140.00,-1663.00,-100.00,6868.00,17060.00,-1440.00
56870,12155.00,1571.00,-872.00,88.00,8140.00,15376.00,-1456.00
56928,15248.00,484.00,-878.00,-88.00,9520.00,14840.00,-1440.00
56984,18221.00,595.00,-1326.00,-268.00,11244.00,13408.00,-1472.00
57041,12172.00,-183.00,-75.00,-260.00,12840.00,13080.00,-1456.00
57098,2392.00,-198.00,-290.00,-436.00,14044.00,12784.00,-1440.00
57154,-2869.00,364.00,0.00,-212.00,13400.00,12056.00,-1424.00
57210,-4960.00,114.00,83.00,-172.00,13504.00,12544.00,-1424.00
57268,-10906.00,-497.00,1656.00,4.00,12104.00,12652.00,-1424.00
57324,-19670.00,862.00,1274.00,-220.00,11568.00,14864.00,-1440.00
57380,-23840.00,330.00,848.00,180.00,8696.00,15268.00,-1424.00
57438,-21454.00,480.00,1227.00,-228.00,6428.00,16940.00,-1472.00
57494,-14967.00,141.00,494.00,92.00,4116.00,17344.00,-1456.00
57550,-15348.00,-1475.00,204.00,-56.00,2308.00,18532.00,-1440.00
57608,-18857.00,-711.00,-414.00,476.00,168.00,18688.00,-1440.00
57664,-20850.00,-573.00,94.00,636.00,-2148.00,17984.00,-1424.00
57720,-16362.00,-110.00,19.00,280.00,-5052.00,17588.00,-1440.00
57778,-14877.00,-427.00,-534.00,204.00,-6476.00,17020.00,-1440.00
57834,-9521.00,676.00,-1217.00,624.00,-7320.00,17252.00,-1424.00
57890,-4407.00,912.00,247.00,168.00,-8832.00,15624.00,-1472.00
57948,-4944.00,554.00,109.00,12.00,-9752.00,15436.00,-1456.00
58004,-2588.00,179.00,354.00,-204.00,-10048.00,14964.00,-1456.00
58060,-308.00,-318.00,-225.00,76.00,-10260.00,15132.00,-1472.00
58118,-406.00,-165.00,-766.00,592.00,-9816.00,14876.00,-1440.00
58174,5659.00,1841.00,2955.00,-112.00,-10044.00,14912.00,-1440.00
58230,12429.00,-486.00,-988.00,-456.00,-9336.00,15712.00,-1472.00
58288,21375.00,-1513.00,354.00,360.00,-6932.00,16640.00,-1440.00
58344,20331.00,-1961.00,-957.00,500.00,-4504.00,17696.00,-1456.00
58400,23253.00,-4.00,-379.00,960.00,-1568.00,18512.00,-1440.00
58458,18270.00,-1371.00,-2016.00,188.00,648.00,18220.00,-1424.00
58514,15814.00,32.00,-1523.00,620.00,3016.00,18524.00,-1472.00
58570,13070.00,313.00,-1770.00,276.00,4336.00,17336.00,-1456.00
58628,11359.00,-204.00,-978.00,468.00,5712.00,16788.00,-1440.00
58684,13528.00,893.00,-919.00,528.00,7256.00,16844.00,-1456.00
58740,10140.00,414.00,-563.00,524.00,8408.00,15764.00,-1440.00
58798,9616.00,629.00,-738.00,100.00,9352.00,14904.00,-1456.00
58854,8605.00,32.00,-390.00,168.00,10164.00,13580.00,-1456.00
58910,10739.00,829.00,-1412.00,-260.00,11572.00,13752.00,-1472.00
58968,10282.00,-1771.00,294.00,96.00,12084.00,12144.00,-1440.00
59024,4486.00,996.00,-805.00,428.00,13760.00,12660.00,-1456.00
59080,-2872.00,525.00,-181.00,-208.00,13372.00,12092.00,-1408.00
59138,-6412.00,1001.00,-1011.00,-76.00,12808.00,12556.00,-1504.00
59194,-10251.00,762.00,796.00,32.00,12352.00,13864.00,-1472.00
59250,-17442.00,670.00,812.00,-604.00,11236.00,15200.00,-1456.00
59308,-27282.00,1071.00,992.00,432.00,8512.00,15732.00,-1472.00
59364,-22250.00,173.00,1831.00,-152.00,5228.00,16708.00,-1440.00
59421,-13517.00,702.00,631.00,-300.00,3248.00,17632.00,-1424.00
59478,-9000.00,-266.00,363.00,-588.00,2224.00,18176.00,-1440.00
59534,-9994.00,-352.00,191.00,-76.00,1120.00,19360.00,-1424.00
59591,-13728.00,-49.00,490.00,-64.00,-724.00,18576.00,-1440.00
59648,-12203.00,506.00,192.00,-160.00,-2264.00,18748.00,-1472.00
59704,-10719.00,203.00,-796.00,20.00,-3944.00,17756.00,-1424.00
59760,-9116.00,-432.00,-281.00,-180.00,-4992.00,16900.00,-1440.00
59817,-9821.00,99.00,-678.00,-244.00,-6540.00,18124.00,-1472.00
59874,-14273.00,-530.00,-103.00,228.00,-7296.00,17172.00,-1440.00
59930,-10827.00,-193.00,-286.00,16.00,-8316.00,15696.00,-1456.00
59987,-7513.00,-732.00,-1013.00,40.00,-9736.00,15600.00,-1440.00
60044,-3130.00,-279.00,183.00,-24.00,-11084.00,15324.00,-1504.00
60100,36.00,-334.00,-958.00,396.00,-10360.00,14604.00,-1456.00
60156,5318.00,-15.00,-836.00,216.00,-10132.00,15000.00,-1472.00
60214,17200.00,2035.00,-5.00,568.00,-9528.00,16728.00,-1456.00
60270,20495.00,677.00,-2331.00,132.00,-7124.00,17028.00,-1472.00
60326,22093.00,2100.00,-1948.00,600.00,-3872.00,18144.00,-1392.00
60384,18211.00,1311.00,-226.00,88.00,-1804.00,18480.00,-1456.00
60440,16177.00,-786.00,-482.00,-416.00,180.00,17340.00,-1472.00
60496,20556.00,-223.00,-2491.00,28.00,3112.00,18204.00,-1440.00
60554,15833.00,822.00,-926.00,-4.00,4612.00,17332.00,-1488.00
60610,11063.00,-187.00,349.00,-720.00,6332.00,18000.00,-1424.00
60666,7184.00,-850.00,-903.00,-44.00,7540.00,17244.00,-1472.00
60724,6635.00,212.00,1198.00,-352.00,7788.00,15600.00,-1472.00
60780,11616.00,57.00,-5.00,-160.00,9012.00,15408.00,-1456.00
60836,13351.00,-368.00,341.00,-160.00,10444.00,15208.00,-1472.00
60894,10483.00,-35.00,-317.00,76.00,11460.00,14028.00,-1456.00
60950,5582.00,-936.00,55.00,-20.00,12340.00,13036.00,-1440.00
61006,1394.00,208.00,-670.00,-112.00,12540.00,12880.00,-1472.00
61063,189.00,-515.00,-22.00,56.00,12460.00,12616.00,-1488.00
61120,-3423.00,-986.00,679.00,-72.00,12708.00,13232.00,-1472.00
61176,-8506.00,-391.00,691.00,196.00,12136.00,14104.00,-1456.00
61233,-20364.00,-977.00,2653.00,60.00,10884.00,15480.00,-1472.00
61290,-22714.00,1714.00,-593.00,892.00,8332.00,16216.00,-1472.00
61346,-19305.00,909.00,-4.00,236.00,4968.00,15724.00,-1456.00
61403,-11842.00,985.00,787.00,388.00,3808.00,17292.00,-1456.00
61460,-9148.00,-4.00,827.00,-240.00,2664.00,17884.00,-1440.00
61516,-9970.00,-995.00,485.00,224.00,1416.00,18892.00,-1440.00
61573,-13532.00,-854.00,419.00,464.00,-196.00,18492.00,-1456.00
61629,-12888.00,-151.00,469.00,672.00,-1620.00,18320.00,-1456.00
61686,-11186.00,-406.00,-80.00,372.00,-3420.00,18232.00,-1440.00
61743,-9052.00,-235.00,-51.00,252.00,-4628.00,17552.00,-1488.00
61799,-9730.00,-500.00,-148.00,528.00,-5780.00,17364.00,-1456.00
61856,-8700.00,201.00,-74.00,472.00,-6580.00,16920.00,-1472.00
61913,-8797.00,1.00,-280.00,420.00,-8024.00,15996.00,-1472.00
61969,-4586.00,-429.00,-454.00,728.00,-8672.00,15728.00,-1472.00
62025,-1325.00,-139.00,-27.00,424.00,-8892.00,15704.00,-1456.00
62083,-654.00,-304.00,-479.00,428.00,-9208.00,15652.00,-1456.00
62139,629.00,45.00,-1.00,564.00,-8648.00,15384.00,-1488.00
62195,6603.00,-318.00,-691.00,604.00,-9332.00,16156.00,-1472.00
62252,13091.00,216.00,-126.00,832.00,-7856.00,16504.00,-1456.00
62308,11710.00,179.00,-1473.00,884.00,-5796.00,16900.00,-1472.00
62365,10674.00,-503.00,-866.00,560.00,-4804.00,17580.00,-1424.00
62422,12743.00,-763.00,-1531.00,860.00,-3712.00,17548.00,-1472.00
62479,16379.00,2498.00,-979.00,1540.00,-1188.00,17340.00,-1472.00
62535,16042.00,2085.00,-296.00,328.00,604.00,19200.00,-1488.00
62592,15253.00,843.00,-665.00,776.00,2264.00,18312.00,-1472.00
62649,13496.00,981.00,-1400.00,252.00,4224.00,18268.00,-1456.00
62705,9438.00,45.00,-706.00,284.00,5456.00,17728.00,-1456.00
62761,8846.00,1350.00,-883.00,80.00,6612.00,17244.00,-1456.00
62819,8451.00,2004.00,-602.00,-192.00,7428.00,16656.00,-1488.00
62875,9315.00,2409.00,-1018.00,-636.00,8532.00,15648.00,-1472.00
62931,8905.00,-757.00,456.00,-448.00,9416.00,15208.00,-1472.00
62989,8233.00,663.00,-322.00,-448.00,10652.00,15104.00,-1440.00
63045,7740.00,633.00,-533.00,-556.00,11152.00,14156.00,-1456.00
63101,5585.00,-383.00,-320.00,-364.00,11980.00,13796.00,-1472.00
63159,-490.00,151.00,-211.00,-596.00,12284.00,13720.00,-1488.00
63215,-6551.00,-1673.00,1078.00,-316.00,11608.00,13292.00,-1504.00
63271,-8006.00,-213.00,1022.00,-152.00,10952.00,14396.00,-1488.00
63329,-12846.00,-1916.00,2639.00,12.00,9792.00,15096.00,-1472.00
63385,-15930.00,-511.00,1102.00,332.00,8540.00,16520.00,-1440.00
63442,-15941.00,-2339.00,1199.00,404.00,6704.00,17292.00,-1456.00
63499,-17058.00,1167.00,812.00,716.00,4676.00,17812.00,-1456.00
63555,-14315.00,535.00,728.00,548.00,2748.00,17564.00,-1472.00
63612,-9447.00,635.00,175.00,780.00,1044.00,18488.00,-1456.00
63669,-9127.00,130.00,540.00,304.00,100.00,18628.00,-1456.00
63725,-9473.00,301.00,-40.00,484.00,-1216.00,18648.00,-1472.00
63782,-9952.00,444.00,520.00,476.00,-2204.00,18056.00,-1472.00
63839,-9650.00,-54.00,-122.00,420.00,-3792.00,17956.00,-1504.00
63895,-8738.00,-798.00,-279.00,384.00,-4688.00,17972.00,-1472.00
63951,-6333.00,595.00,238.00,588.00,-5548.00,17536.00,-1488.00
64009,-6002.00,703.00,-718.00,84.00,-7044.00,17396.00,-1472.00
64065,-6816.00,36.00,-490.00,352.00,-7016.00,16656.00,-1472.00
64121,-6899.00,101.00,-425.00,684.00,-7732.00,16160.00,-1472.00
64178,-4712.00,472.00,17.00,164.00,-8320.00,15752.00,-1424.00
64235,-2296.00,-692.00,-606.00,92.00,-9228.00,16084.00,-1488.00
64291,5166.00,-445.00,-382.00,632.00,-9284.00,16244.00,-1488.00
64348,8067.00,-394.00,-633.00,336.00,-8584.00,16612.00,-1440.00
64405,9556.00,-811.00,-1144.00,532.00,-6968.00,16632.00,-1472.00
64461,12728.00,-559.00,-720.00,684.00,-5644.00,16932.00,-1488.00
64518,15152.00,-886.00,-885.00,428.00,-4096.00,17528.00,-1472.00
64575,17198.00,-1061.00,-1870.00,1400.00,-2020.00,18460.00,-1488.00
64631,15470.00,1098.00,-310.00,780.00,-8.00,18220.00,-1472.00
64688,13030.00,1118.00,-881.00,720.00,1516.00,18568.00,-1472.00
64745,12920.00,-443.00,-1006.00,780.00,3188.00,18200.00,-1488.00
64801,10428.00,489.00,-360.00,804.00,4368.00,17660.00,-1472.00
64858,12327.00,-208.00,-784.00,420.00,5932.00,17264.00,-1488.00
64915,8787.00,322.00,-569.00,840.00,6920.00,16760.00,-1472.00
64971,6794.00,-551.00,-520.00,544.00,7984.00,16468.00,-1456.00
65028,6182.00,340.00,-175.00,800.00,8480.00,15912.00,-1456.00
65085,4588.00,-108.00,-309.00,676.00,9156.00,15656.00,-1472.00
65141,3322.00,-301.00,198.00,668.00,9624.00,15756.00,-1504.00
65198,-1037.00,-175.00,-83.00,644.00,9752.00,15560.00,-1456.00
65254,-3886.00,-751.00,514.00,684.00,9376.00,15468.00,-1488.00
65311,-7032.00,-185.00,506.00,876.00,8912.00,15864.00,-1456.00
65368,-8725.00,-907.00,1603.00,1116.00,7696.00,16224.00,-1472.00
65424,-9916.00,1057.00,279.00,996.00,7164.00,17408.00,-1456.00
65481,-12219.00,-565.00,-424.00,860.00,5652.00,17764.00,-1472.00
65538,-14223.00,370.00,191.00,1068.00,4100.00,17648.00,-1456.00
65594,-11443.00,178.00,972.00,896.00,2280.00,17988.00,-1472.00
65651,-10303.00,462.00,315.00,888.00,900.00,18232.00,-1488.00
65708,-11637.00,-165.00,610.00,976.00,-484.00,18252.00,-1456.00
65764,-10993.00,1301.00,438.00,1044.00,-1812.00,18160.00,-1472.00
65821,-11173.00,-1580.00,-93.00,932.00,-3548.00,18464.00,-1472.00
65878,-6995.00,379.00,225.00,960.00,-4332.00,18092.00,-1504.00
65934,-7376.00,70.00,-212.00,896.00,-5288.00,17744.00,-1488.00
65991,-6915.00,492.00,152.00,652.00,-5964.00,17320.00,-1440.00
66048,-9687.00,340.00,-138.00,1036.00,-6684.00,16596.00,-1472.00
66104,-8453.00,1202.00,664.00,528.00,-7928.00,16268.00,-1456.00
66161,-5915.00,-251.00,-572.00,424.00,-8832.00,15440.00,-1472.00
66217,1659.00,-309.00,-101.00,472.00,-9520.00,15796.00,-1472.00
66274,5345.00,-457.00,-759.00,728.00,-9272.00,16212.00,-1488.00
66331,10633.00,-486.00,-582.00,1040.00,-7800.00,16304.00,-1472.00
66387,9754.00,-361.00,-920.00,1256.00,-6388.00,17772.00,-1488.00
66444,11707.00,484.00,-594.00,636.00,-5268.00,17556.00,-1472.00
66501,10741.00,-448.00,-2160.00,1376.00,-3640.00,17176.00,-1488.00
66557,9145.00,204.00,-533.00,644.00,-2756.00,18224.00,-1488.00
66614,6280.00,281.00,-116.00,980.00,-2072.00,18356.00,-1504.00
66671,7314.00,484.00,-131.00,580.00,-1076.00,18576.00,-1472.00
66727,10233.00,-655.00,-197.00,964.00,56.00,17712.00,-1472.00
66784,11142.00,2193.00,624.00,812.00,1756.00,18900.00,-1472.00
66841,10986.00,-165.00,31.00,376.00,2460.00,18248.00,-1488.00
66897,8247.00,1842.00,92.00,1588.00,4016.00,19088.00,-1472.00
66954,7717.00,615.00,87.00,140.00,4828.00,17988.00,-1472.00
67010,7864.00,1113.00,-762.00,804.00,5728.00,17604.00,-1472.00
67067,10967.00,1729.00,-452.00,256.00,6540.00,16672.00,-1456.00
67124,13528.00,1624.00,-2344.00,-268.00,7780.00,16108.00,-1504.00
67181,15534.00,4048.00,-1815.00,-148.00,9208.00,14232.00,-1472.00
67237,7602.00,2835.00,-1890.00,-1488.00,9460.00,14844.00,-1504.00
67294,6767.00,2051.00,-1258.00,-568.00,10240.00,13780.00,-1488.00
67351,2801.00,491.00,1476.00,-308.00,9760.00,13856.00,-1520.00
67407,410.00,-636.00,-1402.00,-1628.00,11864.00,13436.00,-1504.00
67465,-6952.00,-2073.00,920.00,-1380.00,11468.00,13788.00,-1456.00
67521,-11623.00,-2666.00,958.00,-1940.00,9528.00,15536.00,-1488.00
67577,-15579.00,-771.00,2127.00,-1024.00,9432.00,14956.00,-1456.00
67635,-22108.00,-4024.00,1386.00,-828.00,6292.00,15840.00,-1472.00
67691,-21460.00,-3190.00,-2136.00,1092.00,5160.00,18680.00,-1472.00
67748,-16522.00,-923.00,565.00,768.00,2468.00,17272.00,-1472.00
67805,-13590.00,-1163.00,1833.00,-100.00,692.00,19004.00,-1440.00
67862,-10314.00,-286.00,1100.00,-112.00,-788.00,17696.00,-1488.00
67918,-13575.00,-212.00,1473.00,156.00,-2588.00,18672.00,-1440.00
67975,-12378.00,548.00,2202.00,-480.00,-4268.00,18468.00,-1456.00
68032,-15457.00,357.00,-127.00,344.00,-5608.00,17364.00,-1456.00
68088,-12609.00,-199.00,-958.00,1588.00,-6496.00,16196.00,-1488.00
68145,-6772.00,-837.00,-845.00,-92.00,-8016.00,15276.00,-1488.00
68202,-3824.00,-1192.00,-416.00,-16.00,-9416.00,15992.00,-1520.00
68258,-1802.00,202.00,232.00,288.00,-9496.00,15608.00,-1472.00
68315,1635.00,-322.00,112.00,696.00,-9132.00,15396.00,-1504.00
68372,7611.00,1374.00,-726.00,572.00,-9136.00,15768.00,-1488.00
68428,20006.00,1327.00,949.00,-136.00,-7440.00,16180.00,-1488.00
68485,18127.00,1900.00,-1486.00,412.00,-4920.00,17592.00,-1456.00
68542,17164.00,-1381.00,-709.00,-576.00,-2484.00,17184.00,-1488.00
68598,14147.00,-214.00,-1357.00,-48.00,-1172.00,19156.00,-1504.00
68656,10730.00,-481.00,-1237.00,-68.00,712.00,17468.00,-1456.00
68712,14947.00,644.00,-769.00,-32.00,2088.00,18464.00,-1472.00
68768,13230.00,-1198.00,392.00,268.00,4164.00,17524.00,-1472.00
68826,12506.00,973.00,-1125.00,208.00,5492.00,17708.00,-1488.00
68882,8857.00,1212.00,-828.00,-176.00,6780.00,16988.00,-1488.00
68938,11527.00,2434.00,-1386.00,-312.00,7632.00,16420.00,-1488.00
68996,11761.00,491.00,-1647.00,-1064.00,9128.00,15000.00,-1488.00
69052,12204.00,-1084.00,554.00,-604.00,9952.00,14180.00,-1456.00
69108,9138.00,-3485.00,1757.00,-84.00,12764.00,15240.00,-1504.00
69166,2554.00,586.00,-1076.00,460.00,12528.00,13684.00,-1488.00
69222,-1837.00,739.00,-407.00,-40.00,12204.00,13124.00,-1504.00
69279,-4745.00,-1659.00,156.00,-164.00,12144.00,13932.00,-1488.00
69336,-12608.00,-419.00,3065.00,884.00,11244.00,15956.00,-1472.00
69392,-19938.00,1710.00,640.00,-184.00,9664.00,15928.00,-1504.00
69449,-25294.00,426.00,-1037.00,348.00,7196.00,17628.00,-1488.00
69506,-21214.00,1311.00,-281.00,740.00,4116.00,17456.00,-1488.00
69563,-16643.00,681.00,16.00,-108.00,2032.00,18176.00,-1472.00
69619,-16923.00,-390.00,175.00,32.00,-152.00,18108.00,-1472.00
69676,-14689.00,-1912.00,864.00,-220.00,-2528.00,18228.00,-1504.00
69732,-16253.00,-2397.00,948.00,304.00,-4128.00,17704.00,-1456.00
69789,-7554.00,-1688.00,-716.00,1200.00,-5292.00,17008.00,-1488.00
69846,-7785.00,138.00,1177.00,900.00,-6264.00,16868.00,-1472.00
69903,-7145.00,176.00,-26.00,604.00,-7492.00,17028.00,-1456.00
69959,-6105.00,-1209.00,840.00,1232.00,-8208.00,15968.00,-1488.00
70016,-6853.00,-1237.00,1419.00,1040.00,-8752.00,16288.00,-1504.00
70073,-5930.00,112.00,14.00,1136.00,-9216.00,14964.00,-1504.00
70129,-2875.00,-1248.00,-1121.00,656.00,-10212.00,14832.00,-1504.00
70185,6051.00,-1084.00,422.00,852.00,-10008.00,15288.00,-1504.00
70243,14671.00,-220.00,-545.00,968.00,-9448.00,15676.00,-1504.00
70299,16127.00,80.00,-315.00,1440.00,-6712.00,16412.00,-1504.00
70355,19273.00,1119.00,-1294.00,936.00,-5268.00,16996.00,-1488.00
70413,21643.00,526.00,-1406.00,1520.00,-2620.00,17064.00,-1456.00
70469,18836.00,442.00,-2425.00,1260.00,116.00,18596.00,-1520.00
70526,15431.00,2309.00,-1577.00,812.00,2128.00,18684.00,-1536.00
70583,12190.00,-203.00,-1033.00,100.00,3884.00,18456.00,-1504.00
70640,9548.00,1365.00,-1248.00,540.00,5144.00,17972.00,-1488.00
70696,10172.00,2070.00,-1413.00,484.00,5972.00,16196.00,-1472.00
70753,13670.00,2562.00,-208.00,112.00,7492.00,15988.00,-1552.00
70810,15711.00,5017.00,-1868.00,-404.00,9376.00,16672.00,-1504.00
70866,10679.00,443.00,1144.00,-956.00,10220.00,14392.00,-1504.00
70924,10086.00,1556.00,-1607.00,-396.00,11924.00,14128.00,-1472.00
70980,9272.00,-2360.00,1779.00,-804.00,12764.00,12940.00,-1488.00
71037,4800.00,-787.00,216.00,-1064.00,12396.00,12208.00,-1488.00
71094,-4263.00,831.00,-862.00,-664.00,13880.00,12972.00,-1472.00
71150,-9922.00,625.00,550.00,-704.00,12668.00,13396.00,-1488.00
71207,-16909.00,998.00,-929.00,-1144.00,11972.00,14856.00,-1456.00
71264,-25500.00,-3187.00,2367.00,-1120.00,9136.00,15240.00,-1456.00
71321,-26610.00,-153.00,-973.00,112.00,6096.00,17100.00,-1456.00
71377,-24090.00,-1825.00,598.00,-284.00,3084.00,17760.00,-1488.00
71434,-16151.00,328.00,879.00,104.00,468.00,17704.00,-1472.00
71491,-12515.00,-1370.00,184.00,-124.00,-1040.00,17652.00,-1488.00
71547,-8502.00,-298.00,302.00,4.00,-2184.00,17656.00,-1504.00
71604,-9235.00,-1798.00,362.00,48.00,-3580.00,17632.00,-1488.00
71661,-13219.00,182.00,641.00,424.00,-4608.00,17604.00,-1472.00
71717,-16616.00,-2347.00,639.00,-460.00,-7084.00,16324.00,-1504.00
71774,-14646.00,-540.00,25.00,-444.00,-8108.00,15720.00,-1488.00
71831,-10949.00,-2722.00,363.00,792.00,-9708.00,15496.00,-1472.00
71887,-5541.00,856.00,217.00,88.00,-10272.00,14256.00,-1520.00
71944,-516.00,-1044.00,-434.00,688.00,-11028.00,14660.00,-1520.00
72001,1522.00,269.00,-322.00,1068.00,-10652.00,14528.00,-1504.00
72057,5577.00,-546.00,-588.00,208.00,-11160.00,14684.00,-1488.00
72114,15544.00,-886.00,-1714.00,380.00,-9288.00,15228.00,-1536.00
72171,18500.00,-392.00,-709.00,1132.00,-7064.00,16652.00,-1488.00
72227,24085.00,781.00,-1962.00,276.00,-4456.00,16640.00,-1504.00
72285,21027.00,1262.00,-658.00,904.00,-2212.00,17496.00,-1520.00
72341,17457.00,459.00,-1204.00,216.00,-364.00,18344.00,-1536.00
72397,12177.00,998.00,-1415.00,292.00,1832.00,18808.00,-1488.00
72455,11839.00,834.00,-1093.00,436.00,3488.00,18528.00,-1472.00
72511,6556.00,1601.00,-1197.00,-76.00,4180.00,17964.00,-1472.00
72567,9241.00,860.00,-1280.00,104.00,5208.00,16880.00,-1488.00
72625,11633.00,612.00,-1000.00,-164.00,6524.00,16844.00,-1472.00
72681,12604.00,1221.00,-1060.00,-260.00,8332.00,17560.00,-1488.00
72737,7856.00,1027.00,-800.00,-996.00,9216.00,16176.00,-1472.00
72795,5162.00,-3.00,-724.00,-520.00,9324.00,15084.00,-1488.00
72851,6963.00,168.00,-1426.00,-948.00,9936.00,14548.00,-1472.00
72907,6680.00,333.00,-1358.00,-848.00,10476.00,14112.00,-1456.00
72965,1258.00,-61.00,-529.00,-964.00,11444.00,14624.00,-1472.00
73021,-4262.00,-689.00,820.00,-1316.00,11296.00,14392.00,-1472.00
73077,-7535.00,-710.00,885.00,-1004.00,10568.00,14444.00,-1488.00
73135,-10632.00,-355.00,697.00,-424.00,9436.00,15172.00,-1504.00
73191,-14186.00,682.00,599.00,-972.00,8552.00,16272.00,-1456.00
73248,-15402.00,-337.00,28.00,-868.00,6488.00,16332.00,-1472.00
73305,-15557.00,-765.00,1060.00,-752.00,4980.00,17600.00,-1504.00
73361,-12432.00,232.00,665.00,-380.00,3440.00,18164.00,-1456.00
73418,-11896.00,-18.00,437.00,-200.00,1568.00,17884.00,-1504.00
73475,-11531.00,-1116.00,-7.00,-624.00,40.00,18240.00,-1472.00
73531,-14233.00,-1288.00,390.00,-600.00,-1392.00,18740.00,-1488.00
73587,-9508.00,-851.00,-96.00,-396.00,-3140.00,17724.00,-1504.00
73645,-9996.00,-1717.00,-123.00,-224.00,-3808.00,17512.00,-1488.00
73701,-8105.00,-239.00,47.00,32.00,-5340.00,17736.00,-1520.00
73757,-8662.00,-916.00,394.00,104.00,-6204.00,17608.00,-1488.00
73815,-7452.00,414.00,-497.00,64.00,-7020.00,17504.00,-1520.00
73871,-10643.00,-218.00,-469.00,-32.00,-8192.00,16148.00,-1488.00
73927,-11210.00,-527.00,-307.00,52.00,-9456.00,15356.00,-1488.00
73984,-7355.00,-771.00,-98.00,68.00,-10304.00,14628.00,-1472.00
74041,2605.00,-1274.00,-135.00,408.00,-10912.00,14784.00,-1504.00
74097,7370.00,-707.00,-837.00,736.00,-10364.00,15172.00,-1520.00
74153,16138.00,-716.00,-554.00,652.00,-9464.00,15672.00,-1504.00
74211,17377.00,161.00,-855.00,704.00,-6584.00,16232.00,-1520.00
74267,16365.00,768.00,-709.00,880.00,-4868.00,17388.00,-1472.00
74323,14638.00,-1118.00,-831.00,428.00,-3180.00,17932.00,-1504.00
74381,13648.00,1636.00,-893.00,1252.00,-1284.00,18484.00,-1504.00
74437,12819.00,212.00,-1159.00,532.00,84.00,18744.00,-1488.00
74494,12646.00,1667.00,-650.00,1044.00,1612.00,18656.00,-1520.00
74551,6823.00,450.00,-1662.00,640.00,3012.00,18948.00,-1504.00
74607,10055.00,1025.00,-925.00,124.00,3816.00,17908.00,-1488.00
74664,9565.00,1730.00,-815.00,-232.00,4920.00,16684.00,-1504.00
74721,12113.00,-253.00,-1421.00,28.00,6196.00,16804.00,-1504.00
74777,11119.00,1064.00,252.00,200.00,8084.00,16944.00,-1504.00
74834,8927.00,-69.00,-722.00,-740.00,9480.00,16828.00,-1504.00
74891,6389.00,988.00,-438.00,-552.00,9692.00,15672.00,-1488.00
74947,5260.00,-137.00,-687.00,-244.00,10868.00,15792.00,-1504.00
75004,1549.00,-388.00,-121.00,-272.00,10528.00,14636.00,-1504.00
75061,-166.00,-763.00,224.00,-848.00,10768.00,15172.00,-1472.00
75117,-4332.00,-33.00,-1001.00,-380.00,10756.00,15696.00,-1488.00
75174,-9816.00,166.00,892.00,-296.00,9412.00,15236.00,-1504.00
75231,-10006.00,-236.00,-250.00,-324.00,8596.00,15936.00,-1504.00
75287,-9500.00,-986.00,66.00,-200.00,7656.00,16560.00,-1504.00
75344,-9708.00,-782.00,634.00,-260.00,6064.00,16656.00,-1504.00
75401,-8633.00,-1278.00,817.00,296.00,5652.00,18200.00,-1456.00
75457,-10438.00,-570.00,735.00,228.00,4120.00,17864.00,-1520.00
75513,-7349.00,-187.00,-88.00,216.00,3264.00,18380.00,-1504.00
75571,-6789.00,-426.00,513.00,696.00,2000.00,17660.00,-1520.00
75627,-2807.00,-93.00,-507.00,-104.00,1652.00,18392.00,-1472.00
75683,-780.00,-305.00,-412.00,624.00,1476.00,18316.00,-1504.00
75741,-337.00,45.00,-467.00,224.00,1280.00,18816.00,-1488.00
75797,-331.00,221.00,-260.00,524.00,1372.00,18424.00,-1472.00
75853,118.00,-231.00,-770.00,172.00,1320.00,18380.00,-1488.00
75910,-185.00,98.00,-240.00,396.00,1372.00,18296.00,-1472.00
75966,256.00,240.00,-788.00,312.00,1256.00,18616.00,-1504.00
76023,557.00,-486.00,-283.00,216.00,1288.00,18080.00,-1488.00
76080,-538.00,-268.00,-982.00,524.00,1324.00,18628.00,-1488.00
76136,69.00,325.00,-756.00,292.00,1120.00,18748.00,-1488.00
76192,381.00,-143.00,-451.00,656.00,1296.00,18228.00,-1472.00
76250,541.00,-37.00,-247.00,292.00,1316.00,18416.00,-1504.00
76306,-153.00,-49.00,-176.00,336.00,1172.00,18460.00,-1520.00
76362,-36.00,-91.00,-124.00,312.00,1232.00,18744.00,-1472.00
76419,183.00,349.00,-318.00,568.00,1256.00,18368.00,-1488.00
76475,542.00,586.00,-275.00,108.00,1292.00,18444.00,-1488.00
76531,-521.00,54.00,-296.00,488.00,1296.00,18736.00,-1472.00
76589,-116.00,435.00,-345.00,248.00,1276.00,18336.00,-1504.00
76645,-68.00,-33.00,-407.00,284.00,1056.00,18416.00,-1504.00
76701,492.00,1007.00,-121.00,48.00,1048.00,18068.00,-1520.00
76758,218.00,-10.00,-507.00,72.00,1216.00,18384.00,-1488.00
76814,185.00,403.00,-130.00,124.00,1260.00,18532.00,-1504.00
76871,198.00,311.00,-555.00,-124.00,1320.00,18668.00,-1504.00
76928,317.00,-79.00,-305.00,-108.00,1324.00,18372.00,-1488.00
76984,1611.00,354.00,-837.00,536.00,1604.00,18200.00,-1520.00
77040,-51.00,-2067.00,3492.00,-120.00,1396.00,19112.00,-1488.00
77097,-2250.00,1010.00,-2940.00,-52.00,1288.00,17652.00,-1520.00
77154,-1633.00,-1519.00,-956.00,-116.00,1376.00,17812.00,-1520.00
77210,725.00,-2086.00,-1178.00,380.00,1508.00,18356.00,-1536.00
77267,1042.00,621.00,-1278.00,868.00,740.00,18208.00,-1520.00
77324,451.00,-797.00,575.00,728.00,908.00,18628.00,-1488.00
77380,-1535.00,1092.00,88.00,1504.00,724.00,18412.00,-1472.00
77436,-530.00,91.00,-1596.00,388.00,1184.00,18528.00,-1504.00
77494,-179.00,756.00,-383.00,484.00,416.00,18140.00,-1504.00
77550,-519.00,-109.00,268.00,-376.00,1580.00,19648.00,-1488.00
77606,-240.00,284.00,-1159.00,752.00,180.00,17764.00,-1488.00
77663,58.00,85.00,506.00,-356.00,1312.00,19096.00,-1488.00
77719,1032.00,-19.00,966.00,-780.00,260.00,17060.00,-1472.00
77776,939.00,587.00,1116.00,200.00,684.00,18652.00,-1488.00
77833,3073.00,-59.00,-430.00,-304.00,1520.00,17824.00,-1456.00
77889,551.00,322.00,1060.00,168.00,1668.00,20852.00,-1488.00
77945,-1512.00,-575.00,-207.00,-760.00,864.00,18024.00,-1472.00
78003,1189.00,607.00,-250.00,664.00,1132.00,18560.00,-1504.00
78059,388.00,-663.00,-746.00,-28.00,1588.00,18636.00,-1488.00
78115,1570.00,-1940.00,4319.00,1208.00,1116.00,17112.00,-1472.00
78173,1158.00,1979.00,-2537.00,1444.00,1504.00,18576.00,-1488.00
78229,-1274.00,-1061.00,-1904.00,1680.00,1392.00,18424.00,-1504.00
78285,221.00,-3801.00,133.00,-2188.00,1136.00,17628.00,-1472.00
78343,-38.00,-3657.00,545.00,4076.00,2196.00,16692.00,-1504.00
78399,759.00,1306.00,1073.00,60.00,2008.00,18964.00,-1488.00
78455,-4342.00,-8205.00,117.00,1868.00,624.00,18072.00,-1488.00
78513,829.00,2583.00,515.00,1656.00,1320.00,17844.00,-1520.00
78569,-1513.00,-531.00,-2799.00,1932.00,676.00,18804.00,-1472.00
78625,-3102.00,2439.00,-3815.00,1800.00,416.00,18672.00,-1520.00
78683,-68.00,-10130.00,990.00,2556.00,1444.00,18508.00,-1504.00
78739,-491.00,7442.00,-700.00,2268.00,68.00,18136.00,-1504.00
78795,-995.00,-3042.00,-225.00,1324.00,688.00,18076.00,-1504.00
78853,-98.00,6401.00,-107.00,2480.00,112.00,18612.00,-1504.00
78909,2490.00,-2276.00,-1506.00,1576.00,548.00,18724.00,-1504.00
78965,-1014.00,-1231.00,2326.00,1916.00,496.00,19444.00,-1504.00
79023,201.00,-5602.00,-2956.00,2388.00,876.00,16928.00,-1488.00
79079,782.00,10092.00,-2440.00,2784.00,164.00,17912.00,-1504.00
79135,-450.00,6037.00,-780.00,1312.00,20.00,17980.00,-1520.00
79193,-321.00,-2170.00,-1065.00,2616.00,904.00,18512.00,-1504.00
79249,-219.00,-169.00,-61.00,1124.00,-984.00,18328.00,-1488.00
79305,1826.00,-2830.00,-825.00,892.00,1092.00,17096.00,-1488.00
79362,1453.00,1123.00,-1183.00,1232.00,468.00,18384.00,-1520.00
79419,351.00,-2654.00,-2331.00,1320.00,356.00,19300.00,-1504.00
79475,-2259.00,892.00,-109.00,1136.00,964.00,18792.00,-1520.00
79532,3297.00,-5683.00,-951.00,3088.00,1192.00,19072.00,-1520.00
79589,1670.00,315.00,-2209.00,1756.00,1088.00,18584.00,-1504.00
79645,2508.00,-3156.00,-2092.00,3316.00,1584.00,18068.00,-1520.00
79703,3158.00,-5748.00,1817.00,2864.00,1524.00,18800.00,-1488.00
79759,-3009.00,6536.00,-693.00,1916.00,1232.00,18984.00,-1504.00
79816,659.00,-1112.00,1935.00,4184.00,1204.00,19772.00,-1520.00
79873,-4499.00,3725.00,-118.00,1800.00,824.00,18744.00,-1504.00
79929,-1139.00,5863.00,1527.00,3360.00,1428.00,18236.00,-1488.00
79986,-284.00,2194.00,-296.00,-764.00,708.00,18332.00,-1504.00
80043,727.00,1069.00,135.00,2108.00,1472.00,17172.00,-1504.00
80099,1065.00,-1578.00,-1457.00,-336.00,976.00,19712.00,-1488.00
80156,-763.00,-1620.00,-670.00,100.00,852.00,18724.00,-1520.00
80212,230.00,117.00,-229.00,212.00,272.00,17644.00,-1520.00
80269,140.00,2135.00,-678.00,528.00,776.00,18808.00,-1520.00
80325,179.00,3252.00,464.00,580.00,952.00,18740.00,-1520.00
80381,367.00,-666.00,-262.00,600.00,876.00,18524.00,-1504.00
80439,-986.00,-253.00,-486.00,712.00,556.00,18980.00,-1504.00
80495,-278.00,-148.00,-1164.00,72.00,668.00,17696.00,-1488.00
80551,-30.00,-117.00,-854.00,968.00,868.00,18160.00,-1520.00
80608,1698.00,-862.00,-453.00,412.00,872.00,20004.00,-1504.00
80664,428.00,-451.00,-1332.00,-156.00,716.00,19068.00,-1536.00
80721,-266.00,-1604.00,-1105.00,1536.00,928.00,19344.00,-1504.00
80778,-1294.00,-1278.00,-983.00,260.00,596.00,18592.00,-1552.00
80834,-1276.00,-1269.00,245.00,1168.00,564.00,17764.00,-1488.00
80891,2188.00,-956.00,664.00,1480.00,400.00,18308.00,-1504.00
80948,1719.00,-844.00,-665.00,2008.00,684.00,18812.00,-1504.00
81004,3721.00,-2808.00,-243.00,1760.00,1264.00,16516.00,-1504.00
81061,532.00,-1998.00,-292.00,1236.00,1488.00,16852.00,-1520.00
81118,379.00,-3033.00,1435.00,2060.00,1532.00,18044.00,-1568.00
81174,-2598.00,1493.00,-689.00,3360.00,1296.00,21548.00,-1552.00
81231,-2895.00,241.00,529.00,4380.00,1452.00,19564.00,-1504.00
81288,2933.00,-667.00,162.00,1668.00,1228.00,18492.00,-1488.00
81344,651.00,2915.00,-1168.00,2000.00,1216.00,19036.00,-1504.00
81401,228.00,401.00,-657.00,2504.00,1296.00,18580.00,-1488.00
81458,-112.00,1670.00,258.00,1672.00,1100.00,18856.00,-1520.00
81514,259.00,830.00,-790.00,1796.00,1292.00,17632.00,-1504.00
81571,825.00,1091.00,-151.00,1360.00,1460.00,18128.00,-1504.00
81628,735.00,871.00,-480.00,1992.00,1252.00,18592.00,-1504.00
81684,43.00,267.00,-163.00,1620.00,1656.00,18536.00,-1552.00
81741,232.00,865.00,369.00,1324.00,1208.00,18216.00,-1504.00
81798,-670.00,-2004.00,-67.00,1220.00,1468.00,18084.00,-1504.00
81854,-1086.00,-4504.00,33.00,2656.00,1556.00,19304.00,-1520.00
81910,-1063.00,-11267.00,178.00,2372.00,988.00,17828.00,-1488.00
81968,-782.00,-12109.00,338.00,5748.00,1144.00,17748.00,-1520.00
82024,-682.00,-9451.00,710.00,7024.00,1560.00,17988.00,-1504.00
82081,122.00,-22866.00,1242.00,7156.00,856.00,16388.00,-1536.00
82138,3878.00,-7653.00,-20.00,9808.00,1108.00,15080.00,-1520.00
82194,679.00,-16268.00,744.00,10064.00,1492.00,14940.00,-1536.00
82251,2601.00,-6602.00,-920.00,11320.00,1440.00,13632.00,-1520.00
82308,-549.00,-10216.00,1666.00,12180.00,1176.00,12772.00,-1520.00
82365,-1645.00,-5358.00,724.00,13344.00,1332.00,12624.00,-1552.00
82421,-545.00,21872.00,-725.00,12740.00,1212.00,14004.00,-1536.00
82479,1109.00,19243.00,-1400.00,11336.00,1044.00,14640.00,-1536.00
82535,3180.00,32767.00,-1104.00,6344.00,2488.00,15868.00,-1504.00
82592,434.00,16737.00,-4367.00,4400.00,1452.00,18256.00,-1504.00
82649,3670.00,14676.00,-638.00,3092.00,1892.00,16032.00,-1520.00
82705,158.00,15586.00,-1468.00,-1368.00,1036.00,17256.00,-1552.00
82762,-3891.00,11169.00,-4828.00,-4628.00,2884.00,14112.00,-1504.00
82819,-1660.00,15708.00,-346.00,9648.00,236.00,12960.00,-1536.00
82876,-1083.00,12878.00,-2415.00,-5492.00,2336.00,15328.00,-1552.00
82932,-612.00,10472.00,-4051.00,-7064.00,1288.00,15736.00,-1520.00
82990,-379.00,1570.00,-2939.00,-8320.00,1212.00,15280.00,-1536.00
83046,-783.00,-18344.00,-1812.00,-9952.00,1572.00,14468.00,-1488.00
83102,-1929.00,-21782.00,-1754.00,-5128.00,1020.00,18296.00,-1520.00
83160,-2992.00,-22934.00,-637.00,-5016.00,260.00,17136.00,-1456.00
83216,-1644.00,-27101.00,-3084.00,2264.00,604.00,18528.00,-1504.00
83273,-2438.00,-20513.00,-1065.00,4792.00,-636.00,18316.00,-1552.00
83330,576.00,-26532.00,-2662.00,7892.00,-216.00,17348.00,-1520.00
83387,1794.00,-23198.00,-4026.00,7272.00,476.00,14760.00,-1504.00
83443,3771.00,-17115.00,-3443.00,13000.00,1300.00,13532.00,-1520.00
83501,1747.00,-9083.00,-1773.00,13400.00,792.00,13856.00,-1504.00
83557,3210.00,-12331.00,370.00,13812.00,1328.00,11424.00,-1552.00
83614,725.00,-47.00,-846.00,14572.00,1320.00,11636.00,-1520.00
83671,-102.00,15241.00,492.00,14912.00,1260.00,11880.00,-1520.00
83727,-2469.00,29858.00,479.00,12028.00,864.00,13752.00,-1504.00
83784,-247.00,26927.00,2039.00,10264.00,384.00,16140.00,-1536.00
83841,-592.00,31630.00,876.00,5480.00,344.00,18036.00,-1552.00
83897,-1855.00,31274.00,2652.00,1696.00,304.00,18032.00,-1520.00
83954,-348.00,21775.00,1310.00,-3408.00,116.00,18884.00,-1520.00
84011,-1469.00,21759.00,2780.00,-2864.00,1012.00,16124.00,-1568.00
84068,-879.00,16403.00,2717.00,-8632.00,736.00,16080.00,-1536.00
84124,1673.00,10369.00,683.00,-7448.00,496.00,16016.00,-1520.00
84182,582.00,17892.00,713.00,-10076.00,460.00,15224.00,-1472.00
84238,474.00,12683.00,-269.00,-11620.00,672.00,13824.00,-1504.00
84294,1760.00,-3473.00,-475.00,-11848.00,1468.00,12424.00,-1520.00
84352,1393.00,-19539.00,-148.00,-10356.00,1336.00,15088.00,-1520.00
84408,1511.00,-23727.00,813.00,-9548.00,1260.00,16092.00,-1504.00
84465,1155.00,-32768.00,-3007.00,-3760.00,772.00,17268.00,-1504.00
84521,2535.00,-17594.00,470.00,-2628.00,1056.00,17808.00,-1504.00
84579,-1702.00,-32768.00,-1561.00,3468.00,1084.00,18556.00,-1520.00
84635,1569.00,-12181.00,1969.00,3696.00,1648.00,17052.00,-1504.00
84692,-1399.00,-27881.00,-155.00,7500.00,392.00,17256.00,-1520.00
84749,1526.00,-13699.00,1720.00,10396.00,2296.00,15348.00,-1504.00
84806,976.00,-13477.00,1086.00,11660.00,1368.00,15264.00,-1520.00
84862,922.00,-13294.00,1271.00,11692.00,1324.00,13420.00,-1520.00
84919,454.00,-13837.00,-494.00,13404.00,1264.00,13244.00,-1552.00
84976,-356.00,-516.00,-589.00,14692.00,1492.00,12128.00,-1504.00
85032,-2383.00,7186.00,-1727.00,13764.00,1512.00,12076.00,-1520.00
85090,-3233.00,11311.00,-5324.00,13900.00,1236.00,11360.00,-1552.00
85146,4988.00,32767.00,6069.00,6056.00,2872.00,19148.00,-1536.00
85203,345.00,13880.00,-2482.00,9252.00,2388.00,17404.00,-1536.00
85260,-1289.00,21568.00,-1035.00,6392.00,2024.00,17448.00,-1552.00
85317,223.00,20868.00,-518.00,3444.00,1516.00,17244.00,-1552.00
85373,2053.00,28110.00,1518.00,980.00,2108.00,18192.00,-1504.00
85430,854.00,31105.00,452.00,-3112.00,2016.00,17448.00,-1520.00
85487,-2321.00,19351.00,1665.00,-5500.00,1988.00,16036.00,-1488.00
85543,-3206.00,15019.00,206.00,-8108.00,1664.00,16236.00,-1568.00
85601,-1486.00,18863.00,1377.00,-9840.00,1460.00,14988.00,-1504.00
85657,-122.00,16367.00,-620.00,-10872.00,1800.00,13400.00,-1504.00
85714,1946.00,12142.00,-1518.00,-12420.00,1680.00,11820.00,-1488.00
85771,-283.00,567.00,-1471.00,-13620.00,1644.00,12320.00,-1504.00
85828,97.00,-15283.00,-729.00,-12760.00,1720.00,11272.00,-1552.00
85884,-2511.00,-32768.00,-3952.00,-7804.00,1196.00,15384.00,-1536.00
85942,1009.00,-32768.00,14.00,-4740.00,1148.00,16972.00,-1536.00
85998,1362.00,-32768.00,-2472.00,448.00,584.00,17560.00,-1520.00
86054,1577.00,-17657.00,-1051.00,4748.00,1588.00,18352.00,-1504.00
86112,-603.00,-18035.00,526.00,6104.00,1320.00,17336.00,-1504.00
86168,-377.00,-20826.00,-629.00,9060.00,1224.00,16256.00,-1552.00
86225,2971.00,-24093.00,97.00,10632.00,1656.00,14688.00,-1504.00
86282,-1756.00,-5804.00,-1414.00,13348.00,1440.00,13676.00,-1536.00
86338,-318.00,-8889.00,-2654.00,12440.00,1968.00,12864.00,-1520.00
86395,-2018.00,-6267.00,-1040.00,14404.00,1648.00,11520.00,-1520.00
86452,1672.00,288.00,18.00,13752.00,2304.00,11048.00,-1520.00
86509,915.00,16871.00,477.00,13944.00,2308.00,11996.00,-1520.00
86565,-572.00,23357.00,2090.00,12952.00,1936.00,15232.00,-1520.00
86623,48.00,20039.00,2587.00,9164.00,1680.00,15000.00,-1520.00
86679,-1486.00,30634.00,4432.00,7156.00,1024.00,17980.00,-1504.00
86735,479.00,30699.00,2506.00,2384.00,1104.00,17608.00,-1536.00
86793,-985.00,25427.00,560.00,-140.00,740.00,18164.00,-1520.00
86849,90.00,26977.00,2944.00,-3804.00,1448.00,17968.00,-1552.00
86906,270.00,19464.00,1603.00,-6532.00,1188.00,16256.00,-1536.00
86963,-1158.00,23482.00,1784.00,-8892.00,1184.00,15844.00,-1520.00
87020,1350.00,19899.00,2220.00,-10668.00,1712.00,11960.00,-1520.00
87076,-666.00,18815.00,625.00,-12888.00,1720.00,11392.00,-1552.00
87133,-444.00,11360.00,-274.00,-15028.00,1904.00,10108.00,-1536.00
87190,725.00,-3454.00,-1603.00,-13780.00,1556.00,8516.00,-1536.00
87246,-479.00,-16041.00,-1392.00,-14392.00,1608.00,9876.00,-1520.00
87304,224.00,-32768.00,-6410.00,-11432.00,476.00,13952.00,-1504.00
87360,1827.00,-26744.00,921.00,-6512.00,1236.00,16072.00,-1536.00
87417,-604.00,-32768.00,-2041.00,-976.00,-380.00,18720.00,-1504.00
87474,726.00,-22143.00,-1387.00,3028.00,1308.00,16860.00,-1504.00
87530,767.00,-21038.00,-1045.00,6704.00,1004.00,18832.00,-1536.00
87587,1497.00,-25199.00,-678.00,8480.00,1208.00,15676.00,-1536.00
87644,1803.00,-25004.00,-3631.00,11528.00,1784.00,15996.00,-1536.00
87701,-382.00,-21211.00,396.00,14652.00,1344.00,12204.00,-1504.00
87757,215.00,-14499.00,-1080.00,13024.00,1912.00,10760.00,-1504.00
87815,-941.00,-15629.00,-469.00,16280.00,1660.00,8088.00,-1536.00
87871,1704.00,-862.00,-923.00,15104.00,1872.00,8528.00,-1520.00
87928,2155.00,-10905.00,-4090.00,15640.00,2196.00,7484.00,-1536.00
87985,419.00,-2492.00,-1975.00,17548.00,2444.00,6712.00,-1504.00
88041,787.00,10676.00,-877.00,16400.00,2652.00,7596.00,-1536.00
88098,-2140.00,24747.00,104.00,15280.00,2772.00,9440.00,-1520.00
88155,-2224.00,32767.00,124.00,13636.00,2196.00,12276.00,-1536.00
88212,-302.00,32767.00,-1113.00,9356.00,2492.00,15384.00,-1536.00
88268,-2079.00,32767.00,1966.00,6088.00,1548.00,18540.00,-1536.00
88326,-370.00,17948.00,27.00,3080.00,1636.00,25024.00,-1504.00
88382,-2041.00,24600.00,1690.00,-1468.00,1688.00,18232.00,-1520.00
88438,-2655.00,28878.00,-919.00,-4188.00,1720.00,18160.00,-1552.00
88496,1140.00,25279.00,-51.00,-6084.00,1580.00,15132.00,-1488.00
88552,-1854.00,27393.00,-1931.00,-9656.00,1260.00,14272.00,-1536.00
88609,-351.00,21675.00,-329.00,-12984.00,1400.00,12784.00,-1504.00
88666,-1469.00,16063.00,-1918.00,-13196.00,1176.00,9016.00,-1536.00
88723,81.00,3500.00,-1553.00,-15776.00,556.00,8420.00,-1536.00
88779,683.00,-31.00,-1229.00,-14868.00,824.00,7804.00,-1536.00
88836,1538.00,-30841.00,-2441.00,-15120.00,492.00,9944.00,-1520.00
88893,2443.00,-32768.00,-788.00,-10116.00,1236.00,12224.00,-1504.00
88949,-318.00,-32768.00,-1819.00,-5392.00,-220.00,18044.00,-1552.00
89007,2293.00,-32768.00,-368.00,608.00,1792.00,14100.00,-1504.00
89063,1563.00,-15771.00,619.00,4060.00,620.00,18332.00,-1520.00
89119,3110.00,-31265.00,-8.00,6320.00,1144.00,16932.00,-1488.00
89177,1679.00,-11519.00,-679.00,8428.00,1056.00,15872.00,-1536.00
89233,1996.00,-26288.00,587.00,10924.00,1276.00,15480.00,-1520.00
89290,69.00,-16917.00,-419.00,12852.00,1564.00,12656.00,-1552.00
89347,854.00,-17265.00,488.00,15412.00,1344.00,11216.00,-1504.00
89403,10175.00,11666.00,2964.00,13568.00,1336.00,12256.00,-1504.00
89460,2423.00,-16650.00,-1044.00,15820.00,2092.00,11496.00,-1520.00
89518,-405.00,-5512.00,-1477.00,15916.00,1636.00,7052.00,-1552.00
89574,-472.00,2973.00,-512.00,16156.00,1772.00,9892.00,-1536.00
89630,-2009.00,30662.00,-1150.00,15820.00,2412.00,10224.00,-1520.00
89688,-3127.00,32767.00,-3594.00,11348.00,1392.00,14416.00,-1504.00
89744,1636.00,32767.00,-2216.00,7812.00,1836.00,17100.00,-1536.00
89801,1177.00,26700.00,-768.00,3872.00,1880.00,16652.00,-1536.00
89858,-1407.00,28528.00,366.00,580.00,2108.00,18160.00,-1520.00
89915,-1280.00,16655.00,1433.00,-1976.00,2148.00,18604.00,-1536.00
89971,-1167.00,30382.00,-722.00,-5100.00,1176.00,17028.00,-1504.00
90029,-3776.00,32767.00,-203.00,-7860.00,1904.00,17364.00,-1504.00
90085,484.00,17029.00,89.00,-10512.00,1256.00,12408.00,-1504.00
90141,-1797.00,15136.00,-1153.00,-13744.00,936.00,12164.00,-1520.00
90199,-1356.00,6976.00,401.00,-13232.00,1424.00,9504.00,-1488.00
90255,-453.00,-6402.00,-725.00,-13344.00,1176.00,11572.00,-1536.00
90312,1387.00,-27271.00,-1900.00,-12616.00,1052.00,13060.00,-1536.00
90369,-403.00,-32768.00,-4520.00,-5380.00,1180.00,14276.00,-1504.00
90426,6.00,-31896.00,-734.00,-5376.00,212.00,16400.00,-1504.00
90482,-749.00,-31779.00,-2495.00,-1004.00,824.00,17640.00,-1504.00
90539,2241.00,-14646.00,-746.00,1620.00,684.00,18496.00,-1536.00
90596,986.00,-23659.00,-365.00,4200.00,1024.00,18428.00,-1520.00
90652,2125.00,-16855.00,-594.00,6092.00,688.00,16684.00,-1536.00
90710,1309.00,-15749.00,-76.00,9512.00,1272.00,16760.00,-1552.00
90766,2206.00,-19430.00,263.00,10356.00,1304.00,15588.00,-1536.00
90822,1587.00,-16165.00,-938.00,12088.00,1460.00,13600.00,-1536.00
90880,1523.00,-15819.00,-1276.00,12984.00,1784.00,11912.00,-1536.00
90936,798.00,-8960.00,-1123.00,15296.00,1864.00,10848.00,-1552.00
90993,692.00,-7467.00,-663.00,15160.00,2264.00,9808.00,-1536.00
91049,39.00,-2255.00,-251.00,15992.00,2164.00,9416.00,-1552.00
91106,-276.00,4208.00,795.00,15404.00,2324.00,9704.00,-1536.00
91163,-791.00,16698.00,1249.00,14412.00,1576.00,10192.00,-1536.00
91219,-1496.00,22451.00,355.00,14096.00,1984.00,12056.00,-1536.00
91277,-920.00,23343.00,-1477.00,11956.00,1776.00,14720.00,-1504.00
91333,131.00,28994.00,-2286.00,9380.00,1448.00,16748.00,-1536.00
91390,274.00,27612.00,-877.00,5552.00,1636.00,18248.00,-1520.00
91447,698.00,32767.00,1132.00,1388.00,1512.00,18384.00,-1536.00
91503,-319.00,18941.00,1551.00,-2776.00,1676.00,18348.00,-1536.00
91560,-1274.00,32767.00,2604.00,-6564.00,2284.00,17672.00,-1552.00
91617,-1276.00,21359.00,33.00,-8700.00,1724.00,14896.00,-1552.00
91674,-1432.00,21159.00,-813.00,-10580.00,1584.00,13656.00,-1536.00
91730,-974.00,9867.00,-1144.00,-13828.00,1340.00,9644.00,-1568.00
91788,-1066.00,9099.00,-922.00,-14204.00,1976.00,10120.00,-1536.00
91844,-424.00,1558.00,-898.00,-14556.00,1276.00,8672.00,-1520.00
91900,453.00,-7703.00,-1099.00,-13996.00,1516.00,9592.00,-1536.00
91958,-747.00,-14078.00,-785.00,-12884.00,992.00,11004.00,-1520.00
92014,-1125.00,-32768.00,-1881.00,-11916.00,792.00,13284.00,-1536.00
92071,-785.00,-18651.00,-4.00,-6720.00,240.00,14120.00,-1520.00
92128,-1054.00,-20093.00,-1423.00,-6628.00,-108.00,17380.00,-1520.00
92184,-935.00,-23948.00,-2179.00,-2148.00,164.00,17156.00,-1536.00
92241,907.00,-19660.00,-1295.00,-668.00,-156.00,17720.00,-1536.00
92298,82.00,-22800.00,-602.00,3740.00,424.00,18704.00,-1536.00
92355,2143.00,-15598.00,-752.00,4368.00,312.00,17204.00,-1552.00
92411,900.00,-18011.00,-2894.00,6280.00,508.00,17320.00,-1520.00
92468,3197.00,-16376.00,-3252.00,7864.00,1056.00,15792.00,-1504.00
92525,1395.00,-10391.00,-1810.00,11728.00,1540.00,15212.00,-1536.00
92581,466.00,-9343.00,-796.00,11312.00,1472.00,14436.00,-1568.00
92639,461.00,-8933.00,537.00,13104.00,1796.00,13684.00,-1536.00
92695,1361.00,-13091.00,-610.00,12908.00,1712.00,12672.00,-1488.00
92752,184.00,-7413.00,-1253.00,14164.00,2000.00,11584.00,-1520.00
92809,1646.00,-4740.00,-1509.00,14800.00,2172.00,11240.00,-1552.00
92866,-90.00,3242.00,-161.00,14124.00,2168.00,11220.00,-1520.00
92922,-1171.00,15667.00,246.00,14080.00,2308.00,12072.00,-1504.00
92979,-971.00,18502.00,235.00,12432.00,1680.00,13660.00,-1568.00
93036,-2088.00,19840.00,-1056.00,10992.00,1768.00,15164.00,-1552.00
93092,-628.00,24392.00,-1525.00,7668.00,1752.00,16552.00,-1504.00
93150,671.00,32767.00,-72.00,5404.00,1444.00,17804.00,-1520.00
93206,929.00,26694.00,865.00,572.00,1516.00,18560.00,-1504.00
93262,381.00,28114.00,2084.00,-2364.00,1724.00,16904.00,-1520.00
93320,-772.00,25986.00,1109.00,-5980.00,1708.00,16812.00,-1568.00
93376,-1265.00,19225.00,408.00,-9324.00,1576.00,15036.00,-1568.00
93433,-2173.00,21853.00,237.00,-10424.00,1692.00,14912.00,-1536.00
93490,-953.00,9162.00,-299.00,-11620.00,1080.00,12668.00,-1568.00
93547,-1973.00,11718.00,-537.00,-12108.00,1732.00,11852.00,-1552.00
93603,147.00,4913.00,-437.00,-14144.00,1412.00,10004.00,-1520.00
93660,-114.00,-3006.00,-969.00,-12912.00,1508.00,10480.00,-1536.00
93717,667.00,-2779.00,-379.00,-12716.00,1416.00,11416.00,-1536.00
93773,1915.00,-28200.00,-3225.00,-13296.00,1368.00,13456.00,-1520.00
93831,-1078.00,-30283.00,-1982.00,-6096.00,944.00,13420.00,-1536.00
93887,1056.00,-26623.00,-1617.00,-5968.00,716.00,17836.00,-1536.00
93944,-2359.00,-30343.00,-1440.00,-2312.00,616.00,18160.00,-1552.00
94001,1106.00,-19087.00,-1361.00,-76.00,324.00,16864.00,-1520.00
94057,558.00,-20514.00,-583.00,3764.00,796.00,19368.00,-1536.00
94114,2968.00,-17004.00,-672.00,4356.00,696.00,16984.00,-1520.00
94171,1199.00,-15248.00,-973.00,7180.00,1020.00,17652.00,-1536.00
94228,1056.00,-13129.00,-896.00,8692.00,1200.00,16404.00,-1536.00
94284,1413.00,-14276.00,-526.00,11292.00,1408.00,16120.00,-1520.00
94342,408.00,-11267.00,-289.00,10612.00,1460.00,13380.00,-1552.00
94398,754.00,-11849.00,169.00,12972.00,1476.00,13840.00,-1536.00
94454,414.00,-4233.00,-218.00,13048.00,1828.00,12124.00,-1568.00
94512,1075.00,-7166.00,-568.00,15140.00,1488.00,12056.00,-1520.00
94568,787.00,-10523.00,-326.00,14216.00,1572.00,10904.00,-1536.00
94625,1827.00,-9453.00,-959.00,15352.00,1612.00,10252.00,-1536.00
94682,-113.00,1456.00,-749.00,14520.00,1980.00,9224.00,-1568.00
94738,-553.00,247.00,-216.00,15400.00,1976.00,10240.00,-1536.00
94795,368.00,17475.00,704.00,13780.00,2124.00,11096.00,-1552.00
94852,-1525.00,13529.00,-589.00,14464.00,1488.00,12564.00,-1536.00
94909,-1125.00,25749.00,-325.00,10752.00,1468.00,14336.00,-1552.00
94965,-660.00,18076.00,-213.00,10268.00,1680.00,15992.00,-1552.00
95023,-135.00,21527.00,-610.00,6396.00,1280.00,16776.00,-1568.00
95079,218.00,23352.00,-735.00,5080.00,1376.00,17728.00,-1520.00
95135,1727.00,25156.00,1548.00,2004.00,1624.00,18352.00,-1536.00
95193,-1001.00,32767.00,456.00,-1096.00,1432.00,17920.00,-1568.00
95249,172.00,22797.00,1348.00,-4648.00,1724.00,17172.00,-1536.00
95306,169.00,16959.00,-19.00,-6740.00,1800.00,16468.00,-1520.00
95363,-572.00,15509.00,831.00,-8892.00,1648.00,15604.00,-1520.00
95419,-1227.00,14210.00,-572.00,-10044.00,1672.00,14752.00,-1536.00
95476,-2329.00,15203.00,614.00,-11440.00,2024.00,13400.00,-1536.00
95533,-1596.00,8254.00,-1159.00,-12772.00,1364.00,11652.00,-1552.00
95590,-652.00,5997.00,-352.00,-12936.00,1456.00,11228.00,-1584.00
95646,1679.00,-2652.00,-2363.00,-11588.00,768.00,11548.00,-1536.00
95704,132.00,1225.00,-1940.00,-14016.00,760.00,10332.00,-1584.00
95760,870.00,-32768.00,-4899.00,-14052.00,1020.00,13204.00,-1536.00
95817,270.00,-14326.00,556.00,-9836.00,352.00,14348.00,-1536.00
95874,-692.00,-32768.00,-1838.00,-6840.00,92.00,17716.00,-1568.00
95930,996.00,-16029.00,-1530.00,-2936.00,268.00,16704.00,-1552.00
95987,739.00,-23269.00,-3946.00,700.00,56.00,18664.00,-1536.00
96044,280.00,-18357.00,-1647.00,2684.00,824.00,17224.00,-1536.00
96100,2155.00,-12829.00,-1285.00,4588.00,772.00,17604.00,-1520.00
96157,1172.00,-21450.00,1908.00,6812.00,540.00,16920.00,-1536.00
96214,2062.00,-17607.00,248.00,8384.00,680.00,16192.00,-1536.00
96271,916.00,-16764.00,143.00,11112.00,872.00,14644.00,-1520.00
96327,2134.00,-15798.00,-1755.00,11572.00,1140.00,13548.00,-1536.00
96385,1929.00,-13605.00,-1833.00,14548.00,1440.00,11464.00,-1536.00
96441,481.00,-9605.00,-1497.00,14652.00,1832.00,10632.00,-1536.00
96498,7257.00,17736.00,809.00,14472.00,1528.00,2476.00,-1568.00
96555,8995.00,32767.00,8261.00,13892.00,2740.00,9224.00,-1552.00
96611,6460.00,-32768.00,-9676.00,2652.00,1556.00,8244.00,-1552.00
96668,2114.00,-4755.00,-11418.00,15916.00,3236.00,14552.00,-1552.00
96724,4551.00,4168.00,-4200.00,12008.00,1420.00,14244.00,-1520.00
96782,1789.00,53.00,-7527.00,11240.00,6360.00,13756.00,-1552.00
96838,1218.00,345.00,-2552.00,11152.00,4556.00,14132.00,-1536.00
96896,-1650.00,3967.00,-3354.00,10452.00,6272.00,14000.00,-1552.00
96952,-1233.00,3240.00,-2076.00,12336.00,5460.00,13124.00,-1520.00
97009,-5789.00,2913.00,-3601.00,9264.00,5544.00,16096.00,-1552.00
97065,-844.00,4353.00,-2457.00,10364.00,5232.00,15388.00,-1552.00
97123,-3456.00,-2741.00,2663.00,13552.00,4320.00,12932.00,-1568.00
97179,-1308.00,-700.00,-604.00,8396.00,5040.00,16956.00,-1536.00
97235,-3203.00,794.00,42.00,12208.00,4300.00,16112.00,-1536.00
97293,2085.00,-4120.00,2044.00,10084.00,3784.00,13892.00,-1520.00
97349,-660.00,-2903.00,1181.00,10628.00,4076.00,15268.00,-1552.00
97406,-2025.00,-6336.00,1781.00,11412.00,3888.00,15664.00,-1584.00
97463,-411.00,-10708.00,2922.00,11512.00,3604.00,13676.00,-1552.00
97520,105.00,-12899.00,2008.00,12104.00,2956.00,13480.00,-1520.00
97576,498.00,-21445.00,2016.00,13484.00,2580.00,10996.00,-1536.00
97634,130.00,707.00,666.00,14280.00,3100.00,10160.00,-1536.00
97690,-384.00,-4394.00,1382.00,16220.00,2728.00,10732.00,-1552.00
97746,-1341.00,5496.00,541.00,14056.00,2664.00,8804.00,-1568.00
97804,-688.00,11756.00,-50.00,15040.00,2380.00,10720.00,-1520.00
97860,255.00,24718.00,281.00,14284.00,2460.00,11240.00,-1552.00
97917,-106.00,25713.00,2554.00,11200.00,2556.00,15656.00,-1536.00
97974,550.00,30750.00,628.00,8076.00,1828.00,16216.00,-1536.00
98030,-4979.00,32767.00,2297.00,5720.00,1732.00,20164.00,-1568.00
98087,-2938.00,22022.00,1618.00,1092.00,1264.00,17912.00,-1504.00
98144,-4789.00,23342.00,1808.00,-1820.00,968.00,19572.00,-1536.00
98201,-2229.00,25881.00,4188.00,-2784.00,592.00,15900.00,-1568.00
98257,-2122.00,24211.00,4341.00,-7780.00,576.00,16560.00,-1536.00
98315,-2174.00,21359.00,3379.00,-10536.00,496.00,13656.00,-1536.00
98371,-231.00,11816.00,1686.00,-12000.00,316.00,11908.00,-1536.00
98428,1023.00,14356.00,-129.00,-11988.00,732.00,11940.00,-1520.00
98485,131.00,5626.00,2521.00,-13744.00,1168.00,9280.00,-1552.00
98541,1738.00,1491.00,-664.00,-13824.00,1180.00,10752.00,-1568.00
98598,183.00,313.00,-1639.00,-13888.00,1440.00,9796.00,-1536.00
98655,1740.00,-24392.00,-1061.00,-12592.00,1160.00,11996.00,-1536.00
98712,2213.00,-30074.00,-3084.00,-11028.00,1020.00,13736.00,-1552.00
98768,2293.00,-32768.00,-4633.00,-6420.00,736.00,17556.00,-1520.00
98826,1685.00,-19823.00,-3021.00,-1372.00,588.00,16272.00,-1520.00
98882,262.00,-22344.00,-1691.00,-912.00,800.00,19448.00,-1536.00
98939,476.00,-20476.00,-2984.00,2388.00,1088.00,17428.00,-1520.00
98996,16.00,-19701.00,-1964.00,4120.00,936.00,18348.00,-1552.00
99052,-1313.00,-32768.00,-1947.00,8276.00,948.00,16240.00,-1568.00
99109,854.00,-16849.00,-935.00,10092.00,800.00,15596.00,-1552.00
99166,1640.00,-32768.00,-2482.00,13060.00,1012.00,13052.00,-1504.00
99223,1720.00,-12446.00,-1668.00,13972.00,1660.00,10760.00,-1520.00
99279,3372.00,-29202.00,-2723.00,18728.00,1512.00,9772.00,-1504.00
99337,1436.00,-9504.00,-784.00,15864.00,2224.00,6508.00,-1536.00
99393,3105.00,-24101.00,-333.00,18364.00,1928.00,3508.00,-1552.00
99450,323.00,518.00,1175.00,16636.00,2860.00,4732.00,-1536.00
99507,-601.00,5364.00,73.00,17692.00,2592.00,3468.00,-1520.00
99563,-3186.00,25227.00,684.00,17176.00,2348.00,5680.00,-1568.00
99620,-968.00,24524.00,-469.00,16224.00,2080.00,7776.00,-1552.00
99677,-2856.00,32767.00,1279.00,14484.00,1236.00,11268.00,-1520.00
99734,-860.00,26958.00,199.00,12016.00,1832.00,15460.00,-1488.00
99790,-1208.00,26300.00,-769.00,8704.00,892.00,15708.00,-1520.00
99847,-251.00,19925.00,336.00,7588.00,1476.00,18880.00,-1504.00
99904,-243.00,25447.00,234.00,3644.00,1048.00,18164.00,-1552.00
99960,-990.00,17237.00,1347.00,2364.00,1656.00,19264.00,-1504.00
100018,-1504.00,21812.00,1198.00,-600.00,840.00,18524.00,-1488.00
100074,-4148.00,22299.00,2881.00,-4000.00,1072.00,17160.00,-1536.00
100130,-374.00,13534.00,1329.00,-5932.00,512.00,16636.00,-1520.00
100188,-2067.00,17742.00,1469.00,-7396.00,600.00,15500.00,-1536.00
100244,157.00,8494.00,1687.00,-9816.00,712.00,14924.00,-1536.00
100301,1147.00,9339.00,927.00,-9052.00,892.00,13828.00,-1520.00
100358,-3.00,15580.00,-1569.00,-11916.00,768.00,13772.00,-1552.00
100415,-701.00,7267.00,1438.00,-12408.00,1020.00,11308.00,-1536.00
100471,-216.00,4771.00,-951.00,-13364.00,964.00,11848.00,-1536.00
100528,1049.00,2591.00,-719.00,-12916.00,884.00,10860.00,-1488.00
100585,-1318.00,4939.00,-471.00,-13504.00,1020.00,10444.00,-1536.00
100641,-137.00,4558.00,-887.00,-13988.00,496.00,10660.00,-1536.00
100699,-1789.00,6252.00,333.00,-12768.00,1000.00,8768.00,-1568.00
100755,866.00,1505.00,-100.00,-15500.00,240.00,9560.00,-1536.00
100812,564.00,251.00,-324.00,-13848.00,632.00,8564.00,-1536.00
100869,2420.00,-18351.00,9.00,-14244.00,956.00,10232.00,-1504.00
100925,1992.00,-20716.00,-934.00,-13104.00,920.00,11104.00,-1520.00
100982,1265.00,-29284.00,-1881.00,-9780.00,660.00,14156.00,-1520.00
101039,1829.00,-18167.00,-612.00,-8028.00,860.00,15268.00,-1504.00
101096,1101.00,-31932.00,-3380.00,-5636.00,772.00,17536.00,-1536.00
101152,3419.00,-19014.00,669.00,-2928.00,1184.00,18828.00,-1520.00
101210,-773.00,-22902.00,-2174.00,1776.00,1152.00,18660.00,-1552.00
101266,158.00,-8246.00,-931.00,2452.00,1048.00,19060.00,-1536.00
101322,-1037.00,-18568.00,-928.00,4616.00,1064.00,18296.00,-1520.00
101380,-2314.00,-12847.00,718.00,6700.00,1000.00,16352.00,-1520.00
101436,2265.00,-26391.00,-1556.00,9232.00,1288.00,16584.00,-1520.00
101493,529.00,-26265.00,1401.00,11096.00,1192.00,14012.00,-1520.00
101550,4228.00,-24224.00,-1086.00,13288.00,1276.00,12204.00,-1552.00
101607,1126.00,-14530.00,2406.00,15452.00,1276.00,9504.00,-1520.00
101664,4683.00,-26878.00,-1952.00,15256.00,1308.00,7396.00,-1520.00
101721,2559.00,-13766.00,278.00,17156.00,2344.00,5424.00,-1552.00
101778,1258.00,-5152.00,-203.00,17472.00,2284.00,4428.00,-1520.00
101834,-1796.00,7834.00,105.00,16684.00,2052.00,4336.00,-1504.00
101891,-1680.00,9404.00,189.00,17464.00,1812.00,5224.00,-1520.00
101948,-2624.00,25600.00,1124.00,15792.00,2084.00,7248.00,-1536.00
102004,-2106.00,21368.00,437.00,15900.00,1404.00,10092.00,-1520.00
102062,-1824.00,31681.00,911.00,11468.00,740.00,11892.00,-1488.00
102118,198.00,21449.00,-750.00,9924.00,724.00,16180.00,-1568.00
102175,-541.00,32767.00,904.00,6748.00,540.00,16136.00,-1552.00
102232,182.00,25246.00,819.00,3460.00,860.00,19532.00,-1536.00
102289,-1665.00,32767.00,2482.00,296.00,760.00,17376.00,-1520.00
102345,-331.00,28522.00,3024.00,-3944.00,632.00,17568.00,-1536.00
102402,-1775.00,29283.00,-744.00,-7652.00,40.00,16444.00,-1568.00
102459,133.00,22106.00,1141.00,-10192.00,448.00,13828.00,-1520.00
102515,-2412.00,20957.00,-198.00,-11384.00,992.00,13924.00,-1536.00
102573,-2012.00,15393.00,1405.00,-12924.00,620.00,10432.00,-1504.00
102629,-522.00,15944.00,-122.00,-14904.00,488.00,8576.00,-1504.00
102686,1566.00,11297.00,-284.00,-14236.00,720.00,6684.00,-1536.00
102743,601.00,6362.00,91.00,-15680.00,616.00,5064.00,-1552.00
102799,1649.00,2549.00,95.00,-15328.00,684.00,5292.00,-1520.00
102856,1334.00,-12065.00,668.00,-15116.00,1092.00,6024.00,-1504.00
102913,2547.00,-22706.00,-1507.00,-15068.00,596.00,8032.00,-1520.00
102970,1693.00,-24049.00,-2479.00,-14132.00,408.00,10528.00,-1520.00
103026,821.00,-23311.00,-1524.00,-11752.00,804.00,12096.00,-1536.00
103084,2106.00,-10907.00,-1286.00,-9356.00,568.00,15732.00,-1520.00
103140,614.00,-10273.00,-1472.00,-8576.00,808.00,15384.00,-1520.00
103197,-731.00,-7079.00,-2838.00,-7232.00,796.00,17128.00,-1520.00
103254,2035.00,-16818.00,1488.00,-5112.00,296.00,18012.00,-1536.00
103311,1581.00,-10066.00,3620.00,-4092.00,344.00,17268.00,-1504.00
103367,503.00,-13074.00,3636.00,-2524.00,780.00,18200.00,-1568.00
103424,607.00,-17872.00,-982.00,-1288.00,1208.00,18848.00,-1552.00
103481,-1142.00,5514.00,-904.00,944.00,928.00,18232.00,-1520.00
103537,1020.00,-959.00,812.00,1020.00,1684.00,19392.00,-1552.00
103595,293.00,-6928.00,1276.00,1332.00,624.00,17324.00,-1536.00
103651,-2183.00,-4742.00,844.00,2020.00,368.00,18940.00,-1520.00
103707,-2755.00,-2744.00,667.00,-60.00,1368.00,20408.00,-1536.00
103764,-2375.00,8493.00,-1026.00,1352.00,428.00,16400.00,-1536.00
103821,1251.00,-1544.00,-257.00,132.00,308.00,16672.00,-1504.00
103877,1067.00,-277.00,-1923.00,1908.00,156.00,18788.00,-1520.00
103934,1003.00,-1983.00,-500.00,664.00,196.00,18116.00,-1536.00
103991,799.00,972.00,-2654.00,2024.00,976.00,19072.00,-1552.00
104048,577.00,-1699.00,443.00,1192.00,892.00,18444.00,-1552.00
104104,23.00,-1436.00,-871.00,748.00,572.00,18520.00,-1504.00
104161,499.00,-883.00,-919.00,1412.00,352.00,18264.00,-1536.00
104217,71.00,-742.00,189.00,3368.00,60.00,19004.00,-1536.00
104274,512.00,-696.00,-198.00,1152.00,1048.00,18752.00,-1520.00
