t,gx,gy,gz,ax,ay,az,temp
3,350.00,140.00,-330.00,832.00,1260.00,18448.00,-1376.00
59,-144.00,-85.00,159.00,828.00,1452.00,18796.00,-1376.00
115,-103.00,-74.00,-526.00,656.00,1372.00,18492.00,-1376.00
172,-218.00,-48.00,-141.00,1004.00,1300.00,18680.00,-1360.00
228,-427.00,-86.00,-201.00,596.00,904.00,18580.00,-1360.00
284,-39.00,-136.00,-27.00,976.00,928.00,18480.00,-1360.00
340,27.00,-20.00,-107.00,288.00,1148.00,18436.00,-1360.00
397,29.00,-486.00,-406.00,620.00,1052.00,18708.00,-1376.00
453,273.00,-227.00,-325.00,944.00,1272.00,18388.00,-1360.00
510,-528.00,-184.00,231.00,1220.00,848.00,18396.00,-1376.00
567,282.00,123.00,-387.00,564.00,1540.00,18472.00,-1344.00
623,345.00,98.00,-598.00,1088.00,1092.00,18532.00,-1360.00
679,-53.00,12.00,-445.00,872.00,972.00,18604.00,-1376.00
736,506.00,124.00,-282.00,952.00,968.00,18396.00,-1344.00
792,-254.00,33.00,1.00,1008.00,916.00,18580.00,-1392.00
848,313.00,304.00,-120.00,736.00,1120.00,18280.00,-1360.00
905,135.00,90.00,267.00,436.00,1060.00,18512.00,-1344.00
961,309.00,-159.00,-241.00,688.00,1060.00,18152.00,-1344.00
1017,599.00,-155.00,-82.00,528.00,1288.00,18328.00,-1328.00
1074,240.00,-481.00,-210.00,1076.00,1192.00,18664.00,-1376.00
1131,368.00,-102.00,223.00,1184.00,1220.00,18420.00,-1360.00
1187,477.00,94.00,-325.00,1408.00,1620.00,18404.00,-1360.00
1244,-29.00,396.00,396.00,988.00,1640.00,18828.00,-1360.00
1300,-55.00,354.00,-612.00,612.00,1488.00,18680.00,-1344.00
1356,-17.00,381.00,209.00,1208.00,1160.00,18456.00,-1328.00
1414,37.00,67.00,-286.00,756.00,1756.00,18512.00,-1360.00
1470,466.00,822.00,-109.00,928.00,1360.00,18816.00,-1376.00
1526,-550.00,-27.00,-76.00,-72.00,1344.00,18404.00,-1344.00
1583,491.00,55.00,-501.00,584.00,920.00,18696.00,-1360.00
1639,-292.00,-381.00,-355.00,1072.00,1016.00,18332.00,-1392.00
1695,376.00,209.00,-21.00,1208.00,1324.00,18104.00,-1376.00
1752,372.00,197.00,-53.00,720.00,1540.00,18696.00,-1392.00
1809,199.00,-95.00,-236.00,260.00,1792.00,18860.00,-1376.00
1865,37.00,200.00,-707.00,824.00,1424.00,18520.00,-1344.00
1922,-91.00,222.00,-134.00,752.00,1332.00,18348.00,-1392.00
1978,163.00,207.00,-445.00,476.00,940.00,18248.00,-1376.00
2034,143.00,-14.00,-231.00,768.00,972.00,18568.00,-1376.00
2091,190.00,-79.00,0.00,536.00,1376.00,18324.00,-1360.00
2147,253.00,63.00,-192.00,864.00,1244.00,18460.00,-1360.00
2203,-214.00,-98.00,-325.00,804.00,1600.00,18544.00,-1344.00
2260,171.00,109.00,-244.00,596.00,1468.00,18732.00,-1344.00
2317,-397.00,-193.00,-164.00,796.00,1128.00,18264.00,-1328.00
2373,-129.00,-173.00,-487.00,564.00,1136.00,18632.00,-1392.00
2429,410.00,-56.00,-164.00,856.00,1184.00,18464.00,-1360.00
2486,650.00,-58.00,-312.00,500.00,1240.00,18444.00,-1376.00
2542,90.00,-426.00,-315.00,1104.00,1144.00,18568.00,-1360.00
2599,586.00,291.00,-295.00,1396.00,1584.00,18468.00,-1360.00
2656,107.00,22.00,342.00,556.00,1464.00,18268.00,-1360.00
2712,100.00,-87.00,276.00,648.00,1440.00,18088.00,-1376.00
2768,278.00,157.00,-558.00,940.00,1464.00,18400.00,-1344.00
2825,-437.00,75.00,370.00,796.00,1532.00,18528.00,-1376.00
2881,415.00,181.00,-575.00,400.00,1472.00,18612.00,-1360.00
2938,-27.00,-199.00,-221.00,968.00,1292.00,18356.00,-1392.00
2995,95.00,105.00,-452.00,1024.00,1324.00,18340.00,-1376.00
3051,61.00,243.00,140.00,1036.00,1628.00,18536.00,-1392.00
3107,-352.00,-290.00,-338.00,548.00,1288.00,18328.00,-1360.00
3164,66.00,-150.00,-436.00,844.00,1092.00,18360.00,-1392.00
3220,313.00,168.00,-358.00,960.00,1248.00,18528.00,-1376.00
3277,46.00,57.00,170.00,692.00,1392.00,18452.00,-1376.00
3334,201.00,146.00,-586.00,852.00,1540.00,18516.00,-1328.00
3390,-391.00,80.00,-71.00,836.00,1456.00,18900.00,-1376.00
3446,-47.00,116.00,-623.00,600.00,1136.00,18612.00,-1360.00
3503,-145.00,86.00,-165.00,1008.00,1044.00,18384.00,-1360.00
3559,260.00,374.00,-374.00,752.00,1140.00,18196.00,-1344.00
3615,-94.00,-104.00,-65.00,660.00,1288.00,18220.00,-1344.00
3673,175.00,137.00,-62.00,612.00,1396.00,18300.00,-1392.00
3729,-234.00,-287.00,-11.00,320.00,1448.00,18508.00,-1376.00
3785,271.00,2.00,-272.00,960.00,1412.00,18532.00,-1376.00
3842,-231.00,-266.00,-354.00,796.00,1204.00,18524.00,-1360.00
3898,301.00,-1.00,-406.00,1036.00,1080.00,18704.00,-1344.00
3954,-124.00,-9.00,-170.00,1096.00,992.00,18416.00,-1344.00
4011,-94.00,184.00,-178.00,1028.00,932.00,18288.00,-1360.00
4068,117.00,330.00,-235.00,516.00,1528.00,18360.00,-1376.00
4124,-204.00,5.00,-169.00,784.00,1220.00,18640.00,-1344.00
4180,111.00,261.00,11.00,728.00,1208.00,17880.00,-1392.00
4237,77.00,151.00,-1.00,668.00,1352.00,18424.00,-1344.00
4293,69.00,464.00,65.00,548.00,1056.00,18596.00,-1376.00
4349,147.00,736.00,3.00,272.00,1164.00,18688.00,-1360.00
4406,-241.00,347.00,-264.00,444.00,1256.00,18928.00,-1312.00
4462,219.00,881.00,-320.00,1148.00,920.00,18480.00,-1344.00
4518,-28.00,193.00,-36.00,916.00,1100.00,18028.00,-1344.00
4576,252.00,623.00,742.00,680.00,1500.00,18684.00,-1360.00
4632,616.00,957.00,148.00,8.00,1296.00,18272.00,-1360.00
4688,-202.00,367.00,1120.00,-88.00,864.00,19044.00,-1376.00
4745,1024.00,20.00,1335.00,-868.00,876.00,17720.00,-1360.00
4801,1377.00,179.00,214.00,1116.00,408.00,18016.00,-1360.00
4857,-503.00,-402.00,2619.00,-2228.00,3992.00,18548.00,-1360.00
4915,442.00,-3629.00,8095.00,2620.00,644.00,18500.00,-1376.00
4971,30.00,4783.00,-3099.00,-2320.00,2760.00,16784.00,-1408.00
5027,3703.00,-4588.00,1433.00,900.00,2700.00,19024.00,-1360.00
5085,-42.00,-8793.00,6048.00,1132.00,2576.00,16600.00,-1344.00
5141,5971.00,3132.00,-1466.00,4140.00,3080.00,19248.00,-1360.00
5197,-3807.00,1443.00,2346.00,-396.00,896.00,19240.00,-1376.00
5255,-131.00,4325.00,-3720.00,880.00,1444.00,18576.00,-1360.00
5311,172.00,2417.00,-854.00,3872.00,1248.00,19260.00,-1360.00
5367,2713.00,2739.00,-5728.00,3560.00,2776.00,17368.00,-1376.00
5425,-1524.00,-1030.00,-1088.00,3784.00,880.00,20884.00,-1392.00
5481,-2597.00,-1450.00,42.00,4.00,1964.00,18616.00,-1344.00
5537,-2380.00,2937.00,1817.00,224.00,1640.00,17420.00,-1360.00
5594,1261.00,3726.00,3623.00,-96.00,1308.00,17440.00,-1376.00
5651,-3180.00,1416.00,5067.00,836.00,980.00,17668.00,-1376.00
5707,3565.00,3273.00,-1780.00,-872.00,1404.00,17860.00,-1360.00
5764,2614.00,6452.00,-5881.00,-932.00,1700.00,17748.00,-1376.00
5821,2397.00,4878.00,-918.00,-564.00,2308.00,17552.00,-1360.00
5877,-9204.00,-13333.00,6118.00,16.00,-2640.00,15152.00,-1376.00
5934,-1317.00,2584.00,1575.00,1796.00,3056.00,18248.00,-1360.00
5991,-1097.00,2647.00,-4691.00,48.00,1036.00,19356.00,-1376.00
6047,-1987.00,-1019.00,-4550.00,1024.00,2052.00,18488.00,-1376.00
6104,1649.00,-3523.00,-3723.00,-176.00,1848.00,18000.00,-1376.00
6161,-1463.00,-6377.00,-8635.00,628.00,2188.00,18180.00,-1360.00
6217,-1586.00,-5414.00,-2852.00,92.00,1344.00,18656.00,-1376.00
6274,-543.00,-1716.00,-4409.00,2584.00,2064.00,17132.00,-1376.00
6331,3186.00,-1586.00,-4168.00,1004.00,1612.00,19464.00,-1360.00
6387,766.00,6312.00,-463.00,2944.00,1880.00,18700.00,-1344.00
6444,-1563.00,-1433.00,-763.00,1644.00,1552.00,19332.00,-1344.00
6501,-7542.00,-5204.00,5013.00,3624.00,392.00,18332.00,-1360.00
6557,-3410.00,1156.00,-3129.00,2072.00,336.00,17552.00,-1376.00
6614,-3734.00,12793.00,-787.00,4248.00,-476.00,17336.00,-1360.00
6671,3818.00,4722.00,-2812.00,980.00,-376.00,19136.00,-1408.00
6727,4739.00,-8592.00,3887.00,1796.00,1160.00,17728.00,-1344.00
6784,4907.00,-13804.00,4930.00,-4328.00,452.00,20948.00,-1360.00
6841,2098.00,1365.00,5745.00,2172.00,1492.00,17372.00,-1376.00
6897,-2086.00,-38.00,5297.00,3332.00,844.00,18972.00,-1360.00
6953,-4004.00,-67.00,3614.00,2128.00,1344.00,17116.00,-1360.00
7011,580.00,13389.00,3095.00,388.00,820.00,19620.00,-1344.00
7067,-118.00,-3908.00,85.00,-40.00,460.00,18204.00,-1376.00
7123,4062.00,3584.00,-1608.00,364.00,-716.00,15848.00,-1360.00
7180,367.00,-1701.00,-709.00,-684.00,1600.00,19896.00,-1392.00
7237,6642.00,-8196.00,-1324.00,1140.00,908.00,17988.00,-1360.00
7293,4516.00,-561.00,578.00,1884.00,1856.00,19716.00,-1376.00
7350,2179.00,3606.00,7557.00,3108.00,1080.00,18200.00,-1344.00
7407,786.00,154.00,5606.00,636.00,2560.00,18600.00,-1360.00
7463,1674.00,68.00,1767.00,1872.00,1912.00,19068.00,-1392.00
7520,733.00,-1826.00,-2299.00,2424.00,2488.00,17948.00,-1392.00
7577,1542.00,-5778.00,-2000.00,3980.00,2752.00,17880.00,-1344.00
7633,-1979.00,-5010.00,-1146.00,2136.00,1832.00,17548.00,-1360.00
7690,-185.00,8914.00,690.00,1896.00,1884.00,17348.00,-1376.00
7747,-3514.00,4893.00,-2228.00,596.00,1280.00,20700.00,-1360.00
7803,-2087.00,1686.00,-3062.00,2312.00,2124.00,17240.00,-1392.00
7860,-1402.00,684.00,-833.00,1664.00,1492.00,20684.00,-1328.00
7917,-2183.00,-1930.00,-3142.00,1092.00,1756.00,16940.00,-1360.00
7973,-165.00,-3887.00,-2478.00,2664.00,948.00,17468.00,-1344.00
8030,-361.00,-5068.00,99.00,1652.00,1164.00,17872.00,-1376.00
8087,2469.00,-1865.00,1825.00,2612.00,1288.00,17984.00,-1344.00
8143,438.00,-2958.00,1544.00,2176.00,1204.00,19852.00,-1392.00
8200,1335.00,3033.00,306.00,2532.00,1604.00,17120.00,-1376.00
8257,806.00,652.00,134.00,2236.00,1460.00,19420.00,-1360.00
8313,185.00,1089.00,-2244.00,1816.00,1552.00,18348.00,-1376.00
8370,126.00,2300.00,43.00,2676.00,1748.00,19076.00,-1360.00
8426,-168.00,-302.00,217.00,2200.00,1556.00,18236.00,-1360.00
8483,-328.00,1753.00,642.00,1660.00,1656.00,18336.00,-1360.00
8540,-170.00,188.00,-870.00,1616.00,1532.00,18292.00,-1360.00
8596,49.00,1201.00,-463.00,1412.00,1576.00,18308.00,-1360.00
8652,-497.00,-126.00,-516.00,1572.00,1452.00,19116.00,-1392.00
8710,295.00,-577.00,-333.00,1692.00,1552.00,18340.00,-1360.00
8766,652.00,2257.00,265.00,1720.00,1444.00,18240.00,-1376.00
8822,-263.00,-451.00,524.00,1240.00,1656.00,18280.00,-1392.00
8879,-240.00,-224.00,342.00,1620.00,1360.00,18400.00,-1360.00
8936,-334.00,161.00,-350.00,1496.00,1412.00,18292.00,-1360.00
8992,159.00,1134.00,-457.00,1556.00,1552.00,18544.00,-1344.00
9049,-420.00,1412.00,-765.00,1372.00,1312.00,18636.00,-1360.00
9106,-200.00,1677.00,-744.00,852.00,1264.00,18656.00,-1392.00
9162,353.00,2135.00,-401.00,620.00,1292.00,18412.00,-1360.00
9219,445.00,1370.00,45.00,280.00,1448.00,18620.00,-1376.00
9275,343.00,-6.00,-159.00,444.00,1620.00,18348.00,-1344.00
9331,-14.00,-328.00,-107.00,608.00,1308.00,18648.00,-1360.00
9388,424.00,-235.00,-68.00,640.00,1596.00,18520.00,-1376.00
9445,-325.00,-78.00,-667.00,432.00,1392.00,18820.00,-1360.00
9501,564.00,97.00,44.00,788.00,1688.00,18080.00,-1376.00
9558,-29.00,-128.00,-136.00,756.00,1428.00,18240.00,-1360.00
9614,-143.00,316.00,-185.00,392.00,1472.00,18832.00,-1408.00
9670,219.00,-246.00,80.00,504.00,1452.00,18804.00,-1344.00
9726,130.00,510.00,525.00,500.00,1444.00,18372.00,-1392.00
9783,232.00,551.00,-340.00,536.00,1528.00,18680.00,-1408.00
9840,-306.00,937.00,-743.00,608.00,1368.00,18512.00,-1376.00
9896,-182.00,1520.00,-56.00,272.00,1512.00,18344.00,-1392.00
9953,-701.00,1498.00,-254.00,628.00,1260.00,18072.00,-1392.00
10009,16.00,2067.00,-643.00,-128.00,1408.00,18232.00,-1360.00
10066,348.00,2781.00,-713.00,-552.00,1364.00,18160.00,-1376.00
10123,-482.00,2751.00,-513.00,-1040.00,1368.00,18332.00,-1360.00
10179,329.00,3332.00,-258.00,-1400.00,1344.00,18296.00,-1376.00
10236,443.00,3408.00,-372.00,-1992.00,1256.00,18568.00,-1360.00
10293,660.00,4793.00,-276.00,-2588.00,1336.00,18608.00,-1392.00
10349,88.00,4906.00,-943.00,-2752.00,1476.00,18420.00,-1376.00
10405,312.00,7671.00,67.00,-3524.00,1292.00,17804.00,-1376.00
10463,497.00,6671.00,-18.00,-3816.00,1464.00,17388.00,-1360.00
10519,930.00,9319.00,927.00,-4968.00,1524.00,16820.00,-1360.00
10575,339.00,3879.00,315.00,-7016.00,1608.00,17256.00,-1376.00
10633,441.00,9698.00,2079.00,-6860.00,1852.00,16776.00,-1376.00
10689,-1721.00,3511.00,-1166.00,-7656.00,1712.00,16284.00,-1376.00
10746,-673.00,5809.00,-246.00,-7356.00,1660.00,15560.00,-1392.00
10803,-1666.00,7460.00,-1230.00,-9548.00,1308.00,16188.00,-1376.00
10859,-600.00,6955.00,-1102.00,-8404.00,1372.00,14480.00,-1392.00
10916,-1134.00,6090.00,-173.00,-10768.00,984.00,14524.00,-1392.00
10973,418.00,9098.00,-444.00,-10484.00,1232.00,14044.00,-1376.00
11030,-224.00,5954.00,981.00,-11908.00,936.00,12952.00,-1360.00
11086,401.00,9647.00,-110.00,-11400.00,1092.00,11812.00,-1360.00
11143,-120.00,9355.00,450.00,-12648.00,1216.00,11976.00,-1376.00
11200,-520.00,8618.00,-544.00,-12712.00,1296.00,10408.00,-1360.00
11256,328.00,7205.00,1146.00,-13320.00,1316.00,9516.00,-1376.00
11313,-347.00,5453.00,-1123.00,-14488.00,1324.00,9020.00,-1392.00
11370,433.00,6539.00,193.00,-14580.00,1284.00,7836.00,-1376.00
11426,-435.00,3797.00,-289.00,-15020.00,1336.00,7596.00,-1360.00
11483,-134.00,2227.00,-30.00,-15572.00,1236.00,7132.00,-1392.00
11540,439.00,-2983.00,-1190.00,-14652.00,1316.00,7184.00,-1376.00
11596,261.00,-6060.00,-1139.00,-15072.00,1084.00,7564.00,-1360.00
11654,1021.00,-13465.00,-2146.00,-14088.00,1064.00,8440.00,-1344.00
11710,549.00,-8069.00,-104.00,-13888.00,868.00,9604.00,-1376.00
11766,1063.00,-9751.00,-1211.00,-12188.00,956.00,10876.00,-1408.00
11824,-86.00,-4513.00,210.00,-13256.00,692.00,11804.00,-1376.00
11880,25.00,-4884.00,-1220.00,-12572.00,652.00,12300.00,-1376.00
11936,-206.00,-3433.00,-108.00,-12372.00,724.00,12400.00,-1392.00
11994,-316.00,-5119.00,-673.00,-11228.00,968.00,13364.00,-1360.00
12050,121.00,-4920.00,-245.00,-11028.00,876.00,13608.00,-1376.00
12106,134.00,-5364.00,386.00,-10184.00,716.00,13620.00,-1392.00
12164,-117.00,-5175.00,12.00,-10348.00,760.00,14544.00,-1360.00
12220,583.00,-7475.00,413.00,-9644.00,752.00,15280.00,-1392.00
12276,877.00,-8432.00,160.00,-8708.00,836.00,15224.00,-1376.00
12334,1187.00,-8877.00,250.00,-7116.00,1004.00,16356.00,-1408.00
12390,499.00,-10804.00,-315.00,-5752.00,1092.00,16076.00,-1360.00
12446,663.00,-5149.00,-17.00,-5468.00,1164.00,17272.00,-1344.00
12504,-44.00,-6681.00,-885.00,-5308.00,1128.00,17220.00,-1376.00
12560,339.00,-3752.00,-551.00,-4444.00,1052.00,17516.00,-1360.00
12616,-20.00,-5799.00,503.00,-3552.00,1260.00,18216.00,-1376.00
12674,514.00,-5304.00,334.00,-3124.00,1208.00,17912.00,-1344.00
12730,698.00,-5745.00,-65.00,-2436.00,1060.00,18076.00,-1360.00
12786,-79.00,-4749.00,-562.00,-1884.00,1248.00,18220.00,-1376.00
12844,800.00,-7613.00,-574.00,-1036.00,1256.00,18764.00,-1376.00
12900,-250.00,-4877.00,-253.00,-212.00,1312.00,18344.00,-1360.00
12956,624.00,-4765.00,-268.00,12.00,1196.00,18864.00,-1424.00
13012,-93.00,-4606.00,-302.00,760.00,1396.00,18236.00,-1424.00
13070,669.00,-9199.00,-366.00,1636.00,1308.00,18008.00,-1360.00
13126,400.00,-9859.00,-362.00,2476.00,1432.00,19008.00,-1376.00
13182,341.00,-1608.00,-242.00,3288.00,1368.00,18184.00,-1392.00
13240,490.00,-8308.00,-343.00,3968.00,1480.00,17940.00,-1376.00
13296,41.00,-1697.00,-139.00,4548.00,1536.00,17932.00,-1344.00
13352,1191.00,-16275.00,-3.00,6228.00,1540.00,16704.00,-1392.00
13410,135.00,-5335.00,213.00,6484.00,1624.00,17148.00,-1376.00
13466,-284.00,-9809.00,782.00,7280.00,1540.00,16792.00,-1376.00
13522,-135.00,-5495.00,1359.00,8544.00,1456.00,16788.00,-1392.00
13580,-171.00,-3785.00,1048.00,8596.00,1384.00,16816.00,-1360.00
13636,101.00,-1492.00,803.00,9252.00,1324.00,15776.00,-1408.00
13692,-10.00,-5648.00,826.00,9260.00,1420.00,15148.00,-1376.00
13750,-617.00,-10605.00,242.00,10700.00,1088.00,14796.00,-1392.00
13806,443.00,-7281.00,637.00,10328.00,1244.00,14432.00,-1376.00
13863,240.00,-3346.00,60.00,11304.00,1064.00,14636.00,-1408.00
13920,975.00,-2745.00,196.00,12300.00,792.00,14436.00,-1408.00
13976,220.00,-9560.00,355.00,12572.00,1064.00,13648.00,-1392.00
14033,1092.00,-4759.00,-310.00,13368.00,1096.00,12396.00,-1408.00
14090,781.00,-9320.00,-239.00,13740.00,952.00,12424.00,-1408.00
14146,676.00,-8362.00,-289.00,14416.00,1304.00,10756.00,-1360.00
14203,378.00,-11616.00,-1020.00,14336.00,1192.00,10724.00,-1408.00
14260,31.00,-2539.00,418.00,15112.00,1436.00,9604.00,-1408.00
14317,-247.00,-3472.00,393.00,15620.00,1280.00,10124.00,-1392.00
14373,436.00,-2536.00,314.00,15484.00,1192.00,9472.00,-1376.00
14430,627.00,-2691.00,573.00,16076.00,976.00,9072.00,-1392.00
14487,310.00,-7149.00,668.00,15364.00,1220.00,7744.00,-1424.00
14543,-349.00,-4460.00,438.00,16552.00,940.00,7432.00,-1376.00
14600,-1275.00,-5895.00,294.00,16036.00,988.00,7460.00,-1408.00
14657,477.00,953.00,-1019.00,16520.00,800.00,7440.00,-1392.00
14713,510.00,1401.00,429.00,16508.00,1140.00,7004.00,-1376.00
14770,239.00,5000.00,-757.00,16268.00,940.00,8040.00,-1376.00
14826,159.00,3344.00,-565.00,16064.00,1036.00,8068.00,-1392.00
14883,-41.00,7468.00,-854.00,15624.00,1064.00,8756.00,-1392.00
14940,370.00,654.00,-118.00,15700.00,1044.00,9000.00,-1408.00
14996,881.00,5290.00,-17.00,15444.00,1084.00,9808.00,-1376.00
15053,683.00,-1736.00,96.00,15268.00,1180.00,9764.00,-1360.00
15110,158.00,2698.00,190.00,14992.00,1116.00,10244.00,-1392.00
15166,-1793.00,4008.00,-226.00,14584.00,1048.00,10392.00,-1408.00
15223,-1107.00,3628.00,-1241.00,14344.00,1132.00,10512.00,-1408.00
15280,-1440.00,5153.00,-912.00,14424.00,992.00,11004.00,-1408.00
15337,182.00,1142.00,-447.00,14116.00,1088.00,11580.00,-1392.00
15393,205.00,5067.00,-265.00,14488.00,848.00,12812.00,-1376.00
15450,-262.00,5552.00,-546.00,13376.00,1084.00,12196.00,-1392.00
15507,148.00,3689.00,-934.00,13364.00,1072.00,13044.00,-1376.00
15563,-1272.00,11608.00,-1047.00,12340.00,1136.00,13052.00,-1424.00
15621,-289.00,6889.00,-586.00,11308.00,944.00,14788.00,-1408.00
15677,-90.00,2778.00,380.00,11212.00,948.00,14684.00,-1408.00
15733,410.00,5367.00,-528.00,10396.00,1040.00,15440.00,-1424.00
15791,-355.00,8065.00,-38.00,10292.00,980.00,15540.00,-1408.00
15847,390.00,7849.00,-783.00,9272.00,1164.00,16580.00,-1408.00
15903,-466.00,8026.00,-628.00,8872.00,776.00,16836.00,-1408.00
15961,614.00,6337.00,-20.00,7780.00,972.00,17736.00,-1440.00
16017,76.00,4120.00,-698.00,7284.00,1184.00,16816.00,-1440.00
16073,583.00,4410.00,-430.00,6076.00,1132.00,17468.00,-1392.00
16130,24.00,2842.00,-1739.00,6520.00,908.00,18212.00,-1376.00
16187,284.00,3179.00,-1247.00,5672.00,1380.00,17700.00,-1376.00
16243,-51.00,3063.00,-1425.00,5044.00,1180.00,18292.00,-1376.00
16300,-328.00,7025.00,-686.00,4672.00,1352.00,17600.00,-1392.00
16357,1056.00,6997.00,975.00,4900.00,1352.00,18084.00,-1408.00
16413,258.00,8475.00,88.00,2748.00,1224.00,18000.00,-1392.00
16470,638.00,4285.00,-541.00,2756.00,1460.00,18092.00,-1376.00
16527,-46.00,3478.00,-1101.00,1476.00,1472.00,17996.00,-1424.00
16583,-931.00,2440.00,441.00,1056.00,1528.00,18264.00,-1376.00
16640,1124.00,4452.00,136.00,720.00,1604.00,18096.00,-1408.00
16697,-178.00,4928.00,-536.00,664.00,1152.00,18972.00,-1392.00
16753,-612.00,2609.00,-5.00,-848.00,1464.00,18212.00,-1376.00
16809,-159.00,4988.00,-874.00,-1044.00,1236.00,18804.00,-1408.00
16866,-1012.00,8535.00,-1737.00,-1416.00,1704.00,18300.00,-1424.00
16923,316.00,3870.00,-288.00,-2532.00,876.00,18900.00,-1408.00
16979,-738.00,6718.00,55.00,-3416.00,1460.00,17404.00,-1424.00
17037,-473.00,8207.00,-117.00,-4064.00,788.00,17840.00,-1408.00
17093,-24.00,5805.00,322.00,-4444.00,1120.00,17368.00,-1408.00
17149,-214.00,5254.00,563.00,-4464.00,1052.00,16680.00,-1424.00
17206,-227.00,4634.00,913.00,-5748.00,956.00,16828.00,-1408.00
17263,-535.00,4394.00,212.00,-6164.00,916.00,17400.00,-1408.00
17319,-218.00,6203.00,143.00,-7144.00,1132.00,15876.00,-1392.00
17376,-70.00,3530.00,147.00,-8064.00,888.00,16536.00,-1408.00
17433,-581.00,2716.00,-85.00,-7652.00,1232.00,15680.00,-1408.00
17489,-440.00,7948.00,1384.00,-8924.00,616.00,15884.00,-1456.00
17546,-1422.00,6001.00,-175.00,-8684.00,1072.00,14948.00,-1408.00
17603,-1110.00,4947.00,1323.00,-10604.00,604.00,14796.00,-1392.00
17659,-548.00,470.00,-361.00,-9780.00,764.00,14876.00,-1424.00
17716,236.00,2552.00,1933.00,-10280.00,892.00,13860.00,-1424.00
17773,-663.00,2372.00,-193.00,-11184.00,532.00,14480.00,-1408.00
17829,586.00,8254.00,1200.00,-10076.00,1336.00,13292.00,-1392.00
17886,-227.00,6820.00,1941.00,-11600.00,932.00,13312.00,-1424.00
17943,-511.00,1389.00,846.00,-10836.00,1580.00,12336.00,-1408.00
17999,214.00,4624.00,948.00,-12520.00,844.00,12628.00,-1424.00
18057,271.00,1750.00,148.00,-12060.00,1316.00,11780.00,-1408.00
18113,1422.00,4213.00,225.00,-12656.00,1400.00,11368.00,-1424.00
18169,1952.00,614.00,-2094.00,-11768.00,1612.00,11252.00,-1392.00
18227,1195.00,2049.00,-1805.00,-13008.00,1216.00,12428.00,-1408.00
18283,219.00,-179.00,-279.00,-12600.00,1316.00,11896.00,-1408.00
18340,1014.00,-985.00,58.00,-13164.00,1692.00,9956.00,-1392.00
18397,-1506.00,-352.00,335.00,-11768.00,1368.00,10400.00,-1424.00
18453,243.00,648.00,-1526.00,-16344.00,1332.00,11172.00,-1408.00
18510,-416.00,-174.00,-981.00,-12100.00,788.00,9268.00,-1408.00
18567,229.00,1288.00,1267.00,-10608.00,1164.00,10244.00,-1408.00
18623,1221.00,1182.00,-488.00,-13308.00,1008.00,11380.00,-1376.00
18680,1075.00,956.00,-1062.00,-11600.00,1524.00,11580.00,-1392.00
18737,774.00,835.00,1155.00,-13416.00,1036.00,11320.00,-1424.00
18794,1920.00,1438.00,29.00,-13224.00,1216.00,11148.00,-1424.00
18850,599.00,2872.00,1011.00,-13452.00,1424.00,11000.00,-1408.00
18907,1008.00,1526.00,-1502.00,-13380.00,1560.00,10684.00,-1408.00
18964,782.00,1852.00,-320.00,-12768.00,1716.00,10468.00,-1408.00
19020,804.00,279.00,-1316.00,-14308.00,1216.00,9808.00,-1392.00
19078,426.00,-1447.00,-1119.00,-12888.00,1608.00,10476.00,-1408.00
19134,160.00,-5069.00,-917.00,-13452.00,1276.00,10780.00,-1408.00
19190,-698.00,-14520.00,-769.00,-11516.00,1688.00,11808.00,-1392.00
19248,-786.00,-11720.00,356.00,-11660.00,1044.00,13096.00,-1424.00
19304,-869.00,-9922.00,-1003.00,-11308.00,1048.00,13520.00,-1424.00
19361,-147.00,-3542.00,23.00,-9752.00,960.00,13972.00,-1424.00
19418,296.00,-4158.00,-504.00,-9932.00,1080.00,14752.00,-1392.00
19474,595.00,-4844.00,133.00,-9360.00,928.00,15204.00,-1408.00
19531,421.00,-4802.00,-110.00,-8852.00,984.00,15540.00,-1392.00
19588,-310.00,-8430.00,-426.00,-7556.00,1260.00,15832.00,-1424.00
19644,348.00,-5856.00,-457.00,-7964.00,784.00,16520.00,-1408.00
19701,700.00,-9462.00,-270.00,-6016.00,1288.00,16468.00,-1392.00
19758,780.00,-6642.00,-668.00,-5308.00,1116.00,17060.00,-1408.00
19814,619.00,-7430.00,3.00,-5028.00,1236.00,17568.00,-1392.00
19871,676.00,-4385.00,-245.00,-4300.00,1368.00,17764.00,-1392.00
19928,540.00,-7413.00,-398.00,-3428.00,1372.00,17924.00,-1376.00
19984,1062.00,-7506.00,376.00,-2808.00,1504.00,18252.00,-1424.00
20041,891.00,-11081.00,-1339.00,-1436.00,1456.00,18708.00,-1408.00
20098,489.00,-4413.00,225.00,-524.00,1740.00,18620.00,-1408.00
20154,-319.00,-8791.00,-544.00,392.00,1616.00,18572.00,-1392.00
20211,234.00,-8653.00,-353.00,1772.00,1908.00,18568.00,-1408.00
20268,1189.00,-15866.00,75.00,2620.00,1572.00,18164.00,-1424.00
20324,789.00,-16927.00,-73.00,5812.00,1968.00,17816.00,-1408.00
20381,189.00,-5736.00,590.00,5916.00,1844.00,17644.00,-1424.00
20438,306.00,-5984.00,1530.00,7304.00,1880.00,17632.00,-1408.00
20494,-265.00,-6246.00,707.00,7628.00,1788.00,17100.00,-1424.00
20551,-185.00,-8051.00,480.00,8880.00,1452.00,17032.00,-1408.00
20608,-747.00,-3310.00,339.00,8992.00,1864.00,15552.00,-1424.00
20664,-134.00,-8694.00,35.00,10348.00,1640.00,15480.00,-1440.00
20721,-202.00,-6031.00,-148.00,10504.00,1808.00,14228.00,-1392.00
20777,609.00,-5777.00,208.00,11424.00,1652.00,14648.00,-1424.00
20835,516.00,-7669.00,619.00,11468.00,1676.00,13700.00,-1408.00
20891,477.00,-6278.00,735.00,12416.00,1500.00,13584.00,-1424.00
20947,-380.00,-5981.00,542.00,12848.00,1340.00,13224.00,-1424.00
21005,341.00,-2115.00,-162.00,13244.00,1296.00,12260.00,-1408.00
21061,-836.00,-4094.00,159.00,13768.00,1244.00,12596.00,-1440.00
21118,516.00,-3155.00,-204.00,13956.00,1380.00,11296.00,-1408.00
21175,-234.00,-6050.00,165.00,13984.00,1204.00,11912.00,-1408.00
21231,830.00,-2740.00,145.00,14484.00,1328.00,11300.00,-1440.00
21288,-966.00,-4823.00,999.00,14844.00,1068.00,11128.00,-1424.00
21345,-106.00,-4565.00,531.00,15224.00,1292.00,9512.00,-1408.00
21401,115.00,-6336.00,58.00,15588.00,1068.00,9504.00,-1424.00
21458,337.00,-4575.00,-84.00,15872.00,1048.00,7772.00,-1440.00
21515,693.00,-2426.00,144.00,15856.00,964.00,8668.00,-1424.00
21571,-49.00,-1509.00,25.00,15916.00,920.00,8168.00,-1392.00
21627,363.00,-444.00,-543.00,16120.00,1024.00,7532.00,-1424.00
21685,-59.00,2650.00,127.00,16172.00,972.00,8160.00,-1424.00
21741,1044.00,8153.00,-432.00,15636.00,1036.00,8532.00,-1424.00
21797,631.00,8902.00,-501.00,15400.00,1012.00,9632.00,-1440.00
21855,1323.00,5679.00,-808.00,14224.00,1232.00,10924.00,-1424.00
21911,675.00,5180.00,-876.00,14432.00,1284.00,10512.00,-1440.00
21967,148.00,7452.00,-674.00,13884.00,1188.00,11584.00,-1408.00
22025,135.00,4037.00,-1000.00,13324.00,1444.00,11860.00,-1440.00
22081,27.00,4892.00,-340.00,13040.00,1424.00,12984.00,-1440.00
22138,-605.00,4904.00,-537.00,13136.00,1368.00,13620.00,-1424.00
22195,-595.00,3752.00,174.00,12188.00,1452.00,14108.00,-1408.00
22251,-186.00,6219.00,40.00,12032.00,1260.00,13992.00,-1424.00
22308,1147.00,3597.00,187.00,11272.00,1460.00,14468.00,-1424.00
22365,353.00,4475.00,-410.00,11068.00,1268.00,15340.00,-1408.00
22422,228.00,3422.00,26.00,10740.00,1408.00,15124.00,-1440.00
22478,-1483.00,5802.00,676.00,10196.00,1304.00,15496.00,-1408.00
22535,-184.00,8669.00,-2.00,8888.00,1360.00,15740.00,-1440.00
22591,466.00,10957.00,-29.00,8428.00,1008.00,17032.00,-1408.00
22648,-558.00,8213.00,-722.00,7044.00,1308.00,17012.00,-1376.00
22705,1008.00,1497.00,-234.00,7024.00,1084.00,17204.00,-1440.00
22762,-114.00,2637.00,-329.00,7396.00,1304.00,16464.00,-1408.00
22818,1714.00,3822.00,2352.00,6036.00,1476.00,18408.00,-1408.00
22875,-921.00,3695.00,504.00,4424.00,1456.00,18016.00,-1456.00
22932,-78.00,2415.00,-1133.00,5304.00,1068.00,18464.00,-1456.00
22988,573.00,1830.00,-770.00,5388.00,1628.00,17216.00,-1440.00
23045,810.00,2310.00,-241.00,5548.00,1296.00,18060.00,-1440.00
23102,365.00,5987.00,464.00,4820.00,1596.00,17944.00,-1456.00
23158,1036.00,3110.00,1016.00,4160.00,1288.00,18240.00,-1408.00
23215,-1661.00,6985.00,-124.00,3552.00,1440.00,18360.00,-1424.00
23272,339.00,8048.00,-33.00,1860.00,1408.00,18504.00,-1440.00
23328,-587.00,6535.00,-867.00,1416.00,1148.00,18460.00,-1456.00
23385,741.00,4547.00,-74.00,1176.00,1380.00,18216.00,-1424.00
23442,-156.00,7336.00,-227.00,-256.00,1132.00,18932.00,-1440.00
23498,1377.00,7198.00,372.00,-396.00,1480.00,18320.00,-1408.00
23555,177.00,7399.00,-235.00,-2120.00,1360.00,18360.00,-1408.00
23612,-671.00,5188.00,602.00,-2244.00,1496.00,17768.00,-1424.00
23668,-1012.00,-45.00,-182.00,-3212.00,1504.00,17952.00,-1440.00
23725,-594.00,2312.00,-378.00,-2776.00,1180.00,18364.00,-1440.00
23782,292.00,1330.00,-580.00,-3344.00,1292.00,18260.00,-1424.00
23838,-1083.00,2469.00,-514.00,-2812.00,1300.00,17748.00,-1392.00
23895,334.00,10984.00,2283.00,-4844.00,944.00,18524.00,-1408.00
23952,-222.00,5307.00,960.00,-5656.00,1316.00,17104.00,-1408.00
24008,175.00,11270.00,1457.00,-5476.00,1356.00,17468.00,-1408.00
24065,289.00,4800.00,-902.00,-6248.00,1424.00,15716.00,-1408.00
24122,-538.00,4325.00,-1836.00,-7172.00,932.00,16508.00,-1440.00
24178,-480.00,3815.00,-1442.00,-8660.00,1124.00,15304.00,-1424.00
24236,739.00,6899.00,642.00,-7876.00,1340.00,15280.00,-1440.00
24292,-992.00,469.00,-35.00,-9780.00,1320.00,15536.00,-1424.00
24348,787.00,4644.00,-92.00,-7824.00,1348.00,14544.00,-1424.00
24404,555.00,2748.00,31.00,-10120.00,1008.00,15168.00,-1440.00
24462,-649.00,3286.00,-314.00,-8876.00,1596.00,13820.00,-1424.00
24518,-62.00,4365.00,-118.00,-10704.00,1020.00,14444.00,-1440.00
24574,-747.00,3746.00,-223.00,-9844.00,1104.00,14124.00,-1424.00
24632,1656.00,8526.00,1528.00,-11740.00,1316.00,13476.00,-1408.00
24688,952.00,6240.00,-1270.00,-11240.00,1252.00,13340.00,-1440.00
24745,-37.00,9062.00,678.00,-12072.00,1512.00,11276.00,-1392.00
24802,572.00,4243.00,-387.00,-13004.00,1312.00,11536.00,-1440.00
24858,-882.00,2034.00,346.00,-12360.00,1584.00,10752.00,-1408.00
24915,865.00,5167.00,-108.00,-13604.00,1476.00,10536.00,-1440.00
24972,1096.00,4457.00,-757.00,-13492.00,1424.00,10188.00,-1424.00
25029,119.00,1306.00,-890.00,-13324.00,1528.00,9820.00,-1408.00
25085,260.00,1334.00,-687.00,-13476.00,1604.00,9736.00,-1424.00
25142,628.00,1584.00,334.00,-14164.00,1428.00,9836.00,-1424.00
25199,246.00,-748.00,-4.00,-13372.00,1676.00,9472.00,-1408.00
25255,61.00,-2180.00,-311.00,-13880.00,1456.00,9556.00,-1424.00
25312,105.00,-5704.00,-133.00,-13676.00,1512.00,10256.00,-1424.00
25369,-271.00,-5543.00,-210.00,-13148.00,1480.00,10872.00,-1408.00
25425,-409.00,-4226.00,-591.00,-12820.00,1608.00,11064.00,-1424.00
25482,-46.00,-5930.00,-604.00,-12660.00,1368.00,11676.00,-1456.00
25539,-570.00,-6560.00,-291.00,-11768.00,1380.00,12180.00,-1424.00
25595,-494.00,-8221.00,-432.00,-11580.00,1368.00,12808.00,-1440.00
25652,-711.00,-7017.00,-663.00,-10288.00,1200.00,13600.00,-1408.00
25709,10.00,-4842.00,-486.00,-9780.00,1044.00,14132.00,-1424.00
25765,-297.00,-4777.00,-1086.00,-9888.00,1024.00,14680.00,-1424.00
25823,126.00,-6009.00,-997.00,-8992.00,844.00,15244.00,-1440.00
25879,-143.00,-5695.00,-245.00,-9092.00,820.00,15732.00,-1408.00
25935,290.00,-2476.00,-389.00,-7940.00,924.00,15672.00,-1408.00
25992,-8.00,-6341.00,-1306.00,-8224.00,692.00,16460.00,-1424.00
26049,786.00,-4156.00,-181.00,-6656.00,976.00,15884.00,-1424.00
26105,469.00,-4948.00,-550.00,-6912.00,704.00,17116.00,-1424.00
26162,435.00,-10518.00,-1258.00,-5104.00,772.00,16720.00,-1440.00
26219,732.00,-3510.00,-23.00,-5544.00,648.00,17884.00,-1424.00
26275,-30.00,-6468.00,-1434.00,-4288.00,948.00,17832.00,-1424.00
26332,76.00,-3497.00,-42.00,-3960.00,892.00,17556.00,-1424.00
26388,-550.00,-6187.00,-887.00,-4012.00,568.00,18492.00,-1392.00
26445,-132.00,-4488.00,-192.00,-2168.00,848.00,18104.00,-1424.00
26502,-259.00,-5198.00,-292.00,-2296.00,584.00,18588.00,-1424.00
26558,-440.00,-12524.00,-145.00,-52.00,640.00,17956.00,-1440.00
26615,370.00,-5144.00,371.00,140.00,684.00,18488.00,-1440.00
26672,901.00,-3883.00,295.00,536.00,564.00,18684.00,-1408.00
26728,144.00,-6216.00,-526.00,1116.00,616.00,18944.00,-1408.00
26784,-691.00,-5988.00,187.00,2492.00,880.00,18064.00,-1408.00
26842,-130.00,-4104.00,-477.00,2648.00,512.00,18516.00,-1424.00
26898,-449.00,-11324.00,-632.00,4420.00,700.00,17756.00,-1424.00
26954,819.00,-4898.00,-143.00,5392.00,744.00,17484.00,-1440.00
27012,318.00,-7367.00,-717.00,5308.00,628.00,18300.00,-1440.00
27068,362.00,-1753.00,74.00,6460.00,768.00,17128.00,-1440.00
27124,422.00,-4732.00,272.00,6532.00,780.00,17628.00,-1408.00
27181,-878.00,-9908.00,-1439.00,6316.00,712.00,17616.00,-1424.00
27238,913.00,-4496.00,160.00,8300.00,636.00,16312.00,-1440.00
27294,816.00,-4973.00,30.00,8128.00,776.00,16976.00,-1408.00
27351,-623.00,-6683.00,-1234.00,9348.00,792.00,16236.00,-1472.00
27408,128.00,-2547.00,15.00,9904.00,780.00,15752.00,-1456.00
27464,-707.00,-6667.00,34.00,10612.00,920.00,14892.00,-1456.00
27521,-414.00,-2950.00,-54.00,10764.00,508.00,15680.00,-1424.00
27577,-1540.00,-6248.00,-562.00,11296.00,524.00,14940.00,-1440.00
27634,-303.00,-4720.00,1661.00,11708.00,576.00,14136.00,-1424.00
27691,-1121.00,-9742.00,1598.00,12428.00,396.00,13292.00,-1440.00
27748,65.00,-6060.00,1385.00,13496.00,-12.00,12884.00,-1440.00
27804,-625.00,-4344.00,540.00,13396.00,-176.00,13004.00,-1440.00
27860,-66.00,-3030.00,-353.00,14764.00,-88.00,11936.00,-1424.00
27918,-144.00,-3770.00,-1099.00,13724.00,-192.00,11816.00,-1408.00
27974,792.00,-226.00,-1013.00,14872.00,44.00,10396.00,-1440.00
28030,446.00,-4220.00,-899.00,14844.00,176.00,10508.00,-1440.00
28088,754.00,-1932.00,-295.00,15060.00,-92.00,10380.00,-1424.00
28144,-374.00,-5730.00,-1438.00,14752.00,364.00,10900.00,-1440.00
28200,-88.00,-1607.00,-1011.00,15352.00,332.00,9260.00,-1456.00
28258,-996.00,-4412.00,-1369.00,15796.00,568.00,8680.00,-1456.00
28314,-572.00,-4892.00,-1289.00,15896.00,696.00,8252.00,-1440.00
28370,136.00,-5042.00,-919.00,16332.00,432.00,8536.00,-1456.00
28428,360.00,-2662.00,5.00,16376.00,760.00,7016.00,-1472.00
28484,999.00,-2531.00,729.00,16484.00,548.00,7220.00,-1408.00
28540,188.00,-169.00,-294.00,16312.00,552.00,6944.00,-1424.00
28597,284.00,-988.00,-978.00,16532.00,552.00,6712.00,-1456.00
28654,-220.00,3580.00,-10.00,16616.00,748.00,6504.00,-1424.00
28710,124.00,2940.00,-628.00,16324.00,684.00,7740.00,-1456.00
28767,167.00,8522.00,-133.00,16124.00,708.00,7896.00,-1472.00
28823,512.00,7356.00,-675.00,15596.00,756.00,8868.00,-1424.00
28880,929.00,9973.00,-459.00,15316.00,692.00,10544.00,-1456.00
28937,-313.00,2503.00,-599.00,14368.00,856.00,10328.00,-1440.00
28993,1301.00,4743.00,544.00,14320.00,868.00,10804.00,-1456.00
29050,562.00,6648.00,-146.00,13780.00,876.00,12456.00,-1456.00
29107,1248.00,9265.00,1052.00,14200.00,432.00,12180.00,-1440.00
29163,309.00,6158.00,1215.00,12300.00,712.00,13952.00,-1456.00
29220,656.00,4533.00,760.00,12076.00,516.00,13768.00,-1440.00
29277,-487.00,4465.00,-390.00,11680.00,608.00,14200.00,-1424.00
29333,-10.00,3695.00,-875.00,11976.00,624.00,14220.00,-1440.00
29390,-214.00,4672.00,-673.00,10852.00,700.00,14944.00,-1440.00
29447,-812.00,6438.00,-429.00,10608.00,524.00,15576.00,-1456.00
29503,283.00,5781.00,115.00,9944.00,464.00,15756.00,-1440.00
29560,-797.00,10647.00,198.00,8360.00,756.00,16388.00,-1424.00
29617,1004.00,5641.00,234.00,7800.00,480.00,16992.00,-1424.00
29673,1034.00,4159.00,-146.00,7608.00,804.00,16804.00,-1440.00
29730,1585.00,5608.00,565.00,6692.00,516.00,17596.00,-1424.00
29787,532.00,4985.00,525.00,5976.00,584.00,18036.00,-1472.00
29843,804.00,7717.00,422.00,5456.00,724.00,17568.00,-1472.00
29900,608.00,2352.00,-82.00,5508.00,768.00,18136.00,-1472.00
29957,-2922.00,-1032.00,-3494.00,5460.00,1000.00,16952.00,-1472.00
30013,2212.00,4915.00,890.00,4628.00,1172.00,17376.00,-1472.00
30070,672.00,10448.00,1902.00,3716.00,496.00,19824.00,-1456.00
30127,390.00,6356.00,167.00,3316.00,1336.00,17528.00,-1408.00
30183,263.00,6546.00,-1366.00,1428.00,724.00,18800.00,-1424.00
30240,233.00,4194.00,-1496.00,1568.00,1200.00,17392.00,-1440.00
30297,1624.00,7232.00,31.00,252.00,920.00,19188.00,-1424.00
30353,12.00,4161.00,-114.00,108.00,1268.00,18248.00,-1456.00
30409,1043.00,4014.00,369.00,-824.00,1344.00,18060.00,-1424.00
30467,337.00,2527.00,552.00,-1584.00,1156.00,18580.00,-1440.00
30523,400.00,3959.00,229.00,-1168.00,1568.00,17796.00,-1472.00
30579,135.00,3324.00,-438.00,-1812.00,1432.00,18248.00,-1488.00
30637,347.00,4680.00,274.00,-3248.00,1268.00,18636.00,-1440.00
30693,642.00,5680.00,705.00,-3320.00,1372.00,18280.00,-1424.00
30749,446.00,4856.00,-232.00,-3712.00,1668.00,17620.00,-1440.00
30807,1264.00,8007.00,247.00,-4696.00,1720.00,18060.00,-1440.00
30863,282.00,4041.00,113.00,-5084.00,1984.00,17672.00,-1440.00
30920,988.00,6195.00,801.00,-6200.00,1900.00,17376.00,-1456.00
30977,300.00,2145.00,-734.00,-6196.00,2132.00,16176.00,-1440.00
31033,-365.00,2470.00,-1029.00,-6080.00,1684.00,16144.00,-1456.00
31090,156.00,1694.00,-923.00,-8100.00,1840.00,17044.00,-1440.00
31147,189.00,4511.00,-945.00,-6724.00,1972.00,15712.00,-1456.00
31203,717.00,4896.00,-687.00,-8192.00,1740.00,16284.00,-1440.00
31260,12.00,4666.00,-497.00,-7336.00,1976.00,15512.00,-1440.00
31316,122.00,5336.00,-358.00,-9076.00,1640.00,15656.00,-1456.00
31373,276.00,5166.00,-928.00,-8908.00,1812.00,14716.00,-1440.00
31430,-1850.00,4229.00,-3127.00,-9716.00,1768.00,14540.00,-1456.00
31486,-908.00,4051.00,-3601.00,-9880.00,1132.00,13732.00,-1488.00
31543,582.00,8644.00,-746.00,-11368.00,852.00,14312.00,-1440.00
31600,-805.00,3654.00,-800.00,-11104.00,1268.00,12880.00,-1456.00
31656,-552.00,4327.00,93.00,-11956.00,960.00,12736.00,-1456.00
31713,-198.00,3365.00,-453.00,-12228.00,696.00,12504.00,-1456.00
31770,28.00,4092.00,497.00,-12520.00,836.00,11708.00,-1440.00
31826,1247.00,5442.00,-677.00,-12740.00,1196.00,11176.00,-1424.00
31883,611.00,5717.00,-336.00,-13440.00,1104.00,10628.00,-1440.00
31940,190.00,3155.00,-1281.00,-12388.00,1292.00,10420.00,-1440.00
31996,913.00,7932.00,-1279.00,-14248.00,676.00,9020.00,-1472.00
32054,742.00,2396.00,-1007.00,-14220.00,884.00,9008.00,-1408.00
32110,44.00,3181.00,726.00,-14528.00,760.00,8152.00,-1456.00
32166,437.00,4529.00,828.00,-14340.00,976.00,7464.00,-1456.00
32224,390.00,7647.00,1121.00,-14408.00,1336.00,8000.00,-1440.00
32280,-467.00,2679.00,94.00,-14904.00,1176.00,7204.00,-1424.00
32336,170.00,583.00,-804.00,-14648.00,1372.00,6532.00,-1440.00
32393,-266.00,-3795.00,-325.00,-14988.00,1080.00,6860.00,-1440.00
32450,900.00,-7199.00,-1169.00,-14748.00,1164.00,7476.00,-1456.00
32506,-180.00,-9037.00,-2217.00,-14360.00,836.00,9048.00,-1424.00
32564,-868.00,-10652.00,-2265.00,-13684.00,696.00,9476.00,-1472.00
32620,-156.00,-13569.00,-2918.00,-12248.00,332.00,10808.00,-1456.00
32676,-545.00,-10262.00,-541.00,-12768.00,-28.00,12372.00,-1456.00
32734,232.00,-9389.00,-1340.00,-11160.00,116.00,13036.00,-1440.00
32790,501.00,-9889.00,-301.00,-10612.00,-28.00,14456.00,-1456.00
32846,677.00,-7362.00,-1033.00,-9444.00,140.00,14740.00,-1440.00
32904,430.00,-6756.00,-69.00,-8444.00,-4.00,15584.00,-1424.00
32960,739.00,-6840.00,-541.00,-7484.00,100.00,15596.00,-1408.00
33016,659.00,-5579.00,1189.00,-7760.00,80.00,16768.00,-1424.00
33074,736.00,-13773.00,-840.00,-6392.00,292.00,16624.00,-1456.00
33130,1425.00,-4115.00,1314.00,-5712.00,200.00,17712.00,-1472.00
33186,693.00,-9518.00,129.00,-4724.00,516.00,17604.00,-1440.00
33244,1173.00,-3491.00,167.00,-4172.00,400.00,18448.00,-1440.00
33300,390.00,-4466.00,368.00,-3036.00,892.00,17564.00,-1424.00
33356,208.00,-7172.00,-576.00,-3456.00,412.00,18612.00,-1440.00
33414,206.00,-6408.00,-344.00,-972.00,1136.00,17620.00,-1408.00
33470,130.00,-6510.00,-359.00,-1732.00,408.00,18948.00,-1456.00
33526,34.00,-10611.00,-414.00,1016.00,1128.00,17740.00,-1424.00
33583,548.00,-5307.00,278.00,1092.00,872.00,18520.00,-1472.00
33640,245.00,-12158.00,-354.00,2468.00,616.00,18352.00,-1440.00
33696,617.00,-5256.00,39.00,3040.00,676.00,18976.00,-1424.00
33753,117.00,-6151.00,-65.00,3708.00,816.00,18192.00,-1456.00
33810,309.00,-4320.00,-3.00,4524.00,812.00,18228.00,-1456.00
33866,375.00,-11040.00,-693.00,5764.00,1204.00,17420.00,-1456.00
33923,538.00,-9568.00,-1230.00,6672.00,1020.00,17496.00,-1440.00
33980,159.00,-6323.00,-512.00,7108.00,996.00,17932.00,-1456.00
34036,500.00,-5396.00,-533.00,8412.00,968.00,16480.00,-1472.00
34093,111.00,-3242.00,-455.00,8900.00,1288.00,16340.00,-1424.00
34149,84.00,-3317.00,383.00,9144.00,976.00,16920.00,-1472.00
34206,248.00,-6248.00,317.00,9628.00,1084.00,15516.00,-1440.00
34263,-345.00,-7283.00,-276.00,10324.00,1012.00,15560.00,-1456.00
34319,-98.00,-8878.00,-417.00,10856.00,1032.00,14588.00,-1408.00
34376,-374.00,-6817.00,-512.00,11696.00,972.00,14180.00,-1424.00
34433,990.00,-5333.00,-163.00,12904.00,944.00,13916.00,-1408.00
34489,-238.00,-7015.00,-229.00,12776.00,1192.00,12984.00,-1456.00
34546,1257.00,-5876.00,509.00,14020.00,968.00,12160.00,-1472.00
34603,933.00,-3597.00,1284.00,13832.00,920.00,12752.00,-1440.00
34660,136.00,-3951.00,63.00,13868.00,804.00,12172.00,-1456.00
34716,145.00,-5523.00,-496.00,14096.00,1048.00,11476.00,-1424.00
34772,-204.00,-5407.00,-449.00,14568.00,952.00,11372.00,-1488.00
34830,143.00,-3238.00,-243.00,14844.00,1068.00,9964.00,-1472.00
34886,229.00,-1468.00,21.00,15292.00,796.00,10284.00,-1440.00
34942,-242.00,-2463.00,-410.00,15312.00,1144.00,9336.00,-1424.00
35000,-254.00,-3756.00,-392.00,15308.00,1036.00,9376.00,-1472.00
35056,-280.00,-4396.00,-202.00,15852.00,752.00,9652.00,-1456.00
35112,224.00,1145.00,45.00,15936.00,976.00,8244.00,-1424.00
35169,-233.00,186.00,-25.00,15832.00,1080.00,8380.00,-1456.00
35226,873.00,8061.00,278.00,15808.00,856.00,9220.00,-1456.00
35282,458.00,4916.00,-728.00,14876.00,904.00,10360.00,-1472.00
35339,-11.00,8486.00,-348.00,14700.00,1180.00,10468.00,-1488.00
35396,15.00,4326.00,-761.00,14520.00,912.00,10904.00,-1472.00
35452,212.00,11906.00,-471.00,14088.00,904.00,11712.00,-1472.00
35509,754.00,4575.00,-705.00,13204.00,956.00,12884.00,-1488.00
35566,267.00,7067.00,120.00,12748.00,1236.00,13280.00,-1440.00
35622,-332.00,3552.00,86.00,11700.00,1116.00,13872.00,-1456.00
35679,491.00,5200.00,-323.00,11760.00,1048.00,14524.00,-1472.00
35736,-400.00,5911.00,-651.00,11288.00,1016.00,14916.00,-1488.00
35792,748.00,4869.00,123.00,10920.00,1312.00,14116.00,-1456.00
35849,642.00,5392.00,-98.00,9936.00,1064.00,15484.00,-1440.00
35906,-218.00,3995.00,108.00,9708.00,1024.00,16024.00,-1440.00
35962,-950.00,5702.00,32.00,8872.00,1144.00,16184.00,-1456.00
36019,1265.00,7103.00,-130.00,8516.00,1128.00,16172.00,-1472.00
36076,-1123.00,6563.00,-1228.00,8068.00,936.00,16212.00,-1456.00
36132,-135.00,8239.00,-425.00,7176.00,1004.00,16956.00,-1472.00
36189,18.00,7245.00,568.00,6060.00,868.00,18208.00,-1456.00
36246,-616.00,7318.00,153.00,5272.00,1036.00,17524.00,-1456.00
36302,1047.00,7735.00,205.00,4668.00,1236.00,17420.00,-1472.00
36359,-252.00,7577.00,52.00,3276.00,620.00,18624.00,-1456.00
36416,480.00,6028.00,-1006.00,2220.00,1272.00,17748.00,-1456.00
36472,665.00,7679.00,-387.00,2436.00,552.00,19468.00,-1472.00
36529,467.00,9159.00,388.00,940.00,1568.00,17732.00,-1456.00
36586,352.00,8311.00,934.00,-284.00,992.00,18824.00,-1456.00
36642,-298.00,6069.00,-8.00,-896.00,1184.00,18480.00,-1456.00
36699,272.00,8411.00,129.00,-2468.00,872.00,18816.00,-1424.00
36755,-512.00,4752.00,550.00,-2880.00,1308.00,17796.00,-1456.00
36812,-573.00,2445.00,-988.00,-3772.00,1180.00,17656.00,-1440.00
36869,-477.00,2133.00,580.00,-3872.00,704.00,18616.00,-1456.00
36925,-744.00,4200.00,-369.00,-4040.00,1028.00,17688.00,-1488.00
36982,229.00,2596.00,337.00,-4068.00,976.00,18020.00,-1472.00
37039,-912.00,7807.00,1326.00,-5676.00,684.00,17252.00,-1488.00
37095,-305.00,8840.00,802.00,-5568.00,1128.00,16316.00,-1472.00
37152,-346.00,4162.00,1281.00,-7184.00,712.00,17428.00,-1472.00
37209,-721.00,6796.00,-124.00,-6716.00,1048.00,15996.00,-1456.00
37265,-536.00,5527.00,-81.00,-8316.00,592.00,16376.00,-1472.00
37321,-871.00,4951.00,-329.00,-8156.00,840.00,15576.00,-1472.00
37379,-605.00,5710.00,-147.00,-8996.00,592.00,15416.00,-1456.00
37435,-695.00,8318.00,-251.00,-9380.00,608.00,14980.00,-1456.00
37491,-501.00,5658.00,164.00,-10348.00,396.00,14268.00,-1472.00
37549,-397.00,4420.00,-201.00,-10272.00,796.00,13584.00,-1456.00
37605,-808.00,2638.00,181.00,-11316.00,288.00,13712.00,-1440.00
37661,-1078.00,3080.00,-672.00,-11120.00,380.00,13508.00,-1472.00
37719,-243.00,4782.00,-246.00,-11792.00,152.00,12916.00,-1472.00
37775,-771.00,3510.00,-363.00,-12236.00,-32.00,12504.00,-1488.00
37831,273.00,4791.00,-423.00,-11524.00,368.00,11836.00,-1456.00
37889,647.00,3493.00,345.00,-12752.00,28.00,11812.00,-1440.00
37945,313.00,3526.00,-502.00,-12520.00,416.00,11232.00,-1488.00
38001,468.00,2476.00,78.00,-13164.00,256.00,10984.00,-1456.00
38059,73.00,4242.00,-187.00,-12992.00,384.00,10300.00,-1472.00
38115,497.00,1594.00,-211.00,-13424.00,312.00,10164.00,-1440.00
38171,-78.00,4903.00,305.00,-13608.00,504.00,9892.00,-1456.00
38228,-492.00,840.00,-661.00,-13512.00,496.00,9868.00,-1456.00
38285,-132.00,1262.00,-399.00,-13836.00,384.00,9756.00,-1472.00
38341,59.00,1102.00,54.00,-13984.00,344.00,9268.00,-1456.00
38397,-68.00,931.00,-27.00,-14208.00,172.00,9468.00,-1456.00
38454,-172.00,1270.00,-775.00,-13948.00,388.00,8708.00,-1472.00
38511,290.00,43.00,-893.00,-14084.00,356.00,8696.00,-1456.00
38567,625.00,-2226.00,186.00,-14032.00,336.00,9304.00,-1456.00
38624,310.00,-4392.00,-152.00,-13684.00,452.00,9388.00,-1488.00
38680,929.00,-6754.00,-391.00,-13320.00,464.00,10392.00,-1440.00
38737,47.00,-9779.00,-1124.00,-13388.00,100.00,10796.00,-1456.00
38794,1015.00,-13850.00,-2271.00,-10824.00,652.00,12164.00,-1472.00
38851,915.00,-5422.00,-911.00,-11568.00,-128.00,13240.00,-1440.00
38907,16.00,-11205.00,-1119.00,-10136.00,412.00,13952.00,-1488.00
38964,-85.00,-8409.00,-456.00,-9424.00,76.00,14872.00,-1472.00
39021,-309.00,-9114.00,287.00,-9072.00,-108.00,15628.00,-1456.00
39077,807.00,-5966.00,230.00,-7648.00,88.00,15868.00,-1456.00
39134,1681.00,-7647.00,97.00,-7472.00,-44.00,16160.00,-1472.00
39190,1446.00,-10596.00,-255.00,-5856.00,388.00,16884.00,-1472.00
39247,820.00,-7356.00,-897.00,-5180.00,376.00,17248.00,-1456.00
39304,1009.00,-11979.00,88.00,-4080.00,276.00,17660.00,-1440.00
39360,182.00,-8419.00,-964.00,-2728.00,416.00,18076.00,-1488.00
39417,804.00,-9339.00,166.00,-1924.00,416.00,18452.00,-1456.00
39474,540.00,-8119.00,-729.00,108.00,608.00,18116.00,-1472.00
39530,870.00,-9341.00,-38.00,568.00,540.00,18604.00,-1472.00
39586,895.00,-15051.00,-716.00,1976.00,724.00,18356.00,-1472.00
39644,767.00,-6069.00,-709.00,2804.00,716.00,18740.00,-1424.00
39700,849.00,-12438.00,38.00,4564.00,988.00,17948.00,-1456.00
39756,207.00,-5486.00,-11.00,5552.00,972.00,18024.00,-1472.00
39814,474.00,-5375.00,-1.00,5768.00,944.00,17428.00,-1472.00
39870,300.00,-5785.00,-152.00,6688.00,1076.00,17328.00,-1440.00
39926,156.00,-12479.00,-41.00,7284.00,1008.00,16608.00,-1424.00
39983,725.00,-5406.00,169.00,8484.00,936.00,16892.00,-1488.00
40040,443.00,-6607.00,342.00,9228.00,1080.00,15912.00,-1440.00
40096,129.00,-7913.00,-333.00,9840.00,1168.00,15556.00,-1456.00
40153,153.00,-6628.00,-163.00,10632.00,996.00,15024.00,-1472.00
40210,183.00,-12710.00,337.00,11692.00,1220.00,14564.00,-1472.00
40266,157.00,-8903.00,-171.00,12292.00,1124.00,13276.00,-1440.00
40324,997.00,-10339.00,-117.00,14024.00,984.00,11844.00,-1456.00
40380,178.00,-9287.00,-403.00,14176.00,1040.00,11932.00,-1456.00
40436,621.00,-5845.00,-256.00,14852.00,1288.00,10496.00,-1472.00
40494,39.00,-6406.00,153.00,15272.00,1444.00,10272.00,-1456.00
40550,-15.00,-7172.00,334.00,15656.00,1180.00,8940.00,-1472.00
40606,-92.00,-3054.00,0.00,15972.00,912.00,8732.00,-1488.00
40663,-307.00,-8093.00,989.00,16160.00,1344.00,6968.00,-1472.00
40720,90.00,-1299.00,-128.00,16772.00,1136.00,6720.00,-1456.00
40776,-298.00,-7393.00,406.00,16476.00,1212.00,7000.00,-1472.00
40833,-163.00,-1258.00,237.00,16608.00,960.00,6404.00,-1440.00
40890,-227.00,-7494.00,444.00,17132.00,860.00,5616.00,-1488.00
40946,-1020.00,1424.00,176.00,16828.00,812.00,4616.00,-1472.00
41003,258.00,-1280.00,-311.00,17104.00,924.00,5000.00,-1472.00
41060,460.00,3637.00,-502.00,16872.00,868.00,5396.00,-1488.00
41116,341.00,-6.00,-140.00,16936.00,856.00,5712.00,-1504.00
41172,45.00,8911.00,-906.00,16624.00,828.00,5860.00,-1456.00
41229,958.00,3382.00,-1222.00,16676.00,868.00,7280.00,-1456.00
41286,168.00,5664.00,-406.00,15692.00,1300.00,7232.00,-1440.00
41342,676.00,9041.00,-1874.00,15880.00,1404.00,8864.00,-1488.00
41399,-2461.00,10004.00,-4362.00,16028.00,1568.00,9132.00,-1472.00
41456,-145.00,7059.00,-89.00,14832.00,1920.00,10340.00,-1504.00
41512,-708.00,2191.00,-468.00,14608.00,1352.00,11244.00,-1456.00
41570,-741.00,10944.00,-381.00,13544.00,1436.00,12344.00,-1472.00
41626,-325.00,4284.00,-893.00,14080.00,1092.00,11852.00,-1472.00
41682,-424.00,9080.00,-721.00,11916.00,1784.00,13324.00,-1488.00
41740,-246.00,9560.00,-2380.00,13032.00,896.00,13636.00,-1488.00
41796,136.00,6988.00,-3131.00,10396.00,2064.00,17124.00,-1440.00
41853,-4909.00,1972.00,1581.00,11464.00,892.00,15924.00,-1472.00
41910,-82.00,6171.00,1820.00,10300.00,1012.00,13144.00,-1488.00
41966,399.00,7784.00,-742.00,5204.00,1524.00,17736.00,-1472.00
42023,-997.00,7405.00,-3489.00,10260.00,852.00,15824.00,-1472.00
42080,2907.00,9387.00,-1416.00,7560.00,2000.00,17540.00,-1456.00
42137,518.00,7828.00,-2364.00,7048.00,1400.00,17484.00,-1456.00
42193,-73.00,3174.00,-1080.00,5004.00,2216.00,18456.00,-1440.00
42250,288.00,3278.00,1714.00,5608.00,1252.00,17704.00,-1424.00
42307,711.00,6495.00,-833.00,4936.00,2052.00,17828.00,-1408.00
42363,715.00,3050.00,0.00,4952.00,1660.00,18116.00,-1392.00
42420,809.00,2546.00,-266.00,3160.00,2356.00,18708.00,-1392.00
42477,717.00,2735.00,-1052.00,4160.00,2084.00,18600.00,-1344.00
42533,551.00,2321.00,-203.00,2668.00,2056.00,18604.00,-1376.00
42590,-118.00,2038.00,-401.00,3016.00,2232.00,18012.00,-1328.00
42647,251.00,2028.00,-588.00,3064.00,2136.00,18436.00,-1328.00
42703,-628.00,1241.00,-287.00,2388.00,2260.00,18464.00,-1344.00
42760,230.00,1099.00,-646.00,2056.00,2272.00,18144.00,-1296.00
42817,-45.00,1380.00,64.00,3340.00,1720.00,19052.00,-1312.00
42873,-1020.00,1111.00,-374.00,2244.00,1872.00,18168.00,-1344.00
42930,-869.00,1.00,356.00,2584.00,1768.00,18400.00,-1376.00
42986,1112.00,2773.00,568.00,2348.00,1496.00,19120.00,-1344.00
43043,-684.00,797.00,32.00,1596.00,1960.00,18540.00,-1328.00
43100,-542.00,553.00,360.00,1096.00,1692.00,19212.00,-1360.00
43156,-723.00,-526.00,688.00,2212.00,1252.00,17508.00,-1312.00
43213,-749.00,-112.00,536.00,1884.00,1512.00,19300.00,-1312.00
43270,-340.00,-1907.00,1715.00,2060.00,1788.00,18936.00,-1264.00
43326,-108.00,-253.00,-1209.00,1596.00,1008.00,18740.00,-1280.00
43383,-1639.00,-287.00,661.00,2048.00,1524.00,18668.00,-1296.00
43440,-633.00,3594.00,-478.00,2664.00,1480.00,18148.00,-1280.00
43496,-299.00,-5286.00,1631.00,864.00,996.00,18456.00,-1232.00
43553,906.00,3511.00,4430.00,2360.00,836.00,17228.00,-1264.00
43610,1520.00,-1233.00,1761.00,988.00,1592.00,18588.00,-1248.00
43666,717.00,2514.00,2568.00,2112.00,1624.00,18620.00,-1216.00
43723,942.00,2608.00,-288.00,1132.00,1420.00,18232.00,-1264.00
43780,-351.00,2822.00,74.00,1132.00,2044.00,19160.00,-1248.00
43836,-2218.00,2203.00,-2004.00,1836.00,1048.00,18632.00,-1216.00
43893,-1566.00,-1583.00,-2679.00,1092.00,880.00,18184.00,-1248.00
43950,578.00,2392.00,-2939.00,1760.00,1084.00,18684.00,-1216.00
44006,1740.00,-1068.00,-851.00,252.00,912.00,18540.00,-1232.00
44063,-32.00,1877.00,2085.00,948.00,1448.00,18412.00,-1248.00
44120,567.00,-3169.00,599.00,40.00,1460.00,18548.00,-1216.00
44176,-1255.00,796.00,-646.00,540.00,1296.00,18404.00,-1216.00
44233,1012.00,-1754.00,-1284.00,796.00,1064.00,18276.00,-1200.00
44290,-54.00,-195.00,-2245.00,1504.00,1220.00,18232.00,-1216.00
44346,-606.00,-1132.00,-450.00,836.00,1000.00,19252.00,-1200.00
44403,-101.00,-732.00,330.00,1852.00,1352.00,18380.00,-1248.00
44460,-343.00,1926.00,844.00,576.00,1016.00,17776.00,-1216.00
44516,1413.00,-1584.00,-1504.00,992.00,1412.00,18480.00,-1200.00
44573,674.00,245.00,-3903.00,728.00,1108.00,17944.00,-1216.00
44630,547.00,-314.00,-1151.00,2024.00,1276.00,19048.00,-1200.00
44686,-232.00,350.00,-1129.00,1488.00,1088.00,18312.00,-1216.00
44742,217.00,1796.00,-573.00,1488.00,1540.00,18600.00,-1200.00
44800,84.00,-239.00,-591.00,1132.00,1000.00,18504.00,-1184.00
44856,78.00,371.00,-1228.00,1436.00,1332.00,18588.00,-1200.00
44912,-288.00,540.00,190.00,1244.00,1252.00,18284.00,-1184.00
44969,1551.00,-721.00,-455.00,712.00,1360.00,18528.00,-1184.00
45026,536.00,-106.00,-506.00,1060.00,1216.00,18468.00,-1232.00
45082,-1542.00,420.00,-875.00,1124.00,1632.00,18860.00,-1200.00
45139,-1566.00,-1517.00,-146.00,1880.00,640.00,18644.00,-1152.00
45196,-63.00,-974.00,-1250.00,1976.00,1552.00,17516.00,-1232.00
45252,1216.00,-2194.00,572.00,1768.00,1020.00,17816.00,-1200.00
45309,776.00,688.00,-251.00,1504.00,1144.00,18324.00,-1184.00
45366,1632.00,-2144.00,287.00,1584.00,1292.00,17860.00,-1168.00
45422,1574.00,419.00,209.00,1872.00,1532.00,18628.00,-1184.00
45479,526.00,-2211.00,1547.00,2540.00,1904.00,18852.00,-1184.00
45536,-610.00,523.00,-174.00,2292.00,1636.00,18208.00,-1216.00
45592,3.00,327.00,275.00,2328.00,1540.00,18724.00,-1184.00
45648,-558.00,514.00,-1069.00,1308.00,1616.00,18564.00,-1216.00
45706,215.00,319.00,-478.00,2312.00,1492.00,18644.00,-1152.00
45762,138.00,266.00,122.00,1660.00,1524.00,18280.00,-1216.00
45818,259.00,-772.00,968.00,2040.00,1332.00,19372.00,-1200.00
45876,203.00,861.00,1277.00,1708.00,1556.00,18232.00,-1200.00
45932,-208.00,152.00,1140.00,2292.00,1136.00,19480.00,-1184.00
45988,-399.00,1873.00,498.00,1476.00,1648.00,18032.00,-1168.00
46046,-388.00,1297.00,-1004.00,1188.00,1256.00,18956.00,-1200.00
46102,-361.00,855.00,-842.00,1080.00,1504.00,18100.00,-1184.00
46158,-1.00,-40.00,-685.00,1276.00,1152.00,18776.00,-1232.00
46215,-200.00,226.00,-523.00,908.00,1296.00,18220.00,-1168.00
46272,100.00,294.00,-107.00,1340.00,1088.00,18820.00,-1200.00
46328,-126.00,-275.00,142.00,932.00,1300.00,18280.00,-1168.00
46385,-121.00,-229.00,74.00,904.00,1208.00,18380.00,-1232.00
46441,-400.00,81.00,-172.00,900.00,1252.00,18456.00,-1168.00
46497,-511.00,685.00,-98.00,1216.00,964.00,18412.00,-1168.00
46555,-51.00,-160.00,215.00,828.00,1164.00,18316.00,-1184.00
46611,-170.00,-154.00,49.00,1264.00,1068.00,18500.00,-1184.00
46667,325.00,-465.00,358.00,1192.00,1040.00,18408.00,-1184.00
46724,20.00,-74.00,202.00,1084.00,992.00,18656.00,-1184.00
46781,-55.00,-200.00,545.00,1484.00,1124.00,18476.00,-1184.00
46837,187.00,-170.00,1257.00,1516.00,1056.00,17960.00,-1152.00
46894,-132.00,-536.00,1122.00,1112.00,1000.00,18668.00,-1184.00
46950,-202.00,614.00,616.00,1280.00,956.00,18416.00,-1168.00
47007,172.00,-477.00,913.00,1492.00,984.00,18300.00,-1168.00
47064,-589.00,278.00,1380.00,1396.00,924.00,18944.00,-1200.00
47120,-373.00,-1415.00,2091.00,1696.00,572.00,18436.00,-1184.00
47176,-185.00,394.00,3167.00,1384.00,1056.00,19048.00,-1200.00
47234,280.00,-561.00,4564.00,1796.00,580.00,18664.00,-1184.00
47290,938.00,803.00,4081.00,1760.00,692.00,18556.00,-1152.00
47346,892.00,456.00,6022.00,1272.00,1068.00,18680.00,-1152.00
47404,396.00,-188.00,5892.00,1304.00,1152.00,18088.00,-1168.00
47460,-673.00,-476.00,7097.00,1948.00,1120.00,18432.00,-1184.00
47516,-1447.00,64.00,7733.00,1744.00,728.00,18500.00,-1168.00
47574,-169.00,601.00,7164.00,1768.00,720.00,18488.00,-1184.00
47630,-421.00,-1577.00,7646.00,1836.00,628.00,18436.00,-1184.00
47686,-1342.00,193.00,8837.00,1680.00,336.00,18268.00,-1200.00
47744,-511.00,-2014.00,8434.00,1984.00,152.00,18436.00,-1184.00
47800,-1103.00,-333.00,8473.00,2316.00,80.00,18328.00,-1168.00
47856,-646.00,-1160.00,6563.00,1832.00,-476.00,18320.00,-1152.00
47913,-216.00,-618.00,2028.00,1948.00,88.00,18392.00,-1168.00
47970,-35.00,1166.00,-3410.00,1556.00,-292.00,18780.00,-1168.00
48026,1072.00,2495.00,-9547.00,1888.00,208.00,18228.00,-1200.00
48082,694.00,2114.00,-10945.00,2188.00,-552.00,18540.00,-1152.00
48140,388.00,2128.00,-10991.00,1676.00,104.00,18156.00,-1184.00
48196,1110.00,2421.00,-12194.00,1300.00,-160.00,18592.00,-1152.00
48253,1559.00,2288.00,-12741.00,1024.00,252.00,18372.00,-1168.00
48310,667.00,1985.00,-13109.00,732.00,376.00,18144.00,-1168.00
48366,282.00,678.00,-12686.00,1328.00,252.00,18664.00,-1184.00
48423,1790.00,958.00,-12002.00,948.00,728.00,18468.00,-1136.00
48480,816.00,-558.00,-10233.00,1084.00,276.00,19132.00,-1152.00
48536,663.00,428.00,-9219.00,704.00,948.00,17868.00,-1136.00
48593,1191.00,1692.00,-8068.00,356.00,836.00,18776.00,-1184.00
48650,1755.00,1099.00,-8231.00,144.00,1052.00,18048.00,-1152.00
48706,1718.00,-128.00,-8608.00,116.00,1092.00,18836.00,-1152.00
48763,1440.00,948.00,-10589.00,92.00,1224.00,18560.00,-1168.00
48820,1227.00,338.00,-11277.00,420.00,1392.00,18668.00,-1152.00
48876,378.00,1706.00,-12409.00,-944.00,1208.00,18208.00,-1168.00
48933,292.00,1156.00,-13620.00,-1240.00,1360.00,18240.00,-1136.00
48990,882.00,270.00,-13585.00,-1292.00,1080.00,18076.00,-1136.00
49047,-117.00,-279.00,-12886.00,-1144.00,892.00,18580.00,-1120.00
49103,-953.00,1454.00,-10861.00,-1052.00,652.00,18544.00,-1168.00
49160,-530.00,481.00,-7126.00,-820.00,544.00,18492.00,-1136.00
49217,27.00,-1491.00,1573.00,-1652.00,268.00,18480.00,-1152.00
49273,-31.00,-1636.00,6523.00,-756.00,268.00,18308.00,-1168.00
49330,48.00,-1865.00,13714.00,-716.00,748.00,18324.00,-1136.00
49386,2196.00,-944.00,19901.00,-128.00,1224.00,18836.00,-1152.00
49443,708.00,-1066.00,21188.00,-600.00,1212.00,18468.00,-1136.00
49500,-544.00,-1659.00,21010.00,-420.00,1316.00,18308.00,-1168.00
49557,-338.00,-1397.00,19471.00,-60.00,1436.00,18056.00,-1152.00
49613,-96.00,-1518.00,16122.00,1168.00,1008.00,18500.00,-1152.00
49670,473.00,-2586.00,15330.00,464.00,1968.00,17772.00,-1152.00
49727,-181.00,335.00,14523.00,1084.00,1164.00,18732.00,-1168.00
49783,-205.00,-1871.00,14324.00,1752.00,1488.00,18296.00,-1136.00
49841,-499.00,365.00,13571.00,1896.00,1012.00,18952.00,-1184.00
49897,-32.00,-1298.00,12412.00,1896.00,788.00,18396.00,-1120.00
49953,568.00,539.00,12519.00,2300.00,952.00,18224.00,-1184.00
50011,-414.00,-3.00,12256.00,2092.00,1120.00,18432.00,-1168.00
50067,-2723.00,-1866.00,15015.00,2580.00,564.00,18480.00,-1152.00
50123,-2952.00,-206.00,13417.00,2680.00,-44.00,18664.00,-1184.00
50181,-3650.00,-768.00,9824.00,2156.00,-828.00,18072.00,-1120.00
50237,-1343.00,63.00,3213.00,2192.00,-596.00,18180.00,-1136.00
50293,714.00,354.00,-4435.00,2188.00,-1412.00,18704.00,-1120.00
50351,1770.00,1352.00,-9386.00,2540.00,-820.00,18276.00,-1136.00
50407,2413.00,2254.00,-12330.00,1896.00,-664.00,18696.00,-1152.00
50463,951.00,1391.00,-12298.00,1916.00,8.00,17948.00,-1120.00
50521,1973.00,1549.00,-13570.00,1732.00,0.00,18568.00,-1120.00
50577,340.00,828.00,-12065.00,1632.00,552.00,18328.00,-1168.00
50633,664.00,1200.00,-12468.00,1436.00,396.00,18876.00,-1152.00
50691,1871.00,1467.00,-13229.00,1480.00,688.00,18332.00,-1168.00
50747,919.00,879.00,-13619.00,1160.00,644.00,18900.00,-1136.00
50804,877.00,572.00,-14019.00,1400.00,892.00,18584.00,-1120.00
50861,15.00,2068.00,-13419.00,680.00,1188.00,18464.00,-1136.00
50917,1018.00,2701.00,-14072.00,844.00,852.00,18632.00,-1136.00
50974,1457.00,2945.00,-14249.00,-168.00,1432.00,18368.00,-1168.00
51031,1508.00,778.00,-13899.00,-408.00,992.00,18604.00,-1152.00
51087,702.00,1614.00,-13778.00,-696.00,1340.00,18312.00,-1152.00
51144,-423.00,1109.00,-12081.00,-540.00,1028.00,18512.00,-1136.00
51201,254.00,2218.00,-14728.00,-1456.00,876.00,17908.00,-1152.00
51258,1259.00,975.00,-16621.00,-1884.00,956.00,18120.00,-1152.00
51314,970.00,415.00,-15881.00,-1116.00,732.00,17972.00,-1136.00
51371,1493.00,-523.00,-12698.00,-1720.00,748.00,18168.00,-1120.00
51428,64.00,742.00,-9240.00,-960.00,444.00,18552.00,-1152.00
51484,-59.00,-240.00,-3688.00,-1552.00,256.00,18672.00,-1136.00
51540,200.00,-762.00,1324.00,-1048.00,196.00,18956.00,-1136.00
51597,-394.00,-1286.00,6748.00,-1516.00,52.00,18308.00,-1120.00
51654,226.00,-2770.00,12620.00,-1312.00,84.00,18360.00,-1136.00
51710,2610.00,-3053.00,13329.00,-1056.00,612.00,17844.00,-1152.00
51767,1837.00,-1022.00,17083.00,-444.00,1388.00,18172.00,-1152.00
51824,1401.00,-1855.00,19099.00,512.00,1584.00,18432.00,-1152.00
51880,43.00,-369.00,20274.00,720.00,1840.00,18348.00,-1136.00
51938,-186.00,-711.00,18766.00,1028.00,1608.00,18548.00,-1152.00
51994,580.00,182.00,16802.00,628.00,1468.00,18412.00,-1104.00
52050,-407.00,-355.00,15624.00,896.00,1528.00,18324.00,-1184.00
52108,-314.00,-115.00,13551.00,1124.00,1512.00,18228.00,-1136.00
52164,-361.00,-310.00,12833.00,1124.00,1468.00,18356.00,-1152.00
52220,892.00,240.00,11935.00,1452.00,1484.00,18588.00,-1120.00
52278,330.00,-1035.00,12130.00,1876.00,1280.00,18348.00,-1104.00
52334,-9.00,-82.00,11403.00,1836.00,1424.00,18648.00,-1136.00
52390,677.00,-495.00,9375.00,2072.00,904.00,18732.00,-1168.00
52448,1133.00,400.00,7968.00,2248.00,1124.00,18376.00,-1168.00
52504,-1594.00,-1466.00,9315.00,2236.00,872.00,18592.00,-1136.00
52560,-1886.00,-601.00,9651.00,2576.00,744.00,17972.00,-1152.00
52618,-1484.00,-752.00,8881.00,2968.00,-316.00,18584.00,-1136.00
52674,-468.00,-76.00,6697.00,2784.00,616.00,18108.00,-1152.00
52730,-1470.00,-2.00,6603.00,2308.00,-800.00,18800.00,-1120.00
52788,-693.00,287.00,3179.00,2632.00,296.00,18288.00,-1120.00
52844,-831.00,-1001.00,-1073.00,2316.00,-764.00,18240.00,-1136.00
52900,787.00,-110.00,-4272.00,3196.00,-184.00,18144.00,-1152.00
52958,550.00,255.00,-7404.00,2664.00,-464.00,18332.00,-1120.00
53014,441.00,1575.00,-9747.00,2696.00,32.00,18276.00,-1136.00
53070,-174.00,1121.00,-10442.00,2772.00,-4.00,18324.00,-1136.00
53127,-301.00,825.00,-11539.00,2408.00,300.00,18268.00,-1152.00
53184,779.00,1576.00,-11652.00,2300.00,116.00,18080.00,-1136.00
53240,742.00,1001.00,-12089.00,2044.00,336.00,18796.00,-1152.00
53298,427.00,2134.00,-12121.00,2016.00,596.00,17940.00,-1152.00
53354,455.00,-60.00,-10963.00,2004.00,532.00,18760.00,-1120.00
53410,326.00,2233.00,-10251.00,1812.00,1044.00,18240.00,-1136.00
53468,553.00,1749.00,-10398.00,1272.00,752.00,18336.00,-1136.00
53524,1058.00,1837.00,-10404.00,1156.00,1048.00,18464.00,-1120.00
53580,1279.00,1724.00,-11724.00,652.00,1164.00,18548.00,-1152.00
53638,1851.00,1633.00,-13063.00,852.00,1380.00,18328.00,-1152.00
53694,724.00,1845.00,-13105.00,-168.00,1516.00,18152.00,-1168.00
53751,1177.00,1597.00,-14921.00,-412.00,1760.00,18316.00,-1136.00
53808,1013.00,1944.00,-13044.00,-124.00,1388.00,18128.00,-1152.00
53865,970.00,1429.00,-12319.00,-1104.00,1656.00,18308.00,-1120.00
53921,1714.00,746.00,-11552.00,-1156.00,1556.00,17672.00,-1104.00
53978,1135.00,685.00,-12950.00,-1368.00,1456.00,18584.00,-1104.00
54035,368.00,992.00,-13061.00,-1196.00,1468.00,18212.00,-1072.00
54091,77.00,873.00,-12828.00,-1876.00,948.00,18024.00,-1152.00
54149,-804.00,1802.00,-11986.00,-1248.00,1196.00,18788.00,-1120.00
54205,442.00,28.00,-7876.00,-2696.00,420.00,17692.00,-1120.00
54261,-1521.00,574.00,-7327.00,-1552.00,464.00,18440.00,-1136.00
54319,-669.00,482.00,-4722.00,-2032.00,316.00,18460.00,-1120.00
54375,-148.00,-956.00,-86.00,-1984.00,104.00,18512.00,-1120.00
54431,-606.00,-1014.00,2367.00,-2064.00,28.00,18148.00,-1104.00
54488,267.00,-2010.00,6050.00,-1792.00,-140.00,18344.00,-1136.00
54545,203.00,-1619.00,9350.00,-1700.00,-100.00,17976.00,-1120.00
54601,1222.00,-1457.00,12869.00,-1044.00,464.00,18124.00,-1120.00
54658,1205.00,-1249.00,14897.00,-1252.00,976.00,18232.00,-1120.00
54715,125.00,-1149.00,15513.00,-448.00,1388.00,18256.00,-1088.00
54771,237.00,-2122.00,17192.00,-624.00,1656.00,18020.00,-1088.00
54829,-317.00,-1272.00,16508.00,-272.00,1356.00,18844.00,-1136.00
54885,-1023.00,-2361.00,15919.00,264.00,1748.00,17948.00,-1104.00
54942,-233.00,-2197.00,14832.00,416.00,1108.00,18420.00,-1136.00
54999,303.00,-782.00,11948.00,400.00,1764.00,18568.00,-1104.00
55055,-335.00,-1414.00,11809.00,1388.00,1212.00,18316.00,-1120.00
55112,-151.00,-1061.00,11881.00,1456.00,1376.00,18060.00,-1120.00
55169,834.00,-911.00,11202.00,1600.00,1216.00,18664.00,-1120.00
55225,1794.00,126.00,9357.00,1356.00,1408.00,18824.00,-1120.00
55282,1338.00,-927.00,9295.00,1656.00,1628.00,18624.00,-1136.00
55339,578.00,11.00,8010.00,1888.00,1564.00,18392.00,-1136.00
55396,-106.00,-1661.00,6876.00,1900.00,1620.00,18400.00,-1120.00
55452,312.00,353.00,6900.00,2616.00,1352.00,18096.00,-1072.00
55508,561.00,741.00,6212.00,2604.00,1464.00,18516.00,-1136.00
55566,-38.00,304.00,5370.00,2624.00,1040.00,18352.00,-1120.00
55622,-1452.00,33.00,5865.00,2544.00,956.00,18124.00,-1120.00
55678,-501.00,-505.00,6427.00,2628.00,1072.00,18316.00,-1104.00
55735,-1097.00,-295.00,8283.00,2824.00,860.00,17928.00,-1104.00
55792,-29.00,279.00,8624.00,2624.00,588.00,18408.00,-1120.00
55848,-424.00,320.00,6939.00,2128.00,940.00,18432.00,-1120.00
55905,-528.00,160.00,1483.00,2236.00,396.00,18384.00,-1104.00
55962,601.00,475.00,-2723.00,2448.00,400.00,18704.00,-1120.00
56018,671.00,877.00,-7804.00,2324.00,780.00,18540.00,-1136.00
56075,-129.00,562.00,-11882.00,2076.00,472.00,18548.00,-1120.00
56132,-11.00,862.00,-13055.00,2352.00,664.00,18404.00,-1072.00
56188,-81.00,595.00,-13663.00,2156.00,652.00,18512.00,-1120.00
56245,-1143.00,-4257.00,-14420.00,2936.00,1556.00,19112.00,-1104.00
56302,469.00,2555.00,-13951.00,2512.00,1152.00,17512.00,-1120.00
56358,1435.00,-854.00,-14771.00,1824.00,992.00,18176.00,-1120.00
56415,1412.00,2882.00,-13934.00,1768.00,1756.00,18424.00,-1120.00
56472,157.00,1148.00,-12718.00,1952.00,1440.00,18144.00,-1088.00
56528,-146.00,1357.00,-11411.00,1436.00,2144.00,18328.00,-1120.00
56586,27.00,1874.00,-11379.00,792.00,1420.00,18636.00,-1104.00
56642,264.00,1585.00,-12658.00,152.00,1748.00,19120.00,-1120.00
56698,-191.00,1700.00,-13013.00,-124.00,1328.00,17992.00,-1104.00
56756,440.00,1479.00,-13496.00,408.00,1620.00,18752.00,-1136.00
56812,1362.00,1075.00,-13268.00,-172.00,1588.00,18316.00,-1072.00
56869,1501.00,1847.00,-15472.00,112.00,1604.00,18632.00,-1104.00
56926,1969.00,757.00,-14572.00,-1140.00,1488.00,18004.00,-1104.00
56983,813.00,2421.00,-13009.00,-1528.00,1332.00,18492.00,-1072.00
57039,-299.00,1343.00,-16539.00,-1948.00,1504.00,18048.00,-1104.00
57096,-384.00,2321.00,-12999.00,-1704.00,840.00,18124.00,-1120.00
57153,908.00,270.00,-12240.00,-2916.00,684.00,17908.00,-1120.00
57209,424.00,1163.00,-8339.00,-2924.00,140.00,17456.00,-1072.00
57266,226.00,-589.00,-7802.00,-2408.00,656.00,18108.00,-1088.00
57323,-1948.00,-144.00,-9326.00,-2108.00,24.00,17968.00,-1136.00
57379,-1619.00,525.00,-5066.00,-2040.00,-240.00,18092.00,-1088.00
57436,461.00,-864.00,1371.00,-2420.00,-440.00,18688.00,-1088.00
57493,414.00,-1603.00,4195.00,-2016.00,-888.00,18232.00,-1072.00
57549,816.00,-3111.00,8827.00,-2180.00,-876.00,17900.00,-1120.00
57606,135.00,-2095.00,10679.00,-1404.00,-20.00,18548.00,-1088.00
57663,1713.00,-2485.00,14616.00,-1344.00,260.00,18112.00,-1104.00
57719,1549.00,-1570.00,17596.00,-824.00,1284.00,18400.00,-1104.00
57777,719.00,-2101.00,19424.00,-364.00,1108.00,17960.00,-1120.00
57833,806.00,-1997.00,18358.00,-480.00,1476.00,18544.00,-1088.00
57889,253.00,-2076.00,18356.00,192.00,1484.00,18192.00,-1088.00
57947,986.00,-2551.00,15766.00,-464.00,1796.00,18584.00,-1104.00
58003,-38.00,-2323.00,15387.00,948.00,1648.00,18524.00,-1136.00
58060,339.00,-18.00,13394.00,1428.00,1916.00,18664.00,-1088.00
58117,-611.00,-14.00,13011.00,1776.00,1572.00,18348.00,-1088.00
58173,159.00,332.00,13074.00,1756.00,1824.00,18196.00,-1104.00
58230,-1091.00,554.00,13310.00,1452.00,1408.00,18308.00,-1104.00
58287,485.00,160.00,11787.00,2032.00,1260.00,18156.00,-1104.00
58343,1119.00,-925.00,11810.00,1764.00,1480.00,18372.00,-1088.00
58400,-444.00,-748.00,11190.00,2020.00,1188.00,18464.00,-1088.00
58457,-238.00,-657.00,10790.00,2572.00,900.00,18196.00,-1088.00
58514,670.00,-656.00,11015.00,2300.00,1064.00,18668.00,-1104.00
58570,-665.00,230.00,7960.00,2720.00,840.00,18696.00,-1104.00
58627,-76.00,-144.00,6626.00,2548.00,712.00,18216.00,-1104.00
58683,-52.00,654.00,3611.00,2488.00,612.00,18012.00,-1088.00
58740,293.00,40.00,691.00,2636.00,672.00,18632.00,-1136.00
58797,228.00,570.00,-2188.00,2484.00,428.00,18756.00,-1072.00
58853,-389.00,-50.00,-5150.00,2308.00,816.00,18292.00,-1104.00
58909,119.00,-502.00,-7944.00,2448.00,604.00,18320.00,-1088.00
58967,-682.00,-1047.00,-7871.00,3336.00,588.00,18104.00,-1072.00
59023,-340.00,1683.00,-7661.00,2460.00,1460.00,18504.00,-1088.00
59079,-393.00,1410.00,-9507.00,1912.00,716.00,18180.00,-1088.00
59137,46.00,354.00,-10914.00,1660.00,1188.00,18340.00,-1072.00
59193,-859.00,279.00,-10529.00,2044.00,868.00,18432.00,-1072.00
59249,-529.00,10.00,-9339.00,2208.00,732.00,18376.00,-1088.00
59307,10.00,640.00,-9280.00,1392.00,1196.00,18548.00,-1088.00
59363,12.00,1237.00,-10231.00,1628.00,976.00,18656.00,-1104.00
59419,1095.00,2609.00,-11267.00,1400.00,1036.00,18396.00,-1040.00
59476,322.00,207.00,-10544.00,1108.00,1488.00,18408.00,-1072.00
59533,770.00,2094.00,-11187.00,892.00,1268.00,18492.00,-1104.00
59590,715.00,795.00,-11274.00,244.00,1504.00,18228.00,-1136.00
59646,744.00,1979.00,-12018.00,416.00,1528.00,18260.00,-1088.00
59703,599.00,1548.00,-12664.00,-88.00,1372.00,18172.00,-1072.00
59760,653.00,2094.00,-13001.00,-628.00,1408.00,18136.00,-1088.00
59816,782.00,874.00,-13526.00,-924.00,1384.00,18196.00,-1104.00
59873,360.00,1401.00,-12706.00,-600.00,1208.00,18372.00,-1088.00
59930,200.00,814.00,-12373.00,-1248.00,1208.00,18040.00,-1056.00
59986,-324.00,518.00,-11798.00,-1468.00,860.00,18040.00,-1088.00
60043,-128.00,-445.00,-11652.00,-1076.00,980.00,18636.00,-1072.00
60100,-743.00,589.00,-9994.00,-2056.00,696.00,17632.00,-1056.00
60156,-6.00,-110.00,-4173.00,-740.00,444.00,18612.00,-1072.00
60213,-274.00,-25.00,-2158.00,-1612.00,-80.00,18392.00,-1056.00
60269,-330.00,-209.00,1329.00,-1156.00,84.00,18316.00,-1088.00
60326,287.00,-1845.00,5548.00,-1256.00,132.00,18264.00,-1104.00
60383,760.00,-1112.00,9287.00,-772.00,152.00,18444.00,-1088.00
60439,62.00,-892.00,13119.00,-1276.00,716.00,18100.00,-1088.00
60496,278.00,-1687.00,15033.00,140.00,1088.00,18664.00,-1072.00
60553,758.00,-1258.00,15655.00,-848.00,884.00,18284.00,-1056.00
60609,907.00,-1688.00,15529.00,172.00,1472.00,18536.00,-1088.00
60666,-147.00,-443.00,14317.00,-240.00,1248.00,18276.00,-1072.00
60723,-691.00,-969.00,13766.00,380.00,1492.00,18296.00,-1088.00
60779,-880.00,-113.00,12041.00,452.00,768.00,18784.00,-1072.00
60836,-565.00,-278.00,10652.00,500.00,1036.00,18048.00,-1088.00
60893,266.00,-250.00,8655.00,1152.00,384.00,18824.00,-1072.00
60949,-465.00,-2104.00,8685.00,1240.00,1036.00,18364.00,-1088.00
61006,450.00,-782.00,8787.00,716.00,1336.00,18200.00,-1040.00
61063,444.00,-861.00,9954.00,1744.00,776.00,18324.00,-1088.00
61119,544.00,-919.00,10018.00,1344.00,1264.00,18188.00,-1056.00
61176,759.00,-387.00,9885.00,1440.00,1308.00,18648.00,-1056.00
61233,380.00,-405.00,9113.00,1844.00,848.00,18268.00,-1072.00
61289,-66.00,-883.00,9287.00,1948.00,784.00,18624.00,-1040.00
61345,-445.00,-576.00,9314.00,2104.00,1344.00,17980.00,-1104.00
61403,-750.00,-1467.00,9482.00,2316.00,708.00,18384.00,-1088.00
61459,-622.00,-567.00,9163.00,2064.00,932.00,18504.00,-1040.00
61515,-807.00,-1038.00,7066.00,2192.00,452.00,18368.00,-1088.00
61573,-860.00,-471.00,4802.00,2544.00,268.00,18364.00,-1072.00
61629,-763.00,-171.00,3117.00,2836.00,0.00,18528.00,-1088.00
61685,-168.00,436.00,-765.00,2520.00,-44.00,18276.00,-1072.00
61742,597.00,2072.00,-4332.00,2580.00,276.00,18420.00,-1072.00
61799,457.00,1677.00,-6586.00,2228.00,72.00,18460.00,-1056.00
61855,30.00,2148.00,-7340.00,2112.00,440.00,18124.00,-1072.00
61912,-276.00,1105.00,-7361.00,2072.00,-80.00,18560.00,-1104.00
61969,314.00,1929.00,-7527.00,2004.00,476.00,18244.00,-1056.00
62025,-72.00,1291.00,-6902.00,1484.00,-32.00,18164.00,-1072.00
62082,1019.00,1327.00,-9042.00,332.00,1108.00,19440.00,-1072.00
62139,-624.00,446.00,-10627.00,1236.00,676.00,18084.00,-1056.00
62195,1059.00,2699.00,-11110.00,1072.00,184.00,18500.00,-1072.00
62252,1297.00,1299.00,-10643.00,868.00,936.00,18024.00,-1040.00
62309,972.00,1303.00,-8971.00,1316.00,400.00,18728.00,-1072.00
62365,1169.00,650.00,-9090.00,60.00,1172.00,18616.00,-1056.00
62422,270.00,526.00,-9723.00,12.00,724.00,18528.00,-1056.00
62479,250.00,-52.00,-12396.00,-976.00,976.00,18916.00,-1056.00
62535,709.00,1707.00,-15408.00,824.00,696.00,18152.00,-1056.00
62592,1319.00,1838.00,-14654.00,-216.00,1116.00,18268.00,-1072.00
62649,1680.00,1860.00,-14152.00,-620.00,1088.00,17980.00,-1040.00
62705,513.00,279.00,-12119.00,-884.00,884.00,18328.00,-1072.00
62761,911.00,1296.00,-12134.00,-212.00,984.00,18128.00,-1056.00
62819,1574.00,1058.00,-10308.00,-1160.00,848.00,18312.00,-1072.00
62875,-275.00,572.00,-11764.00,-1156.00,508.00,18052.00,-1040.00
62931,-1008.00,803.00,-16288.00,-1192.00,476.00,18216.00,-1056.00
62989,-1860.00,1467.00,-14625.00,-1644.00,204.00,17760.00,-1056.00
63045,-480.00,-344.00,-11274.00,-1288.00,-408.00,18676.00,-1056.00
63102,224.00,88.00,-4741.00,-1432.00,-784.00,18232.00,-1008.00
63159,116.00,-1006.00,1402.00,-900.00,-732.00,19112.00,-1024.00
63215,565.00,-1846.00,4336.00,-1044.00,-736.00,18332.00,-1040.00
63271,1179.00,-2166.00,11174.00,-464.00,-272.00,18712.00,-1056.00
63329,1738.00,-1315.00,16460.00,-768.00,104.00,18200.00,-1056.00
63385,626.00,-1371.00,18584.00,-548.00,516.00,18560.00,-1024.00
63442,71.00,-566.00,16733.00,-608.00,944.00,17640.00,-1040.00
63499,1401.00,-542.00,14985.00,12.00,1196.00,18152.00,-1056.00
63555,1270.00,-1649.00,15222.00,64.00,1284.00,18012.00,-1040.00
63612,2043.00,-366.00,15681.00,396.00,1892.00,18208.00,-1008.00
63669,99.00,768.00,14761.00,164.00,1572.00,18900.00,-1056.00
63725,-1823.00,307.00,15402.00,832.00,1620.00,17960.00,-1040.00
63782,-1036.00,966.00,13909.00,-240.00,1244.00,18892.00,-1024.00
63839,-1217.00,469.00,12251.00,264.00,1384.00,18116.00,-1056.00
63895,-215.00,467.00,10067.00,928.00,788.00,18352.00,-1056.00
63952,-196.00,-236.00,10100.00,388.00,1548.00,18396.00,-1040.00
64009,-323.00,-975.00,8892.00,604.00,776.00,18308.00,-1056.00
64065,383.00,-543.00,7882.00,896.00,1056.00,18712.00,-1040.00
64122,391.00,-837.00,7055.00,1412.00,740.00,18556.00,-1024.00
64179,271.00,-497.00,7496.00,1344.00,1064.00,18384.00,-1008.00
64235,-1532.00,-1013.00,8785.00,1436.00,948.00,18280.00,-1056.00
64292,-1286.00,-1248.00,9491.00,1872.00,956.00,18264.00,-1024.00
64349,-1238.00,-1260.00,7199.00,1956.00,124.00,18260.00,-1024.00
64405,-1905.00,-2546.00,8235.00,2276.00,620.00,18300.00,-1056.00
64462,-1307.00,-1471.00,7800.00,2204.00,-204.00,18428.00,-1040.00
64519,-91.00,-193.00,3605.00,1992.00,416.00,18520.00,-1040.00
64575,-190.00,1368.00,-2958.00,2344.00,-228.00,18488.00,-1024.00
64632,782.00,3261.00,-8100.00,2144.00,-760.00,18248.00,-1040.00
64689,1420.00,3212.00,-8392.00,1920.00,0.00,18500.00,-1040.00
64745,1126.00,2616.00,-9200.00,1024.00,140.00,18600.00,-1040.00
64802,1497.00,1757.00,-11264.00,620.00,640.00,18688.00,-1040.00
64859,116.00,1354.00,-11504.00,796.00,480.00,18564.00,-1040.00
64915,-1440.00,383.00,-12877.00,596.00,320.00,18904.00,-1056.00
64972,-681.00,1629.00,-14637.00,1136.00,524.00,18252.00,-1024.00
65029,1095.00,2158.00,-16837.00,476.00,180.00,18696.00,-1040.00
65085,410.00,1201.00,-16825.00,1200.00,-236.00,18532.00,-1040.00
65142,765.00,1424.00,-16710.00,-80.00,340.00,18508.00,-1040.00
65199,525.00,703.00,-14460.00,740.00,236.00,17920.00,-1024.00
65255,1072.00,732.00,-13100.00,-932.00,0.00,18652.00,-1008.00
65312,1063.00,1048.00,-15754.00,-248.00,172.00,17912.00,-1024.00
65369,1048.00,269.00,-17285.00,-1204.00,504.00,18968.00,-1008.00
65425,-92.00,1156.00,-16607.00,64.00,88.00,17748.00,-976.00
65482,-809.00,2605.00,-11840.00,284.00,-60.00,18380.00,-1008.00
65539,441.00,1464.00,-11506.00,-1460.00,-348.00,18780.00,-1024.00
65595,-474.00,1877.00,-13475.00,-376.00,-544.00,18556.00,-1024.00
65652,115.00,226.00,-11619.00,-368.00,184.00,18408.00,-1024.00
65709,69.00,247.00,-8790.00,-1176.00,-348.00,18300.00,-1040.00
65765,-903.00,1032.00,-9156.00,-28.00,-432.00,18772.00,-1040.00
65821,-636.00,2251.00,-5285.00,-1656.00,-1288.00,17836.00,-1024.00
65879,-174.00,911.00,233.00,-628.00,-1408.00,19104.00,-1024.00
65935,1468.00,-2221.00,1311.00,-1368.00,-1220.00,18132.00,-1040.00
65991,-1201.00,-4676.00,5177.00,-852.00,-1232.00,18268.00,-1008.00
66049,320.00,-7653.00,8546.00,1132.00,-1084.00,18548.00,-1008.00
66105,1590.00,-950.00,12370.00,376.00,-860.00,18376.00,-1040.00
66162,3488.00,-6023.00,15378.00,-880.00,108.00,17464.00,-1008.00
66219,4485.00,-931.00,14628.00,1780.00,-480.00,18884.00,-1024.00
66275,3195.00,-681.00,16232.00,1248.00,376.00,18528.00,-1056.00
66332,1590.00,2422.00,14593.00,1500.00,516.00,18848.00,-1024.00
66388,1458.00,3057.00,14597.00,1324.00,812.00,18880.00,-1056.00
66446,9.00,5714.00,16271.00,7604.00,208.00,18944.00,-1024.00
66502,658.00,497.00,13704.00,-100.00,856.00,18116.00,-1040.00
66558,613.00,858.00,13006.00,176.00,1676.00,18228.00,-992.00
66615,-686.00,-1045.00,13602.00,296.00,852.00,18232.00,-1040.00
66672,-460.00,-2455.00,13426.00,392.00,1184.00,18004.00,-1040.00
66728,1007.00,-2314.00,13329.00,64.00,1032.00,18056.00,-1056.00
66785,1285.00,-261.00,12779.00,460.00,1404.00,18908.00,-1024.00
66842,-713.00,-1805.00,13443.00,1096.00,1404.00,18744.00,-1024.00
66898,-3113.00,-894.00,12305.00,1380.00,1148.00,18864.00,-1024.00
66956,-2323.00,549.00,10957.00,1092.00,748.00,17424.00,-1056.00
67012,-310.00,235.00,8162.00,540.00,848.00,19068.00,-1024.00
67068,-1686.00,570.00,3275.00,1160.00,-36.00,18908.00,-1024.00
67126,85.00,282.00,-1618.00,1144.00,212.00,17936.00,-1024.00
67182,1899.00,1224.00,-5796.00,568.00,180.00,19120.00,-1024.00
67238,875.00,-540.00,-8803.00,676.00,92.00,18480.00,-1024.00
67295,881.00,-580.00,-11028.00,1064.00,904.00,18736.00,-1056.00
67352,-128.00,578.00,-11930.00,904.00,580.00,18688.00,-1040.00
67408,542.00,1427.00,-13346.00,684.00,944.00,17880.00,-1040.00
67465,1092.00,2200.00,-13199.00,716.00,972.00,18448.00,-1024.00
67522,1058.00,2109.00,-13761.00,588.00,564.00,18452.00,-1024.00
67578,162.00,713.00,-12522.00,512.00,728.00,18404.00,-1008.00
67635,796.00,705.00,-11834.00,-72.00,880.00,18412.00,-1024.00
67692,-308.00,880.00,-10849.00,4.00,676.00,18444.00,-1024.00
67748,129.00,1420.00,-11330.00,-324.00,760.00,18484.00,-1024.00
67805,232.00,2177.00,-13796.00,-756.00,364.00,18576.00,-1040.00
67862,276.00,644.00,-17493.00,-984.00,756.00,17856.00,-1008.00
67918,907.00,563.00,-18013.00,-704.00,268.00,17744.00,-1040.00
67975,10.00,185.00,-18839.00,-744.00,352.00,18928.00,-1056.00
68031,-322.00,872.00,-18964.00,-604.00,-24.00,18280.00,-1008.00
68088,-1322.00,1758.00,-16138.00,-168.00,-76.00,18580.00,-1008.00
68145,-2395.00,3039.00,-14153.00,-1088.00,-536.00,18188.00,-1056.00
68201,-1763.00,1360.00,-10374.00,-1172.00,-944.00,18332.00,-1024.00
68258,-203.00,855.00,-6577.00,-1488.00,-1848.00,17708.00,-960.00
68315,870.00,-951.00,-2624.00,-1156.00,-1788.00,18416.00,-1008.00
68372,591.00,-1369.00,885.00,-1388.00,-1856.00,18200.00,-1040.00
68428,1048.00,-2097.00,2060.00,-616.00,-1592.00,18564.00,-1024.00
68485,1576.00,-1760.00,5078.00,-588.00,-1368.00,18488.00,-1024.00
68542,1226.00,-945.00,6499.00,-604.00,-1208.00,18764.00,-1008.00
68598,935.00,-12.00,8520.00,-796.00,-896.00,18096.00,-1024.00
68655,1734.00,-304.00,10177.00,-768.00,-776.00,18532.00,-1008.00
68712,1131.00,-459.00,11088.00,-544.00,-52.00,18200.00,-1024.00
68768,1318.00,-244.00,12962.00,-828.00,96.00,18752.00,-1040.00
68825,672.00,-931.00,13821.00,-92.00,292.00,18408.00,-1008.00
68881,1084.00,-1419.00,15337.00,-1172.00,1208.00,18220.00,-1024.00
68938,-31.00,367.00,15882.00,1456.00,656.00,18464.00,-992.00
68995,-663.00,-380.00,17506.00,-780.00,1100.00,18064.00,-992.00
69051,10.00,-1048.00,17013.00,236.00,1104.00,17948.00,-1024.00
69108,826.00,-2080.00,16239.00,-52.00,908.00,18460.00,-1008.00
69165,640.00,750.00,14028.00,48.00,1056.00,18060.00,-1024.00
69221,-529.00,648.00,12259.00,-60.00,1244.00,18508.00,-1024.00
69278,-622.00,-330.00,10088.00,372.00,1192.00,18412.00,-1008.00
69335,-1178.00,-1539.00,8535.00,340.00,908.00,18444.00,-1024.00
69391,-722.00,-243.00,7343.00,1064.00,696.00,18472.00,-1008.00
69448,-631.00,-1563.00,8086.00,1432.00,316.00,18524.00,-992.00
69505,-422.00,-702.00,8443.00,1444.00,628.00,18444.00,-1040.00
69561,-936.00,-1135.00,8835.00,1712.00,272.00,18420.00,-1024.00
69617,-540.00,-1060.00,8919.00,1716.00,412.00,18644.00,-1008.00
69675,-1628.00,-1632.00,8984.00,1936.00,8.00,18720.00,-1024.00
69731,-2549.00,-2187.00,8843.00,1772.00,-264.00,18076.00,-1008.00
69787,-2274.00,-714.00,8247.00,1884.00,-180.00,18320.00,-992.00
69844,-1009.00,417.00,5595.00,1988.00,-960.00,18284.00,-1008.00
69901,123.00,261.00,1460.00,1952.00,-1180.00,18540.00,-992.00
69957,218.00,480.00,-2288.00,1944.00,-1152.00,18812.00,-1008.00
70014,196.00,812.00,-4357.00,2324.00,-1008.00,18108.00,-1024.00
70071,1532.00,1974.00,-6023.00,1824.00,-1220.00,18444.00,-1024.00
70127,2168.00,2434.00,-7546.00,1416.00,-192.00,18752.00,-1024.00
70184,1271.00,1643.00,-8433.00,1172.00,-312.00,18292.00,-1008.00
70241,882.00,1102.00,-9169.00,1304.00,8.00,18572.00,-1072.00
70297,1245.00,1109.00,-10233.00,1116.00,-88.00,18556.00,-1008.00
70354,917.00,1175.00,-10721.00,1120.00,180.00,18212.00,-1040.00
70411,927.00,626.00,-10745.00,892.00,432.00,18336.00,-992.00
70467,415.00,1194.00,-10637.00,684.00,740.00,18008.00,-1040.00
70524,954.00,852.00,-11536.00,660.00,296.00,18396.00,-992.00
70581,1221.00,1326.00,-10917.00,748.00,584.00,18020.00,-1024.00
70637,858.00,-478.00,-10875.00,996.00,648.00,18436.00,-1024.00
70694,1375.00,2571.00,-9547.00,376.00,892.00,18756.00,-1040.00
70751,995.00,437.00,-10541.00,-584.00,956.00,18396.00,-992.00
70807,830.00,895.00,-10302.00,-144.00,912.00,18420.00,-1024.00
70864,146.00,790.00,-10566.00,-176.00,868.00,18632.00,-1024.00
70921,754.00,815.00,-10978.00,204.00,1008.00,18380.00,-1008.00
70977,1366.00,525.00,-11022.00,-316.00,868.00,18144.00,-1024.00
71034,1255.00,-369.00,-11162.00,52.00,1024.00,18748.00,-1040.00
71091,877.00,-208.00,-10742.00,-728.00,1112.00,18380.00,-1024.00
71147,718.00,-88.00,-11495.00,-236.00,1036.00,18460.00,-1024.00
71204,598.00,541.00,-11975.00,-772.00,752.00,18008.00,-992.00
71261,301.00,312.00,-13057.00,-592.00,840.00,18560.00,-992.00
71317,505.00,548.00,-13236.00,-928.00,696.00,18084.00,-1008.00
71373,219.00,-41.00,-14320.00,-372.00,1052.00,18852.00,-1024.00
71431,-221.00,1383.00,-8993.00,-1080.00,676.00,18588.00,-1008.00
71487,-1637.00,851.00,-6169.00,-956.00,324.00,18696.00,-992.00
71543,-832.00,84.00,-1485.00,-908.00,-180.00,18432.00,-1024.00
71600,582.00,-1133.00,2248.00,-1056.00,-140.00,18472.00,-1024.00
71657,1452.00,-1640.00,5977.00,-788.00,60.00,18360.00,-1008.00
71713,1522.00,-1164.00,9677.00,-536.00,332.00,18584.00,-1024.00
71770,1744.00,-781.00,12576.00,-456.00,624.00,18500.00,-992.00
71827,-270.00,166.00,14563.00,-628.00,980.00,18792.00,-992.00
71883,519.00,-1011.00,14203.00,-140.00,1248.00,17792.00,-1040.00
71940,1315.00,-1567.00,15754.00,-168.00,1400.00,17904.00,-1024.00
71997,1061.00,-1351.00,16196.00,572.00,1664.00,18072.00,-1008.00
72053,372.00,-483.00,15847.00,1204.00,1592.00,18700.00,-1008.00
72111,-641.00,-1451.00,14790.00,668.00,1608.00,18220.00,-1024.00
72167,-904.00,-738.00,12543.00,1420.00,1304.00,18432.00,-1024.00
72223,-525.00,-164.00,10403.00,1148.00,1300.00,17968.00,-1024.00
72281,-151.00,-368.00,9378.00,1120.00,1168.00,18244.00,-1008.00
72337,254.00,240.00,7420.00,1672.00,976.00,18704.00,-1024.00
72393,-58.00,547.00,6980.00,1176.00,1188.00,18280.00,-1008.00
72451,-201.00,492.00,6860.00,1608.00,992.00,18572.00,-1024.00
72507,-218.00,381.00,6361.00,1408.00,1152.00,18380.00,-1024.00
72563,-56.00,1061.00,6598.00,1620.00,952.00,18336.00,-976.00
72620,-370.00,64.00,7894.00,1352.00,1064.00,18300.00,-1040.00
72677,435.00,109.00,7471.00,1844.00,844.00,18036.00,-992.00
72733,-249.00,252.00,8046.00,1640.00,956.00,18544.00,-992.00
72790,-69.00,229.00,8769.00,1532.00,788.00,18480.00,-1008.00
72846,-819.00,67.00,7638.00,1400.00,796.00,18636.00,-944.00
72903,-1493.00,-1448.00,6755.00,1716.00,308.00,18556.00,-1008.00
72960,-931.00,-1155.00,5227.00,1904.00,128.00,18260.00,-1024.00
73016,-836.00,-976.00,3855.00,2260.00,-192.00,18572.00,-1056.00
73073,-150.00,-25.00,148.00,2032.00,36.00,18588.00,-992.00
73129,451.00,1184.00,-2788.00,2064.00,-112.00,18636.00,-1040.00
73186,424.00,1783.00,-4803.00,1932.00,-120.00,18696.00,-976.00
73242,927.00,2216.00,-6159.00,1600.00,64.00,18544.00,-976.00
73299,-530.00,944.00,-6809.00,1148.00,372.00,18288.00,-1024.00
73356,107.00,1069.00,-7121.00,1772.00,156.00,18408.00,-960.00
73412,935.00,672.00,-7535.00,1116.00,244.00,19008.00,-1008.00
73468,470.00,-309.00,-6596.00,1140.00,332.00,18320.00,-1024.00
73526,-434.00,371.00,-6701.00,836.00,688.00,18396.00,-960.00
73582,444.00,1185.00,-7779.00,916.00,176.00,18616.00,-992.00
73638,603.00,653.00,-9085.00,864.00,400.00,18688.00,-976.00
73695,243.00,1375.00,-9062.00,908.00,428.00,18304.00,-976.00
73752,190.00,1516.00,-9475.00,732.00,204.00,18540.00,-1008.00
73808,206.00,1527.00,-9820.00,484.00,552.00,18420.00,-976.00
73865,-178.00,1219.00,-9353.00,692.00,368.00,18604.00,-992.00
73921,319.00,1529.00,-8867.00,276.00,304.00,18300.00,-992.00
73978,720.00,1132.00,-8541.00,44.00,496.00,18748.00,-992.00
74035,1151.00,744.00,-9963.00,-456.00,308.00,18436.00,-992.00
74091,442.00,888.00,-11311.00,-432.00,368.00,18464.00,-992.00
74147,507.00,701.00,-11568.00,-324.00,564.00,18164.00,-1008.00
74204,1136.00,1309.00,-12502.00,-400.00,368.00,18848.00,-976.00
74261,161.00,971.00,-12203.00,-460.00,576.00,18424.00,-1008.00
74317,660.00,909.00,-11985.00,-576.00,384.00,18348.00,-976.00
74374,-387.00,1705.00,-10680.00,-744.00,480.00,18188.00,-1024.00
74431,948.00,546.00,-10130.00,-1264.00,48.00,18204.00,-992.00
74487,549.00,477.00,-9552.00,-844.00,40.00,18260.00,-1008.00
74544,349.00,283.00,-8974.00,-1076.00,144.00,18360.00,-1008.00
74600,389.00,129.00,-6382.00,-688.00,136.00,18444.00,-960.00
74657,-409.00,746.00,-3861.00,-1440.00,-260.00,18500.00,-960.00
74714,73.00,167.00,-1319.00,-828.00,-320.00,18560.00,-992.00
74770,635.00,-508.00,1995.00,-1016.00,-256.00,18640.00,-1024.00
74826,685.00,-1073.00,5066.00,-980.00,-204.00,18484.00,-976.00
74884,1602.00,-922.00,8402.00,-972.00,-32.00,18240.00,-960.00
74940,1519.00,-794.00,11076.00,-700.00,468.00,18332.00,-992.00
74996,1060.00,-1264.00,12011.00,-1048.00,640.00,18116.00,-992.00
75053,457.00,-638.00,12927.00,-248.00,1080.00,18500.00,-992.00
75110,-361.00,-740.00,13253.00,-196.00,1348.00,18472.00,-1008.00
75166,-354.00,-951.00,13769.00,436.00,1308.00,18464.00,-1008.00
75223,23.00,-1118.00,13403.00,76.00,1372.00,18336.00,-992.00
75280,39.00,-1794.00,12528.00,516.00,1064.00,18524.00,-1024.00
75336,-858.00,867.00,11225.00,96.00,988.00,18384.00,-976.00
75393,294.00,278.00,9123.00,568.00,816.00,18648.00,-1008.00
75449,365.00,2738.00,6249.00,-152.00,1440.00,18396.00,-992.00
75506,-1141.00,3942.00,2723.00,-64.00,1284.00,17464.00,-960.00
75563,-1263.00,-1247.00,-79.00,-368.00,1240.00,18000.00,-1008.00
75619,-1132.00,-4835.00,-1522.00,-152.00,1384.00,17848.00,-960.00
75676,1143.00,-2763.00,4076.00,332.00,1812.00,19080.00,-992.00
75732,-716.00,-3674.00,2956.00,464.00,780.00,17448.00,-1008.00
75789,-372.00,655.00,-381.00,996.00,852.00,19476.00,-992.00
75845,614.00,253.00,230.00,936.00,1056.00,17308.00,-1008.00
75902,1914.00,-1401.00,-748.00,3020.00,-56.00,18756.00,-1024.00
75959,-445.00,-901.00,-2249.00,-700.00,1448.00,18776.00,-1024.00
76015,1432.00,-2666.00,762.00,3472.00,540.00,18024.00,-1040.00
76072,1511.00,990.00,-1739.00,1428.00,2192.00,19480.00,-1008.00
76129,-2216.00,133.00,104.00,2216.00,1020.00,19996.00,-992.00
76185,760.00,3402.00,-2204.00,1552.00,1360.00,16660.00,-1008.00
76242,77.00,-573.00,794.00,1212.00,684.00,18916.00,-1024.00
76299,-80.00,-915.00,622.00,1236.00,1804.00,17636.00,-1024.00
76355,-527.00,-1170.00,1908.00,1220.00,1068.00,19044.00,-1040.00
76411,-189.00,-1581.00,21.00,1024.00,1188.00,18512.00,-1056.00
76469,-1066.00,-588.00,214.00,680.00,884.00,18700.00,-1040.00
76525,-769.00,2426.00,-1338.00,1316.00,936.00,18772.00,-1040.00
76581,599.00,5446.00,-1352.00,732.00,1400.00,18940.00,-1024.00
76639,-1419.00,3203.00,-1865.00,844.00,1192.00,18696.00,-1056.00
76695,-91.00,2391.00,-603.00,316.00,888.00,18004.00,-1040.00
76751,522.00,358.00,-667.00,256.00,716.00,18352.00,-1072.00
76808,-838.00,-346.00,-1098.00,176.00,968.00,18604.00,-1072.00
76865,-355.00,-3794.00,632.00,756.00,1056.00,18892.00,-1056.00
76921,372.00,1884.00,-561.00,536.00,500.00,18864.00,-1056.00
76978,-323.00,2268.00,-1206.00,1044.00,448.00,19092.00,-1040.00
77035,-615.00,2722.00,-348.00,664.00,988.00,18160.00,-1056.00
77091,418.00,5226.00,351.00,-124.00,568.00,17964.00,-1056.00
77148,-160.00,1606.00,-203.00,-688.00,640.00,18380.00,-1056.00
77204,-133.00,-759.00,381.00,-616.00,396.00,18632.00,-1056.00
77260,84.00,607.00,418.00,-488.00,320.00,18720.00,-1056.00
77318,251.00,-743.00,92.00,-716.00,960.00,17912.00,-1104.00
77374,787.00,-898.00,298.00,-568.00,956.00,18144.00,-1056.00
77430,206.00,-396.00,-442.00,-508.00,868.00,18044.00,-1056.00
77487,885.00,-1188.00,210.00,-320.00,640.00,19032.00,-1088.00
77543,-467.00,-1392.00,-332.00,60.00,704.00,18648.00,-1088.00
77600,-869.00,195.00,-260.00,104.00,792.00,18344.00,-1088.00
77657,-1859.00,-1103.00,-822.00,232.00,532.00,18624.00,-1088.00
77713,-1405.00,1934.00,8.00,436.00,480.00,18524.00,-1104.00
77769,-1392.00,-1639.00,-321.00,432.00,108.00,18256.00,-1088.00
77827,-1011.00,1192.00,238.00,24.00,-196.00,18892.00,-1072.00
77883,-204.00,-1178.00,-108.00,148.00,-56.00,18008.00,-1072.00
77939,-79.00,980.00,-566.00,-224.00,-136.00,18420.00,-1104.00
77996,-173.00,-452.00,9.00,76.00,-252.00,18300.00,-1120.00
78052,-215.00,-242.00,187.00,-12.00,-32.00,18228.00,-1072.00
78108,478.00,681.00,-16.00,120.00,-284.00,18516.00,-1104.00
78164,-93.00,-457.00,-298.00,-24.00,-36.00,18660.00,-1120.00
78221,-273.00,578.00,-114.00,20.00,-256.00,18320.00,-1104.00
78278,-852.00,-542.00,117.00,108.00,-152.00,18156.00,-1104.00
78334,-288.00,872.00,-289.00,64.00,-404.00,18568.00,-1088.00
78391,-628.00,-607.00,80.00,40.00,-412.00,18284.00,-1120.00
78447,-446.00,786.00,-151.00,-28.00,-484.00,18660.00,-1136.00
78503,-700.00,-753.00,457.00,124.00,-568.00,18588.00,-1088.00
78560,-1228.00,109.00,106.00,-240.00,-592.00,18240.00,-1120.00
78617,-1091.00,258.00,303.00,152.00,-976.00,18764.00,-1120.00
78673,-932.00,-124.00,76.00,24.00,-796.00,18396.00,-1152.00
78730,-2151.00,452.00,-367.00,280.00,-1308.00,18396.00,-1104.00
78786,-2123.00,-777.00,400.00,-76.00,-1404.00,18148.00,-1152.00
78842,-3507.00,1600.00,-573.00,228.00,-1912.00,18492.00,-1120.00
78900,-3745.00,-576.00,199.00,48.00,-2472.00,18368.00,-1136.00
78956,-4515.00,436.00,337.00,308.00,-2704.00,17828.00,-1136.00
79012,-3487.00,-334.00,759.00,-140.00,-3472.00,18576.00,-1120.00
79070,-3850.00,-757.00,202.00,20.00,-3452.00,17956.00,-1168.00
79126,-5293.00,903.00,115.00,-104.00,-4452.00,17988.00,-1104.00
79182,-4053.00,49.00,-704.00,-40.00,-4920.00,17272.00,-1152.00
79239,-3216.00,-154.00,-150.00,244.00,-5400.00,17244.00,-1152.00
79296,-3166.00,-167.00,189.00,220.00,-6024.00,17660.00,-1120.00
79352,-4919.00,369.00,-86.00,128.00,-6164.00,17072.00,-1104.00
79409,-4494.00,-269.00,-112.00,100.00,-7116.00,16976.00,-1136.00
79466,-4447.00,-1659.00,-19.00,308.00,-7080.00,16328.00,-1120.00
79522,-4796.00,-34.00,-316.00,388.00,-7728.00,16352.00,-1136.00
79579,-4869.00,-5.00,-93.00,216.00,-8420.00,16348.00,-1136.00
79635,-3970.00,-1086.00,349.00,460.00,-8536.00,15612.00,-1136.00
79692,-3392.00,-499.00,-360.00,436.00,-9556.00,15456.00,-1120.00
79749,-2937.00,-66.00,-443.00,576.00,-9636.00,15616.00,-1152.00
79805,1260.00,-342.00,-360.00,560.00,-9956.00,15524.00,-1136.00
79861,5196.00,1243.00,-44.00,312.00,-9364.00,15548.00,-1136.00
79919,7696.00,749.00,-955.00,500.00,-8516.00,15900.00,-1120.00
79975,8096.00,1055.00,19.00,332.00,-7388.00,16200.00,-1136.00
80031,9292.00,1740.00,255.00,80.00,-6776.00,16640.00,-1136.00
80089,10854.00,2117.00,665.00,-48.00,-5552.00,17248.00,-1120.00
80145,12146.00,659.00,1249.00,-500.00,-4420.00,17552.00,-1120.00
80201,10163.00,626.00,670.00,-516.00,-3148.00,18432.00,-1152.00
80259,10688.00,702.00,-351.00,-672.00,-1832.00,18704.00,-1152.00
80315,9108.00,1161.00,-766.00,-572.00,-764.00,18668.00,-1152.00
80371,6840.00,1139.00,-754.00,-584.00,620.00,18416.00,-1136.00
80429,7598.00,314.00,15.00,-812.00,1476.00,17500.00,-1168.00
80485,10020.00,23.00,-887.00,-728.00,2704.00,18512.00,-1120.00
80541,10828.00,771.00,-793.00,-880.00,3560.00,17784.00,-1136.00
80598,8951.00,230.00,-709.00,-836.00,5032.00,18440.00,-1152.00
80655,6845.00,386.00,-186.00,-716.00,5896.00,17644.00,-1152.00
80711,5552.00,-141.00,-46.00,-1168.00,6560.00,17232.00,-1152.00
80768,4695.00,478.00,-747.00,-1172.00,7084.00,16156.00,-1168.00
80825,4245.00,-506.00,-196.00,-1372.00,7552.00,16504.00,-1152.00
80881,4768.00,188.00,-95.00,-848.00,8000.00,15916.00,-1168.00
80937,4254.00,-139.00,-655.00,-1044.00,8444.00,15684.00,-1152.00
80995,4219.00,-372.00,-531.00,-1180.00,9304.00,15944.00,-1136.00
81051,2735.00,469.00,-488.00,-1084.00,9084.00,15120.00,-1120.00
81107,2152.00,-676.00,-504.00,-1008.00,9604.00,15184.00,-1136.00
81165,1155.00,324.00,190.00,-1040.00,9736.00,15204.00,-1120.00
81221,-1794.00,-28.00,-346.00,-1404.00,9876.00,15432.00,-1120.00
81277,-3543.00,-101.00,-284.00,-888.00,9664.00,15612.00,-1136.00
81335,-5475.00,496.00,98.00,-808.00,9072.00,15828.00,-1120.00
81391,-5689.00,20.00,84.00,-1104.00,8448.00,15948.00,-1120.00
81447,-6509.00,478.00,-84.00,-900.00,7824.00,16400.00,-1152.00
81504,-7084.00,567.00,570.00,-752.00,7112.00,16724.00,-1152.00
81561,-7865.00,-327.00,961.00,-1060.00,6216.00,17132.00,-1136.00
81617,-8096.00,177.00,817.00,-992.00,5180.00,17416.00,-1136.00
81674,-7332.00,610.00,-25.00,-944.00,4148.00,17936.00,-1136.00
81730,-7467.00,-328.00,392.00,-832.00,3508.00,17900.00,-1152.00
81787,-6889.00,901.00,-72.00,-860.00,2196.00,18252.00,-1168.00
81844,-7016.00,111.00,215.00,-1096.00,1644.00,18132.00,-1168.00
81900,-7429.00,941.00,-75.00,-1332.00,472.00,18216.00,-1152.00
81957,-7257.00,355.00,-5.00,-1040.00,-324.00,18268.00,-1136.00
82014,-7467.00,216.00,617.00,-888.00,-1212.00,18416.00,-1136.00
82070,-8434.00,898.00,-70.00,-992.00,-2216.00,18496.00,-1120.00
82126,-6846.00,843.00,-141.00,-1164.00,-3232.00,17912.00,-1136.00
82184,-5899.00,-10.00,15.00,-1404.00,-3756.00,17460.00,-1152.00
82240,-5818.00,659.00,268.00,-1560.00,-4424.00,17640.00,-1120.00
82296,-4986.00,-444.00,-130.00,-1524.00,-5388.00,17616.00,-1168.00
82354,-6443.00,47.00,-31.00,-1556.00,-5956.00,17380.00,-1152.00
82410,-5018.00,149.00,-396.00,-1188.00,-6484.00,16712.00,-1152.00
82466,-5163.00,511.00,-124.00,-1436.00,-7420.00,16664.00,-1168.00
82524,-4885.00,223.00,-210.00,-1600.00,-7700.00,16304.00,-1152.00
82580,-4773.00,271.00,-434.00,-1452.00,-8308.00,16000.00,-1184.00
82636,-4696.00,86.00,-40.00,-1484.00,-8772.00,15756.00,-1152.00
82694,-3629.00,35.00,-109.00,-1420.00,-9244.00,15496.00,-1200.00
82750,-2522.00,491.00,-376.00,-1516.00,-9436.00,14820.00,-1216.00
82806,1712.00,306.00,-31.00,-1484.00,-9756.00,15036.00,-1200.00
82864,3426.00,223.00,-570.00,-1560.00,-9744.00,15552.00,-1168.00
82920,2576.00,163.00,-444.00,-1388.00,-8848.00,15284.00,-1184.00
82976,3674.00,426.00,77.00,-1508.00,-8680.00,15540.00,-1168.00
83034,4370.00,298.00,398.00,-1832.00,-8420.00,15652.00,-1184.00
83090,5838.00,934.00,604.00,-1544.00,-7516.00,16124.00,-1200.00
83146,6635.00,875.00,664.00,-1964.00,-7224.00,16440.00,-1184.00
83204,8138.00,360.00,53.00,-2016.00,-6028.00,16852.00,-1200.00
83260,7594.00,-402.00,276.00,-2052.00,-5496.00,17352.00,-1184.00
83316,9839.00,-57.00,228.00,-2536.00,-4300.00,17320.00,-1168.00
83373,8019.00,619.00,-84.00,-2344.00,-2996.00,17668.00,-1216.00
83430,4622.00,615.00,4.00,-2348.00,-2576.00,18012.00,-1168.00
83486,6141.00,-497.00,-271.00,-2076.00,-1544.00,18056.00,-1200.00
83543,9984.00,58.00,-595.00,-1836.00,-760.00,18028.00,-1200.00
83600,12859.00,635.00,-378.00,-2120.00,964.00,17668.00,-1200.00
83656,12721.00,-1095.00,-1306.00,-2428.00,2028.00,17896.00,-1184.00
83713,10928.00,-461.00,-825.00,-2176.00,3520.00,18204.00,-1168.00
83770,8885.00,-522.00,-1047.00,-2012.00,4836.00,17824.00,-1184.00
83826,7701.00,-326.00,-312.00,-2104.00,5732.00,17680.00,-1216.00
83884,6751.00,-227.00,-403.00,-2016.00,6384.00,16612.00,-1200.00
83940,7374.00,-668.00,-288.00,-1896.00,7488.00,17008.00,-1184.00
83996,7254.00,-477.00,-309.00,-1756.00,8040.00,15908.00,-1168.00
84054,7061.00,-463.00,-446.00,-2048.00,8904.00,15656.00,-1184.00
84110,7181.00,-706.00,-43.00,-1780.00,9384.00,14432.00,-1184.00
84166,8542.00,-318.00,-856.00,-1804.00,10524.00,14184.00,-1184.00
84224,7168.00,-346.00,-590.00,-1720.00,11420.00,14428.00,-1184.00
84280,4825.00,24.00,-747.00,-1520.00,11452.00,13244.00,-1184.00
84336,4947.00,599.00,-1636.00,-1896.00,12116.00,12820.00,-1200.00
84393,4408.00,187.00,-2116.00,-1636.00,12160.00,11772.00,-1200.00
84450,3194.00,-490.00,-947.00,-2840.00,13240.00,12744.00,-1168.00
84507,-2613.00,-189.00,898.00,-2928.00,12800.00,12616.00,-1184.00
84563,-6084.00,15.00,-73.00,-2264.00,12328.00,12568.00,-1216.00
84620,-7829.00,-440.00,-19.00,-2040.00,11768.00,13380.00,-1184.00
84677,-8763.00,-664.00,362.00,-2180.00,11000.00,14088.00,-1184.00
84733,-9681.00,-475.00,500.00,-2076.00,10004.00,14676.00,-1168.00
84790,-11156.00,-1844.00,1298.00,-1820.00,8920.00,16032.00,-1216.00
84847,-11467.00,363.00,1477.00,-1596.00,8016.00,16076.00,-1168.00
84903,-11386.00,-1093.00,269.00,-1288.00,6692.00,16724.00,-1232.00
84961,-12034.00,289.00,216.00,-1116.00,5356.00,17272.00,-1168.00
85017,-11081.00,1191.00,319.00,-1416.00,3948.00,17544.00,-1200.00
85074,-9359.00,-64.00,187.00,-1580.00,2600.00,17280.00,-1168.00
85131,-8289.00,76.00,41.00,-1572.00,1488.00,18348.00,-1184.00
85187,-7709.00,-1060.00,-240.00,-1336.00,632.00,18156.00,-1184.00
85244,-7793.00,133.00,-586.00,-1428.00,-548.00,18264.00,-1184.00
85301,-5290.00,-610.00,85.00,-1092.00,-1212.00,17732.00,-1200.00
85357,-6539.00,-349.00,-354.00,-1440.00,-2056.00,18376.00,-1168.00
85413,-7346.00,-660.00,73.00,-1144.00,-3172.00,18312.00,-1168.00
85471,-9408.00,-142.00,-473.00,-1240.00,-3976.00,17732.00,-1200.00
85527,-7089.00,-56.00,503.00,-1208.00,-5040.00,17644.00,-1184.00
85583,-5815.00,-247.00,305.00,-1124.00,-5500.00,17064.00,-1200.00
85641,-6054.00,-316.00,89.00,-1144.00,-6612.00,17172.00,-1184.00
85697,-6663.00,314.00,-76.00,-1172.00,-7180.00,16872.00,-1200.00
85753,-8407.00,-1054.00,-164.00,-804.00,-7832.00,15600.00,-1184.00
85811,-6333.00,1196.00,1241.00,-748.00,-8324.00,15544.00,-1200.00
85867,-4815.00,-305.00,-324.00,-1788.00,-9812.00,15180.00,-1184.00
85924,105.00,-466.00,-970.00,-840.00,-9592.00,15080.00,-1184.00
85981,2560.00,540.00,-282.00,-1012.00,-9552.00,15132.00,-1184.00
86037,4748.00,789.00,-344.00,-1040.00,-9324.00,15516.00,-1200.00
86093,6417.00,497.00,-408.00,-1604.00,-8932.00,15888.00,-1152.00
86151,7030.00,617.00,-490.00,-1360.00,-7720.00,16272.00,-1232.00
86207,7178.00,640.00,163.00,-1348.00,-7104.00,16788.00,-1216.00
86264,8733.00,115.00,536.00,-1580.00,-6300.00,16868.00,-1200.00
86321,12777.00,411.00,216.00,-1768.00,-4976.00,17820.00,-1216.00
86377,12574.00,638.00,-143.00,-1392.00,-2788.00,17412.00,-1168.00
86434,14293.00,484.00,733.00,-1832.00,-1708.00,18448.00,-1200.00
86491,12948.00,744.00,-541.00,-1740.00,-36.00,18708.00,-1216.00
86547,11565.00,-547.00,-571.00,-1544.00,1280.00,18532.00,-1200.00
86604,9381.00,-2918.00,522.00,-2672.00,3112.00,17136.00,-1216.00
86661,10529.00,1064.00,-1797.00,-1552.00,4004.00,17792.00,-1216.00
86718,9772.00,92.00,-666.00,-1460.00,5236.00,17608.00,-1216.00
86774,8651.00,1464.00,-1577.00,-1872.00,6204.00,17632.00,-1200.00
86831,7349.00,664.00,-982.00,-2036.00,7036.00,16364.00,-1200.00
86888,6591.00,765.00,-291.00,-1988.00,7672.00,15816.00,-1184.00
86944,8295.00,262.00,-624.00,-2204.00,8408.00,15224.00,-1200.00
87001,10045.00,545.00,-1403.00,-2148.00,9096.00,15040.00,-1216.00
87058,11012.00,2151.00,-2135.00,-2400.00,10716.00,14376.00,-1216.00
87114,6879.00,516.00,-735.00,-3056.00,11148.00,13472.00,-1200.00
87172,4542.00,496.00,-902.00,-2948.00,11584.00,12928.00,-1216.00
87228,1055.00,890.00,-1317.00,-2856.00,12116.00,12780.00,-1200.00
87285,-3111.00,-211.00,-157.00,-3136.00,12252.00,13524.00,-1232.00
87342,-6053.00,355.00,-55.00,-2860.00,11572.00,13448.00,-1248.00
87398,-9081.00,655.00,98.00,-2920.00,10764.00,14224.00,-1216.00
87455,-8511.00,1050.00,-1240.00,-3096.00,9972.00,14540.00,-1200.00
87512,-10119.00,-490.00,-118.00,-3224.00,9004.00,14948.00,-1232.00
87569,-7604.00,136.00,113.00,-2992.00,8040.00,16008.00,-1216.00
87625,-8462.00,-959.00,1039.00,-2564.00,6992.00,15796.00,-1200.00
87682,-6743.00,98.00,525.00,-2868.00,6340.00,17076.00,-1184.00
87739,-8716.00,-1688.00,1056.00,-2740.00,5744.00,17376.00,-1200.00
87795,-8598.00,-242.00,812.00,-2152.00,4364.00,17076.00,-1232.00
87852,-8020.00,-1011.00,852.00,-2228.00,3536.00,18132.00,-1216.00
87909,-6650.00,506.00,409.00,-2176.00,2716.00,17692.00,-1200.00
87965,-6899.00,-980.00,359.00,-2380.00,1728.00,18556.00,-1248.00
88022,-6787.00,1077.00,141.00,-2012.00,948.00,18204.00,-1200.00
88079,-7107.00,-1206.00,460.00,-2480.00,112.00,18344.00,-1216.00
88135,-6959.00,-732.00,368.00,-2116.00,-812.00,18152.00,-1200.00
88192,-5836.00,-1283.00,-163.00,-1760.00,-1508.00,18136.00,-1184.00
88249,-5291.00,-2476.00,-422.00,-1880.00,-2196.00,18456.00,-1184.00
88305,-4477.00,-1634.00,-1101.00,-1348.00,-2700.00,17936.00,-1232.00
88363,-4068.00,-3298.00,-1370.00,-1460.00,-3588.00,18008.00,-1168.00
88419,-3626.00,-512.00,-253.00,-428.00,-3652.00,17552.00,-1200.00
88475,-4716.00,-2088.00,-866.00,-1048.00,-4732.00,17908.00,-1216.00
88532,-5435.00,-896.00,-724.00,-332.00,-4996.00,17652.00,-1216.00
88589,-5283.00,-1356.00,-348.00,-244.00,-5764.00,17436.00,-1232.00
88646,-5705.00,132.00,86.00,-424.00,-6548.00,16952.00,-1216.00
88702,-6494.00,-840.00,-48.00,-248.00,-7360.00,16852.00,-1200.00
88759,-8560.00,-1443.00,-391.00,-200.00,-7900.00,16264.00,-1200.00
88815,-3654.00,-1210.00,660.00,-148.00,-8476.00,15680.00,-1232.00
88872,-3106.00,-664.00,-40.00,-116.00,-9212.00,15892.00,-1216.00
88929,-3016.00,-692.00,-181.00,656.00,-9120.00,15432.00,-1200.00
88985,507.00,460.00,-97.00,96.00,-9540.00,15192.00,-1216.00
89041,3792.00,1550.00,-915.00,160.00,-9368.00,15716.00,-1232.00
89099,6641.00,-27.00,-1138.00,100.00,-9040.00,15956.00,-1232.00
89155,8237.00,963.00,-1240.00,200.00,-7760.00,16632.00,-1232.00
89211,9803.00,1205.00,-865.00,-36.00,-6560.00,16248.00,-1200.00
89269,9018.00,303.00,-1191.00,-248.00,-5860.00,16940.00,-1216.00
89325,7557.00,98.00,-653.00,-256.00,-5028.00,17416.00,-1200.00
89381,8147.00,1049.00,-459.00,276.00,-3744.00,18228.00,-1232.00
89439,9420.00,848.00,-498.00,-160.00,-2844.00,18004.00,-1216.00
89495,9929.00,1279.00,-489.00,-120.00,-1620.00,18220.00,-1232.00
89551,9181.00,558.00,-1102.00,-536.00,-624.00,18352.00,-1200.00
89609,10415.00,2649.00,-815.00,-564.00,796.00,18528.00,-1232.00
89665,9082.00,2344.00,-1128.00,-1020.00,1876.00,18140.00,-1232.00
89721,9395.00,5833.00,-1581.00,-1120.00,3368.00,17964.00,-1200.00
89779,8601.00,2753.00,-1363.00,-1312.00,4164.00,17736.00,-1200.00
89835,8350.00,478.00,-1338.00,-2092.00,5244.00,17384.00,-1232.00
89892,7983.00,2864.00,-275.00,-1840.00,6148.00,17584.00,-1248.00
89949,6682.00,3828.00,-757.00,-2288.00,6872.00,16896.00,-1216.00
90005,8062.00,422.00,-1579.00,-3048.00,7540.00,16504.00,-1216.00
90062,6022.00,-7.00,-643.00,-3016.00,8448.00,15712.00,-1200.00
90119,6417.00,3135.00,-2043.00,-3100.00,8924.00,15260.00,-1248.00
90175,6361.00,1119.00,-1247.00,-3200.00,9360.00,14244.00,-1280.00
90232,7908.00,3021.00,-2153.00,-3392.00,10572.00,14352.00,-1248.00
90289,7587.00,569.00,-663.00,-4232.00,10592.00,13188.00,-1216.00
90346,2818.00,-245.00,713.00,-4800.00,10828.00,12416.00,-1216.00
90402,1044.00,16.00,-1073.00,-4208.00,11480.00,12964.00,-1216.00
90460,-3007.00,-1647.00,341.00,-3892.00,11468.00,12948.00,-1232.00
90516,-3602.00,-803.00,1307.00,-3736.00,11020.00,13392.00,-1232.00
90572,-5237.00,-1404.00,730.00,-4032.00,10720.00,14152.00,-1232.00
90630,-8176.00,349.00,44.00,-3196.00,10260.00,14752.00,-1200.00
90686,-10415.00,-653.00,860.00,-3272.00,8992.00,15000.00,-1216.00
90743,-11781.00,-2393.00,1410.00,-3248.00,8228.00,15576.00,-1264.00
90800,-11602.00,-2086.00,1167.00,-2932.00,6712.00,16188.00,-1216.00
90857,-11036.00,-85.00,1431.00,-2304.00,5600.00,17200.00,-1216.00
90913,-9706.00,1182.00,667.00,-2004.00,4340.00,17296.00,-1232.00
90970,-9150.00,-571.00,615.00,-2324.00,3360.00,17268.00,-1232.00
91027,-6997.00,43.00,212.00,-1972.00,2192.00,18104.00,-1216.00
91083,-7667.00,787.00,101.00,-2376.00,1292.00,17664.00,-1216.00
91140,-5443.00,427.00,-533.00,-2800.00,540.00,18324.00,-1264.00
91197,-6607.00,-214.00,200.00,-2688.00,-160.00,18144.00,-1216.00
91253,-8315.00,-544.00,-107.00,-2440.00,-1124.00,18116.00,-1280.00
91310,-8235.00,-390.00,573.00,-2336.00,-2200.00,18032.00,-1280.00
91367,-7500.00,-371.00,85.00,-2272.00,-3060.00,17688.00,-1200.00
91423,-3962.00,-852.00,729.00,-2220.00,-3940.00,18348.00,-1216.00
91480,-4442.00,519.00,451.00,-1976.00,-4296.00,17436.00,-1200.00
91537,-4137.00,1051.00,268.00,-2464.00,-4728.00,17812.00,-1248.00
91593,-8270.00,1376.00,-1022.00,-2524.00,-5796.00,17732.00,-1264.00
91650,-7239.00,77.00,258.00,-2480.00,-6144.00,16372.00,-1232.00
91707,-6495.00,-155.00,-222.00,-2668.00,-7208.00,16452.00,-1216.00
91763,-1855.00,-391.00,877.00,-2696.00,-7632.00,16104.00,-1232.00
91821,1212.00,277.00,-777.00,-2476.00,-7888.00,16460.00,-1248.00
91877,4405.00,240.00,-1042.00,-2500.00,-7428.00,16372.00,-1248.00
91933,6263.00,533.00,-301.00,-2492.00,-6872.00,16652.00,-1232.00
91991,8414.00,-619.00,-67.00,-2720.00,-6236.00,16612.00,-1232.00
92047,9087.00,-976.00,-975.00,-2616.00,-5064.00,17452.00,-1232.00
92103,8385.00,-1292.00,-962.00,-2088.00,-3972.00,17364.00,-1264.00
92161,10856.00,-205.00,0.00,-1732.00,-2384.00,17600.00,-1248.00
92217,12134.00,1379.00,-814.00,-1892.00,-1148.00,17944.00,-1232.00
92273,11740.00,2056.00,-832.00,-2096.00,0.00,18004.00,-1232.00
92331,10672.00,733.00,-941.00,-2816.00,1176.00,18108.00,-1200.00
92387,10093.00,-852.00,36.00,-2996.00,2592.00,17880.00,-1248.00
92443,10515.00,-112.00,-792.00,-2428.00,3328.00,17908.00,-1264.00
92500,9381.00,-1024.00,-994.00,-2572.00,4760.00,17640.00,-1248.00
92557,7906.00,-382.00,-390.00,-3100.00,5752.00,16992.00,-1248.00
92614,6285.00,-138.00,429.00,-2732.00,6672.00,17224.00,-1232.00
92670,6071.00,-786.00,-232.00,-2672.00,7432.00,16584.00,-1232.00
92727,5550.00,208.00,-928.00,-2408.00,7816.00,16620.00,-1248.00
92784,6414.00,-535.00,-531.00,-2428.00,8464.00,15480.00,-1264.00
92840,8685.00,-352.00,-1450.00,-2244.00,9016.00,14292.00,-1248.00
92897,8860.00,-320.00,-998.00,-2544.00,10424.00,14996.00,-1232.00
92954,8000.00,599.00,-2090.00,-2948.00,10900.00,13688.00,-1216.00
93010,6830.00,743.00,-1864.00,-2000.00,11432.00,12948.00,-1248.00
93068,8228.00,-2047.00,-2054.00,-3040.00,11984.00,12240.00,-1248.00
93124,6521.00,-2038.00,-3575.00,-3380.00,12532.00,11532.00,-1248.00
93181,3021.00,-363.00,-744.00,-2976.00,12932.00,11612.00,-1248.00
93238,1036.00,315.00,623.00,-3440.00,13752.00,12080.00,-1264.00
93294,-2862.00,-1028.00,952.00,-3316.00,13148.00,11960.00,-1248.00
93351,-6633.00,-2832.00,3064.00,-2948.00,12484.00,12000.00,-1216.00
93408,-9272.00,-2077.00,2022.00,-2620.00,12208.00,13168.00,-1248.00
93465,-13687.00,-5520.00,2095.00,-2120.00,11152.00,14320.00,-1248.00
93521,-15004.00,852.00,1778.00,-1100.00,9816.00,14988.00,-1248.00
93579,-13107.00,923.00,334.00,-956.00,8456.00,15968.00,-1248.00
93635,-14666.00,-2092.00,1090.00,-1012.00,6884.00,16924.00,-1296.00
93692,-14954.00,-2702.00,935.00,-208.00,5072.00,18528.00,-1232.00
93749,-12230.00,-1248.00,1395.00,-336.00,2472.00,16568.00,-1280.00
93805,-10425.00,7658.00,-161.00,-392.00,2892.00,17860.00,-1248.00
93862,-2787.00,1878.00,-200.00,-2580.00,1060.00,16204.00,-1264.00
93919,1180.00,416.00,-1169.00,-1644.00,1916.00,18956.00,-1216.00
93976,-1040.00,-213.00,-799.00,-2656.00,1496.00,19192.00,-1248.00
94032,-1409.00,338.00,-592.00,-676.00,1316.00,18656.00,-1264.00
94089,-1191.00,-378.00,694.00,-2628.00,844.00,18552.00,-1248.00
94146,-1244.00,-257.00,-993.00,-2100.00,668.00,18212.00,-1248.00
94202,-808.00,300.00,-1316.00,-2104.00,-232.00,17496.00,-1232.00
94259,-186.00,592.00,-542.00,-1336.00,-68.00,18184.00,-1232.00
94315,-1319.00,-899.00,992.00,-2656.00,184.00,17400.00,-1232.00
94372,477.00,-262.00,-1003.00,-1572.00,628.00,18376.00,-1280.00
94429,581.00,-933.00,870.00,-2236.00,444.00,18336.00,-1264.00
94485,-479.00,-1360.00,486.00,-2800.00,640.00,18768.00,-1264.00
94541,-735.00,-1032.00,-1664.00,-1308.00,664.00,17996.00,-1264.00
94599,166.00,-570.00,-345.00,-416.00,496.00,18952.00,-1248.00
94655,-2059.00,-415.00,-383.00,-1452.00,-536.00,18336.00,-1248.00
94711,-1212.00,-1100.00,-148.00,-1740.00,-364.00,17524.00,-1232.00
94769,593.00,-275.00,-1552.00,-712.00,-1148.00,18144.00,-1248.00
94825,16.00,-1255.00,1006.00,-984.00,-744.00,18456.00,-1264.00
94881,-739.00,-420.00,-959.00,-2052.00,-740.00,17484.00,-1248.00
94939,1595.00,-374.00,-1326.00,400.00,-80.00,18684.00,-1264.00
94995,-41.00,-548.00,622.00,-444.00,-92.00,19004.00,-1264.00
95051,-1126.00,-80.00,-472.00,-1012.00,80.00,18444.00,-1248.00
95108,-124.00,-135.00,-71.00,-648.00,-184.00,18420.00,-1264.00
95164,-625.00,-168.00,-251.00,-1504.00,-548.00,18408.00,-1216.00
95220,-403.00,-647.00,-916.00,-1184.00,-904.00,18412.00,-1264.00
95278,-13.00,-339.00,-1578.00,-736.00,-1120.00,17972.00,-1280.00
95334,369.00,-581.00,-704.00,16.00,-1128.00,18420.00,-1264.00
95390,-101.00,-599.00,101.00,-480.00,-844.00,18296.00,-1248.00
95447,690.00,-665.00,-523.00,-184.00,-348.00,18512.00,-1280.00
95504,244.00,-235.00,-420.00,-352.00,-632.00,18656.00,-1248.00
95560,253.00,-13.00,-581.00,76.00,-376.00,18484.00,-1232.00
95617,-21.00,-297.00,477.00,-276.00,-376.00,19064.00,-1280.00
95673,-367.00,27.00,-323.00,-188.00,-108.00,18516.00,-1296.00
