time,seconds_elapsed,z,y,x
1751278777737920300,0.221920166015625,-0.03932380676269531,0.03334015607833862,-0.03155249357223511
1751278777766157000,0.250156982421875,-0.11377429962158203,-0.02141129970550537,0.010388076305389404
1751278777784981800,0.268981689453125,-0.07053470611572266,0.05976384878158569,-0.026305586099624634
1751278777813218600,0.297218505859375,-0.04431724548339844,0.02879577875137329,-0.05557835102081299
1751278777841455400,0.325455322265625,-0.06631183624267578,-0.06375306844711304,-0.007070183753967285
1751278777860279800,0.34427978515625,-0.015436172485351562,-0.023357808589935303,0.009545087814331055
1751278777879104500,0.3631044921875,-0.02725505828857422,-0.0001971125602722168,0.03199020028114319
1751278777897929000,0.381928955078125,0.029758453369140625,-0.02146691083908081,-0.030765682458877563
1751278777916753400,0.40075341796875,-0.014123916625976562,0.006876468658447266,-0.048354923725128174
1751278777935578000,0.419578125,-0.09925365447998047,0.013891398906707764,0.027494192123413086
1751278777954402600,0.438402587890625,-0.10022258758544922,0.0247802734375,0.005255013704299927
1751278777973227300,0.457227294921875,-0.0130157470703125,0.07118868827819824,0.005136996507644653
1751278777992051700,0.4760517578125,-0.09512805938720703,0.11573803424835205,0.04408964514732361
1751278778010876200,0.494876220703125,-0.029689788818359375,0.019167661666870117,-0.037012577056884766
1751278778029700900,0.513700927734375,0.04433441162109375,-0.04522603750228882,-0.05918887257575989
1751278778048525300,0.532525390625,0.09191513061523438,-0.06044071912765503,0.017764955759048462
1751278778067350000,0.55135009765625,0.11439323425292969,-0.12115168571472168,-0.03348320722579956
1751278778086174500,0.570174560546875,0.26054859161376953,-0.11081892251968384,-0.007162541151046753
1751278778104999000,0.5889990234375,0.29796791076660156,-0.0475231409072876,-0.0017852187156677246
1751278778123823600,0.60782373046875,-0.09010505676269531,0.05150324106216431,0.023167341947555542
1751278778142648000,0.62664794921875,-0.26621150970458984,-0.00435560941696167,0.0728544294834137
1751278778161472800,0.64547265625,-0.06054496765136719,0.0088423490524292,0.03937274217605591
1751278778180297200,0.664297119140625,0.146148681640625,0.04651844501495361,-0.030564963817596436
1751278778199122000,0.683121826171875,0.15883541107177734,0.021763324737548828,-0.007432222366333008
1751278778217946400,0.7019462890625,0.08770275115966797,0.08459824323654175,0.008037418127059937
1751278778236770800,0.720770751953125,-0.09723663330078125,0.07407045364379883,0.03291630744934082
1751278778255595500,0.739595458984375,-0.16423320770263672,0.007189929485321045,0.08468848466873169
1751278778274420000,0.758419921875,-0.051548004150390625,-0.021147549152374268,0.02940252423286438
1751278778293244700,0.77724462890625,0.06133079528808594,0.043604254722595215,-0.025558799505233765
1751278778312069000,0.796069091796875,0.08215904235839844,0.021071195602416992,-0.013447999954223633
1751278778330893800,0.814893798828125,0.056601524353027344,-0.07635724544525146,-0.03224948048591614
1751278778349718300,0.83371826171875,-0.015165328979492188,-0.06492096185684204,-0.027550220489501953
1751278778368542700,0.852542724609375,-0.13095569610595703,-0.021187007427215576,0.021689683198928833
1751278778387367400,0.871367431640625,0.0037183761596679688,-0.020893990993499756,0.025940269231796265
1751278778406192000,0.890192138671875,0.06350326538085938,0.011010944843292236,0.034603774547576904
1751278778425016600,0.9090166015625,-0.041412353515625,0.01111149787902832,0.057884663343429565
1751278778443841000,0.927841064453125,-0.03044891357421875,0.06388640403747559,-0.010784447193145752
1751278778462665700,0.946665771484375,-0.08000946044921875,0.07036155462265015,-0.09392619132995605
1751278778481490200,0.965490234375,-0.1424846649169922,-0.041627585887908936,-0.025648534297943115
1751278778500315000,0.98431494140625,-0.04038238525390625,-0.011139512062072754,0.008420795202255249
1751278778519139300,1.003139404296875,0.10900020599365234,0.03854638338088989,0.02931484580039978
1751278778537964000,1.021964111328125,0.21629047393798828,-0.004613757133483887,-0.008448302745819092
1751278778556788500,1.04078857421875,0.1386709213256836,-0.01847386360168457,0.039143890142440796
1751278778575613000,1.059613037109375,-0.009946823120117188,-0.054173171520233154,0.009126633405685425
1751278778594437600,1.078437744140625,0.05657196044921875,-0.10296666622161865,0.02187696099281311
1751278778613262300,1.097262451171875,0.1297168731689453,-0.011810839176177979,-0.01317441463470459
1751278778632086800,1.116086669921875,0.051354408264160156,0.018959343433380127,-0.05187496542930603
1751278778650911200,1.1349111328125,-0.13178443908691406,0.04609602689743042,0.03555217385292053
1751278778669736000,1.15373583984375,-0.20657825469970703,0.0722358226776123,-0.012194603681564331
1751278778688560400,1.172560302734375,-0.07431793212890625,0.045062363147735596,-0.03661355376243591
1751278778707385000,1.191385009765625,0.05371379852294922,-0.03036600351333618,-0.0657682716846466
1751278778726209500,1.21020947265625,0.0656423568725586,-0.06703978776931763,-0.012770682573318481
1751278778745034200,1.2290341796875,0.026212692260742188,-0.023333489894866943,0.05337965488433838
1751278778763858700,1.247858642578125,0.015618324279785156,0.0010716915130615234,0.028924018144607544
1751278778782683400,1.266683349609375,-0.008684158325195312,0.017523467540740967,-0.05154949426651001
1751278778801507800,1.2855078125,-0.008819580078125,0.03835189342498779,-0.0423579216003418
1751278778820332500,1.30433251953125,-0.0036325454711914062,0.04208153486251831,0.05515497922897339
1751278778839157000,1.323156982421875,0.052206993103027344,-0.020358145236968994,0.005063235759735107
1751278778857981700,1.341981689453125,0.050960540771484375,-0.0253869891166687,-0.02010074257850647
1751278778876806100,1.36080615234375,-0.09012317657470703,-0.01959127187728882,0.022100716829299927
1751278778895630800,1.379630859375,0.0762624740600586,-0.04664409160614014,-0.02106112241744995
1751278778914455300,1.398455322265625,0.08225631713867188,0.020204782485961914,-0.05406191945075989
1751278778933280000,1.417280029296875,0.023560523986816406,0.007451295852661133,-0.06465223431587219
1751278778952104400,1.4361044921875,0.018527984619140625,-0.007372677326202393,-0.07997268438339233
1751278778970929200,1.45492919921875,-0.09859275817871094,0.0018227696418762207,0.07520323991775513
1751278778989753600,1.473753662109375,-0.15183448791503906,-0.06950241327285767,0.15072935819625854
1751278779008578300,1.492578369140625,0.1509714126586914,0.06801456212997437,-0.02532351016998291
1751278779027402800,1.51140283203125,0.26214027404785156,0.014524221420288086,-0.054943859577178955
1751278779046227500,1.5302275390625,0.08142566680908203,0.017850279808044434,-0.012273699045181274
1751278779065052000,1.549052001953125,-0.08800506591796875,0.009656131267547607,0.024855077266693115
1751278779083876400,1.56787646484375,-0.1486949920654297,0.05489504337310791,0.033196866512298584
1751278779102701000,1.586701171875,-0.21823692321777344,0.046658992767333984,0.030388206243515015
1751278779121525800,1.60552587890625,-0.27657318115234375,0.03708457946777344,0.006879538297653198
1751278779140350200,1.62435009765625,-0.05867481231689453,-0.09330546855926514,0.02867138385772705
1751278779159175000,1.6431748046875,0.16616439819335938,-0.009159207344055176,-0.08561280369758606
1751278779177999400,1.661999267578125,0.18827533721923828,-0.0143355131149292,-0.049459606409072876
1751278779196823800,1.68082373046875,0.010001182556152344,-0.0031903982162475586,0.01337587833404541
1751278779215648500,1.6996484375,-0.05006694793701172,-0.026847004890441895,0.020384222269058228
1751278779234473200,1.71847314453125,-0.08590316772460938,-0.011184632778167725,0.023915022611618042
1751278779253297700,1.737297607421875,-0.05113029479980469,-0.022298097610473633,0.044363558292388916
1751278779272122400,1.756122314453125,0.27228260040283203,0.02115464210510254,-0.07017648220062256
1751278779290946800,1.77494677734375,0.2026538848876953,0.046207308769226074,0.020286351442337036
1751278779309771500,1.793771484375,0.051410675048828125,0.012562453746795654,-0.011319875717163086
1751278779328596000,1.812595947265625,-0.11831188201904297,0.06429088115692139,0.024862825870513916
1751278779347420700,1.831420654296875,-0.13811397552490234,0.030567824840545654,0.04615950584411621
1751278779366245000,1.8502451171875,0.010527610778808594,0.03313934803009033,0.042407453060150146
1751278779385069800,1.86906982421875,0.11735343933105469,-0.04270768165588379,0.04420056939125061
1751278779403894300,1.887894287109375,0.06261444091796875,-0.0041869282722473145,-0.0022982656955718994
1751278779422719000,1.906718994140625,-0.1487417221069336,-0.0034896135330200195,-0.0398116409778595
1751278779441543400,1.92554345703125,-0.2322549819946289,-0.05786275863647461,-0.05500403046607971
1751278779460368100,1.9443681640625,-0.13138580322265625,-0.024110019207000732,0.045371830463409424
1751278779479192600,1.963192626953125,0.012183189392089844,0.0025137662887573242,0.022880256175994873
1751278779498017300,1.982017333984375,0.13298797607421875,0.004829049110412598,-0.02167794108390808
1751278779516841700,2.000841796875,-0.0016775131225585938,-0.021233558654785156,-0.05042579770088196
1751278779535666400,2.01966650390625,-0.09903430938720703,0.006575822830200195,0.010657727718353271
1751278779554491000,2.038490966796875,-0.011598587036132812,0.02555537223815918,0.01989474892616272
1751278779573315600,2.057315673828125,0.1327981948852539,0.0076296329498291016,0.014040976762771606
1751278779592140000,2.07614013671875,0.1467571258544922,-0.05202662944793701,0.020863354206085205
1751278779610964700,2.09496484375,0.11918067932128906,-0.042094647884368896,-0.02846163511276245
1751278779629789200,2.1137890625,0.05984306335449219,0.05582082271575928,-0.01838776469230652
1751278779648614000,2.13261376953125,-0.05336284637451172,0.07602345943450928,0.02770078182220459
1751278779667438300,2.151438232421875,-0.11205768585205078,0.03550982475280762,-0.017763108015060425
1751278779686263000,2.170262939453125,-0.08463478088378906,-0.033784449100494385,-0.03826597332954407
1751278779705087700,2.189087646484375,0.048293113708496094,-0.05240601301193237,-0.048452168703079224
1751278779723912200,2.207912109375,0.08432292938232422,-0.059349238872528076,0.05476641654968262
1751278779742737000,2.22673681640625,0.15671062469482422,-0.05463206768035889,-0.00045427680015563965
1751278779761561300,2.245561279296875,0.04926776885986328,-0.024932503700256348,-0.045801758766174316
1751278779780386000,2.264385986328125,-0.17094707489013672,-0.051134705543518066,0.0062607526779174805
1751278779799210500,2.28321044921875,-0.2723569869995117,0.001296699047088623,0.0298919677734375
1751278779818035200,2.30203515625,-0.04384899139404297,0.035429537296295166,0.028916239738464355
1751278779836859600,2.320859619140625,0.08746719360351562,0.06315863132476807,0.0010808110237121582
1751278779855684400,2.339684326171875,0.07485294342041016,-0.0066748857498168945,0.012697577476501465
1751278779874508800,2.3585087890625,0.06835365295410156,0.029443860054016113,-0.05987849831581116
1751278779893333500,2.37733349609375,0.06161975860595703,0.04195845127105713,-0.030337512493133545
1751278779912158200,2.396158203125,0.017174720764160156,-0.0013263821601867676,-0.004799395799636841
1751278779930982700,2.414982666015625,-0.011422157287597656,-0.014138460159301758,0.03843161463737488
1751278779949807400,2.433807373046875,0.12932682037353516,0.033091843128204346,-0.014938831329345703
1751278779968631800,2.4526318359375,0.1199655532836914,0.0006154179573059082,-0.1235852837562561
1751278779987456500,2.47145654296875,-0.10260391235351562,-0.025864481925964355,-0.0016427338123321533
1751278780006281000,2.490281005859375,-0.1636953353881836,-0.009714484214782715,0.040321558713912964
1751278780025105700,2.509105712890625,0.009206771850585938,0.010484576225280762,-0.04990667104721069
1751278780043930000,2.52793017578125,0.036571502685546875,-0.000255584716796875,0.028290152549743652
1751278780062754800,2.5467548828125,-0.029590606689453125,-0.02611398696899414,0.04846671223640442
1751278780081579500,2.56557958984375,-0.02843189239501953,-0.004175782203674316,-0.02992263436317444
1751278780100404000,2.584404052734375,-0.05057716369628906,0.05217897891998291,-0.0554465651512146
1751278780119228700,2.603228759765625,-0.10944843292236328,0.006972014904022217,0.01638004183769226
1751278780138053000,2.62205322265625,-0.0828847885131836,-0.051853954792022705,0.06405174732208252
1751278780156877800,2.6408779296875,0.1248025894165039,0.00864344835281372,0.021420001983642578
1751278780175702300,2.659702392578125,0.29716014862060547,-0.030567467212677002,0.04385519027709961
1751278780194527000,2.67852685546875,0.09140491485595703,-0.036743998527526855,-0.0018290281295776367
1751278780213351400,2.697351318359375,-0.00033092498779296875,-0.002894878387451172,0.020705431699752808
1751278780232176000,2.716176025390625,-0.04291534423828125,0.016164779663085938,0.03386908769607544
1751278780251000600,2.73500048828125,0.0049877166748046875,0.001350104808807373,0.04309797286987305
1751278780269825300,2.7538251953125,-0.07039642333984375,0.03939920663833618,-0.05825147032737732
1751278780288650000,2.77264990234375,-0.11445236206054688,0.012005627155303955,-0.10911247134208679
1751278780307474400,2.791474365234375,-0.07697582244873047,-0.02711963653564453,-0.09577381610870361
1751278780326299100,2.810299072265625,0.18802452087402344,-0.13849252462387085,-0.09666606783866882
1751278780345123600,2.82912353515625,0.176513671875,-0.10107022523880005,-0.24587351083755493
1751278780363948300,2.8479482421875,-0.22440719604492188,-0.18742454051971436,0.2223617434501648
1751278780382772700,2.866772705078125,-0.25483131408691406,-0.02483189105987549,-0.12564003467559814
1751278780401597400,2.885597412109375,-0.056189537048339844,0.18509256839752197,-0.004212707281112671
1751278780420422000,2.904421875,0.0858755111694336,0.20219719409942627,0.03394061326980591
1751278780439246600,2.92324658203125,0.40839481353759766,0.06336712837219238,0.0794222354888916
1751278780458071300,2.9420712890625,0.16209793090820312,0.18741530179977417,-0.03462663292884827
1751278780476895700,2.960895751953125,0.058615684509277344,0.07838672399520874,0.13976925611495972
1751278780495720400,2.979720458984375,0.14186668395996094,0.09074282646179199,-0.002478867769241333
1751278780514545000,2.998544921875,0.08735466003417969,0.05441778898239136,0.011611908674240112
1751278780533369600,3.01736962890625,-0.18356704711914062,-0.11552244424819946,0.15351784229278564
1751278780552194300,3.0361943359375,-0.4166688919067383,0.05189579725265503,-0.012595802545547485
1751278780571018800,3.055018798828125,-0.33534812927246094,-0.03188449144363403,0.05675584077835083
1751278780589843500,3.073843505859375,-0.06162452697753906,-0.04955470561981201,-0.04145285487174988
1751278780608668000,3.09266796875,-0.035653114318847656,-0.04729181528091431,0.013950377702713013
1751278780627492600,3.11149267578125,-0.3325462341308594,-0.12500518560409546,0.04118570685386658
1751278780646317000,3.130317138671875,-0.12141132354736328,-0.10699731111526489,-0.016556739807128906
1751278780665141800,3.149141845703125,0.3618888854980469,0.032231688499450684,-0.1432139277458191
1751278780683966200,3.16796630859375,0.32515811920166016,-0.009992897510528564,-0.0936836302280426
1751278780702791000,3.186791015625,0.11876296997070312,-0.03627419471740723,-0.05318403244018555
1751278780721615600,3.20561572265625,0.12471485137939453,0.1291380524635315,-0.05908438563346863
1751278780740440000,3.224440185546875,0.2283620834350586,0.07240909337997437,-0.062848299741745
1751278780759264800,3.2432646484375,0.08601188659667969,-0.024267494678497314,-0.0444149374961853
1751278780778089200,3.262089111328125,-0.10641670227050781,-0.029057204723358154,-0.024278908967971802
1751278780796914000,3.280913818359375,-0.13451194763183594,0.01719212532043457,0.026374131441116333
1751278780815738600,3.299738525390625,-0.03202247619628906,0.030477702617645264,-0.04221472144126892
1751278780834563000,3.31856298828125,-0.03613853454589844,-0.05720740556716919,0.0182916522026062
1751278780853387800,3.3373876953125,-0.12759971618652344,-0.06818252801895142,0.011736154556274414
1751278780872212200,3.356212158203125,-0.11409759521484375,-0.008787333965301514,0.008887439966201782
1751278780891037000,3.375036865234375,-0.11497879028320312,-0.06144547462463379,0.10407215356826782
1751278780909861400,3.393861328125,0.03740406036376953,0.00976252555847168,0.045472800731658936
1751278780928686000,3.41268603515625,0.10956192016601562,0.021219730377197266,0.001318424940109253
1751278780947510800,3.4315107421875,0.1281881332397461,-0.025648832321166992,0.050361841917037964
1751278780966335200,3.450335205078125,0.021286964416503906,-0.02171272039413452,-0.01854202151298523
1751278780985160000,3.469159912109375,-0.039793968200683594,0.05394613742828369,-0.030801445245742798
1751278781003984400,3.487984375,0.02704620361328125,0.045988380908966064,0.032641828060150146
1751278781022809000,3.50680908203125,-0.011812210083007812,0.0896754264831543,0.019948840141296387
1751278781041633800,3.5256337890625,-0.02144145965576172,0.046056270599365234,-0.023385435342788696
1751278781060458200,3.544458251953125,-0.03018474578857422,-0.019447803497314453,-0.031781286001205444
1751278781079283000,3.563282958984375,0.05420970916748047,-0.07287740707397461,-0.028179019689559937
1751278781098107400,3.582107421875,0.05708599090576172,-0.05604904890060425,-0.007351011037826538
1751278781116932000,3.60093212890625,0.008667945861816406,-0.052816689014434814,0.028619498014450073
1751278781135756800,3.6197568359375,0.008678436279296875,0.02025526762008667,-0.05878043174743652
1751278781154581200,3.638581298828125,-0.043526649475097656,0.04876214265823364,0.014228612184524536
1751278781173406000,3.657406005859375,-0.06097698211669922,-0.03708451986312866,0.013575047254562378
1751278781192230400,3.67623046875,-0.03633689880371094,0.03616976737976074,-0.02074456214904785
1751278781211055000,3.69505517578125,-0.026702880859375,0.013887345790863037,0.016101151704788208
1751278781229879600,3.713879638671875,0.006656646728515625,0.03135305643081665,-0.018615514039993286
1751278781248704300,3.732704345703125,0.09933853149414062,0.03265237808227539,-0.05413937568664551
1751278781267529000,3.751529052734375,-0.02556610107421875,0.017959892749786377,-0.03123575448989868
1751278781286353400,3.770353515625,-0.07050132751464844,-0.06533694267272949,0.05290743708610535
1751278781305178000,3.78917822265625,0.02070331573486328,-0.058117032051086426,0.03344494104385376
1751278781324002600,3.80800244140625,0.016020774841308594,-0.0038456320762634277,-0.04034841060638428
1751278781342827300,3.8268271484375,-0.07380390167236328,-0.045255303382873535,0.013727545738220215
1751278781361652000,3.84565185546875,-0.05712699890136719,-0.03229629993438721,0.007177501916885376
1751278781380476400,3.864476318359375,0.0379180908203125,0.047392308712005615,0.02296549081802368
1751278781399301000,3.883301025390625,0.10634422302246094,0.0821579098701477,0.03315615653991699
1751278781418125600,3.90212548828125,0.14040279388427734,0.02270299196243286,-0.0010930299758911133
1751278781436950300,3.9209501953125,0.04305267333984375,-0.0036951303482055664,-0.03167107701301575
1751278781455775000,3.93977490234375,-0.07877922058105469,-0.0018645524978637695,0.00966709852218628
1751278781474599400,3.958599365234375,-0.062150001525878906,0.043445050716400146,-0.0012546777725219727
1751278781493424000,3.977424072265625,0.010071754455566406,0.017378807067871094,-0.029347002506256104
1751278781512248600,3.99624853515625,0.06586456298828125,-0.006579399108886719,0.03666773438453674
1751278781531073300,4.0150732421875,0.08231735229492188,-0.03533512353897095,-0.005889445543289185
1751278781549898000,4.03389794921875,-0.05090522766113281,0.0033330321311950684,-0.020774811506271362
1751278781568722400,4.052722412109375,-0.04941558837890625,-0.0036502480506896973,-0.09206250309944153
1751278781587547100,4.071547119140625,-0.14690876007080078,-0.025571107864379883,0.02997615933418274
1751278781606371600,4.09037158203125,-0.06763553619384766,-0.045527100563049316,0.0455893874168396
1751278781625196300,4.1091962890625,0.05989551544189453,0.014992952346801758,-0.05566871166229248
1751278781644021000,4.12802099609375,0.015959739685058594,-0.023123562335968018,-0.03213846683502197
1751278781662845400,4.146845458984375,-0.13243770599365234,-0.02528083324432373,0.06041407585144043
1751278781681670100,4.165670166015625,-0.029287338256835938,-0.008041739463806152,-0.02734312415122986
1751278781700494600,4.18449462890625,0.06888580322265625,0.015549898147583008,-0.025299489498138428
1751278781719319300,4.2033193359375,0.0609893798828125,0.011123061180114746,0.042775511741638184
1751278781738144000,4.22214404296875,0.03972339630126953,-0.025222361087799072,0.07348558306694031
1751278781756968400,4.240968505859375,0.16825008392333984,-0.02383565902709961,-0.01987054944038391
1751278781775793200,4.259793212890625,0.09265327453613281,0.030577540397644043,0.0016477704048156738
1751278781794617900,4.278617919921875,-0.012495040893554688,0.036836445331573486,0.03520113229751587
1751278781813442300,4.2974423828125,-0.09540843963623047,0.03374648094177246,-0.03446206450462341
1751278781832267000,4.31626708984375,-0.11032390594482422,-0.0009388327598571777,-0.013170480728149414
1751278781851091500,4.335091552734375,-0.06927108764648438,0.05492985248565674,0.008832573890686035
1751278781869916200,4.353916259765625,0.0071315765380859375,0.003491997718811035,0.057169973850250244
1751278781888740900,4.372740966796875,0.0534515380859375,-0.01560664176940918,0.02280297875404358
1751278781907565300,4.3915654296875,-0.01797771453857422,0.0023584365844726562,-0.043547123670578
1751278781926390000,4.41039013671875,-0.05961036682128906,-0.0508575439453125,-0.010129958391189575
1751278781945214500,4.42921435546875,-0.0014696121215820312,-0.04709404706954956,-0.03391024470329285
1751278781964039200,4.4480390625,0.10164833068847656,0.025798320770263672,-0.048572152853012085
1751278781982864000,4.46686376953125,0.04649639129638672,0.05397474765777588,-0.014225274324417114
1751278782001688300,4.485688232421875,0.00705718994140625,0.021525144577026367,-0.01909273862838745
1751278782020513000,4.504512939453125,0.011031150817871094,-0.01444166898727417,-0.013671159744262695
1751278782039337500,4.52333740234375,-0.0028972625732421875,-0.06272906064987183,0.025328099727630615
1751278782058162200,4.542162109375,-0.0120086669921875,-0.023362934589385986,-0.02104896306991577
1751278782076987000,4.56098681640625,-0.025419235229492188,-0.001096487045288086,0.01855960488319397
1751278782095811300,4.579811279296875,0.02662372589111328,0.03509020805358887,-0.045705437660217285
1751278782114636000,4.598635986328125,0.00179290771484375,0.02385556697845459,-0.023930341005325317
1751278782133460500,4.61746044921875,-0.06331634521484375,-0.03727281093597412,0.02697160840034485
1751278782152285200,4.63628515625,-0.07935714721679688,0.059507906436920166,0.0620846152305603
1751278782171110000,4.65510986328125,0.09647846221923828,0.060090482234954834,-0.00460892915725708
1751278782189934300,4.673934326171875,0.0933218002319336,0.025928616523742676,-0.00995337963104248
1751278782208759000,4.692759033203125,0.001560211181640625,-0.033477842807769775,-0.002516448497772217
1751278782227583700,4.711583740234375,-0.007909774780273438,-0.03205472230911255,-0.035206139087677
1751278782246408200,4.730408203125,0.052916526794433594,0.02888929843902588,0.03210645914077759
1751278782265233000,4.74923291015625,0.07433414459228516,0.021645963191986084,0.014194071292877197
1751278782284057300,4.768057373046875,-0.04430198669433594,0.00209653377532959,-0.011930704116821289
1751278782302882000,4.786882080078125,-0.12215232849121094,-0.0179252028465271,-0.05948781967163086
1751278782321706800,4.805706787109375,-0.14638328552246094,-0.017668962478637695,-0.01809757947921753
1751278782340531200,4.82453125,-0.03910255432128906,0.009684443473815918,-0.0078524649143219
1751278782359356000,4.84335595703125,0.05501556396484375,-0.01927638053894043,0.007433712482452393
1751278782378180600,4.8621806640625,0.034404754638671875,-0.03792470693588257,0.0028256773948669434
1751278782397005000,4.881005126953125,0.033677101135253906,0.011467397212982178,-0.01634359359741211
1751278782415829800,4.899829833984375,0.03731346130371094,0.021989285945892334,0.04240494966506958
1751278782434654500,4.918654541015625,-0.03326129913330078,-0.012293577194213867,0.0005792379379272461
1751278782453479000,4.93747900390625,-0.027454376220703125,0.023406147956848145,-0.007474780082702637
1751278782472303600,4.9563037109375,0.09487056732177734,0.04802817106246948,-0.004239082336425781
1751278782491128000,4.975128173828125,0.17083168029785156,-0.008957147598266602,-0.012217044830322266
1751278782509952800,4.993952880859375,0.02529430389404297,-0.04052770137786865,-0.022653937339782715
1751278782528777500,5.012777587890625,-0.13855743408203125,-0.03786057233810425,-0.018066227436065674
1751278782547602000,5.031601806640625,-0.11974525451660156,0.0519137978553772,0.01701873540878296
1751278782566426600,5.050426513671875,0.0236358642578125,0.0463641881942749,-0.040106773376464844
1751278782585251000,5.0692509765625,0.04574871063232422,0.021510422229766846,-0.02975192666053772
1751278782604075800,5.08807568359375,-0.007357597351074219,-0.05251723527908325,0.051955342292785645
1751278782622900500,5.106900390625,-0.020913124084472656,-0.04281371831893921,0.022173821926116943
1751278782641725000,5.125724853515625,0.01735687255859375,0.016197919845581055,-0.022165775299072266
1751278782660549600,5.144549560546875,-0.09007835388183594,0.009453773498535156,0.023684382438659668
1751278782679374300,5.163374267578125,-0.008004188537597656,0.04818004369735718,-0.03422975540161133
1751278782698198800,5.18219873046875,-0.013375282287597656,-0.049246132373809814,0.015988171100616455
1751278782717023500,5.2010234375,0.015234947204589844,-0.0880119800567627,0.0007865428924560547
1751278782735848000,5.219847900390625,0.07025718688964844,0.011044859886169434,0.013388574123382568
1751278782754672600,5.238672607421875,0.0685586929321289,0.025554955005645752,0.00036907196044921875
1751278782773497300,5.257497314453125,0.08053302764892578,0.04523497819900513,-0.07744914293289185
1751278782792321800,5.27632177734375,0.0645303726196289,0.014380276203155518,-0.01118534803390503
1751278782811146500,5.295146484375,0.02932262420654297,0.03516322374343872,0.005739748477935791
1751278782829971200,5.31397119140625,-0.10152816772460938,-0.0262068510055542,0.07020789384841919
1751278782848795600,5.332795654296875,-0.027679443359375,-0.020293891429901123,-0.0101737380027771
1751278782867620400,5.351620361328125,-0.04053020477294922,0.0010253190994262695,-0.012536078691482544
1751278782886444800,5.37044482421875,-0.09482002258300781,-0.014412641525268555,0.017280995845794678
1751278782905269500,5.38926953125,-0.0775766372680664,0.019497334957122803,0.04068946838378906
1751278782924094200,5.40809423828125,0.08385086059570312,0.04245460033416748,0.012146592140197754
1751278782942918700,5.426918701171875,0.20202922821044922,0.027044594287872314,-0.04583132266998291
1751278782961743400,5.445743408203125,0.13096332550048828,-0.03594565391540527,-0.04401278495788574
1751278782980568000,5.464568115234375,0.030256271362304688,-0.02214944362640381,0.014909148216247559
1751278782999392500,5.483392578125,-0.06702232360839844,0.01746678352355957,0.0323796272277832
1751278783018217200,5.50221728515625,-0.0871896743774414,0.04208254814147949,-0.003433048725128174
1751278783037042000,5.5210419921875,-0.06514263153076172,0.011304378509521484,-0.04585087299346924
1751278783055866400,5.539866455078125,-0.04012012481689453,-0.04120051860809326,-0.015303611755371094
1751278783074691000,5.558691162109375,0.05874443054199219,-0.052648723125457764,-0.010565638542175293
1751278783093515500,5.577515625,0.06126213073730469,-0.02574211359024048,-0.029407411813735962
1751278783112340200,5.59634033203125,0.09247112274169922,-0.027440428733825684,0.005257666110992432
1751278783131165000,5.6151650390625,-0.0027036666870117188,-0.03194350004196167,-0.01245066523551941
1751278783149989400,5.6339892578125,-0.20645809173583984,-0.03967338800430298,0.02078723907470703
1751278783168814000,5.65281396484375,-0.07732200622558594,0.006563067436218262,0.03897351026535034
1751278783187638800,5.671638671875,0.154876708984375,0.048325538635253906,-0.06447160243988037
1751278783206463200,5.690463134765625,0.07647418975830078,0.01834738254547119,-0.028183579444885254
1751278783225288000,5.709287841796875,-0.0496673583984375,-0.02912193536758423,0.042897164821624756
1751278783244112600,5.728112548828125,-0.12084102630615234,-0.017271697521209717,0.026491105556488037
1751278783262937000,5.74693701171875,0.03297710418701172,0.05580252408981323,0.008625149726867676
1751278783281761800,5.76576171875,0.2043018341064453,0.0009409189224243164,-0.052105844020843506
1751278783300586500,5.78458642578125,0.14630126953125,-0.04775744676589966,-0.062463343143463135
1751278783319411000,5.803410888671875,-0.020064353942871094,-0.13834911584854126,-0.06213843822479248
1751278783338235600,5.822235595703125,0.062450408935546875,-0.01518392562866211,-0.0005075335502624512
1751278783357060400,5.841060302734375,0.1524066925048828,0.08331137895584106,-0.00547868013381958
1751278783375884800,5.859884765625,0.16974353790283203,0.02412283420562744,-0.03284883499145508
1751278783394709500,5.87870947265625,0.04165458679199219,-0.07812589406967163,0.042729586362838745
1751278783413534200,5.8975341796875,-0.10920524597167969,-0.10447043180465698,0.08418023586273193
1751278783432358700,5.916358642578125,-0.008342742919921875,-0.025189876556396484,0.038922667503356934
1751278783451183400,5.935183349609375,0.13529396057128906,0.047382354736328125,-0.01059722900390625
1751278783470008000,5.954008056640625,0.08817768096923828,0.016866207122802734,-0.03687092661857605
1751278783488832500,5.97283251953125,-0.05328655242919922,-0.05926156044006348,0.008627235889434814
1751278783526481700,6.010481689453125,-0.2200775146484375,0.02455008029937744,0.06325259804725647
1751278783545306400,6.029306396484375,-0.11043071746826172,-0.01753699779510498,0.04451915621757507
1751278783564131000,6.048131103515625,0.10224533081054688,-0.046478986740112305,-0.02476632595062256
1751278783582955500,6.06695556640625,0.21535778045654297,-0.05178213119506836,-0.04852926731109619
1751278783601780200,6.0857802734375,0.1499156951904297,0.009672164916992188,-0.09266829490661621
1751278783620605000,6.10460498046875,0.28477954864501953,-0.011662125587463379,-0.03359335660934448
1751278783639429400,6.123429443359375,0.0873708724975586,-0.08991432189941406,0.024480462074279785
1751278783658254000,6.142254150390625,0.038908958435058594,-0.07983827590942383,0.027630597352981567
1751278783677078800,6.161078857421875,-0.17557811737060547,0.0019377470016479492,0.07082679867744446
1751278783695903200,6.1799033203125,-0.2479696273803711,0.02098679542541504,0.04885971546173096
1751278783714728000,6.19872802734375,-0.2654886245727539,0.08453059196472168,0.05478471517562866
1751278783733552600,6.217552734375,-0.10331439971923828,0.09892868995666504,0.08221954107284546
1751278783752377000,6.236377197265625,0.11863994598388672,0.010233879089355469,-0.013587921857833862
1751278783771201800,6.255201904296875,0.16211891174316406,-0.015843868255615234,0.06518447399139404
1751278783790026500,6.274026611328125,0.03397655487060547,-0.0010378360748291016,0.07811206579208374
1751278783808851000,6.292850830078125,0.01584339141845703,0.05288100242614746,-0.0029039382934570312
1751278783827675600,6.311675537109375,-0.05950164794921875,-0.024652957916259766,0.06061109900474548
1751278783846500400,6.330500244140625,-0.04023456573486328,-0.013295888900756836,-0.00254252552986145
1751278783865324800,6.34932470703125,0.05699729919433594,-0.00571441650390625,0.015125781297683716
1751278783884149500,6.3681494140625,0.052562713623046875,-0.10047721862792969,0.04636940360069275
1751278783902974000,6.386973876953125,-0.05760955810546875,-0.05899405479431152,-0.0230482816696167
1751278783921798700,6.405798583984375,-0.02893829345703125,-0.028108596801757812,-0.0020720958709716797
1751278783940623400,6.424623291015625,-0.00008296966552734375,-0.03677034378051758,0.06097841262817383
1751278783959447800,6.44344775390625,-0.17228031158447266,0.0598907470703125,0.1589500606060028
1751278783978272500,6.4622724609375,-0.14762115478515625,0.07236385345458984,0.08736509084701538
1751278783997097200,6.48109716796875,0.08564376831054688,-0.02744579315185547,0.06423395872116089
1751278784015921700,6.499921630859375,0.2983579635620117,-0.054625749588012695,-0.10575933754444122
1751278784034746400,6.518746337890625,0.35408496856689453,-0.05478787422180176,-0.04231855273246765
1751278784053571000,6.537571044921875,0.18786907196044922,-0.06643867492675781,-0.09429918229579926
1751278784072395500,6.5563955078125,0.01753711700439453,-0.07519340515136719,-0.04282175004482269
1751278784091220200,6.57522021484375,-0.0626058578491211,0.005796194076538086,0.01647666096687317
1751278784110045000,6.594044921875,-0.27881717681884766,0.062197208404541016,0.12376317381858826
1751278784128869400,6.612869384765625,-0.4326810836791992,0.05315256118774414,0.0944783091545105
1751278784147694000,6.631694091796875,-0.09096717834472656,0.0016973018646240234,-0.0690828412771225
1751278784166518800,6.650518798828125,0.07055473327636719,-0.026209354400634766,-0.05214083194732666
1751278784185343200,6.66934326171875,-0.05640220642089844,0.04275345802307129,-0.0030415356159210205
1751278784204168000,6.68816796875,0.04845905303955078,-0.05135989189147949,0.03866276144981384
1751278784222992600,6.70699267578125,0.20466899871826172,-0.12881159782409668,-0.0034164786338806152
1751278784241817000,6.725817138671875,0.0896749496459961,-0.00867009162902832,-0.007159754633903503
1751278784260641800,6.744641845703125,-0.018970489501953125,0.014955282211303711,0.031520307064056396
1751278784279466500,6.763466552734375,-0.154205322265625,0.021625995635986328,-0.00426936149597168
1751278784298291000,6.782291015625,-0.21615219116210938,0.11458754539489746,-0.04217110574245453
1751278784317115600,6.80111572265625,-0.00634765625,-0.011975765228271484,-0.07754653692245483
1751278784335940400,6.8199404296875,0.25635242462158203,-0.13593602180480957,-0.05492997169494629
1751278784354764800,6.838764892578125,0.30218982696533203,-0.25410962104797363,0.1242624968290329
1751278784373589500,6.857589599609375,0.20833683013916016,-0.1999034881591797,0.23871426284313202
1751278784392414200,6.876414306640625,-0.1346120834350586,0.05457592010498047,0.2422066330909729
1751278784411238700,6.89523876953125,-0.027151107788085938,0.30496740341186523,-0.053148314356803894
1751278784430063400,6.9140634765625,0.2281351089477539,0.428011417388916,-0.06028612703084946
1751278784448888000,6.93288818359375,-0.23180294036865234,0.1529388427734375,0.07198476791381836
1751278784467712500,6.95171240234375,-0.21069049835205078,0.11921548843383789,-0.02066776528954506
1751278784486537200,6.970537109375,-0.1258554458618164,-0.017202377319335938,-0.10573950409889221
1751278784505362000,6.98936181640625,-0.010244369506835938,0.03301095962524414,0.11843951791524887
1751278784524186400,7.008186279296875,-0.09512138366699219,0.04527854919433594,0.0898687019944191
1751278784543011000,7.027010986328125,-0.024331092834472656,-0.033077239990234375,0.06166493892669678
1751278784561835800,7.045835693359375,0.5116415023803711,-0.02481555938720703,-0.0837310254573822
1751278784580660200,7.06466015625,0.2530546188354492,0.06001091003417969,0.007266387343406677
1751278784599485000,7.08348486328125,0.11865806579589844,0.06862735748291016,-0.2133486270904541
1751278784618309600,7.1023095703125,0.1174774169921875,-0.09089994430541992,-0.1514797806739807
1751278784637134000,7.121134033203125,0.01947498321533203,-0.09551048278808594,-0.022510388866066933
1751278784655958800,7.139958740234375,-0.2390117645263672,-0.26028919219970703,0.07917837798595428
1751278784674783500,7.158783447265625,-0.05377674102783203,-0.04373645782470703,0.029193073511123657
1751278784693608000,7.17760791015625,0.3969888687133789,0.12023782730102539,-0.2151416689157486
1751278784712432600,7.1964326171875,0.3943500518798828,0.10242271423339844,-0.23035761713981628
1751278784731257300,7.21525732421875,-0.24701738357543945,-0.18894004821777344,-0.0611572265625
1751278784750081800,7.234081787109375,-0.6955957412719727,-0.31702613830566406,0.11699143052101135
1751278784768906500,7.252906494140625,-0.6392183303833008,-0.0817713737487793,0.056411415338516235
1751278784787731200,7.271731201171875,-0.39998579025268555,0.0443882942199707,-0.08433890342712402
1751278784806555600,7.2905556640625,-0.2502431869506836,0.027050495147705078,0.04015618562698364
1751278784825380400,7.30938037109375,-0.14402055740356445,0.029918670654296875,0.007856667041778564
1751278784844205000,7.328205078125,0.153106689453125,-0.04953622817993164,0.0030861496925354004
1751278784863029500,7.347029541015625,0.26104116439819336,-0.039179325103759766,-0.013583064079284668
1751278784881854200,7.365854248046875,-0.11158943176269531,-0.16875839233398438,-0.00442194938659668
1751278784900679000,7.384678955078125,-0.31355810165405273,0.036281585693359375,-0.023885130882263184
1751278784919503400,7.40350341796875,-0.09773731231689453,0.13516712188720703,-0.007508397102355957
1751278784938328000,7.422328125,0.19384098052978516,0.07962417602539062,-0.025522947311401367
1751278784957152800,7.44115283203125,-0.23909235000610352,0.1573495864868164,0.05325174331665039
1751278784975977200,7.459977294921875,-0.08974313735961914,-0.06247997283935547,0.09366875886917114
1751278784994802000,7.478802001953125,0.21459054946899414,-0.013430118560791016,-0.011732250452041626
1751278785013626600,7.497626708984375,0.29590463638305664,0.06370687484741211,-0.09618180990219116
1751278785032451000,7.516451171875,0.004720211029052734,0.0303497314453125,0.01903480291366577
1751278785051275800,7.53527587890625,-0.2940354347229004,-0.012735843658447266,0.23021724820137024
1751278785070100500,7.5541005859375,-0.03793478012084961,0.024779796600341797,0.10250422358512878
1751278785088925200,7.57292529296875,0.18035173416137695,0.08662605285644531,-0.10327985882759094
1751278785107749600,7.59174951171875,0.04070234298706055,-0.08178234100341797,-0.048921793699264526
1751278785126574300,7.61057421875,-0.23437976837158203,-0.014795780181884766,0.015736371278762817
1751278785145399000,7.62939892578125,-0.37637853622436523,-0.06749105453491211,0.029332637786865234
1751278785164223500,7.648223388671875,-0.2280139923095703,-0.16670751571655273,-0.07714250683784485
1751278785183048200,7.667048095703125,-0.06851387023925781,0.04989433288574219,0.09488669037818909
1751278785201873000,7.685872802734375,0.2433791160583496,0.18422794342041016,-0.03792932629585266
1751278785220697300,7.704697265625,0.2058701515197754,0.07410430908203125,-0.07900533080101013
1751278785239522000,7.72352197265625,0.03431415557861328,-0.06072425842285156,0.02769094705581665
1751278785258346800,7.7423466796875,-0.17435312271118164,-0.06787776947021484,-0.030779927968978882
1751278785277171200,7.761171142578125,-0.08495378494262695,0.04051065444946289,-0.10961733758449554
1751278785295996000,7.779995849609375,0.06624126434326172,0.07574224472045898,-0.1400023251771927
1751278785314820600,7.798820556640625,0.047013282775878906,0.027427196502685547,0.01781398057937622
1751278785333645000,7.81764501953125,-0.12572193145751953,-0.04534721374511719,0.033910006284713745
1751278785352469800,7.8364697265625,-0.09648466110229492,0.04411172866821289,0.012312114238739014
1751278785371294500,7.85529443359375,-0.07968711853027344,-0.0004863739013671875,0.1055079996585846
1751278785390119000,7.874118896484375,-0.0949864387512207,-0.011092185974121094,0.09652167558670044
1751278785408943600,7.892943603515625,0.06646060943603516,-0.021664142608642578,0.05369669198989868
1751278785427768300,7.911768310546875,0.14643192291259766,-0.024557113647460938,-0.011564075946807861
1751278785446592800,7.9305927734375,-0.011378765106201172,0.06760692596435547,-0.09840679168701172
1751278785465417500,7.94941748046875,-0.3311767578125,0.046174049377441406,0.061043620109558105
1751278785484242200,7.9682421875,-0.33946847915649414,-0.12096261978149414,0.08964219689369202
1751278785503066600,7.987066650390625,0.05239248275756836,-0.08221673965454102,0.027774155139923096
1751278785521891300,8.005891357421875,0.17538690567016602,0.06045961380004883,-0.03835982084274292
1751278785540716000,8.024716064453125,0.3668088912963867,0.05688190460205078,-0.13795964419841766
1751278785559540700,8.043540771484375,0.21271467208862305,0.04717302322387695,-0.11871236562728882
1751278785578365200,8.062365234375,-0.05223369598388672,0.025568008422851562,0.006459325551986694
1751278785597190000,8.08118994140625,-0.13303375244140625,0.12683773040771484,-0.040457963943481445
1751278785616014600,8.1000146484375,-0.14740848541259766,0.1052088737487793,0.018931537866592407
1751278785634839000,8.118839111328125,-0.14715194702148438,0.032418251037597656,0.03652438521385193
1751278785653663700,8.137663818359375,0.10656023025512695,0.021862030029296875,0.011796802282333374
1751278785672488400,8.156488525390625,0.2857999801635742,0.020420551300048828,0.05785059928894043
1751278785691313000,8.17531298828125,0.19290590286254883,0.04833555221557617,0.010449469089508057
1751278785710137600,8.1941376953125,-0.02624225616455078,0.004586696624755859,-0.06021779775619507
1751278785728962300,8.21296240234375,-0.33801937103271484,-0.021754741668701172,-0.0031026601791381836
1751278785747787000,8.231787109375,-0.4998140335083008,-0.0098114013671875,0.06212723255157471
1751278785766611500,8.250611572265624,-0.23299646377563477,0.03471851348876953,0.010159194469451904
1751278785785436200,8.269436279296874,0.34172868728637695,0.01172018051147461,0.048391193151474
1751278785804260900,8.2882607421875,0.38477325439453125,0.045440673828125,-0.056937575340270996
1751278785823085300,8.307085205078126,0.15740966796875,-0.04311227798461914,-0.04221147298812866
1751278785841910000,8.325909912109376,-0.09971380233764648,-0.025421142578125,0.03826642036437988
1751278785860734700,8.344734619140626,-0.14638519287109375,0.0744180679321289,-0.02715855836868286
1751278785879559200,8.36355908203125,-0.00871133804321289,0.08619403839111328,-0.11150649189949036
1751278785898384000,8.3823837890625,0.20707082748413086,0.019542694091796875,0.012620419263839722
1751278785917208600,8.40120849609375,0.3139071464538574,0.1186823844909668,0.06326550245285034
1751278785936033000,8.420032958984375,0.11625242233276367,0.05392885208129883,-0.02558836340904236
1751278785954857700,8.438857666015625,-0.11165523529052734,-0.048802852630615234,0.02472946047782898
1751278785973682400,8.457682373046875,-0.20466327667236328,-0.052472591400146484,0.0715639591217041
1751278785992507000,8.4765068359375,-0.18149948120117188,0.049323081970214844,0.014930903911590576
1751278786011331600,8.49533154296875,-0.17962074279785156,0.11061286926269531,-0.07854685187339783
1751278786030156300,8.51415625,-0.1369614601135254,-0.05320453643798828,0.08419409394264221
1751278786048981000,8.53298095703125,-0.015005111694335938,-0.08452844619750977,0.044795602560043335
1751278786067805400,8.551805419921875,0.18818044662475586,0.055158138275146484,-0.040912747383117676
1751278786086630100,8.570630126953125,0.11049938201904297,0.027669429779052734,-0.022756993770599365
1751278786105454800,8.589454833984375,-0.003945350646972656,0.003994464874267578,-0.09036368131637573
1751278786124279300,8.608279296875,0.10275554656982422,0.0064220428466796875,-0.0454120934009552
1751278786143104000,8.62710400390625,0.01197957992553711,0.011710166931152344,0.05030575394630432
1751278786161928700,8.6459287109375,-0.06009197235107422,-0.05471611022949219,0.1263655424118042
1751278786180753400,8.66475341796875,-0.025173664093017578,0.0013499259948730469,0.05655542016029358
1751278786199577900,8.683577880859374,0.07526636123657227,0.1562967300415039,-0.11355993151664734
1751278786227815000,8.71181494140625,-0.10406780242919922,0.05358314514160156,-0.08391892910003662
1751278786246639600,8.7306396484375,-0.2697486877441406,-0.06876802444458008,-0.1134735643863678
1751278786265464000,8.749464111328125,-0.29201221466064453,-0.016645431518554688,-0.011665582656860352
1751278786284288800,8.768288818359375,-0.07406806945800781,0.011179924011230469,-0.06420990824699402
1751278786303113500,8.787113525390625,0.16490983963012695,-0.021561622619628906,-0.03114372491836548
1751278786321938000,8.80593798828125,0.25260496139526367,-0.05242013931274414,0.14992356300354004
1751278786340762600,8.8247626953125,0.1316227912902832,-0.028493881225585938,-0.06244009733200073
1751278786359587300,8.84358740234375,-0.12317657470703125,-0.026864051818847656,-0.00531807541847229
1751278786378411800,8.862411865234375,-0.20398759841918945,-0.03983116149902344,0.07926133275032043
1751278786397236500,8.881236572265625,0.1344623565673828,0.03850269317626953,0.015031218528747559
1751278786416061200,8.900061279296875,0.11522912979125977,0.0184173583984375,0.06982335448265076
1751278786434885600,8.9188857421875,-0.017986774444580078,-0.060288429260253906,0.11473822593688965
1751278786453710300,8.93771044921875,-0.0012221336364746094,-0.038956642150878906,0.05709436535835266
1751278786472535000,8.95653515625,0.09485197067260742,-0.0038204193115234375,-0.0052652060985565186
1751278786491359700,8.97535986328125,0.24746274948120117,0.10213279724121094,0.038589417934417725
1751278786510184200,8.99418408203125,0.13795995712280273,0.024265289306640625,0.004732578992843628
1751278786529009000,9.0130087890625,-0.13215875625610352,0.047783851623535156,-0.12367331981658936
1751278786547833600,9.03183349609375,-0.1507101058959961,-0.006876945495605469,0.0006265938282012939
1751278786566658000,9.050657958984376,-0.11879253387451172,-0.07542610168457031,0.027710378170013428
1751278786585482800,9.069482666015626,-0.056256771087646484,-0.1269054412841797,0.040284305810928345
1751278786604307500,9.088307373046876,-0.021438121795654297,-0.04727363586425781,-0.033971160650253296
1751278786623132200,9.107132080078125,-0.04304790496826172,-0.08310413360595703,-0.07335811853408813
1751278786641956600,9.12595654296875,-0.16875982284545898,-0.05452919006347656,-0.05605041980743408
1751278786660781300,9.14478125,-0.18790435791015625,-0.014627456665039062,0.03963276743888855
1751278786679606000,9.16360595703125,-0.06639814376831055,-0.023047447204589844,0.07215955853462219
1751278786698430500,9.182430419921875,0.13498830795288086,0.027152061462402344,0.053903818130493164
1751278786717255200,9.201255126953125,0.02881479263305664,0.08762359619140625,-0.06907868385314941
1751278786736080000,9.220079833984375,-0.1613144874572754,0.027611732482910156,-0.09734398126602173
1751278786754904600,9.238904541015625,-0.2105112075805664,-0.040390968322753906,-0.05197632312774658
1751278786773729000,9.25772900390625,0.05891752243041992,0.0214691162109375,0.042053014039993286
1751278786792553700,9.2765537109375,0.23943758010864258,-0.04464149475097656,0.0017029345035552979
1751278786811378400,9.29537841796875,0.03711080551147461,0.018627166748046875,0.00827738642692566
1751278786830203000,9.314202880859375,-0.10338020324707031,0.03240394592285156,-0.033052414655685425
1751278786849027600,9.333027587890625,0.039258480072021484,0.0034646987915039062,0.05194133520126343
1751278786867852300,9.351852294921875,0.3503718376159668,0.06781291961669922,-0.028465598821640015
1751278786886676700,9.3706767578125,0.19172239303588867,0.10306167602539062,-0.15535666048526764
1751278786905501400,9.38950146484375,-0.06539154052734375,0.1088571548461914,-0.03198787569999695
1751278786924326100,9.408326171875,-0.15054750442504883,-0.032958030700683594,0.06143185496330261
1751278786943150800,9.42715087890625,-0.07839059829711914,-0.0552215576171875,0.04542320966720581
1751278786961975300,9.445975341796874,-0.2017803192138672,-0.0877370834350586,0.029933691024780273
1751278786980800000,9.464800048828126,-0.3705883026123047,0.005093574523925781,-0.1322191059589386
1751278786999624700,9.483624755859376,-0.19459009170532227,-0.016539573669433594,0.08565011620521545
1751278787018449400,9.502449462890626,0.09657955169677734,-0.0631093978881836,0.04527357220649719
1751278787037273900,9.52127392578125,0.19823408126831055,-0.026251792907714844,-0.03543062508106232
1751278787056098600,9.5400986328125,0.049312591552734375,0.04438209533691406,-0.08380840718746185
1751278787074923300,9.55892333984375,-0.044030189514160156,0.051489830017089844,-0.036885395646095276
1751278787093747700,9.577747802734375,0.24370574951171875,0.10426616668701172,-0.0033205151557922363
1751278787112572400,9.596572509765625,0.1650257110595703,-0.011599540710449219,-0.028876081109046936
1751278787131397000,9.615397216796875,0.12926864624023438,0.0016222000122070312,-0.16672948002815247
1751278787150221600,9.6342216796875,0.0736393928527832,0.02996826171875,-0.07451339066028595
1751278787169046300,9.65304638671875,0.06525373458862305,0.0668935775756836,0.048307716846466064
1751278787187871000,9.67187109375,0.16077184677124023,0.02016735076904297,0.08136186003684998
1751278787206695700,9.69069580078125,0.24735307693481445,-0.00547027587890625,0.004872113466262817
1751278787225520000,9.70952001953125,0.23341989517211914,0.09824371337890625,-0.09185297787189484
1751278787244344800,9.7283447265625,0.14533519744873047,0.1753091812133789,-0.08895199000835419
1751278787263169500,9.74716943359375,-0.05641603469848633,0.09866809844970703,-0.13940675556659698
1751278787281994200,9.765994140625,-0.09997081756591797,-0.022672653198242188,-0.06376762688159943
1751278787300818700,9.784818603515625,-0.11818361282348633,-0.0728006362915039,0.060188084840774536
1751278787319643400,9.803643310546875,-0.11739778518676758,0.013998031616210938,0.08965104818344116
1751278787338468000,9.822468017578124,0.01755666732788086,-0.015306472778320312,0.04707661271095276
1751278787357292800,9.841292724609374,0.04319620132446289,-0.12061023712158203,0.04607650637626648
1751278787376117200,9.8601171875,-0.11857199668884277,-0.16466426849365234,0.028982877731323242
1751278787394942000,9.87894189453125,-0.25667548179626465,0.06148815155029297,-0.04602186381816864
1751278787423178800,9.9071787109375,-0.2844870090484619,0.12900352478027344,-0.029231727123260498
1751278787442003500,9.92600341796875,-0.006215095520019531,0.02652263641357422,0.0295274555683136
1751278787460828200,9.944828125,0.43088817596435547,0.07082176208496094,0.03815537691116333
1751278787479652900,9.96365283203125,0.3680083751678467,-0.08248233795166016,-0.023526519536972046
1751278787498477300,9.982477294921875,-0.03979134559631348,-0.1827106475830078,0.046968430280685425
1751278787517302000,10.001302001953125,-0.08320975303649902,-0.06260013580322266,0.004812449216842651
1751278787536126700,10.020126708984375,0.4559330940246582,0.046169281005859375,-0.08602477610111237
1751278787554951400,10.038951416015625,0.30309104919433594,0.05391216278076172,0.05580931901931763
1751278787573776000,10.05777587890625,-0.39793968200683594,-0.35481929779052734,0.4003487229347229
1751278787592600600,10.0766005859375,-0.07243776321411133,-0.1724414825439453,0.3197994828224182
1751278787611425300,10.09542529296875,-0.6200094223022461,0.25417232513427734,-0.4022652506828308
1751278787630250000,10.11425,0.06019306182861328,-0.06966590881347656,-0.41531306505203247
1751278787649074400,10.133074462890624,0.00962209701538086,-0.09584617614746094,-0.18873567879199982
1751278787667899100,10.151899169921874,0.19938230514526367,0.0665597915649414,-0.12181337177753448
1751278787686723800,10.170723876953126,0.3852212429046631,0.10673904418945312,-0.1384783834218979
1751278787705548300,10.18954833984375,0.1466064453125,-0.0132293701171875,-0.01831027865409851
1751278787724373000,10.208373046875,-0.13265419006347656,-0.07769107818603516,0.07048535346984863
1751278787743197700,10.22719775390625,-0.03879094123840332,-0.15387821197509766,0.06929397583007812
1751278787762022400,10.2460224609375,-0.24752116203308105,-0.30684566497802734,0.3536584973335266
1751278787780846800,10.264846923828125,-0.3078491687774658,-0.22727489471435547,0.1818758249282837
1751278787799671600,10.283671630859375,-0.18535065650939941,-0.11466789245605469,0.020329564809799194
1751278787818496300,10.302496337890625,-0.20284605026245117,0.17378902435302734,-0.1851262003183365
1751278787837321000,10.321321044921875,-0.2050633430480957,0.2017049789428711,-0.05305638909339905
1751278787856145400,10.3401455078125,0.1390552520751953,0.038806915283203125,0.06297904253005981
1751278787874970000,10.35897021484375,0.5519416332244873,-0.003543853759765625,-0.013495296239852905
1751278787893794800,10.377794921875,0.5487160682678223,-0.0363006591796875,-0.03498077392578125
1751278787912619500,10.39661962890625,-0.229819655418396,-0.15322589874267578,-0.08655145764350891
1751278787931444000,10.41544384765625,-0.6691756248474121,-0.04820442199707031,-0.13603317737579346
1751278787950268700,10.4342685546875,-0.38359761238098145,0.009479522705078125,-0.11626303195953369
1751278787969093400,10.45309326171875,0.043564796447753906,0.1097269058227539,-0.02448195219039917
1751278787987917800,10.471917724609375,0.13981926441192627,-0.6341972351074219,0.5980837345123291
1751278788006742500,10.490742431640625,0.3913402557373047,0.11992645263671875,-0.1273515522480011
1751278788025567200,10.509567138671875,-0.08646583557128906,-0.04211711883544922,-0.17846697568893433
1751278788044392000,10.528391845703124,-0.38166916370391846,-0.13095760345458984,-0.33289575576782227
1751278788063216400,10.54721630859375,-0.6981501579284668,-0.06651115417480469,-0.16389968991279602
1751278788082041000,10.566041015625,-0.7053676843643188,-0.11337947845458984,-0.03055804967880249
1751278788100865800,10.58486572265625,-0.2819039821624756,-0.07703018188476562,-0.102794349193573
1751278788119690500,10.6036904296875,0.3639400601387024,0.059828758239746094,-0.1674666702747345
1751278788138515000,10.622514892578126,0.6064205765724182,0.08018875122070312,-0.0016808807849884033
1751278788157339600,10.641339599609376,0.2556672692298889,-0.09191417694091797,0.0997765064239502
1751278788176164400,10.660164306640626,-0.3839365243911743,-0.15312576293945312,-0.01890045404434204
1751278788194989000,10.678989013671876,-0.2982822060585022,-0.08463287353515625,-0.041165173053741455
1751278788213813500,10.6978134765625,0.24448424577713013,-0.09762382507324219,0.049121975898742676
1751278788232638200,10.71663818359375,0.6194041967391968,0.17960357666015625,-0.09200602769851685
1751278788251463000,10.735462890625,0.4034423232078552,0.20292282104492188,-0.22129172086715698
1751278788270287600,10.75428759765625,-0.18098165094852448,-0.05373668670654297,-0.1105656623840332
1751278788289112000,10.773112060546875,-0.6051266193389893,-0.1363821029663086,0.20748281478881836
1751278788307936800,10.791936767578125,-0.2527316212654114,0.0059947967529296875,0.054265379905700684
1751278788326761500,10.810761474609375,-0.06390366703271866,0.13842201232910156,0.02536863088607788
1751278788345586200,10.829586181640625,0.07059274613857269,0.023069381713867188,-0.002622455358505249
1751278788364410600,10.84841064453125,-0.034781306982040405,-0.019944190979003906,-0.0643150806427002
1751278788383235300,10.8672353515625,-0.23374046385288239,-0.047515869140625,-0.13460925221443176
1751278788402060000,10.88606005859375,-0.3264596462249756,0.016022682189941406,-0.02626129984855652
1751278788420884500,10.904884521484375,-0.14980855584144592,0.11237907409667969,-0.15169566869735718
1751278788439709200,10.923709228515625,-0.1796966791152954,-0.14488697052001953,0.18019521236419678
1751278788458534000,10.942533935546875,-0.10146400332450867,0.1431598663330078,0.017613202333450317
1751278788477358600,10.961358642578125,0.11027207970619202,0.023766517639160156,-0.0852603018283844
1751278788496183300,10.980183349609375,0.02441692352294922,-0.0865488052368164,-0.03521409630775452
1751278788515007700,10.9990078125,0.15068385004997253,-0.062465667724609375,0.01799309253692627
1751278788533832400,11.01783251953125,0.10820919275283813,-0.04846000671386719,-0.016098886728286743
1751278788552657200,11.0366572265625,0.1533900499343872,-0.04301166534423828,-0.08674395084381104
1751278788571481900,11.05548193359375,0.1578918695449829,-0.050228118896484375,-0.08887746930122375
1751278788590306300,11.074306396484374,0.05755293369293213,-0.0011796951293945312,-0.18447165191173553
1751278788609131000,11.093131103515624,-0.24050140380859375,-0.018039703369140625,-0.27055448293685913
1751278788627955700,11.111955810546876,-0.39707034826278687,-0.09632396697998047,-0.16100378334522247
1751278788646780200,11.1307802734375,-0.12897861003875732,-0.05471038818359375,0.014688253402709961
1751278788665604900,11.14960498046875,0.4175793528556824,-0.05527210235595703,-0.006001085042953491
1751278788684429600,11.1684296875,0.28929924964904785,-0.05410289764404297,0.04236164689064026
1751278788703254300,11.187254150390626,-0.24799764156341553,-0.0664987564086914,0.007483959197998047
1751278788722079000,11.206078857421875,-0.25577378273010254,0.14132118225097656,0.034950047731399536
1751278788740903400,11.2249033203125,0.03836023807525635,0.17291545867919922,-0.017230510711669922
1751278788759728000,11.24372802734375,0.2107940912246704,0.011988639831542969,-0.21018342673778534
1751278788778552800,11.262552734375,-0.16348326206207275,0.08461189270019531,-0.00560152530670166
1751278788797377500,11.28137744140625,-0.33421337604522705,0.08733844757080078,0.1372126042842865
1751278788816202000,11.300201904296875,0.12463176250457764,-0.15206432342529297,-0.14993196725845337
1751278788835026700,11.319026611328125,0.08649921417236328,0.08820438385009766,-0.1893712431192398
1751278788853851400,11.337851318359375,0.2622884511947632,0.22721004486083984,-0.09392929077148438
1751278788872676000,11.356676025390625,0.09159815311431885,-0.013596534729003906,-0.2341473251581192
1751278788891500500,11.37550048828125,-0.3204507827758789,-0.3520832061767578,-0.12597382068634033
1751278788910325200,11.3943251953125,-0.7517077922821045,-0.2535972595214844,0.10839229822158813
1751278788929150000,11.41314990234375,-0.22910118103027344,-0.009786605834960938,-0.145718514919281
1751278788947974700,11.431974609375,0.16423344612121582,-0.08177947998046875,-0.12443581223487854
1751278788966799400,11.45079931640625,0.1138300895690918,0.06883907318115234,0.005061298608779907
1751278788985623800,11.469623779296874,0.15190696716308594,0.07906913757324219,0.06031039357185364
1751278789004448500,11.488448486328124,0.0009515285491943359,-0.07206916809082031,-0.0887511670589447
1751278789023273200,11.507273193359374,0.10039448738098145,-0.12794113159179688,-0.11007535457611084
1751278789042097700,11.52609765625,-0.0001366138458251953,-0.17033958435058594,0.023876458406448364
1751278789060922400,11.54492236328125,-0.11258387565612793,-0.15528011322021484,0.14074748754501343
1751278789079747000,11.5637470703125,0.0711205005645752,0.21939563751220703,-0.3322151303291321
1751278789098571800,11.58257177734375,-0.13749074935913086,0.19482421875,-0.15110167860984802
1751278789117396500,11.601396484375,-0.2165055274963379,0.07779121398925781,-0.039128661155700684
1751278789136221000,11.620220947265626,0.10809898376464844,0.08808326721191406,0.0525088906288147
1751278789155045600,11.639045654296876,0.247664213180542,-0.16016387939453125,0.020068734884262085
1751278789173870300,11.657870361328126,-0.003540515899658203,-0.07485294342041016,0.24433478713035583
1751278789192695000,11.676695068359376,-0.034076690673828125,-0.030500411987304688,-0.09009996056556702
1751278789211519500,11.69551953125,0.02114129066467285,0.0764913558959961,-0.1690729260444641
1751278789230344200,11.71434423828125,-0.3921661376953125,0.08514404296875,0.08018040657043457
1751278789249169000,11.7331689453125,-0.30141615867614746,0.14646434783935547,0.21920901536941528
1751278789267993600,11.75199365234375,-0.1774156093597412,0.04766654968261719,-0.20301373302936554
1751278789286818300,11.770818359375,-0.2563753128051758,0.031219482421875,-0.1566431075334549
1751278789305642800,11.789642822265625,-0.11188626289367676,0.04210853576660156,0.17614588141441345
1751278789324467500,11.808467529296875,0.8919112682342529,-0.055502891540527344,-0.1820337474346161
1751278789343292200,11.827292236328125,0.6419928073883057,-0.06618309020996094,-0.3326525092124939
1751278789362116900,11.846116943359375,-0.12036585807800293,0.0053424835205078125,-0.21039845049381256
1751278789380941300,11.86494140625,-0.09262967109680176,0.00534820556640625,-0.08135384321212769
1751278789399766000,11.88376611328125,-0.4245331287384033,-0.016927719116210938,0.03572264313697815
1751278789418590700,11.9025908203125,-0.18372154235839844,-0.17825031280517578,0.23650971055030823
1751278789437415400,11.92141552734375,0.2745084762573242,-0.10634803771972656,-0.17095725238323212
1751278789456240000,11.940240234375,0.0276486873626709,-0.05012702941894531,-0.11981682479381561
1751278789475064600,11.959064697265624,0.0340883731842041,-0.21563720703125,0.3144398331642151
1751278789493889300,11.97788916015625,0.43883395195007324,-0.304931640625,0.08506110310554504
1751278789512714000,11.9967138671875,0.24494433403015137,-0.40115928649902344,-0.1755756139755249
1751278789531538700,12.01553857421875,-0.3174114227294922,0.00569915771484375,0.041290923953056335
1751278789550363100,12.034363037109374,-0.5194182395935059,0.4631967544555664,0.1598559319972992
1751278789569187800,12.053187744140626,-0.23929977416992188,0.4314918518066406,0.1873692274093628
1751278789588012500,12.072012451171876,-0.4788341522216797,0.0917367935180664,-0.3239917755126953
1751278789606837200,12.090837158203126,-1.2004990577697754,-0.15999603271484375,-0.5008079409599304
1751278789625662000,12.109661865234376,-0.8285212516784668,0.19453811645507812,-0.2670246362686157
1751278789644486700,12.128486572265626,0.1572260856628418,0.08812141418457031,0.29332008957862854
1751278789663311000,12.14731103515625,1.1847732067108154,-0.3915443420410156,0.20538803935050964
1751278789682135800,12.1661357421875,0.7858965396881104,-0.46234607696533203,0.001913607120513916
1751278789700960500,12.18496044921875,0.39394140243530273,-0.016847610473632812,0.01731589436531067
1751278789719785200,12.20378515625,0.008599281311035156,-0.0415191650390625,-0.10240064561367035
1751278789738610000,12.22260986328125,0.2507443428039551,-0.29303550720214844,-0.29956498742103577
1751278789757434400,12.241434326171875,-0.9390501976013184,-0.2982664108276367,0.27820634841918945
1751278789776259000,12.260259033203125,-0.6249384880065918,0.2254161834716797,-0.18425452709197998
1751278789795083800,12.279083740234375,-0.497220516204834,0.31522560119628906,-0.6163333058357239
1751278789813908500,12.297908447265625,-0.4635944366455078,-0.12576007843017578,-0.28048527240753174
1751278789832733000,12.31673291015625,-0.1337418556213379,-0.2064046859741211,0.30438321828842163
1751278789851557600,12.3355576171875,0.22026443481445312,-0.17206192016601562,0.15753783285617828
1751278789870382300,12.35438232421875,0.4559450149536133,-0.24765491485595703,0.11774902045726776
1751278789889207000,12.37320703125,0.5300555229187012,-0.07665729522705078,0.4657248854637146
1751278789908031700,12.39203173828125,0.19107580184936523,0.005734443664550781,0.004974335432052612
1751278789926856400,12.4108564453125,-0.04220771789550781,-0.1884317398071289,-0.2612535059452057
1751278789945681000,12.429680908203125,-0.1573810577392578,0.23331546783447266,-0.3038652539253235
1751278789964505600,12.448505615234374,-0.1604766845703125,0.3977947235107422,-0.23436316847801208
1751278789983330300,12.467330322265624,-0.7498350143432617,0.1792583465576172,-0.40363436937332153
1751278790002155000,12.486155029296874,-0.7149128913879395,-0.057671546936035156,-0.3602542579174042
1751278790020979700,12.504979736328124,-0.018301010131835938,-0.19569778442382812,-0.024340420961380005
1751278790039804200,12.52380419921875,0.8419928550720215,0.09174728393554688,0.08485011011362076
1751278790058628900,12.54262890625,0.4699702262878418,0.7946014404296875,-0.13617834448814392
1751278790077453600,12.56145361328125,0.24821805953979492,-0.08554458618164062,0.12010190635919571
1751278790096278300,12.5802783203125,-0.7948412895202637,-0.09569931030273438,0.14435996115207672
1751278790115103000,12.59910302734375,-0.12493896484375,-0.8240799903869629,0.3812324106693268
1751278790133927700,12.617927734375,-0.6258769035339355,1.2573184967041016,-0.6494554281234741
1751278790152752000,12.636752197265626,0.2331247329711914,0.16938209533691406,-0.1867462694644928
1751278790171576800,12.655576904296876,-0.5756487846374512,-0.04187440872192383,0.01159331202507019
1751278790190401500,12.674401611328125,-0.41486358642578125,-0.2588796615600586,-0.13286620378494263
1751278790209226200,12.693226318359375,-0.23041963577270508,-0.39390134811401367,-0.3493691384792328
1751278790228051000,12.712051025390625,0.362152099609375,-1.243232250213623,0.5517271757125854
1751278790246875400,12.73087548828125,0.34776973724365234,0.4580955505371094,-0.21443431079387665
1751278790265700000,12.7497001953125,0.5420646667480469,0.20857810974121094,-0.5059308409690857
1751278790284524800,12.76852490234375,0.07157325744628906,-0.4502582550048828,0.14197096228599548
1751278790303349500,12.787349609375,-1.465888500213623,0.5103368759155273,-0.9200549125671387
1751278790322174200,12.80617431640625,0.38375091552734375,-0.1051473617553711,-0.4059363603591919
1751278790340998700,12.82499853515625,-0.507594108581543,0.5571017265319824,-0.4607272148132324
1751278790359823400,12.8438232421875,0.716914176940918,-0.22444963455200195,-0.07925625890493393
1751278790378648000,12.86264794921875,1.0757884979248047,-1.1052265167236328,0.6324069499969482
1751278790397472800,12.88147265625,-0.435549259185791,0.4516792297363281,0.13108199834823608
1751278790416297500,12.90029736328125,-0.14426469802856445,0.5650739669799805,-0.1540488600730896
1751278790435122200,12.9191220703125,0.018653392791748047,0.6176371574401855,-0.08213527500629425
1751278790453946600,12.937946533203124,-0.11844110488891602,0.2089853286743164,0.0364258736371994
1751278790472771300,12.956771240234374,-0.49926042556762695,0.09242820739746094,-0.07253655046224594
1751278790491596000,12.975595947265624,-0.10283327102661133,0.016031742095947266,-0.05029517412185669
1751278790510420700,12.994420654296874,0.10356569290161133,-0.10452413558959961,0.02389717847108841
1751278790529245400,13.013245361328124,-0.01200723648071289,-0.3752927780151367,-0.24942296743392944
1751278790548070100,13.032070068359374,0.5829319953918457,-0.4358506202697754,-0.263114869594574
1751278790566894600,13.05089453125,0.13089275360107422,-0.4911012649536133,-0.6247727870941162
1751278790585719300,13.06971923828125,0.07733154296875,0.2816276550292969,-0.3682093620300293
1751278790604544000,13.0885439453125,-0.23575353622436523,0.19837188720703125,-0.03717665374279022
1751278790623368700,13.10736865234375,-0.3275470733642578,-0.36240530014038086,0.3215354382991791
1751278790642193400,13.126193359375,0.19764280319213867,-0.20746278762817383,-0.0668492317199707
1751278790661018000,13.14501806640625,0.4396028518676758,0.23218631744384766,0.016285881400108337
1751278790679842600,13.163842529296875,-0.6806120872497559,0.6580824851989746,0.5255498886108398
1751278790698667300,13.182667236328125,-0.616610050201416,0.14423656463623047,0.2808588147163391
1751278790717492000,13.201491943359375,-0.1722855567932129,0.16159439086914062,-0.09011971205472946
1751278790736316700,13.220316650390625,-0.2536897659301758,0.21842718124389648,-0.33610522747039795
1751278790755141400,13.239141357421875,0.30146265029907227,-0.3666701316833496,-0.4935225248336792
1751278790773966000,13.257966064453125,0.7130446434020996,-0.3566622734069824,-0.5979706645011902
1751278790792790500,13.27679052734375,0.7114596366882324,-0.01175069808959961,-0.13467112183570862
1751278790811615200,13.295615234375,0.4006648063659668,-0.015925884246826172,-0.040141746401786804
1751278790830440000,13.31443994140625,-0.17830801010131836,-0.20040369033813477,-0.38688182830810547
1751278790849264600,13.3332646484375,-0.25329065322875977,-0.2811894416809082,-0.5406954884529114
1751278790868089300,13.35208935546875,-0.013946056365966797,-0.18868446350097656,0.17758961021900177
1751278790886914000,13.3709140625,0.0354619026184082,0.07404375076293945,0.22162866592407227
1751278790905738800,13.38973876953125,-0.6470394134521484,-0.12888288497924805,0.3460139036178589
1751278790924563200,13.408563232421875,-0.9963850975036621,0.24916553497314453,0.265217661857605
1751278790943388000,13.427387939453125,-0.6319918632507324,0.20499897003173828,0.5061168670654297
1751278790962212600,13.446212646484375,0.23043394088745117,0.046906471252441406,0.23390871286392212
1751278790981037300,13.465037353515624,0.5476574897766113,-0.06997156143188477,-0.42898327112197876
1751278790999862000,13.483862060546874,-0.1147470474243164,-0.16801834106445312,-0.21882177889347076
1751278791018686700,13.502686767578124,-0.07753610610961914,0.09857559204101562,0.30683910846710205
1751278791037511200,13.52151123046875,-0.265408992767334,-0.07627058029174805,0.08503314852714539
1751278791056336000,13.5403359375,-0.4811530113220215,0.052893638610839844,-0.8470151424407959
1751278791075160600,13.55916064453125,-0.5715036392211914,-0.2762031555175781,-1.0263049602508545
1751278791093985300,13.5779853515625,-0.06388282775878906,-0.3004279136657715,-0.293160617351532
1751278791112810000,13.59681005859375,0.41323423385620117,-0.49680089950561523,-0.9826838970184326
1751278791131634700,13.615634765625,0.003734588623046875,-0.8991494178771973,-0.297124445438385
1751278791150459400,13.63445947265625,-0.26055908203125,-0.39843177795410156,0.39031147956848145
1751278791169284000,13.6532841796875,-0.06757402420043945,0.11759090423583984,0.5424838066101074
1751278791188108500,13.672108642578126,0.18565797805786133,0.695063591003418,0.3770102858543396
1751278791206933200,13.690933349609375,-0.23000383377075195,0.6412725448608398,-0.02936798334121704
1751278791225758000,13.709758056640625,-0.6607480049133301,0.072723388671875,-0.6227391362190247
1751278791244582700,13.728582763671875,0.3383164405822754,0.14859485626220703,-0.29998356103897095
1751278791263407400,13.747407470703125,0.9158434867858887,-0.015727519989013672,-0.24016547203063965
1751278791282232000,13.766232177734375,0.35226917266845703,-0.16042518615722656,-0.13201463222503662
1751278791301056500,13.785056396484375,0.32166576385498047,-0.24048805236816406,-0.6452264785766602
1751278791319881200,13.803881103515625,-0.24809932708740234,-0.20097732543945312,-0.5604832768440247
1751278791338706000,13.822705810546875,-0.7610507011413574,0.09354305267333984,-0.22860395908355713
1751278791357530600,13.841530517578125,-0.6442317962646484,0.5109648704528809,-0.16318058967590332
1751278791376355300,13.860355224609375,0.019063472747802734,0.6037659645080566,-0.3517332077026367
1751278791395180000,13.879179931640625,0.6214613914489746,0.2702317237854004,-0.12602591514587402
1751278791414004700,13.898004638671875,0.48000335693359375,0.2572059631347656,0.1435358226299286
1751278791432829200,13.9168291015625,0.10994911193847656,-0.14179706573486328,0.12677395343780518
1751278791451654000,13.93565380859375,-0.11570930480957031,-0.6568393707275391,-0.03332263231277466
1751278791470478600,13.954478515625,-0.45918941497802734,-0.4601731300354004,0.3866626024246216
1751278791489303300,13.97330322265625,-0.5538086891174316,0.03847932815551758,0.44880062341690063
1751278791508128000,13.9921279296875,-0.42357587814331055,0.19112062454223633,-0.09673731029033661
1751278791526952700,14.01095263671875,-0.0990896224975586,-0.277742862701416,-0.20065423846244812
1751278791545777400,14.02977734375,0.4547572135925293,-0.5453672409057617,-0.020896926522254944
1751278791564602000,14.04860205078125,0.0743560791015625,-0.39713335037231445,0.32023870944976807
1751278791583426800,14.0674267578125,-0.33597469329833984,-0.3767681121826172,0.29480981826782227
1751278791602251300,14.086251220703126,-0.48850059509277344,-0.6120595932006836,-0.08249108493328094
1751278791621076000,14.105075927734376,0.07197141647338867,0.16244935989379883,0.07430580258369446
1751278791639900700,14.123900634765626,0.6379351615905762,0.9286599159240723,-0.4398897588253021
1751278791658725400,14.142725341796876,0.6523885726928711,0.9293999671936035,-0.8906745910644531
1751278791677550000,14.161550048828126,-0.028310775756835938,0.12891435623168945,-0.381381630897522
1751278791696374800,14.180374755859376,-0.4423036575317383,-0.40891170501708984,-0.17731107771396637
1751278791715199200,14.19919921875,0.7088446617126465,-0.21105480194091797,0.012697100639343262
1751278791734024000,14.21802392578125,1.8154215812683105,0.17602014541625977,-0.5410016775131226
1751278791752848600,14.2368486328125,4.24368953704834,0.2352452278137207,-2.966273784637451
1751278791771673300,14.25567333984375,-1.134934425354004,-0.39388465881347656,1.0172889232635498
1751278791790498000,14.274498046875,-2.257033348083496,0.3051023483276367,-0.11747390031814575
1751278791809322800,14.29332275390625,-2.736936569213867,0.06148242950439453,-0.6962475180625916
1751278791828147500,14.3121474609375,-1.4916200637817383,-0.5441489219665527,0.5738443732261658
1751278791846972200,14.33097216796875,0.1948385238647461,-0.6783654689788818,1.0712192058563232
1751278791865796900,14.349796875,0.062142372131347656,-0.7605981826782227,1.0146892070770264
1751278791884621300,14.368621337890625,-0.27091503143310547,-0.6598374843597412,0.8384240865707397
1751278791903446000,14.387446044921875,0.32092857360839844,-0.6448755264282227,-0.23277395963668823
1751278791922270700,14.406270751953125,0.5848970413208008,-0.5407857894897461,-0.12024664878845215
1751278791941095400,14.425095458984375,0.2662620544433594,-0.30222415924072266,-0.47299861907958984
1751278791959920000,14.443920166015625,-0.3811759948730469,-0.28783559799194336,-0.2749907970428467
1751278791978744800,14.462744873046875,-0.7407445907592773,-0.35535573959350586,0.2481931447982788
1751278791997569500,14.481569580078125,-0.5447149276733398,-0.07689666748046875,0.029389500617980957
1751278792016394000,14.50039404296875,-0.24752521514892578,0.015044689178466797,-0.10848522186279297
1751278792035218700,14.51921875,1.331446647644043,-0.02997446060180664,-0.861040472984314
1751278792054043400,14.53804345703125,2.78314208984375,-0.03302192687988281,-1.2542492151260376
1751278792072868000,14.5568681640625,1.4525132179260254,0.15600204467773438,0.07641923427581787
1751278792091692800,14.57569287109375,-0.2551116943359375,0.5876491069793701,-2.42045259475708
1751278792119929900,14.603929931640625,-1.0961580276489258,0.1492905616760254,-2.1830172538757324
1751278792138754600,14.622754638671875,-1.4954252243041992,-1.5130424499511719,4.057196617126465
1751278792157579300,14.641579345703125,-0.2234783172607422,-0.23987197875976562,1.1900099515914917
1751278792176403700,14.66040380859375,-0.835810661315918,-0.015013933181762695,0.4692775011062622
1751278792195228400,14.679228515625,-0.8075618743896484,-0.20842337608337402,0.16870331764221191
1751278792214053000,14.69805322265625,-0.8867883682250977,-0.8237254619598389,-0.7708494663238525
1751278792232877800,14.7168779296875,0.2792501449584961,-1.0887277126312256,0.36697471141815186
1751278792251702500,14.73570263671875,1.7182197570800781,-0.044146060943603516,0.5585768222808838
1751278792270527200,14.75452734375,1.397489070892334,0.24895739555358887,-0.44902610778808594
1751278792289352000,14.77335205078125,-0.19863033294677734,-0.4473285675048828,0.16454076766967773
1751278792308176600,14.7921767578125,-0.868077278137207,-0.18468928337097168,-0.24309325218200684
1751278792327001300,14.81100146484375,-0.005333900451660156,-0.14446139335632324,-0.8017840385437012
1751278792345825800,14.82982568359375,1.275810718536377,-0.2707176208496094,-1.6431365013122559
1751278792364650500,14.848650390625,1.3767752647399902,-0.06040668487548828,-0.9126843214035034
1751278792383475200,14.86747509765625,1.6921796798706055,0.3410818576812744,-0.8529841899871826
1751278792402300000,14.8862998046875,0.0655517578125,0.20885109901428223,-0.3516056537628174
1751278792421124600,14.90512451171875,-0.8023977279663086,0.1476527452468872,-0.22591376304626465
1751278792439949300,14.92394921875,-1.6166200637817383,-0.24988389015197754,0.7473671436309814
1751278792458774000,14.94277392578125,-2.102597236633301,-0.36555397510528564,1.6238927841186523
1751278792477598700,14.9615986328125,-1.949814796447754,0.18563342094421387,1.1457626819610596
1751278792496423400,14.98042333984375,-1.0152502059936523,-0.13881981372833252,0.9314374923706055
1751278792515247900,14.999247802734375,-0.20296382904052734,-0.41445159912109375,0.03385519981384277
1751278792534072600,15.018072509765625,0.5311565399169922,-0.041347503662109375,-1.0017712116241455
1751278792552897300,15.036897216796875,0.7582740783691406,0.14112913608551025,-0.34014225006103516
1751278792571722000,15.055721923828125,0.8347635269165039,0.028993546962738037,-0.6051552295684814
1751278792590546700,15.074546630859375,0.6676340103149414,-0.0789111852645874,-0.7347609996795654
1751278792609371400,15.093371337890625,-0.3366413116455078,-0.529794454574585,-0.5401127338409424
1751278792628196000,15.112196044921875,-0.5462980270385742,-0.7117143869400024,-0.10921907424926758
1751278792647020800,15.131020751953125,-0.7527732849121094,-0.6720520257949829,-0.05820441246032715
1751278792665845500,15.149845458984375,-0.008356094360351562,-0.562078595161438,-0.23063921928405762
1751278792684670000,15.168669921875,0.40291786193847656,-0.8813468217849731,-0.005915164947509766
1751278792703494700,15.18749462890625,0.5498828887939453,-0.45179879665374756,-0.18092679977416992
1751278792722319400,15.2063193359375,-0.07853889465332031,0.096284881234169,0.011363506317138672
1751278792741144000,15.22514404296875,-0.5549840927124023,0.7160100936889648,0.026300907135009766
1751278792759968800,15.24396875,-0.6812906265258789,0.838030993938446,-0.2902710437774658
1751278792778793500,15.26279345703125,-0.6202201843261719,0.4828115403652191,-0.37146615982055664
1751278792797618200,15.2816181640625,-0.27653026580810547,-0.041641101241111755,-0.6959586143493652
1751278792816443000,15.30044287109375,0.24502086639404297,-0.3812033534049988,-0.5439965724945068
1751278792835267600,15.319267578125,0.6015501022338867,-0.4179311990737915,-1.067101001739502
1751278792854092000,15.338092041015624,0.9031586647033691,0.09887044131755829,-0.6912102699279785
1751278792872916700,15.356916748046874,0.3435955047607422,0.44925981760025024,0.6606283187866211
1751278792891741400,15.375741455078124,-0.43817138671875,-0.10046553611755371,0.3967118263244629
1751278792910566100,15.394566162109374,-0.8020439147949219,-0.3192388415336609,0.011988162994384766
1751278792929390800,15.413390869140626,-0.6995992660522461,-0.035686343908309937,-0.3721306324005127
1751278792948215600,15.432215576171876,-0.9583225250244141,0.5027473568916321,-0.18232345581054688
1751278792967040300,15.451040283203126,-1.1426267623901367,0.032824933528900146,0.7541608810424805
1751278792985865000,15.469864990234376,-1.2362995147705078,-0.6455072164535522,0.5546622276306152
1751278793004689700,15.488689697265626,0.2907075881958008,-0.8185028433799744,-0.8778765201568604
1751278793023514400,15.507514404296876,1.1426634788513184,-0.6779658198356628,-0.5356872081756592
1751278793042338800,15.5263388671875,1.357131004333496,-0.03428659588098526,-0.2938055992126465
1751278793061163500,15.54516357421875,0.7091121673583984,0.10691969096660614,0.23635530471801758
1751278793079988200,15.56398828125,0.4450349807739258,-0.5296860933303833,0.2567012310028076
1751278793098813000,15.58281298828125,0.08504676818847656,-0.86484694480896,-0.08345150947570801
1751278793117637600,15.6016376953125,0.8935365676879883,-0.5209288597106934,-0.6830954551696777
1751278793136462300,15.62046240234375,-0.5038719177246094,-0.0281161367893219,-0.4396064281463623
1751278793155287000,15.639287109375,-0.04405784606933594,0.12946072220802307,0.0408024787902832
1751278793174111700,15.65811181640625,-1.1737871170043945,-0.08649837970733643,0.13106870651245117
1751278793192936400,15.6769365234375,-1.1111183166503906,0.21962228417396545,0.3240199089050293
1751278793211761000,15.695760986328125,-1.2866191864013672,-0.1162647008895874,0.41077375411987305
1751278793230585600,15.714585693359375,-0.8254575729370117,-0.010691940784454346,0.19640898704528809
1751278793249410300,15.733410400390625,0.2921895980834961,0.16114240884780884,0.14066147804260254
1751278793268235000,15.752235107421875,0.5377826690673828,-0.11964023113250732,-0.33521175384521484
1751278793287059700,15.771059814453125,0.32447147369384766,-0.28878140449523926,-0.08547186851501465
1751278793305884400,15.789884521484375,0.2596855163574219,-0.35142016410827637,-0.009631156921386719
1751278793324709000,15.808709228515625,0.5853052139282227,-0.019843995571136475,-0.6013684272766113
1751278793343533800,15.827533935546874,0.7850131988525391,-0.01625967025756836,-0.28014540672302246
1751278793362358500,15.846358642578124,0.5012350082397461,-0.34612375497817993,-0.27226686477661133
1751278793381183200,15.865183349609374,0.048572540283203125,-0.33806222677230835,-0.7099616527557373
1751278793400008000,15.884008056640624,-0.0072650909423828125,-0.11938536167144775,-0.5333952903747559
1751278793418832600,15.90283251953125,-0.7696771621704102,-0.21121108531951904,0.3014564514160156
1751278793437657000,15.921656982421876,-0.4617786407470703,-0.12342953681945801,0.3924112319946289
1751278793456481800,15.940481689453126,-0.21455669403076172,-0.2398064136505127,0.13753008842468262
1751278793475306500,15.959306396484376,0.15105724334716797,-0.25663650035858154,-0.16593551635742188
1751278793494131200,15.978131103515626,0.10053348541259766,0.23349541425704956,0.33371400833129883
1751278793512956000,15.996955810546876,0.37328243255615234,0.42494142055511475,0.49581050872802734
1751278793531780600,16.015780517578126,0.1369171142578125,0.00544893741607666,0.07173418998718262
1751278793550605300,16.034605224609376,0.5319271087646484,-0.4092980623245239,-0.17461872100830078
1751278793569430000,16.053429931640625,0.5423192977905273,-0.501521110534668,-0.7769002914428711
1751278793588254700,16.072254638671875,0.23727893829345703,-0.582484245300293,-0.1279904842376709
1751278793607079200,16.0910791015625,-0.1496419906616211,-0.2464972734451294,-0.5508153438568115
1751278793625903900,16.10990380859375,-0.1851520538330078,-0.20036029815673828,-0.8030424118041992
1751278793644728600,16.128728515625,-0.09312057495117188,-0.22682738304138184,-0.35278940200805664
1751278793663553300,16.14755322265625,-0.8157129287719727,-0.5990555286407471,-0.0810704231262207
1751278793682378000,16.1663779296875,-0.039200782775878906,-0.46599459648132324,-0.16089916229248047
1751278793701202700,16.18520263671875,0.31676483154296875,-0.2346181869506836,-0.3063690662384033
1751278793720027400,16.20402734375,0.0016279220581054688,-0.2968180179595947,-0.22534680366516113
1751278793738852000,16.22285205078125,0.1063222885131836,0.014422178268432617,0.472259521484375
1751278793757676800,16.2416767578125,0.27483654022216797,-0.5421755313873291,0.09166240692138672
1751278793776501500,16.26050146484375,-0.15794944763183594,-0.2419579029083252,0.33413028717041016
1751278793795326200,16.279326171875,-0.892735481262207,0.03996706008911133,0.22681903839111328
1751278793814151000,16.29815087890625,-0.5287332534790039,-0.20234298706054688,-0.03258633613586426
1751278793832975600,16.3169755859375,0.013490676879882812,-0.3223085403442383,-0.5217370986938477
1751278793851800000,16.335800048828126,0.8227634429931641,-0.040265798568725586,-0.5974068641662598
1751278793870624800,16.354624755859376,0.9276409149169922,-0.057099103927612305,-0.09019255638122559
1751278793889449500,16.373449462890626,0.2801399230957031,-0.10863804817199707,-0.1933143138885498
1751278793908274200,16.392274169921876,0.10333633422851562,0.09417438507080078,-0.2447953224182129
1751278793927099000,16.411098876953126,0.02756786346435547,-0.012488126754760742,0.030574321746826172
1751278793945923600,16.429923583984376,0.1293497085571289,-0.19588780403137207,-0.26134610176086426
1751278793964748300,16.448748291015626,0.005387306213378906,-0.17012500762939453,-0.25649261474609375
1751278793983573000,16.467572998046876,-0.23000812530517578,-0.163438081741333,0.1017160415649414
1751278794002397700,16.486397705078126,-0.7763137817382812,-0.3157179355621338,0.22142744064331055
1751278794021222400,16.505222412109376,-0.6279134750366211,-0.08480691909790039,-0.17203259468078613
1751278794040047000,16.524047119140626,-0.2633342742919922,-0.20461487770080566,-0.22743010520935059
1751278794058871800,16.542871826171876,0.31781673431396484,0.29731321334838867,-0.5944216251373291
1751278794077696300,16.5616962890625,0.3384866714477539,-0.1524968147277832,-0.06786108016967773
1751278794096521000,16.58052099609375,0.47310352325439453,-0.2797698974609375,-0.2655305862426758
1751278794115345700,16.599345703125,0.1029367446899414,-0.4842848777770996,0.39598846435546875
1751278794134170400,16.61817041015625,-0.05432891845703125,-0.37166547775268555,0.2489490509033203
1751278794152995000,16.6369951171875,-0.3213071823120117,-0.1566944122314453,-0.054503679275512695
1751278794171819800,16.65581982421875,0.20576810836791992,0.061032772064208984,-0.19477343559265137
1751278794190644500,16.67464453125,-0.6420497894287109,-0.17945241928100586,-0.3014683723449707
1751278794209469200,16.69346923828125,-0.5037393569946289,-0.14262056350708008,-0.50331711769104
1751278794228294000,16.7122939453125,-0.1880331039428711,-0.07574796676635742,-0.30457520484924316
1751278794247118600,16.73111865234375,-0.08730506896972656,-0.24338865280151367,0.15751051902770996
1751278794265943300,16.749943359375,0.28800439834594727,-0.49866247177124023,0.3567678928375244
1751278794284768000,16.76876806640625,0.6778321266174316,-0.5634727478027344,0.5207629203796387
1751278794303592700,16.7875927734375,0.9271817207336426,-0.25820255279541016,-0.19616341590881348
1751278794322417400,16.80641748046875,0.5650243759155273,-0.34537696838378906,-0.5328292846679688
1751278794341242000,16.8252421875,0.042664527893066406,-0.28316736221313477,-0.4609224796295166
1751278794360066800,16.84406689453125,-0.19062042236328125,0.11513900756835938,-0.3324272632598877
1751278794378891300,16.862891357421876,-0.7085127830505371,0.39423322677612305,-0.40082740783691406
1751278794397716000,16.881716064453126,-0.7792158126831055,0.11690139770507812,0.14736342430114746
1751278794416540700,16.900540771484376,-0.6632847785949707,0.0915365219116211,-0.08434057235717773
1751278794435365400,16.919365478515626,-0.16762971878051758,-0.18990850448608398,-0.06130838394165039
1751278794454190000,16.938190185546876,0.5791192054748535,-0.4230666160583496,0.24665522575378418
1751278794473014800,16.957014892578126,0.2767939567565918,-0.5663542747497559,0.23491835594177246
1751278794491839500,16.975839599609376,-0.4758448600769043,-0.4348769187927246,0.18618226051330566
1751278794510664200,16.994664306640626,-0.7957086563110352,-0.25250959396362305,0.06289386749267578
1751278794529489000,17.013489013671876,-0.8802299499511719,-0.29921817779541016,-0.3761782646179199
1751278794548313600,17.032313720703126,-0.28711605072021484,-0.883913516998291,-0.7736524343490601
1751278794567138300,17.05113818359375,1.0014986991882324,-0.8165616989135742,-0.43489503860473633
1751278794585963000,17.069962890625,1.7069334983825684,-0.029338359832763672,-0.09720611572265625
1751278794604787500,17.088787353515624,0.5370230674743652,0.4601626396179199,-0.7484276294708252
1751278794623612200,17.107612060546874,-0.8502511978149414,0.09336090087890625,-0.7150920629501343
1751278794642436900,17.126436767578124,-0.6693592071533203,-0.42960500717163086,0.5089938640594482
1751278794661261600,17.145261474609374,0.016575336456298828,-0.3987855911254883,0.9690914154052734
1751278794680086300,17.164086181640624,-0.030232906341552734,0.055373191833496094,0.2147235870361328
1751278794698911000,17.182910888671874,0.3330378532409668,0.3092789649963379,-0.6246055364608765
1751278794717735700,17.201735595703123,0.902468204498291,0.697749137878418,-0.8385574817657471
1751278794736560400,17.220560302734373,0.9514589309692383,0.6589326858520508,-0.7492755651473999
1751278794755385000,17.239385009765623,-0.10225534439086914,0.4462742805480957,-0.12284612655639648
1751278794774209800,17.258209716796873,-0.9469680786132812,0.09124612808227539,0.30716049671173096
1751278794793034500,17.277034423828123,-1.1845669746398926,0.2887864112854004,0.2702972888946533
1751278794811859200,17.295859130859377,-0.46222782135009766,0.3680405616760254,-0.09177970886230469
1751278794830684000,17.314683837890627,-0.20522308349609375,0.44563817977905273,0.34665560722351074
1751278794849508600,17.333508544921877,-0.9833369255065918,0.3735475540161133,0.5370171070098877
1751278794868333300,17.352333251953127,-0.364835262298584,-0.23589229583740234,0.6182287931442261
1751278794887158000,17.371157958984377,0.8098058700561523,-0.8036746978759766,0.914878249168396
1751278794905982700,17.389982666015626,0.6317543983459473,-0.37468719482421875,0.6645593643188477
1751278794924807400,17.408807373046876,-0.08621835708618164,0.02624988555908203,-0.06681609153747559
1751278794943632100,17.427632080078126,-0.20456314086914062,-0.1596221923828125,-0.39017200469970703
1751278794962456600,17.44645654296875,-1.8382387161254883,-0.13440227508544922,-0.12521064281463623
1751278794981281300,17.46528125,0.36129045486450195,-0.7370986938476562,0.2311255931854248
1751278795000106000,17.48410595703125,0.13381147384643555,-0.755584716796875,-0.21286725997924805
1751278795018930700,17.5029306640625,-0.039380550384521484,-0.3207235336303711,-0.4249070882797241
1751278795037755400,17.52175537109375,0.2982063293457031,0.1754474639892578,-0.7158321738243103
1751278795056580000,17.540580078125,0.8865323066711426,-0.05299091339111328,-1.1180579662322998
1751278795075404800,17.55940478515625,-1.1411867141723633,0.3622865676879883,-1.5907844305038452
1751278795094229500,17.5782294921875,-0.1070857048034668,0.31528568267822266,-0.9239773750305176
1751278795113054200,17.59705419921875,0.9965786933898926,-0.3617401123046875,-0.07490682601928711
1751278795131879000,17.61587890625,0.7897591590881348,-0.5949916839599609,0.8713570833206177
1751278795150703600,17.63470361328125,-0.2635979652404785,-0.4134998321533203,0.4175602197647095
1751278795169528300,17.6535283203125,-0.19324874877929688,-0.09308433532714844,-0.08762586116790771
1751278795188353000,17.67235302734375,0.37273502349853516,0.2781982421875,-0.694090723991394
1751278795207177700,17.691177734375,0.5963163375854492,0.3485860824584961,-0.8661994934082031
1751278795226002400,17.71000244140625,0.2539701461791992,0.25136756896972656,-0.13445180654525757
1751278795244827100,17.7288271484375,-0.3295927047729492,-0.17523765563964844,0.3454960584640503
1751278795263651800,17.74765185546875,0.2535066604614258,0.1064596176147461,0.276599645614624
1751278795282476500,17.7664765625,0.2669649124145508,0.47279834747314453,0.031202256679534912
1751278795301301000,17.785301025390623,-0.2081291675567627,0.15630245208740234,-0.12595462799072266
1751278795320125700,17.804125732421873,-1.063554048538208,0.09916973114013672,-0.5475554466247559
1751278795338950400,17.822950439453123,0.5447158813476562,0.019827842712402344,-0.09092336893081665
1751278795357775000,17.841775146484373,0.7372231483459473,-0.1440420150756836,0.01670438051223755
1751278795376599800,17.860599853515627,-0.1416492462158203,-0.1728363037109375,0.061885952949523926
1751278795395424500,17.879424560546877,-0.9086508750915527,0.07604694366455078,-0.1697027087211609
1751278795414249200,17.898249267578127,-0.934105396270752,-0.2036457061767578,-0.5825916528701782
1751278795433074000,17.917073974609377,0.5569615364074707,-0.3041362762451172,-0.40543657541275024
1751278795451898600,17.935898681640627,0.988121747970581,-0.5899019241333008,0.11406239867210388
1751278795470723300,17.954723388671876,0.09264636039733887,-0.9137983322143555,0.6730015277862549
1751278795489548000,17.973548095703126,-0.6569278240203857,-0.9257316589355469,0.9397623538970947
1751278795508372700,17.992372802734376,-0.18689727783203125,-0.1798076629638672,0.050005704164505005
1751278795527197400,18.011197509765626,0.8379048109054565,-0.24814319610595703,-0.6424912214279175
1751278795546022100,18.030022216796876,0.558826208114624,-0.3344907760620117,-0.29604893922805786
1751278795564846800,18.048846923828126,0.22147881984710693,-0.2367696762084961,0.046232014894485474
1751278795583671600,18.067671630859376,-0.32910215854644775,-0.06929588317871094,0.20227910578250885
1751278795602496300,18.086496337890626,-0.3305356502532959,-0.15920448303222656,-0.11709389090538025
1751278795621321000,18.105321044921876,-0.18144285678863525,-0.2310047149658203,-0.07666169106960297
1751278795640145700,18.124145751953126,0.46065741777420044,0.032309532165527344,-0.009047538042068481
1751278795658970400,18.142970458984376,0.03212374448776245,0.5747432708740234,-0.8124489784240723
1751278795677795000,18.161795166015626,-0.4107750654220581,0.8481531143188477,-0.049077123403549194
1751278795696619800,18.180619873046876,-0.3829786777496338,0.30473899841308594,-0.05958646163344383
1751278795715444500,18.199444580078126,0.42258161306381226,0.2201099395751953,-0.048698440194129944
1751278795734269200,18.218269287109376,0.6876176595687866,0.14014434814453125,1.2380262613296509
1751278795753094000,18.237093994140626,-0.3895080089569092,-0.3234243392944336,-0.16993644833564758
1751278795771918300,18.25591845703125,-0.34875115752220154,-0.4003753662109375,0.0781324952840805
1751278795790743000,18.274742919921874,0.08662676811218262,-0.3250713348388672,0.11558278650045395
1751278795809567700,18.293567626953124,0.81636643409729,-0.8685884475708008,0.1424524188041687
1751278795828392400,18.312392333984373,0.9055234789848328,-0.641545295715332,-0.14766153693199158
1751278795847217200,18.331217041015623,1.1780611276626587,-0.3090200424194336,0.00785769522190094
1751278795866041900,18.350041748046873,-0.5197808742523193,-0.05379486083984375,-0.08229481428861618
1751278795884866600,18.368866455078123,-0.6540522575378418,0.00878143310546875,0.46773284673690796
1751278795903691300,18.387691162109373,-0.09236592054367065,0.12714481353759766,-0.07154236733913422
1751278795922516000,18.406515869140627,0.3311604857444763,0.09764671325683594,-0.6736078858375549
1751278795941340700,18.425340576171877,0.18950903415679932,0.03649330139160156,-0.48356130719184875
1751278795960165400,18.444165283203127,-0.29876208305358887,-0.22292804718017578,0.02852371335029602
1751278795978990000,18.462989990234377,0.3230588436126709,-0.2692718505859375,0.215147465467453
1751278795997814800,18.481814697265627,-0.03039836883544922,0.09777164459228516,-0.647399365901947
1751278796016639500,18.500639404296876,0.0048944950103759766,0.4456615447998047,0.1843739151954651
1751278796035464200,18.519464111328126,-0.77803635597229,-0.2471141815185547,0.4620496332645416
1751278796054289000,18.538288818359376,-0.6085145473480225,-0.13081741333007812,0.4508794844150543
1751278796073113600,18.557113525390626,0.05983567237854004,-0.20009803771972656,0.2549867331981659
1751278796091938300,18.575938232421876,-0.32993221282958984,-0.047362327575683594,-0.12463778257369995
1751278796110763000,18.594762939453126,-0.6556315422058105,0.20794296264648438,-0.031195223331451416
1751278796129587700,18.613587646484376,-0.40653467178344727,0.09978580474853516,-0.08687320351600647
1751278796148412400,18.632412353515626,0.10048580169677734,-0.15459632873535156,-0.14625826478004456
1751278796167237000,18.651237060546876,0.6673092842102051,-0.2973966598510742,-0.1781734824180603
1751278796186061800,18.670061767578126,0.861008882522583,-0.1865530014038086,-0.2486058473587036
1751278796204886500,18.688886474609376,0.9313271045684814,-0.013175010681152344,0.28890037536621094
1751278796223711200,18.707711181640626,-0.01700758934020996,-0.14304065704345703,0.35158586502075195
1751278796242536000,18.726535888671876,-0.06830382347106934,-0.2931194305419922,0.2606918215751648
1751278796261360600,18.745360595703126,0.5766358375549316,0.018388748168945312,0.14680469036102295
1751278796280185300,18.764185302734376,-0.05721092224121094,-0.17941570281982422,0.13619142770767212
1751278796299010000,18.783010009765626,-0.444242000579834,0.10862922668457031,-0.2697756886482239
1751278796317834800,18.801834716796876,-0.20165586471557617,0.001331329345703125,0.03460833430290222
1751278796336659500,18.820659423828126,-0.13590431213378906,0.14883708953857422,-0.032251179218292236
1751278796355484200,18.839484130859375,0.145066499710083,0.2107534408569336,0.07805794477462769
1751278796374308900,18.858308837890625,0.1499042510986328,0.4871854782104492,-0.00841379165649414
1751278796393133600,18.877133544921875,-0.12184739112854004,0.3881673812866211,-0.4073236584663391
1751278796411958300,18.895958251953125,-0.35590410232543945,-0.2627849578857422,0.0605737566947937
1751278796430782700,18.91478271484375,-0.17969346046447754,-0.4719581604003906,0.28796178102493286
1751278796449607400,18.933607421875,0.7184216976165771,-0.3525533676147461,-0.04112929105758667
1751278796468432400,18.952432373046875,1.1073243618011475,-0.3163299560546875,-0.017776548862457275
1751278796487256800,18.9712568359375,0.6123912334442139,-0.18590068817138672,0.047625720500946045
1751278796506081500,18.99008154296875,0.11217212677001953,0.06683063507080078,0.14371466636657715
1751278796524906200,19.00890625,0.04540824890136719,0.18857479095458984,-0.1286640763282776
1751278796543731000,19.02773095703125,-0.584254264831543,-0.3006458282470703,0.4679817855358124
1751278796562555600,19.0465556640625,-0.5821607112884521,-0.19359493255615234,0.04667305946350098
1751278796581380400,19.06538037109375,0.11948728561401367,-0.17400264739990234,-0.04447174072265625
1751278796600205000,19.084205078125,0.47620391845703125,-0.09372520446777344,0.0053337812423706055
1751278796619029800,19.10302978515625,0.5108189582824707,-0.2212505340576172,0.3145250082015991
1751278796637854500,19.1218544921875,-0.024157047271728516,-0.14210224151611328,0.13682013750076294
1751278796656679200,19.14067919921875,0.30322694778442383,-0.22048664093017578,0.07877987623214722
1751278796675503900,19.15950390625,-0.2126908302307129,0.005644798278808594,-0.055869221687316895
1751278796694328600,19.17832861328125,0.08230400085449219,0.08105278015136719,-0.09474265575408936
1751278796713153300,19.1971533203125,0.019967079162597656,0.23653888702392578,0.03164374828338623
1751278796731978000,19.21597802734375,-0.26846981048583984,0.2090311050415039,0.09425729513168335
1751278796750802700,19.234802734375,-0.26154327392578125,-0.10026741027832031,0.27063173055648804
1751278796769627400,19.25362744140625,0.12536239624023438,-0.0458984375,0.017423152923583984
1751278796788452000,19.2724521484375,0.23427200317382812,-0.1687173843383789,0.0589367151260376
1751278796807276800,19.29127685546875,0.31984853744506836,-0.02994823455810547,0.17080765962600708
1751278796826101500,19.3101015625,0.5032749176025391,-0.06429767608642578,0.18871235847473145
1751278796844926200,19.32892626953125,0.4371981620788574,0.01396942138671875,0.10878968238830566
1751278796863751000,19.3477509765625,0.11030960083007812,-0.043791770935058594,0.04402202367782593
1751278796882575600,19.36657568359375,0.17907381057739258,-0.25305843353271484,0.02477288246154785
1751278796901400300,19.385400390625,0.07184839248657227,-0.253021240234375,-0.08672857284545898
1751278796920225000,19.40422509765625,0.2861332893371582,-0.1692056655883789,-0.03630274534225464
1751278796939049700,19.4230498046875,0.03849172592163086,-0.058956146240234375,0.1860029697418213
1751278796957874400,19.44187451171875,0.04263114929199219,0.2968411445617676,-0.06190502643585205
1751278796976699100,19.46069921875,-0.0036635398864746094,0.21518993377685547,-0.034642159938812256
1751278796995523800,19.47952392578125,0.03317880630493164,-0.016304969787597656,-0.03144282102584839
1751278797014348500,19.4983486328125,0.20538663864135742,-0.07642364501953125,0.06854122877120972
1751278797033173200,19.51717333984375,-0.028676509857177734,-0.0789642333984375,0.09670668840408325
1751278797051998000,19.535998046875,-0.4376640319824219,-0.07341289520263672,0.19472932815551758
1751278797070822700,19.55482275390625,-0.13979673385620117,0.2036895751953125,0.01860255002975464
1751278797089647400,19.5736474609375,0.259519100189209,0.08191537857055664,-0.018491029739379883
1751278797108472000,19.59247216796875,0.3865056037902832,-0.024121761322021484,0.0005798935890197754
1751278797127296800,19.611296875,0.19321489334106445,-0.07169532775878906,-0.025064408779144287
1751278797146121500,19.63012158203125,0.23560667037963867,0.1503133773803711,-0.052200376987457275
1751278797164946200,19.6489462890625,-0.745786190032959,0.8637104034423828,-0.303142786026001
1751278797183771000,19.66777099609375,-0.6598515510559082,-0.02945232391357422,0.4247784912586212
1751278797202595600,19.686595703125,-0.18570375442504883,-0.48189401626586914,0.24348491430282593
1751278797221420300,19.705420166015625,0.33731603622436523,-0.1847238540649414,0.030994057655334473
1751278797240245000,19.724244873046874,0.29134654998779297,-0.08191537857055664,0.03225100040435791
1751278797259069700,19.743069580078124,0.07623529434204102,0.018546104431152344,0.08724647760391235
1751278797277894400,19.761894287109374,-0.05500221252441406,0.1516895294189453,0.012018442153930664
1751278797296719000,19.780718994140624,-0.10656070709228516,0.28241682052612305,-0.01013338565826416
1751278797315543800,19.799543701171874,0.2616915702819824,0.15649080276489258,-0.05407661199569702
1751278797334368500,19.818368408203124,0.4146881103515625,-0.26083946228027344,-0.007872819900512695
1751278797353193200,19.837193115234374,0.35415077209472656,-0.22060871124267578,0.28325730562210083
1751278797372018000,19.856017822265624,0.08641958236694336,-0.18483781814575195,0.6602597236633301
1751278797390842600,19.874842529296874,-0.19338464736938477,-0.25026893615722656,0.33174392580986023
1751278797409667300,19.893667236328124,0.06303596496582031,-0.20995712280273438,0.25703057646751404
1751278797428492000,19.912491943359374,0.4507408142089844,-0.2982053756713867,-0.09576451778411865
1751278797447316700,19.931316650390624,-0.12868165969848633,-0.08207082748413086,-0.2916352152824402
1751278797466141400,19.950141357421874,-0.6751132011413574,0.2539496421813965,-0.08057630062103271
1751278797484966100,19.968966064453124,-0.6519656181335449,0.5163784027099609,-0.18164095282554626
1751278797503790800,19.987790771484374,-0.6773524284362793,0.4169344902038574,-0.11966082453727722
1751278797522615600,20.006615478515624,-0.23792695999145508,0.13333797454833984,0.06675377488136292
1751278797541440300,20.025440185546874,0.24718999862670898,-0.05651664733886719,0.07065775990486145
1751278797560265000,20.044264892578123,0.37093496322631836,-0.14726543426513672,0.2687612473964691
1751278797579089700,20.063089599609373,0.45563507080078125,-0.21502923965454102,0.1002512276172638
1751278797597914400,20.081914306640623,0.3197207450866699,-0.01555776596069336,0.25958648324012756
1751278797616739000,20.100739013671873,0.5468835830688477,0.43036937713623047,-0.32425200939178467
1751278797635563800,20.119563720703123,1.0080246925354004,-0.7669539451599121,0.7847988605499268
1751278797654388500,20.138388427734377,0.2313084602355957,-0.30362749099731445,-0.08602598309516907
1751278797673213200,20.157213134765627,-0.33432483673095703,0.07777070999145508,-0.121919184923172
1751278797692038000,20.176037841796877,-0.4693875312805176,0.012697219848632812,-0.01807418465614319
1751278797710862600,20.194862548828127,-0.38689231872558594,0.1287846565246582,-0.10599875450134277
1751278797729687300,20.213687255859377,-0.4698214530944824,0.2059946060180664,0.07981206476688385
1751278797748512000,20.232511962890626,0.033620357513427734,0.08786296844482422,0.33082103729248047
1751278797767336700,20.251336669921876,0.290250301361084,-0.11583089828491211,0.05412578582763672
1751278797786161400,20.270161376953126,0.6618824005126953,-0.052683353424072266,0.03196379542350769
1751278797804986000,20.288986083984376,0.3867487907409668,0.09446907043457031,0.20249292254447937
1751278797823810800,20.307810791015626,0.06525516510009766,-0.06307744979858398,0.32882237434387207
1751278797842635500,20.326635498046876,0.12514257431030273,-0.19534873962402344,0.2338084578514099
1751278797861460500,20.34546044921875,0.27405309677124023,-0.17959260940551758,-0.023833870887756348
1751278797880285000,20.364284912109376,0.1248784065246582,-0.03685426712036133,0.015802577137947083
1751278797899109600,20.383109619140626,-0.04380226135253906,0.057364463806152344,0.08101825416088104
1751278797917934600,20.4019345703125,-0.2803664207458496,0.016562461853027344,0.0647277981042862
1751278797936759000,20.420759033203126,-0.42752885818481445,0.08405494689941406,0.14481206238269806
1751278797955583700,20.439583740234376,-0.1772470474243164,0.0995793342590332,0.15204325318336487
1751278797974408700,20.45840869140625,-0.054139137268066406,-0.15308380126953125,-0.03692963719367981
1751278797993233400,20.4772333984375,-0.49613237380981445,-0.1085200309753418,-0.005237743258476257
1751278798012058000,20.49605810546875,-0.040950775146484375,0.00892496109008789,0.16775909066200256
1751278798030882800,20.5148828125,-0.021315574645996094,0.26426076889038086,0.017312809824943542
1751278798049707500,20.53370751953125,-0.16291332244873047,0.12232065200805664,0.12754757702350616
1751278798068532200,20.5525322265625,-0.009954452514648438,-0.05237436294555664,0.14926670491695404
1751278798087357000,20.57135693359375,0.1513833999633789,0.08749198913574219,0.013830900192260742
1751278798106181600,20.590181640625,0.07170581817626953,0.12791872024536133,0.08735412359237671
1751278798125006300,20.60900634765625,-0.016373634338378906,0.08445119857788086,0.12868621945381165
1751278798143831000,20.6278310546875,0.10028266906738281,0.021942138671875,0.2577013671398163
1751278798162655700,20.64665576171875,0.18157196044921875,-0.11316823959350586,0.15455836057662964
1751278798181480400,20.66548046875,-0.21558666229248047,-0.3798799514770508,0.5208774209022522
1751278798200305200,20.68430517578125,0.33538818359375,-0.03395271301269531,-0.09413774311542511
1751278798219129900,20.7031298828125,0.16032695770263672,-0.02503681182861328,0.02467849850654602
1751278798237954600,20.72195458984375,-0.13392353057861328,-0.022344589233398438,-0.02988743782043457
1751278798256779300,20.740779296875,0.2266530990600586,0.06326818466186523,-0.06205971539020538
1751278798275604000,20.75960400390625,0.03197002410888672,0.21679449081420898,-0.001724541187286377
1751278798294428700,20.7784287109375,-0.17527484893798828,0.1781144142150879,0.02624165639281273
1751278798313253400,20.79725341796875,-0.35836219787597656,0.13725900650024414,0.053352173417806625
1751278798332078000,20.816078125,0.22162723541259766,0.057477474212646484,0.007348582148551941
1751278798350902800,20.83490283203125,0.08756637573242188,0.11651992797851562,0.0038548260927200317
1751278798369727500,20.8537275390625,-0.28316402435302734,0.13207244873046875,0.0727989673614502
1751278798388552200,20.87255224609375,-0.15030384063720703,-0.020089149475097656,0.004709355533123016
1751278798407377000,20.891376953125,0.1670389175415039,-0.07857799530029297,-0.07070665061473846
1751278798426201600,20.91020166015625,0.12368965148925781,-0.026371479034423828,-0.03134343773126602
1751278798445026300,20.9290263671875,0.16803646087646484,0.06465435028076172,0.06776951253414154
1751278798463851000,20.94785107421875,0.27412986755371094,-0.0839853286743164,0.42259153723716736
1751278798482675700,20.96667578125,0.15326786041259766,0.04868507385253906,0.02842981368303299
1751278798501500400,20.98550048828125,0.13098621368408203,0.057874202728271484,-0.09050647914409637
1751278798520325000,21.0043251953125,-0.1223287582397461,-0.008421897888183594,0.03163675591349602
1751278798539149800,21.02314990234375,-0.12511253356933594,-0.0066204071044921875,0.2722730040550232
1751278798557974500,21.041974609375,0.028217315673828125,0.15973877906799316,0.026805173605680466
1751278798576799200,21.06079931640625,0.08710956573486328,0.07206368446350098,0.0555921271443367
1751278798595624000,21.0796240234375,0.06409072875976562,0.035785675048828125,0.16849437355995178
1751278798614448600,21.09844873046875,-0.2538461685180664,0.020269155502319336,0.10324884951114655
1751278798633273300,21.1172734375,0.2951345443725586,-0.012053251266479492,0.029167409986257553
1751278798652098000,21.13609814453125,0.2523202896118164,-0.10397005081176758,0.10547260195016861
1751278798670922800,21.1549228515625,-0.26215076446533203,-0.13955974578857422,0.04785061255097389
1751278798689747500,21.17374755859375,-0.009734153747558594,-0.013324499130249023,0.09997112303972244
1751278798708572400,21.192572509765625,-0.07642459869384766,0.006380319595336914,0.10578644275665283
1751278798727396900,21.21139697265625,0.10079479217529297,0.03618192672729492,-0.07615135610103607
1751278798746221600,21.2302216796875,-0.0671529769897461,-0.02427816390991211,0.08480431884527206
1751278798765046500,21.249046630859375,-0.02046966552734375,-0.031926870346069336,0.07524162530899048
1751278798783871000,21.26787109375,-0.2857942581176758,-0.030298471450805664,0.08150814473628998
1751278798802696000,21.286696044921875,-0.20119285583496094,0.00013685226440429688,0.17206057906150818
1751278798821520600,21.305520751953125,-0.024473190307617188,0.1760115623474121,0.03590556979179382
1751278798840345300,21.324345458984375,-0.12220287322998047,0.11281251907348633,0.056287407875061035
1751278798859170000,21.343170166015625,-0.2591867446899414,-0.029529094696044922,-0.07530400156974792
1751278798877994800,21.361994873046875,-0.14110088348388672,0.09090280532836914,-0.09673362970352173
1751278798896819500,21.3808193359375,-0.051105499267578125,0.10715341567993164,0.1919129192829132
1751278798915644200,21.39964404296875,-0.11713695526123047,0.13810515403747559,0.3321538269519806
1751278798934468900,21.41846875,0.024323463439941406,0.11180686950683594,0.07329931855201721
1751278798953293600,21.43729345703125,-0.15693378448486328,-0.11981487274169922,0.09453704953193665
1751278798972118300,21.4561181640625,0.039175987243652344,-0.10430288314819336,-0.11717051267623901
1751278798990943000,21.47494287109375,0.04498767852783203,0.09951376914978027,-0.06700751185417175
1751278799009767700,21.493767578125,0.2699270248413086,0.07862639427185059,0.0810823142528534
1751278799028592400,21.51259228515625,0.3736553192138672,0.04287409782409668,-0.012791842222213745
1751278799047417000,21.5314169921875,0.06286811828613281,-0.005030393600463867,0.1344020664691925
1751278799066241800,21.55024169921875,0.13502979278564453,-0.10732853412628174,0.13296020030975342
1751278799085066500,21.56906640625,0.000827789306640625,0.16960358619689941,0.03312724828720093
1751278799103891200,21.58789111328125,0.036975860595703125,0.024954557418823242,0.20707495510578156
1751278799122716000,21.6067158203125,0.0705575942993164,-0.12278389930725098,0.16478705406188965
1751278799141540600,21.62554052734375,0.23912906646728516,0.0009267330169677734,0.0991223156452179
1751278799160365300,21.644365234375,0.008172035217285156,0.02391839027404785,0.06564486026763916
1751278799179190000,21.66318994140625,-0.152130126953125,0.005323171615600586,-0.007330417633056641
1751278799198014700,21.6820146484375,-0.04678630828857422,0.017815709114074707,0.0647267997264862
1751278799216839400,21.70083935546875,0.04751873016357422,0.04140496253967285,0.015724360942840576
1751278799235664100,21.7196640625,0.1661691665649414,0.011826276779174805,0.014146894216537476
1751278799254488800,21.73848876953125,0.043120384216308594,-0.05110371112823486,0.15444770455360413
1751278799273313500,21.7573134765625,-0.0648040771484375,-0.03144681453704834,0.13395345211029053
1751278799292138500,21.776138427734374,0.058371543884277344,0.05016279220581055,0.04784312844276428
1751278799310963200,21.794963134765624,0.01021575927734375,0.11328786611557007,-0.0461144745349884
1751278799329788000,21.813787841796874,-0.027904510498046875,0.08782142400741577,0.05082330107688904
1751278799348612600,21.832612548828124,-0.20215988159179688,0.038780391216278076,-0.02834448218345642
1751278799367437300,21.851437255859373,-0.1416301727294922,0.03713357448577881,0.043767958879470825
1751278799386262000,21.870261962890623,-0.3296365737915039,0.014876008033752441,0.05143299698829651
1751278799405086700,21.889086669921873,-0.39139556884765625,-0.049465060234069824,-0.11795446276664734
1751278799423911400,21.907911376953123,-0.08613014221191406,0.05905163288116455,-0.056547701358795166
1751278799442736000,21.926736083984373,0.43199634552001953,-0.08996516466140747,-0.07967761158943176
1751278799461560800,21.945560791015627,0.5559110641479492,-0.15911108255386353,0.09550580382347107
1751278799480385500,21.964385498046877,0.21243762969970703,0.019310563802719116,0.31092244386672974
1751278799499210200,21.983210205078127,0.39847660064697266,0.06838968396186829,0.06701155006885529
1751278799518035000,22.002034912109377,-0.021300315856933594,0.1116562932729721,-0.03563228249549866
1751278799536859600,22.020859619140627,-0.236602783203125,0.09531617164611816,-0.07911911606788635
1751278799555684400,22.039684326171876,-0.19513511657714844,0.08514334261417389,0.04946617782115936
1751278799574509000,22.058509033203126,-0.040900230407714844,0.16387006640434265,0.12533500790596008
1751278799593333800,22.077333740234376,-0.28179073333740234,0.15575188398361206,0.16723886132240295
1751278799612158500,22.096158447265626,-0.224334716796875,0.21811223030090332,0.14820870757102966
1751278799630983200,22.114983154296876,-0.20590496063232422,0.10765008628368378,-0.014111340045928955
1751278799649808000,22.133807861328126,0.08006668090820312,0.07003557682037354,-0.10525235533714294
1751278799668632800,22.1526328125,0.059058189392089844,-0.01923145353794098,0.11337670683860779
1751278799687457300,22.171457275390626,0.09900188446044922,0.0014797598123550415,0.22815963625907898
1751278799706282200,22.1902822265625,-0.03417682647705078,-0.05752001702785492,0.0914623886346817
1751278799725107000,22.20910693359375,0.12911224365234375,-0.0022899210453033447,-0.10456845164299011
1751278799743931600,22.227931640625,0.4595775604248047,-0.17456655204296112,-0.06426149606704712
1751278799762756400,22.24675634765625,0.2706308364868164,-0.2086101770401001,0.017469018697738647
1751278799781581000,22.2655810546875,0.040810585021972656,0.024463295936584473,-0.11497849225997925
1751278799800405800,22.28440576171875,-0.04902362823486328,0.12736082077026367,-0.059086740016937256
1751278799819230500,22.30323046875,-0.23047828674316406,0.13872873783111572,0.06840939819812775
1751278799838055200,22.32205517578125,-0.22841548919677734,0.06188470125198364,0.11179549992084503
1751278799856879900,22.3408798828125,-0.11417865753173828,0.029903054237365723,0.20575474202632904
1751278799875704600,22.35970458984375,-0.2040700912475586,0.021655023097991943,0.039666175842285156
1751278799894529300,22.378529296875,0.12858200073242188,0.05174386501312256,-0.08375038206577301
1751278799913354000,22.39735400390625,0.0114593505859375,-0.01732492446899414,-0.002932041883468628
1751278799932178700,22.4161787109375,-0.07794570922851562,0.018789231777191162,0.07599633932113647
1751278799951003400,22.43500341796875,-0.028688430786132812,-0.07377874851226807,0.028808221220970154
1751278799969828000,22.453828125,0.01997661590576172,-0.08077758550643921,0.04526132345199585
1751278799988652800,22.47265283203125,0.09447097778320312,-0.017781972885131836,-0.021215125918388367
1751278800007477500,22.4914775390625,-0.09932708740234375,0.041280150413513184,0.0812082588672638
1751278800026302500,22.510302490234373,-0.19767475128173828,0.19952309131622314,0.07360854744911194
1751278800045127000,22.529126953125,-0.21094608306884766,0.19362413883209229,-0.03860357403755188
1751278800063952000,22.547951904296873,0.14973926544189453,0.04835093021392822,-0.1623830497264862
1751278800082776600,22.566776611328127,0.31690406799316406,-0.09606075286865234,0.08730572462081909
1751278800101601300,22.585601318359377,0.2287282943725586,-0.16895508766174316,0.07090397924184799
1751278800120426000,22.604426025390627,0.0047454833984375,-0.00002384185791015625,-0.07129399478435516
1751278800139250700,22.623250732421877,-0.1591053009033203,0.11906826496124268,0.0639474019408226
1751278800158075400,22.642075439453127,-0.14182090759277344,0.051250338554382324,-0.015070810914039612
1751278800176900000,22.660900146484376,-0.1011209487915039,-0.21557271480560303,0.2743896543979645
1751278800195724800,22.679724853515626,-0.14670562744140625,0.19448542594909668,-0.06296566128730774
1751278800214549500,22.698549560546876,-0.002841949462890625,0.10833144187927246,-0.21010065078735352
1751278800233374200,22.717374267578126,-0.039035797119140625,0.14646601676940918,-0.05568835139274597
1751278800252199000,22.736198974609376,-0.16788101196289062,-0.021442413330078125,0.4132859408855438
1751278800271023600,22.755023681640626,-0.5533828735351562,0.15042829513549805,0.12880516052246094
1751278800289848300,22.773848388671876,-0.189544677734375,0.2847104072570801,-0.3346271216869354
1751278800308673000,22.792673095703126,0.01729869842529297,0.28445422649383545,-0.33980128169059753
1751278800327498000,22.811498046875,0.09297847747802734,-0.004885077476501465,0.13384948670864105
1751278800346322400,22.830322509765626,-0.03903007507324219,-0.14759492874145508,0.2627827227115631
1751278800365147400,22.8491474609375,0.3166360855102539,-0.1460433006286621,-0.0897487998008728
1751278800383972000,22.86797216796875,0.6644020080566406,0.039878129959106445,-0.1794811189174652
1751278800402796800,22.886796875,0.6069011688232422,0.013601303100585938,-0.0648074597120285
1751278800421621500,22.90562158203125,0.6233015060424805,-0.06232118606567383,-0.13059315085411072
1751278800440446200,22.9244462890625,0.08481216430664062,0.011525988578796387,-0.13603559136390686
1751278800459271000,22.94327099609375,-0.7153682708740234,0.05807137489318848,0.15117713809013367
1751278800478095600,22.962095703125,0.7002277374267578,0.05068254470825195,0.37363436818122864
1751278800496920300,22.98092041015625,0.2872133255004883,0.8258234262466431,-1.0182116031646729
1751278800515745000,22.9997451171875,0.4596090316772461,0.44287657737731934,-0.6093231439590454
1751278800534569700,23.01856982421875,-0.8734245300292969,-0.7492582201957703,0.968411386013031
1751278800553394400,23.03739453125,-0.38409423828125,-1.2293460369110107,1.4901113510131836
1751278800572219100,23.05621923828125,0.3226137161254883,-0.262359619140625,0.41194868087768555
1751278800591043800,23.0750439453125,0.083740234375,0.5966235399246216,-0.6959733366966248
1751278800609868500,23.09386865234375,-0.7866334915161133,0.4978891611099243,-0.5215582847595215
1751278800628693500,23.112693603515623,-0.6434841156005859,0.21270132064819336,0.016530334949493408
