time,seconds_elapsed,z,y,x
1751278777737920300,0.221920166015625,-0.009926552884280682,0.009315688163042068,0.033597562462091446
1751278777766157000,0.250156982421875,-0.02458730712532997,-0.0102319847792387,0.0030543238390237093
1751278777784981800,0.268981689453125,-0.023365577682852745,0.0032070400193333626,-0.01282816007733345
1751278777813218600,0.297218505859375,-0.0001527161948615685,0.009315688163042068,-0.001832594396546483
1751278777841455400,0.325455322265625,0.009621120058000088,0.03497200831770897,0.009162971749901772
1751278777860279800,0.34427978515625,0.004734201822429895,0.012980876490473747,0.011606430634856224
1751278777879104500,0.3631044921875,-0.0062613640911877155,-0.017562363296747208,0.0030543238390237093
1751278777897929000,0.381928955078125,-0.007483093533664942,-0.050549060106277466,-0.01649334840476513
1751278777916753400,0.40075341796875,-0.0038179049734026194,-0.05787943676114082,-0.031154103577136993
1751278777935578000,0.419578125,-0.005039634648710489,-0.013897174037992954,-0.04214967042207718
1751278777954402600,0.438402587890625,-0.0038179049734026194,0.055741410702466965,-0.0360410213470459
1751278777973227300,0.457227294921875,0.015729768201708794,0.08872810751199722,-0.007941242307424545
1751278777992051700,0.4760517578125,0.02916879393160343,0.12415826320648193,0.011606430634856224
1751278778010876200,0.494876220703125,0.021838415414094925,0.09972367435693741,0.014049889519810677
1751278778029700900,0.513700927734375,0.003512472379952669,0.017867794260382652,-0.0054977829568088055
1751278778048525300,0.532525390625,-0.009926552884280682,-0.06520981341600418,-0.039706211537122726
1751278778067350000,0.55135009765625,-0.016035201027989388,-0.07498364895582199,-0.056810423731803894
1751278778086174500,0.570174560546875,-0.020922118797898293,-0.06643154472112656,-0.04581485688686371
1751278778104999000,0.5889990234375,-0.008704823441803455,-0.03955349326133728,0.000610864779446274
1751278778123823600,0.60782373046875,0.013286309316754341,0.02519817277789116,0.02871064469218254
1751278778142648000,0.62664794921875,-0.0013744457392022014,0.04841103404760361,0.004276053514331579
1751278778161472800,0.64547265625,-0.023365577682852745,-0.005345067009329796,-0.025045456364750862
1751278778180297200,0.664297119140625,-0.023365577682852745,-0.05787943676114082,-0.033597562462091446
1751278778199122000,0.683121826171875,-0.025809036567807198,-0.056657709181308746,-0.023823726922273636
1751278778217946400,0.7019462890625,-0.02825249545276165,-0.04321868345141411,-0.01649334840476513
1751278778236770800,0.720770751953125,-0.023365577682852745,-0.007788525894284248,-0.011606430634856224
1751278778255595500,0.739595458984375,-0.017256930470466614,0.049632761627435684,-0.001832594396546483
1751278778274420000,0.758419921875,-0.0038179049734026194,0.07162389904260635,0.001832594396546483
1751278778293244700,0.77724462890625,0.009621120058000088,0.05818486958742142,0.009162971749901772
1751278778312069000,0.796069091796875,0.01206457894295454,0.02764163166284561,0.014049889519810677
1751278778330893800,0.814893798828125,0.007177661173045635,-0.013897174037992954,0.015271619893610477
1751278778349718300,0.83371826171875,-0.0025961752980947495,-0.06887500733137131,-0.0030543238390237093
1751278778368542700,0.852542724609375,-0.0038179049734026194,-0.022449281066656113,-0.02871064469218254
1751278778387367400,0.871367431640625,0.0010690133785828948,0.04108065739274025,-0.017715077847242355
1751278778406192000,0.890192138671875,0.009621120058000088,0.052076224237680435,0.01649334840476513
1751278778425016600,0.9090166015625,-0.0062613640911877155,0.017867794260382652,0.023823726922273636
1751278778443841000,0.927841064453125,-0.025809036567807198,-0.05299251899123192,0.011606430634856224
1751278778462665700,0.946665771484375,-0.020922118797898293,-0.07864884287118912,-0.0030543238390237093
1751278778481490200,0.965490234375,-0.0062613640911877155,-0.007788525894284248,-0.01893680728971958
1751278778500315000,0.98431494140625,0.010842849500477314,0.07284562289714813,-0.03481929376721382
1751278778519139300,1.003139404296875,0.018173227086663246,0.09117157012224197,-0.039706211537122726
1751278778537964000,1.021964111328125,0.007177661173045635,0.0386371985077858,-0.021380268037319183
1751278778556788500,1.04078857421875,-0.008704823441803455,-0.001679878099821508,0.006719512399286032
1751278778575613000,1.059613037109375,-0.01359174121171236,-0.002901607658714056,0.020158538594841957
1751278778594437600,1.078437744140625,-0.02825249545276165,-0.005345067009329796,0.02260199747979641
1751278778613262300,1.097262451171875,-0.023365577682852745,-0.011453714221715927,0.033597562462091446
1751278778632086800,1.116086669921875,-0.012370011769235134,-0.013897174037992954,0.037262752652168274
1751278778650911200,1.1349111328125,-0.009926552884280682,-0.017562363296747208,0.021380268037319183
1751278778669736000,1.15373583984375,-0.0062613640911877155,0.004428769461810589,-0.009162971749901772
1751278778688560400,1.172560302734375,-0.005039634648710489,0.023976443335413933,-0.015271619893610477
1751278778707385000,1.191385009765625,0.002290742937475443,0.0019853105768561363,-0.000610864779446274
1751278778726209500,1.21020947265625,-0.0025961752980947495,-0.034666575491428375,0.0054977829568088055
1751278778745034200,1.2290341796875,-0.011148282326757908,-0.01511890348047018,0.001832594396546483
1751278778763858700,1.247858642578125,-0.011148282326757908,0.006872228812426329,-0.0054977829568088055
1751278778782683400,1.266683349609375,-0.0062613640911877155,-0.004123337101191282,-0.015271619893610477
1751278778801507800,1.2855078125,-0.0013744457392022014,-0.012675444595515728,-0.014049889519810677
1751278778820332500,1.30433251953125,-0.0001527161948615685,0.026419902220368385,0.0054977829568088055
1751278778839157000,1.323156982421875,0.002290742937475443,0.0435241162776947,0.033597562462091446
1751278778857981700,1.341981689453125,-0.0013744457392022014,0.0032070400193333626,0.027488915249705315
1751278778876806100,1.36080615234375,-0.007483093533664942,0.0032070400193333626,-0.01282816007733345
1751278778895630800,1.379630859375,-0.005039634648710489,-0.006566796451807022,-0.027488915249705315
1751278778914455300,1.398455322265625,0.0206166859716177,0.03375028073787689,0.01649334840476513
1751278778933280000,1.417280029296875,0.04505127668380737,0.10705405473709106,0.08491020649671555
1751278778952104400,1.4361044921875,0.053603384643793106,0.1107192412018776,0.10934479534626007
1751278778970929200,1.45492919921875,0.030390523374080658,0.05696314200758934,0.02626718580722809
1751278778989753600,1.473753662109375,-0.027030766010284424,0.009315688163042068,-0.09834922850131989
1751278779008578300,1.492578369140625,-0.049021899700164795,-0.06765327602624893,-0.13255766034126282
1751278779027402800,1.51140283203125,-0.058795735239982605,-0.10308343172073364,-0.056810423731803894
1751278779046227500,1.5302275390625,-0.04046979174017906,-0.03588830679655075,0.05558869615197182
1751278779065052000,1.549052001953125,-0.0025961752980947495,0.07773254066705704,0.13500112295150757
1751278779083876400,1.56787646484375,0.024281874299049377,0.09972367435693741,0.12767073512077332
1751278779102701000,1.586701171875,0.015729768201708794,0.020311253145337105,0.03237583488225937
1751278779121525800,1.60552587890625,0.002290742937475443,-0.028557928279042244,-0.0824667438864708
1751278779140350200,1.62435009765625,-0.01847865991294384,-0.027336198836565018,-0.11056652665138245
1751278779159175000,1.6431748046875,-0.014813470654189587,0.0007635809597559273,-0.037262752652168274
1751278779177999400,1.661999267578125,0.0010690133785828948,-0.00045814859913662076,0.047036588191986084
1751278779196823800,1.68082373046875,0.01206457894295454,0.005650499369949102,0.07269290834665298
1751278779215648500,1.6996484375,0.009621120058000088,0.01908952370285988,0.043371398001909256
1751278779234473200,1.71847314453125,0.002290742937475443,0.020311253145337105,-0.023823726922273636
1751278779253297700,1.737297607421875,-0.009926552884280682,0.014202605932950974,-0.07147117704153061
1751278779272122400,1.756122314453125,-0.01359174121171236,-0.018784092739224434,-0.04214967042207718
1751278779290946800,1.77494677734375,-0.007483093533664942,-0.004123337101191282,0.02260199747979641
1751278779309771500,1.793771484375,0.003512472379952669,0.006872228812426329,0.05070177838206291
1751278779328596000,1.812595947265625,0.003512472379952669,-0.011453714221715927,0.007941242307424545
1751278779347420700,1.831420654296875,-0.014813470654189587,-0.001679878099821508,-0.043371398001909256
1751278779366245000,1.8502451171875,-0.01847865991294384,0.014202605932950974,-0.039706211537122726
1751278779385069800,1.86906982421875,-0.01359174121171236,0.01908952370285988,0.01649334840476513
1751278779403894300,1.887894287109375,-0.005039634648710489,0.0007635809597559273,0.05803215503692627
1751278779422719000,1.906718994140625,-0.0013744457392022014,-0.034666575491428375,0.0360410213470459
1751278779441543400,1.92554345703125,0.0010690133785828948,-0.040775224566459656,-0.021380268037319183
1751278779460368100,1.9443681640625,-0.009926552884280682,-0.012675444595515728,-0.05192350596189499
1751278779479192600,1.963192626953125,-0.008704823441803455,0.020311253145337105,-0.02871064469218254
1751278779498017300,1.982017333984375,-0.0001527161948615685,0.010537417605519295,0.023823726922273636
1751278779516841700,2.000841796875,-0.0025961752980947495,-0.01511890348047018,0.0409279391169548
1751278779535666400,2.01966650390625,-0.005039634648710489,-0.040775224566459656,-0.011606430634856224
1751278779554491000,2.038490966796875,-0.007483093533664942,-0.05177079141139984,-0.06291907280683517
1751278779573315600,2.057315673828125,-0.008704823441803455,-0.054214250296354294,-0.056810423731803894
1751278779592140000,2.07614013671875,0.004734201822429895,0.005650499369949102,0.010384701192378998
1751278779610964700,2.09496484375,0.018173227086663246,0.052076224237680435,0.07269290834665298
1751278779629789200,2.1137890625,0.015729768201708794,0.04718930274248123,0.08613193035125732
1751278779648614000,2.13261376953125,0.0010690133785828948,0.010537417605519295,0.04581485688686371
1751278779667438300,2.151438232421875,-0.0013744457392022014,-0.021227551624178886,-0.015271619893610477
1751278779686263000,2.170262939453125,-0.0025961752980947495,-0.006566796451807022,-0.03848448023200035
1751278779705087700,2.189087646484375,0.0010690133785828948,0.01908952370285988,-0.011606430634856224
1751278779723912200,2.207912109375,-0.0013744457392022014,0.05451968312263489,0.03237583488225937
1751278779742737000,2.22673681640625,0.0010690133785828948,0.03252854943275452,0.06902772188186646
1751278779761561300,2.245561279296875,0.009621120058000088,-0.001679878099821508,0.07880155742168427
1751278779780386000,2.264385986328125,0.002290742937475443,-0.034666575491428375,0.031154103577136993
1751278779799210500,2.28321044921875,-0.016035201027989388,-0.05177079141139984,-0.039706211537122726
1751278779818035200,2.30203515625,-0.036804601550102234,-0.050549060106277466,-0.06047561392188072
1751278779836859600,2.320859619140625,-0.03436114266514778,-0.007788525894284248,-0.021380268037319183
1751278779855684400,2.339684326171875,-0.016035201027989388,0.05085449293255806,0.02260199747979641
1751278779874508800,2.3585087890625,0.013286309316754341,0.06673697382211685,0.037262752652168274
1751278779893333500,2.37733349609375,0.025503603741526604,0.04108065739274025,0.023823726922273636
1751278779912158200,2.396158203125,0.010842849500477314,-0.002901607658714056,-0.009162971749901772
1751278779930982700,2.414982666015625,-0.0062613640911877155,-0.024892739951610565,-0.03848448023200035
1751278779949807400,2.433807373046875,-0.014813470654189587,-0.03222311660647392,-0.017715077847242355
1751278779968631800,2.4526318359375,-0.005039634648710489,-0.03711003437638283,0.031154103577136993
1751278779987456500,2.47145654296875,-0.0038179049734026194,0.022754713892936707,0.04459312930703163
1751278780006281000,2.490281005859375,-0.005039634648710489,0.05696314200758934,0.015271619893610477
1751278780025105700,2.509105712890625,-0.0001527161948615685,0.011759147047996521,-0.01282816007733345
1751278780043930000,2.52793017578125,-0.0038179049734026194,-0.02000582218170166,-0.01893680728971958
1751278780062754800,2.5467548828125,-0.005039634648710489,-0.007788525894284248,-0.006719512399286032
1751278780081579500,2.56557958984375,0.009621120058000088,0.01908952370285988,0.01893680728971958
1751278780100404000,2.584404052734375,0.0206166859716177,0.039858926087617874,0.025045456364750862
1751278780119228700,2.603228759765625,0.01206457894295454,0.01908952370285988,-0.001832594396546483
1751278780138053000,2.62205322265625,-0.019700389355421066,-0.031001387163996696,-0.049480047076940536
1751278780156877800,2.6408779296875,-0.03191768378019333,-0.08109229803085327,-0.07147117704153061
1751278780175702300,2.659702392578125,-0.02214384824037552,-0.07376192510128021,-0.031154103577136993
1751278780194527000,2.67852685546875,-0.0025961752980947495,-0.022449281066656113,-0.004276053514331579
1751278780213351400,2.697351318359375,-0.0001527161948615685,0.036193739622831345,-0.000610864779446274
1751278780232176000,2.716176025390625,-0.02214384824037552,0.08750637620687485,-0.000610864779446274
1751278780251000600,2.73500048828125,-0.0539088174700737,0.07162389904260635,-0.000610864779446274
1751278780269825300,2.7538251953125,-0.06490438431501389,-0.006566796451807022,-0.007941242307424545
1751278780288650000,2.77264990234375,-0.05757400393486023,-0.044440411031246185,-0.015271619893610477
1751278780307474400,2.791474365234375,-0.06246092543005943,-0.05543597787618637,-0.021380268037319183
1751278780326299100,2.810299072265625,-0.0844520553946495,-0.09819651395082474,0.011606430634856224
1751278780345123600,2.82912353515625,-0.05757400393486023,-0.16050471365451813,0.07880155742168427
1751278780363948300,2.8479482421875,-0.05146535858511925,-0.07009673118591309,0.049480047076940536
1751278780382772700,2.866772705078125,-0.005039634648710489,-0.05177079141139984,-0.0873536616563797
1751278780411009800,2.895009765625,0.10858121514320374,-0.040775224566459656,-0.26450446248054504
1751278780429834200,2.913834228515625,0.14401137828826904,0.08384118974208832,-0.23273947834968567
1751278780448659000,2.932658935546875,0.09392046183347702,0.06673697382211685,-0.14599667489528656
1751278780467483400,2.9514833984375,0.07070759683847427,0.06551524996757507,-0.05803215503692627
1751278780486308000,2.97030810546875,0.03405570983886719,0.12660172581672668,0.07269290834665298
1751278780523957200,3.007957275390625,0.08048143237829208,-0.007788525894284248,0.21930044889450073
1751278780542782000,3.026781982421875,0.05482511222362518,-0.09819651395082474,0.15821397304534912
1751278780561606400,3.0456064453125,0.04505127668380737,-0.13362666964530945,0.05436696484684944
1751278780580431000,3.06443115234375,0.02672533318400383,-0.12018764764070511,0.023823726922273636
1751278780599255600,3.083255615234375,0.024281874299049377,-0.09941824525594711,0.047036588191986084
1751278780618080300,3.102080322265625,0.004734201822429895,-0.03955349326133728,0.021380268037319183
1751278780636905000,3.120905029296875,-0.033139415085315704,0.011759147047996521,-0.06536252796649933
1751278780655729400,3.1397294921875,-0.05757400393486023,0.02519817277789116,-0.09101885557174683
1751278780674554000,3.15855419921875,-0.039248060435056686,-0.017562363296747208,-0.04825831577181816
1751278780693378600,3.177378662109375,-0.03191768378019333,-0.018784092739224434,-0.0054977829568088055
1751278780712203300,3.196203369140625,-0.020922118797898293,-0.028557928279042244,-0.010384701192378998
1751278780731027700,3.21502783203125,-0.0013744457392022014,0.016646064817905426,0.017715077847242355
1751278780749852400,3.233852294921875,0.014508038759231567,0.020311253145337105,0.07391463965177536
1751278780768677000,3.252677001953125,0.015729768201708794,-0.016340631991624832,0.09101885557174683
1751278780787501600,3.27150146484375,0.01206457894295454,-0.0383317656815052,0.047036588191986084
1751278780806326300,3.290326171875,0.015729768201708794,-0.01511890348047018,0.0030543238390237093
1751278780825150700,3.309150634765625,0.01206457894295454,-0.005345067009329796,-0.009162971749901772
1751278780843975400,3.327975341796875,0.005955931730568409,-0.006566796451807022,-0.006719512399286032
1751278780862800100,3.346800048828125,0.003512472379952669,-0.012675444595515728,-0.0054977829568088055
1751278780881624600,3.36562451171875,0.01695149764418602,0.0019853105768561363,-0.011606430634856224
1751278780900449300,3.38444921875,0.007177661173045635,0.03130681812763214,-0.037262752652168274
1751278780919273700,3.403273681640625,-0.0013744457392022014,0.023976443335413933,-0.06536252796649933
1751278780938098400,3.422098388671875,-0.012370011769235134,0.012980876490473747,-0.06047561392188072
1751278780956923000,3.4409228515625,-0.020922118797898293,-0.004123337101191282,-0.02626718580722809
1751278780975747600,3.45974755859375,-0.014813470654189587,-0.02611446939408779,-0.004276053514331579
1751278780994572000,3.478572021484375,-0.0001527161948615685,-0.00045814859913662076,0.0054977829568088055
1751278781013396700,3.497396728515625,0.009621120058000088,0.03252854943275452,0.010384701192378998
1751278781032221400,3.516221435546875,0.027947064489126205,0.05451968312263489,-0.000610864779446274
1751278781051046000,3.5350458984375,0.025503603741526604,0.03252854943275452,-0.029932374134659767
1751278781069870600,3.55387060546875,-0.0001527161948615685,-0.001679878099821508,-0.037262752652168274
1751278781088695300,3.5726953125,-0.016035201027989388,-0.04321868345141411,-0.029932374134659767
1751278781107519700,3.591519775390625,-0.012370011769235134,-0.03955349326133728,-0.014049889519810677
1751278781126344400,3.610344482421875,-0.0013744457392022014,-0.02000582218170166,-0.006719512399286032
1751278781145169000,3.6291689453125,0.013286309316754341,-0.00045814859913662076,-0.0054977829568088055
1751278781163993600,3.64799365234375,0.009621120058000088,0.026419902220368385,-0.017715077847242355
1751278781182818000,3.666818115234375,-0.0025961752980947495,0.023976443335413933,-0.0360410213470459
1751278781201642800,3.685642822265625,-0.014813470654189587,0.014202605932950974,-0.0409279391169548
1751278781220467500,3.704467529296875,-0.016035201027989388,0.0386371985077858,-0.02626718580722809
1751278781239292000,3.7232919921875,-0.005039634648710489,0.0435241162776947,0.0054977829568088055
1751278781258116600,3.74211669921875,0.003512472379952669,-0.002901607658714056,0.023823726922273636
1751278781276941000,3.760941162109375,0.004734201822429895,-0.03222311660647392,0.01893680728971958
1751278781295765800,3.779765869140625,-0.0013744457392022014,-0.021227551624178886,0.023823726922273636
1751278781314590500,3.798590576171875,0.005955931730568409,-0.01511890348047018,0.02260199747979641
1751278781333415000,3.817414794921875,-0.0001527161948615685,-0.021227551624178886,0.0054977829568088055
1751278781352239600,3.836239501953125,-0.007483093533664942,-0.006566796451807022,-0.029932374134659767
1751278781371064000,3.85506396484375,-0.014813470654189587,-0.013897174037992954,-0.05192350596189499
1751278781389888800,3.873888671875,-0.01847865991294384,-0.02000582218170166,-0.03237583488225937
1751278781408713500,3.89271337890625,-0.007483093533664942,-0.006566796451807022,0.01649334840476513
1751278781427538000,3.911537841796875,0.003512472379952669,0.010537417605519295,0.06047561392188072
1751278781446362600,3.930362548828125,0.002290742937475443,0.01908952370285988,0.05558869615197182
1751278781465187000,3.94918701171875,-0.008704823441803455,0.006872228812426329,0.01649334840476513
1751278781484011800,3.96801171875,-0.014813470654189587,-0.050549060106277466,-0.020158538594841957
1751278781502836500,3.98683642578125,-0.023365577682852745,-0.04321868345141411,-0.01282816007733345
1751278781521661000,4.005660888671875,-0.017256930470466614,0.01908952370285988,0.02871064469218254
1751278781540485600,4.024485595703125,-0.008704823441803455,0.04718930274248123,0.03237583488225937
1751278781559310000,4.04331005859375,-0.007483093533664942,0.020311253145337105,-0.0054977829568088055
1751278781578134800,4.062134765625,-0.007483093533664942,0.005650499369949102,-0.027488915249705315
1751278781596959500,4.08095947265625,0.004734201822429895,0.0386371985077858,-0.0409279391169548
1751278781615784000,4.099783935546875,0.005955931730568409,0.030085090547800064,-0.02626718580722809
1751278781634608600,4.118608642578125,0.0010690133785828948,-0.024892739951610565,0.01649334840476513
1751278781653433000,4.13743310546875,-0.008704823441803455,-0.04566214233636856,0.04214967042207718
1751278781672257800,4.1562578125,-0.007483093533664942,-0.013897174037992954,0.02260199747979641
1751278781691082500,4.17508251953125,0.009621120058000088,-0.00045814859913662076,-0.01649334840476513
1751278781719319300,4.2033193359375,0.025503603741526604,0.012980876490473747,-0.06047561392188072
1751278781738144000,4.22214404296875,0.013286309316754341,0.030085090547800064,-0.05436696484684944
1751278781756968400,4.240968505859375,-0.014813470654189587,0.0019853105768561363,-0.01649334840476513
1751278781775793200,4.259793212890625,-0.036804601550102234,-0.022449281066656113,0.021380268037319183
1751278781794617900,4.278617919921875,-0.033139415085315704,-0.022449281066656113,0.03848448023200035
1751278781813442300,4.2974423828125,-0.009926552884280682,-0.017562363296747208,0.02871064469218254
1751278781832267000,4.31626708984375,0.004734201822429895,-0.016340631991624832,-0.004276053514331579
1751278781851091500,4.335091552734375,0.015729768201708794,-0.007788525894284248,-0.029932374134659767
1751278781869916200,4.353916259765625,0.015729768201708794,-0.017562363296747208,-0.033597562462091446
1751278781888740900,4.372740966796875,0.007177661173045635,-0.024892739951610565,-0.021380268037319183
1751278781907565300,4.3915654296875,0.003512472379952669,-0.02367101050913334,-0.020158538594841957
1751278781926390000,4.41039013671875,-0.01359174121171236,0.0032070400193333626,-0.014049889519810677
1751278781945214500,4.42921435546875,-0.02214384824037552,-0.01511890348047018,-0.009162971749901772
1751278781964039200,4.4480390625,-0.012370011769235134,-0.04199695214629173,-0.006719512399286032
1751278781982864000,4.46686376953125,-0.0025961752980947495,-0.011453714221715927,-0.006719512399286032
1751278782001688300,4.485688232421875,0.007177661173045635,0.030085090547800064,-0.011606430634856224
1751278782020513000,4.504512939453125,0.014508038759231567,0.02519817277789116,-0.014049889519810677
1751278782039337500,4.52333740234375,0.002290742937475443,-0.00045814859913662076,-0.010384701192378998
1751278782058162200,4.542162109375,-0.0001527161948615685,-0.02611446939408779,0.004276053514331579
1751278782076987000,4.56098681640625,-0.0013744457392022014,-0.006566796451807022,0.009162971749901772
1751278782095811300,4.579811279296875,0.01206457894295454,0.012980876490473747,0.0054977829568088055
1751278782114636000,4.598635986328125,0.010842849500477314,0.008093958720564842,0.004276053514331579
1751278782133460500,4.61746044921875,-0.008704823441803455,-0.012675444595515728,-0.0030543238390237093
1751278782152285200,4.63628515625,-0.029474224895238876,-0.0383317656815052,-0.01649334840476513
1751278782171110000,4.65510986328125,-0.025809036567807198,-0.050549060106277466,-0.010384701192378998
1751278782189934300,4.673934326171875,-0.0062613640911877155,-0.022449281066656113,-0.001832594396546483
1751278782208759000,4.692759033203125,0.003512472379952669,0.023976443335413933,-0.01649334840476513
1751278782227583700,4.711583740234375,0.003512472379952669,0.01908952370285988,-0.029932374134659767
1751278782246408200,4.730408203125,-0.0038179049734026194,-0.002901607658714056,-0.01649334840476513
1751278782265233000,4.74923291015625,-0.007483093533664942,-0.018784092739224434,0.017715077847242355
1751278782284057300,4.768057373046875,-0.0062613640911877155,-0.011453714221715927,0.025045456364750862
1751278782302882000,4.786882080078125,0.0010690133785828948,-0.001679878099821508,0.000610864779446274
1751278782321706800,4.805706787109375,0.005955931730568409,0.01908952370285988,-0.033597562462091446
1751278782340531200,4.82453125,0.002290742937475443,0.028863361105322838,-0.0409279391169548
1751278782359356000,4.84335595703125,-0.0001527161948615685,-0.002901607658714056,-0.01649334840476513
1751278782378180600,4.8621806640625,0.0010690133785828948,-0.027336198836565018,0.010384701192378998
1751278782397005000,4.881005126953125,0.0010690133785828948,-0.027336198836565018,0.01893680728971958
1751278782415829800,4.899829833984375,-0.0025961752980947495,-0.011453714221715927,0.01649334840476513
1751278782434654500,4.918654541015625,-0.0038179049734026194,-0.02367101050913334,-0.001832594396546483
1751278782453479000,4.93747900390625,0.0010690133785828948,-0.011453714221715927,-0.01649334840476513
1751278782472303600,4.9563037109375,0.005955931730568409,0.02764163166284561,-0.006719512399286032
1751278782491128000,4.975128173828125,0.005955931730568409,0.03130681812763214,0.03237583488225937
1751278782509952800,4.993952880859375,-0.0025961752980947495,0.010537417605519295,0.047036588191986084
1751278782528777500,5.012777587890625,-0.016035201027989388,-0.007788525894284248,0.0054977829568088055
1751278782547602000,5.031601806640625,-0.019700389355421066,0.014202605932950974,-0.0360410213470459
1751278782566426600,5.050426513671875,-0.008704823441803455,0.023976443335413933,-0.025045456364750862
1751278782585251000,5.0692509765625,0.002290742937475443,0.02519817277789116,0.0054977829568088055
1751278782604075800,5.08807568359375,0.005955931730568409,0.03375028073787689,0.020158538594841957
1751278782622900500,5.106900390625,0.0010690133785828948,-0.01511890348047018,0.0030543238390237093
1751278782641725000,5.125724853515625,-0.005039634648710489,-0.07620538026094437,-0.011606430634856224
1751278782660549600,5.144549560546875,-0.005039634648710489,-0.04810560122132301,-0.017715077847242355
1751278782679374300,5.163374267578125,0.013286309316754341,0.008093958720564842,-0.001832594396546483
1751278782698198800,5.18219873046875,0.021838415414094925,0.045967575162649155,0.014049889519810677
1751278782717023500,5.2010234375,0.019394956529140472,0.045967575162649155,0.01893680728971958
1751278782735848000,5.219847900390625,0.009621120058000088,0.009315688163042068,0.009162971749901772
1751278782754672600,5.238672607421875,-0.008704823441803455,-0.02611446939408779,-0.010384701192378998
1751278782773497300,5.257497314453125,-0.014813470654189587,-0.046883873641490936,-0.009162971749901772
1751278782792321800,5.27632177734375,-0.011148282326757908,-0.028557928279042244,0.01282816007733345
1751278782811146500,5.295146484375,0.008399390615522861,-0.004123337101191282,0.04459312930703163
1751278782829971200,5.31397119140625,0.0206166859716177,0.03375028073787689,0.049480047076940536
1751278782848795600,5.332795654296875,0.021838415414094925,0.03252854943275452,0.049480047076940536
1751278782867620400,5.351620361328125,0.01206457894295454,0.0019853105768561363,0.0360410213470459
1751278782886444800,5.37044482421875,-0.019700389355421066,-0.027336198836565018,-0.0030543238390237093
1751278782905269500,5.38926953125,-0.04535670951008797,-0.021227551624178886,-0.03848448023200035
1751278782924094200,5.40809423828125,-0.04169152304530144,0.009315688163042068,-0.023823726922273636
1751278782942918700,5.426918701171875,-0.020922118797898293,0.014202605932950974,0.0409279391169548
1751278782961743400,5.445743408203125,0.003512472379952669,-0.004123337101191282,0.09712749719619751
1751278782980568000,5.464568115234375,0.004734201822429895,-0.021227551624178886,0.1130099818110466
1751278782999392500,5.483392578125,-0.0013744457392022014,-0.03222311660647392,0.08002328872680664
1751278783018217200,5.50221728515625,-0.016035201027989388,-0.03711003437638283,0.02871064469218254
1751278783037042000,5.5210419921875,-0.020922118797898293,-0.02000582218170166,-0.000610864779446274
1751278783055866400,5.539866455078125,-0.009926552884280682,0.05329795181751251,0.006719512399286032
1751278783074691000,5.558691162109375,-0.0013744457392022014,0.07773254066705704,0.02626718580722809
1751278783093515500,5.577515625,-0.0062613640911877155,0.03741546720266342,0.047036588191986084
1751278783112340200,5.59634033203125,-0.008704823441803455,-0.006566796451807022,0.07269290834665298
1751278783131165000,5.6151650390625,-0.0038179049734026194,-0.02367101050913334,0.08002328872680664
1751278783149989400,5.6339892578125,0.0010690133785828948,-0.022449281066656113,0.0360410213470459
1751278783168814000,5.65281396484375,-0.0062613640911877155,-0.02611446939408779,0.004276053514331579
1751278783187638800,5.671638671875,-0.0001527161948615685,-0.06154462695121765,0.037262752652168274
1751278783206463200,5.690463134765625,0.003512472379952669,-0.06887500733137131,0.08979712426662445
1751278783225288000,5.709287841796875,-0.005039634648710489,-0.04566214233636856,0.10445787757635117
1751278783244112600,5.728112548828125,-0.014813470654189587,-0.027336198836565018,0.053145237267017365
1751278783262937000,5.74693701171875,-0.023365577682852745,-0.011453714221715927,-0.000610864779446274
1751278783281761800,5.76576171875,-0.014813470654189587,0.0032070400193333626,0.015271619893610477
1751278783300586500,5.78458642578125,0.002290742937475443,0.012980876490473747,0.07880155742168427
1751278783319411000,5.803410888671875,0.02916879393160343,0.055741410702466965,0.1386663019657135
1751278783338235600,5.822235595703125,0.018173227086663246,0.07773254066705704,0.18142683804035187
1751278783357060400,5.841060302734375,-0.011148282326757908,0.07284562289714813,0.21197007596492767
1751278783375884800,5.859884765625,-0.019700389355421066,0.0435241162776947,0.23518294095993042
1751278783394709500,5.87870947265625,-0.01359174121171236,-0.02000582218170166,0.21441353857517242
1751278783413534200,5.8975341796875,-0.014813470654189587,-0.02367101050913334,0.1740964651107788
1751278783432358700,5.916358642578125,-0.008704823441803455,-0.02611446939408779,0.14721840620040894
1751278783451183400,5.935183349609375,0.009621120058000088,0.0007635809597559273,0.18264856934547424
1751278783470008000,5.954008056640625,0.021838415414094925,0.04718930274248123,0.25473061203956604
1751278783488832500,5.97283251953125,-0.0001527161948615685,0.06673697382211685,0.29993459582328796
1751278783507657200,5.9916572265625,-0.023365577682852745,0.049632761627435684,0.2779434621334076
1751278783526481700,6.010481689453125,-0.03191768378019333,0.03497200831770897,0.2156352698802948
1751278783545306400,6.029306396484375,-0.009926552884280682,0.0691804364323616,0.16676609218120575
1751278783564131000,6.048131103515625,0.010842849500477314,0.052076224237680435,0.164322629570961
1751278783582955500,6.06695556640625,0.002290742937475443,0.012980876490473747,0.20341797173023224
1751278783601780200,6.0857802734375,0.019394956529140472,0.0386371985077858,0.29016077518463135
1751278783620605000,6.10460498046875,0.04627300798892975,0.06795870512723923,0.40378162264823914
1751278783639429400,6.123429443359375,0.06582067906856537,0.10461059212684631,0.48441576957702637
1751278783658254000,6.142254150390625,0.05849030241370201,0.07162389904260635,0.5149590373039246
1751278783677078800,6.161078857421875,0.027947064489126205,0.004428769461810589,0.48075059056282043
1751278783695903200,6.1799033203125,-0.0001527161948615685,-0.040775224566459656,0.39400777220726013
1751278783714728000,6.19872802734375,-0.012370011769235134,-0.03222311660647392,0.2926042377948761
1751278783733552600,6.217552734375,-0.008704823441803455,0.02153298258781433,0.23273947834968567
1751278783752377000,6.236377197265625,0.004734201822429895,0.06307178735733032,0.25473061203956604
1751278783771201800,6.255201904296875,0.008399390615522861,0.07651081681251526,0.31581708788871765
1751278783790026500,6.274026611328125,0.007177661173045635,0.09361502528190613,0.3426951467990875
1751278783808851000,6.292850830078125,0.013286309316754341,0.11194097250699997,0.3536907136440277
1751278783827675600,6.311675537109375,0.007177661173045635,0.08872810751199722,0.3426951467990875
1751278783846500400,6.330500244140625,0.007177661173045635,0.0386371985077858,0.2987128794193268
1751278783865324800,6.34932470703125,0.008399390615522861,-0.02000582218170166,0.2718348205089569
1751278783884149500,6.3681494140625,-0.0062613640911877155,-0.06276635825634003,0.2718348205089569
1751278783902974000,6.386973876953125,0.002290742937475443,-0.06887500733137131,0.258395791053772
1751278783921798700,6.405798583984375,0.014508038759231567,-0.06520981341600418,0.2657261788845062
1751278783940623400,6.424623291015625,0.0010690133785828948,-0.02611446939408779,0.30482152104377747
1751278783959447800,6.44344775390625,-0.0062613640911877155,0.023976443335413933,0.3035998046398163
1751278783978272500,6.4622724609375,0.010842849500477314,0.09728021919727325,0.28038692474365234
1751278783997097200,6.48109716796875,0.03894263133406639,0.1766926348209381,0.2974911332130432
1751278784015921700,6.499921630859375,0.07192932814359665,0.1718057245016098,0.33658650517463684
1751278784034746400,6.518746337890625,0.037720900028944016,0.12782345712184906,0.4050033390522003
1751278784053571000,6.537571044921875,0.02672533318400383,0.06551524996757507,0.4673115611076355
1751278784072395500,6.5563955078125,0.0206166859716177,0.039858926087617874,0.4978547990322113
1751278784091220200,6.57522021484375,-0.02214384824037552,-0.013897174037992954,0.48563748598098755
1751278784110045000,6.594044921875,-0.052687086164951324,-0.03955349326133728,0.4001164436340332
1751278784128869400,6.612869384765625,-0.05513054504990578,0.01908952370285988,0.28038692474365234
1751278784147694000,6.631694091796875,-0.019700389355421066,0.07406735420227051,0.22907429933547974
1751278784166518800,6.650518798828125,0.007177661173045635,0.07651081681251526,0.2510654330253601
1751278784185343200,6.66934326171875,0.021838415414094925,0.03252854943275452,0.258395791053772
1751278784204168000,6.68816796875,0.009621120058000088,0.030085090547800064,0.30482152104377747
1751278784222992600,6.70699267578125,-0.0038179049734026194,0.0019853105768561363,0.3756818473339081
1751278784241817000,6.725817138671875,0.002290742937475443,-0.0383317656815052,0.42821621894836426
1751278784260641800,6.744641845703125,0.007177661173045635,-0.040775224566459656,0.4367683231830597
1751278784279466500,6.763466552734375,0.01206457894295454,-0.03588830679655075,0.3903425931930542
1751278784298291000,6.782291015625,0.02916879393160343,0.0154243353754282,0.38667741417884827
1751278784317115600,6.80111572265625,0.06337722390890121,0.07162389904260635,0.4526508152484894
1751278784335940400,6.8199404296875,0.11224640160799026,0.14981459081172943,0.5845975875854492
1751278784354764800,6.838764892578125,0.10247256606817245,0.23777911067008972,0.7141009569168091
1751278784373589500,6.857589599609375,0.0010690133785828948,0.3367392122745514,0.7751874327659607
1751278784392414200,6.876414306640625,-0.07834340631961823,0.3208567202091217,0.7153226733207703
1751278784411238700,6.89523876953125,-0.06612611562013626,0.1876882016658783,0.6236929297447205
1751278784430063400,6.9140634765625,-0.06001746281981468,0.06307178735733032,0.5772672295570374
1751278784448888000,6.93288818359375,-0.1003345400094986,0.12782345712184906,0.39767298102378845
1751278784467712500,6.95171240234375,-0.11866047978401184,0.17302745580673218,0.31581708788871765
1751278784486537200,6.970537109375,-0.09422589093446732,0.23044873774051666,0.22907429933547974
1751278784505362000,6.98936181640625,-0.1357647031545639,0.2890917658805847,0.2156352698802948
1751278784524186400,7.008186279296875,-0.1467602699995041,0.17424917221069336,0.21807873249053955
1751278784543011000,7.027010986328125,-0.11621702462434769,0.017867794260382652,0.2669478952884674
1751278784561835800,7.045835693359375,-0.07101303339004517,-0.07742711156606674,0.4379900395870209
1751278784580660200,7.06466015625,-0.0062613640911877155,-0.10797034949064255,0.5601630210876465
1751278784599485000,7.08348486328125,0.037720900028944016,-0.24236060678958893,0.5613847374916077
1751278784618309600,7.1023095703125,0.04627300798892975,-0.40118545293807983,0.5467239618301392
1751278784637134000,7.121134033203125,0.07070759683847427,-0.44761115312576294,0.5772672295570374
1751278784655958800,7.139958740234375,0.051159925758838654,-0.3828594982624054,0.5564978122711182
1751278784674783500,7.158783447265625,0.043829549103975296,-0.2594648003578186,0.5418370366096497
1751278784693608000,7.17760791015625,0.08414662629365921,-0.2863428592681885,0.5919279456138611
1751278784712432600,7.1964326171875,0.16355904936790466,-0.4072940945625305,0.6908880472183228
1751278784731257300,7.21525732421875,0.19654574990272522,-0.453719824552536,0.6774490475654602
1751278784750081800,7.234081787109375,0.14523309469223022,-0.38652467727661133,0.5345066785812378
1751278784768906500,7.252906494140625,0.08170316368341446,-0.2631300091743469,0.38301220536231995
1751278784787731200,7.271731201171875,0.053603384643793106,-0.17516547441482544,0.2877173125743866
1751278784806555600,7.2905556640625,0.03649916872382164,-0.11774418503046036,0.23518294095993042
1751278784825380400,7.30938037109375,0.02306014485657215,-0.09453132748603821,0.1948658674955368
1751278784844205000,7.328205078125,0.03894263133406639,-0.01511890348047018,0.2315177470445633
1751278784863029500,7.347029541015625,0.04993819445371628,0.023976443335413933,0.30604326725006104
1751278784881854200,7.365854248046875,0.0206166859716177,0.020311253145337105,0.29016077518463135
1751278784900679000,7.384678955078125,-0.007483093533664942,0.03497200831770897,0.21197007596492767
1751278784919503400,7.40350341796875,-0.027030766010284424,0.06673697382211685,0.16065743565559387
1751278784938328000,7.422328125,-0.030695954337716103,0.1314886510372162,0.185092031955719
1751278784957152800,7.44115283203125,-0.009926552884280682,0.1302669197320938,0.13133592903614044
1751278784975977200,7.459977294921875,-0.03191768378019333,0.1314886510372162,0.08979712426662445
1751278784994802000,7.478802001953125,-0.017256930470466614,0.14492766559123993,0.14233149588108063
1751278785013626600,7.497626708984375,0.013286309316754341,0.09850194305181503,0.2510654330253601
1751278785032451000,7.516451171875,0.0487164668738842,0.06307178735733032,0.3072649836540222
1751278785051275800,7.53527587890625,0.03527744114398956,0.07406735420227051,0.2974911332130432
1751278785070100500,7.5541005859375,0.01695149764418602,0.15225805342197418,0.31581708788871765
1751278785088925200,7.57292529296875,0.02916879393160343,0.12660172581672668,0.36224281787872314
1751278785107749600,7.59174951171875,0.02672533318400383,0.07162389904260635,0.3451386094093323
1751278785126574300,7.61057421875,0.009621120058000088,-0.027336198836565018,0.25350889563560486
1751278785145399000,7.62939892578125,-0.014813470654189587,-0.03588830679655075,0.1594357043504715
1751278785164223500,7.648223388671875,-0.02458730712532997,0.005650499369949102,0.1178968995809555
1751278785183048200,7.667048095703125,-0.04657844081521034,0.009315688163042068,0.10079269111156464
1751278785201873000,7.685872802734375,-0.042913250625133514,0.039858926087617874,0.14110976457595825
1751278785220697300,7.704697265625,-0.0025961752980947495,0.05940660089254379,0.19608759880065918
1751278785239522000,7.72352197265625,0.015729768201708794,0.05329795181751251,0.22907429933547974
1751278785258346800,7.7423466796875,-0.0001527161948615685,0.023976443335413933,0.1997527778148651
1751278785277171200,7.761171142578125,0.002290742937475443,-0.018784092739224434,0.1740964651107788
1751278785295996000,7.779995849609375,0.014508038759231567,-0.0847574844956398,0.18264856934547424
1751278785314820600,7.798820556640625,0.009621120058000088,-0.10063996911048889,0.20830489695072174
1751278785333645000,7.81764501953125,-0.0013744457392022014,-0.08353576064109802,0.18142683804035187
1751278785352469800,7.8364697265625,0.009621120058000088,-0.07498364895582199,0.14477495849132538
1751278785371294500,7.85529443359375,-0.0038179049734026194,-0.013897174037992954,0.1484401375055313
1751278785390119000,7.874118896484375,-0.020922118797898293,0.0691804364323616,0.1533270627260208
1751278785408943600,7.892943603515625,-0.009926552884280682,0.12293653935194016,0.20463970303535461
1751278785427768300,7.911768310546875,0.009621120058000088,0.11927134543657303,0.25350889563560486
1751278785446592800,7.9305927734375,0.02916879393160343,-0.001679878099821508,0.22174391150474548
1751278785465417500,7.94941748046875,0.030390523374080658,-0.0896444097161293,0.1178968995809555
1751278785484242200,7.9682421875,0.013286309316754341,-0.044440411031246185,0.0409279391169548
1751278785503066600,7.987066650390625,0.002290742937475443,0.08017600327730179,0.07147117704153061
1751278785521891300,8.005891357421875,-0.0038179049734026194,0.10827577859163284,0.1178968995809555
1751278785540716000,8.024716064453125,-0.0001527161948615685,0.01908952370285988,0.17287473380565643
1751278785559540700,8.043540771484375,0.019394956529140472,-0.07254019379615784,0.21197007596492767
1751278785578365200,8.062365234375,0.015729768201708794,-0.0896444097161293,0.1899789422750473
1751278785597190000,8.08118994140625,0.015729768201708794,-0.09575305134057999,0.13622283935546875
1751278785616014600,8.1000146484375,0.0010690133785828948,-0.0798705667257309,0.08979712426662445
1751278785634839000,8.118839111328125,-0.01847865991294384,-0.04566214233636856,0.06414080411195755
1751278785653663700,8.137663818359375,-0.0062613640911877155,0.0019853105768561363,0.09346231073141098
1751278785672488400,8.156488525390625,0.007177661173045635,0.04230238497257233,0.17531819641590118
1751278785691313000,8.17531298828125,0.01206457894295454,0.008093958720564842,0.22418737411499023
1751278785710137600,8.1941376953125,0.003512472379952669,-0.04199695214629173,0.22418737411499023
1751278785728962300,8.21296240234375,-0.0062613640911877155,-0.04566214233636856,0.15088360011577606
1751278785747787000,8.231787109375,-0.030695954337716103,-0.02000582218170166,0.029932374134659767
1751278785766611500,8.250611572265624,-0.030695954337716103,0.03130681812763214,-0.02260199747979641
1751278785785436200,8.269436279296874,-0.01359174121171236,0.12293653935194016,0.10079269111156464
1751278785804260900,8.2882607421875,0.005955931730568409,0.14248420298099518,0.24862197041511536
1751278785823085300,8.307085205078126,0.014508038759231567,0.10461059212684631,0.2889390289783478
1751278785841910000,8.325909912109376,0.007177661173045635,0.07651081681251526,0.22785256803035736
1751278785860734700,8.344734619140626,-0.0025961752980947495,-0.009010255336761475,0.12278381735086441
1751278785879559200,8.36355908203125,0.003512472379952669,-0.10674861818552017,0.0665842592716217
1751278785898384000,8.3823837890625,-0.0062613640911877155,-0.11407899856567383,0.12522727251052856
1751278785917208600,8.40120849609375,-0.0025961752980947495,-0.017562363296747208,0.2510654330253601
1751278785936033000,8.420032958984375,0.004734201822429895,0.030085090547800064,0.3170388340950012
1751278785954857700,8.438857666015625,-0.008704823441803455,0.011759147047996521,0.2889390289783478
1751278785973682400,8.457682373046875,-0.02825249545276165,-0.02977965772151947,0.22663083672523499
1751278785992507000,8.4765068359375,-0.029474224895238876,-0.07376192510128021,0.16310089826583862
1751278786011331600,8.49533154296875,-0.008704823441803455,-0.10797034949064255,0.12156209349632263
1751278786030156300,8.51415625,-0.02458730712532997,-0.07864884287118912,0.13500112295150757
1751278786048981000,8.53298095703125,-0.03558287397027016,-0.02000582218170166,0.17531819641590118
1751278786067805400,8.551805419921875,-0.01847865991294384,0.010537417605519295,0.24006985127925873
1751278786086630100,8.570630126953125,-0.014813470654189587,0.0032070400193333626,0.2608392536640167
1751278786105454800,8.589454833984375,-0.012370011769235134,-0.0591011680662632,0.22663083672523499
1751278786124279300,8.608279296875,-0.0062613640911877155,-0.10308343172073364,0.22296564280986786
1751278786143104000,8.62710400390625,-0.01847865991294384,-0.0896444097161293,0.24006985127925873
1751278786161928700,8.6459287109375,-0.04535670951008797,-0.00045814859913662076,0.2510654330253601
1751278786180753400,8.66475341796875,-0.06001746281981468,0.06551524996757507,0.2632827162742615
1751278786199577900,8.683577880859374,-0.052687086164951324,0.03741546720266342,0.2816086709499359
1751278786218402600,8.702402587890624,-0.04413498193025589,-0.050549060106277466,0.28405213356018066
1751278786237227300,8.721227294921874,-0.023365577682852745,-0.14340050518512726,0.2559523284435272
1751278786256051700,8.7400517578125,-0.01847865991294384,-0.16050471365451813,0.20341797173023224
1751278786274876400,8.75887646484375,-0.027030766010284424,-0.1409570425748825,0.1692095398902893
1751278786293701000,8.777701171875,-0.033139415085315704,-0.125074565410614,0.1948658674955368
1751278786312525600,8.796525634765626,-0.04535670951008797,-0.05177079141139984,0.2718348205089569
1751278786331350300,8.815350341796876,-0.04657844081521034,-0.013897174037992954,0.32070401310920715
1751278786350175000,8.834175048828126,-0.008704823441803455,-0.054214250296354294,0.28038692474365234
1751278786368999700,8.852999755859376,0.004734201822429895,-0.050549060106277466,0.1899789422750473
1751278786387824000,8.87182421875,-0.0013744457392022014,-0.004123337101191282,0.1484401375055313
1751278786406648800,8.89064892578125,0.002290742937475443,0.014202605932950974,0.20219624042510986
1751278786425473500,8.9094736328125,-0.027030766010284424,0.055741410702466965,0.25473061203956604
1751278786444298000,8.928298095703125,-0.027030766010284424,0.07406735420227051,0.2669478952884674
1751278786463122700,8.947122802734375,-0.0013744457392022014,0.0691804364323616,0.2608392536640167
1751278786481947400,8.965947509765625,0.018173227086663246,0.04230238497257233,0.28038692474365234
1751278786500771800,8.984771728515625,0.01206457894295454,0.03375028073787689,0.32192572951316833
1751278786519596500,9.003596435546875,0.01695149764418602,-0.02611446939408779,0.2926042377948761
1751278786538421200,9.022421142578125,0.031612250953912735,-0.06765327602624893,0.21930044889450073
1751278786557246000,9.041245849609375,0.002290742937475443,-0.06643154472112656,0.17653992772102356
1751278786576070400,9.0600703125,-0.03436114266514778,-0.0383317656815052,0.16676609218120575
1751278786594895000,9.07889501953125,-0.03436114266514778,0.026419902220368385,0.17898337543010712
1751278786613719800,9.0977197265625,0.005955931730568409,0.0435241162776947,0.19242240488529205
1751278786632544300,9.116544189453125,0.013286309316754341,-0.001679878099821508,0.1802051067352295
1751278786651369000,9.135368896484374,-0.005039634648710489,-0.06520981341600418,0.14233149588108063
1751278786670193700,9.154193603515624,-0.01847865991294384,-0.03588830679655075,0.13255766034126282
1751278786689018400,9.173018310546874,-0.016035201027989388,0.05085449293255806,0.16554436087608337
1751278786707842800,9.1918427734375,-0.007483093533664942,0.05940660089254379,0.1948658674955368
1751278786726667500,9.21066748046875,0.007177661173045635,-0.001679878099821508,0.17043127119541168
1751278786745492200,9.2294921875,0.005955931730568409,-0.046883873641490936,0.12767073512077332
1751278786764316700,9.248316650390626,0.008399390615522861,0.026419902220368385,0.1337793916463852
1751278786783141400,9.267141357421876,0.013286309316754341,0.14004075527191162,0.22907429933547974
1751278786801966000,9.285966064453126,-0.01847865991294384,0.14248420298099518,0.29138249158859253
1751278786820790500,9.30479052734375,-0.05757400393486023,0.07162389904260635,0.2608392536640167
1751278786839615200,9.323615234375,-0.05513054504990578,0.05085449293255806,0.20463970303535461
1751278786858440000,9.34243994140625,-0.05024362727999687,0.04474584385752678,0.19853104650974274
1751278786877264600,9.3612646484375,-0.023365577682852745,-0.00045814859913662076,0.24862197041511536
1751278786896089000,9.380089111328125,-0.008704823441803455,-0.007788525894284248,0.268169641494751
1751278786914913800,9.398913818359375,-0.01847865991294384,0.03252854943275452,0.2461785078048706
1751278786933738500,9.417738525390625,-0.03558287397027016,0.09361502528190613,0.2254091054201126
1751278786952563200,9.436563232421875,-0.05513054504990578,0.07162389904260635,0.19242240488529205
1751278786971387600,9.4553876953125,-0.07101303339004517,-0.021227551624178886,0.11423171311616898
1751278786990212400,9.47421240234375,-0.06123919412493706,-0.08597921580076218,0.031154103577136993
1751278787009037000,9.493037109375,-0.06001746281981468,-0.017562363296747208,0.03848448023200035
1751278787027861500,9.511861572265625,-0.058795735239982605,0.05451968312263489,0.1178968995809555
1751278787046686200,9.530686279296875,-0.0539088174700737,0.04108065739274025,0.17043127119541168
1751278787065511000,9.549510986328125,-0.04046979174017906,0.0154243353754282,0.13255766034126282
1751278787084335600,9.568335693359375,-0.016035201027989388,0.022754713892936707,0.1130099818110466
1751278787103160000,9.58716015625,0.003512472379952669,0.05085449293255806,0.16676609218120575
1751278787121984800,9.60598486328125,0.013286309316754341,0.006872228812426329,0.18631376326084137
1751278787140809500,9.6248095703125,0.019394956529140472,-0.07498364895582199,0.17653992772102356
1751278787159634000,9.643634033203124,0.021838415414094925,-0.10186170041561127,0.15699224174022675
1751278787178458600,9.662458740234374,0.018173227086663246,-0.012675444595515728,0.18387030065059662
1751278787197283300,9.681283447265624,0.0206166859716177,0.049632761627435684,0.23884813487529755
1751278787216108000,9.70010791015625,0.027947064489126205,0.03130681812763214,0.2767217457294464
1751278787234932500,9.718932373046876,0.04627300798892975,-0.013897174037992954,0.2816086709499359
1751278787253757200,9.737757080078126,0.064598947763443,-0.03955349326133728,0.26450446248054504
1751278787272582000,9.756581787109376,0.0743727833032608,-0.08597921580076218,0.20952661335468292
1751278787291406300,9.77540625,0.047494735568761826,-0.09819651395082474,0.17898337543010712
1751278787310231000,9.79423095703125,0.015729768201708794,-0.06643154472112656,0.17531819641590118
1751278787329055700,9.8130556640625,0.01206457894295454,0.0435241162776947,0.19120067358016968
1751278787347880400,9.83188037109375,0.021838415414094925,0.13759729266166687,0.21807873249053955
1751278787366705000,9.850704833984375,0.005955931730568409,0.2328922003507614,0.22418737411499023
1751278787385529600,9.869529541015625,0.009621120058000088,0.19013166427612305,0.17898337543010712
1751278787404354300,9.888354248046875,-0.0025961752980947495,0.0019853105768561363,0.11056652665138245
1751278787423178800,9.9071787109375,-0.025809036567807198,-0.13973531126976013,0.05436696484684944
1751278787442003500,9.92600341796875,0.003512472379952669,-0.10674861818552017,0.07635809481143951
1751278787460828200,9.944828125,0.043829549103975296,-0.018784092739224434,0.18753549456596375
1751278787479652900,9.96365283203125,0.060933761298656464,0.0154243353754282,0.3035998046398163
1751278787498477300,9.982477294921875,0.043829549103975296,0.06062832847237587,0.34147340059280396
1751278787517302000,10.001302001953125,0.02672533318400383,-0.002901607658714056,0.29626941680908203
1751278787536126700,10.020126708984375,0.02306014485657215,-0.228921577334404,0.2730565667152405
1751278787554951400,10.038951416015625,0.02306014485657215,-0.2863428592681885,0.2889390289783478
1751278787573776000,10.05777587890625,0.010842849500477314,-0.0896444097161293,0.32559093832969666
1751278787592600600,10.0766005859375,-0.01847865991294384,0.11804962158203125,0.430659681558609
1751278787611425300,10.09542529296875,0.06215549260377884,0.2585485279560089,0.535728394985199
1751278787630250000,10.11425,0.031612250953912735,0.03497200831770897,0.5723803043365479
1751278787649074400,10.133074462890624,-0.017256930470466614,-0.07498364895582199,0.5442805290222168
1751278787667899100,10.151899169921874,-0.03802633285522461,-0.09453132748603821,0.5283980369567871
1751278787686723800,10.170723876953126,-0.025809036567807198,-0.15806126594543457,0.5540543794631958
1751278787705548300,10.18954833984375,0.0010690133785828948,-0.21426081657409668,0.5821541547775269
1751278787724373000,10.208373046875,0.03283398225903511,-0.18860450387001038,0.5858193039894104
1751278787743197700,10.22719775390625,0.06215549260377884,-0.12996147572994232,0.62857985496521
1751278787762022400,10.2460224609375,0.01206457894295454,-0.01511890348047018,0.6310232877731323
1751278787780846800,10.264846923828125,-0.0539088174700737,0.039858926087617874,0.5748237371444702
1751278787799671600,10.283671630859375,-0.08078686892986298,-0.05177079141139984,0.5198459029197693
1751278787818496300,10.302496337890625,-0.05513054504990578,-0.18371757864952087,0.45998117327690125
1751278787837321000,10.321321044921875,-0.039248060435056686,-0.23503021895885468,0.41233372688293457
1751278787856145400,10.3401455078125,-0.014813470654189587,-0.14340050518512726,0.45998117327690125
1751278787874970000,10.35897021484375,0.025503603741526604,-0.024892739951610565,0.6139190793037415
1751278787893794800,10.377794921875,0.03649916872382164,-0.013897174037992954,0.7641918659210205
1751278787912619500,10.39661962890625,0.008399390615522861,-0.044440411031246185,0.7128791809082031
1751278787931444000,10.41544384765625,-0.0013744457392022014,-0.08720094710588455,0.5406153202056885
1751278787950268700,10.4342685546875,0.002290742937475443,-0.1568395346403122,0.4221075773239136
1751278787969093400,10.45309326171875,-0.0038179049734026194,-0.13729186356067657,0.4978547990322113
1751278787987917800,10.471917724609375,-0.02458730712532997,-0.004123337101191282,0.6750055551528931
1751278788006742500,10.490742431640625,0.051159925758838654,0.17547090351581573,0.8533781170845032
1751278788025567200,10.509567138671875,0.0743727833032608,0.1815795600414276,0.7849612236022949
1751278788044392000,10.528391845703124,0.07559451460838318,0.030085090547800064,0.5980366468429565
1751278788063216400,10.54721630859375,0.07070759683847427,-0.03711003437638283,0.3952295184135437
1751278788082041000,10.566041015625,0.043829549103975296,-0.04932733252644539,0.23884813487529755
1751278788100865800,10.58486572265625,0.0206166859716177,-0.09941824525594711,0.12767073512077332
1751278788119690500,10.6036904296875,0.03894263133406639,-0.12996147572994232,0.13988803327083588
1751278788138515000,10.622514892578126,0.057268574833869934,-0.06887500733137131,0.2730565667152405
1751278788157339600,10.641339599609376,0.03527744114398956,0.011759147047996521,0.38301220536231995
1751278788176164400,10.660164306640626,0.021838415414094925,0.045967575162649155,0.3500255048274994
1751278788194989000,10.678989013671876,0.02306014485657215,0.08261945843696594,0.32681265473365784
1751278788213813500,10.6978134765625,0.002290742937475443,0.10461059212684631,0.40378162264823914
1751278788232638200,10.71663818359375,-0.007483093533664942,0.08139773458242416,0.5210676789283752
1751278788251463000,10.735462890625,0.013286309316754341,-0.00045814859913662076,0.5894845128059387
1751278788270287600,10.75428759765625,0.024281874299049377,-0.05543597787618637,0.5772672295570374
1751278788289112000,10.773112060546875,-0.03558287397027016,-0.012675444595515728,0.47952884435653687
1751278788307936800,10.791936767578125,-0.08567378669977188,0.02519817277789116,0.4062250852584839
1751278788326761500,10.810761474609375,-0.07345648854970932,0.03375028073787689,0.3952295184135437
1751278788345586200,10.829586181640625,-0.0844520553946495,-0.001679878099821508,0.389120876789093
1751278788364410600,10.84841064453125,-0.07589995115995407,-0.03588830679655075,0.3805687427520752
1751278788383235300,10.8672353515625,-0.04657844081521034,-0.009010255336761475,0.3585776388645172
1751278788402060000,10.88606005859375,-0.042913250625133514,0.012980876490473747,0.29993459582328796
1751278788420884500,10.904884521484375,-0.04046979174017906,-0.04810560122132301,0.23273947834968567
1751278788439709200,10.923709228515625,-0.030695954337716103,-0.0591011680662632,0.2205221801996231
1751278788458534000,10.942533935546875,-0.02214384824037552,-0.001679878099821508,0.2412915825843811
1751278788477358600,10.961358642578125,-0.0038179049734026194,0.004428769461810589,0.2412915825843811
1751278788496183300,10.980183349609375,0.005955931730568409,0.005650499369949102,0.23518294095993042
1751278788515007700,10.9990078125,-0.01359174121171236,0.023976443335413933,0.27916520833969116
1751278788533832400,11.01783251953125,-0.025809036567807198,0.010537417605519295,0.3194822669029236
1751278788552657200,11.0366572265625,-0.014813470654189587,0.006872228812426329,0.35613417625427246
1751278788571481900,11.05548193359375,0.007177661173045635,0.020311253145337105,0.39767298102378845
1751278788590306300,11.074306396484374,0.037720900028944016,-0.0334448479115963,0.40866854786872864
1751278788609131000,11.093131103515624,0.05849030241370201,-0.1568395346403122,0.35124725103378296
1751278788627955700,11.111955810546876,0.060933761298656464,-0.24724751710891724,0.2669478952884674
1751278788646780200,11.1307802734375,0.05238165333867073,-0.18371757864952087,0.27427828311920166
1751278788665604900,11.14960498046875,0.047494735568761826,-0.14950916171073914,0.39400777220726013
1751278788684429600,11.1684296875,-0.0013744457392022014,-0.22769984602928162,0.462424635887146
1751278788703254300,11.187254150390626,-0.058795735239982605,-0.23991714417934418,0.40744680166244507
1751278788722079000,11.206078857421875,-0.04657844081521034,-0.08231402933597565,0.3659079968929291
1751278788740903400,11.2249033203125,0.030390523374080658,0.10583232343196869,0.40378162264823914
1751278788759728000,11.24372802734375,0.05971203371882439,0.07162389904260635,0.44409868121147156
1751278788778552800,11.262552734375,0.05604684352874756,0.07284562289714813,0.4159989058971405
1751278788797377500,11.28137744140625,0.02916879393160343,0.1571449637413025,0.3549124300479889
1751278788816202000,11.300201904296875,0.014508038759231567,0.10338886082172394,0.34147340059280396
1751278788835026700,11.319026611328125,0.013286309316754341,-0.013897174037992954,0.337808221578598
1751278788853851400,11.337851318359375,0.04016435891389847,-0.04810560122132301,0.38789913058280945
1751278788872676000,11.356676025390625,0.08414662629365921,-0.028557928279042244,0.4318813979625702
1751278788891500500,11.37550048828125,0.1000291109085083,-0.009010255336761475,0.3903425931930542
1751278788910325200,11.3943251953125,0.053603384643793106,-0.00045814859913662076,0.25350889563560486
1751278788929150000,11.41314990234375,0.06215549260377884,-0.04932733252644539,0.17653992772102356
1751278788947974700,11.431974609375,0.053603384643793106,-0.09453132748603821,0.18264856934547424
1751278788966799400,11.45079931640625,0.043829549103975296,-0.06765327602624893,0.19608759880065918
1751278788985623800,11.469623779296874,0.030390523374080658,-0.011453714221715927,0.21807873249053955
1751278789004448500,11.488448486328124,0.03405570983886719,0.049632761627435684,0.2364046722650528
1751278789023273200,11.507273193359374,0.047494735568761826,0.08628465235233307,0.2938259541988373
1751278789042097700,11.52609765625,0.018173227086663246,0.09728021919727325,0.3426951467990875
1751278789060922400,11.54492236328125,-0.0025961752980947495,0.09239330142736435,0.35124725103378296
1751278789079747000,11.5637470703125,0.025503603741526604,0.008093958720564842,0.3585776388645172
1751278789098571800,11.58257177734375,0.015729768201708794,-0.08842267841100693,0.2767217457294464
1751278789117396500,11.601396484375,0.009621120058000088,-0.1360701322555542,0.23029601573944092
1751278789136221000,11.620220947265626,0.01695149764418602,-0.07131846249103546,0.2767217457294464
1751278789155045600,11.639045654296876,-0.005039634648710489,-0.07009673118591309,0.36224281787872314
1751278789173870300,11.657870361328126,-0.06979130208492279,-0.11896591633558273,0.3964512348175049
1751278789192695000,11.676695068359376,-0.07345648854970932,-0.15317434072494507,0.40866854786872864
1751278789211519500,11.69551953125,-0.033139415085315704,-0.19104796648025513,0.40866854786872864
1751278789230344200,11.71434423828125,-0.025809036567807198,-0.18493930995464325,0.3707949221134186
1751278789249169000,11.7331689453125,-0.033139415085315704,-0.13240493834018707,0.3341430425643921
1751278789267993600,11.75199365234375,0.0206166859716177,-0.04566214233636856,0.3170388340950012
1751278789286818300,11.770818359375,0.08048143237829208,-0.031001387163996696,0.2926042377948761
1751278789305642800,11.789642822265625,0.07681624591350555,0.10094540566205978,0.3023780584335327
1751278789324467500,11.808467529296875,0.0951421856880188,0.0850629210472107,0.44898560643196106
1751278789343292200,11.827292236328125,0.1256854236125946,-0.009010255336761475,0.5821541547775269
1751278789362116900,11.846116943359375,0.11957678198814392,-0.14950916171073914,0.5528326034545898
1751278789380941300,11.86494140625,0.0792597085237503,-0.33399030566215515,0.49663305282592773
1751278789399766000,11.88376611328125,0.057268574833869934,-0.47326749563217163,0.45998117327690125
1751278789418590700,11.9025908203125,-0.008704823441803455,-0.48181959986686707,0.42821621894836426
1751278789437415400,11.92141552734375,-0.05024362727999687,-0.5539016127586365,0.4221075773239136
1751278789456240000,11.940240234375,-0.03558287397027016,-0.5355756878852844,0.43310311436653137
1751278789475064600,11.959064697265624,-0.06246092543005943,-0.35353797674179077,0.4978547990322113
1751278789493889300,11.97788916015625,-0.07834340631961823,-0.19837833940982819,0.648127555847168
1751278789512714000,11.9967138671875,-0.0038179049734026194,-0.1360701322555542,0.7849612236022949
1751278789531538700,12.01553857421875,0.060933761298656464,-0.006566796451807022,0.7922916412353516
1751278789550363100,12.034363037109374,0.08781181275844574,0.08628465235233307,0.7446441650390625
1751278789569187800,12.053187744140626,0.051159925758838654,0.10338886082172394,0.648127555847168
1751278789588012500,12.072012451171876,0.04505127668380737,-0.001679878099821508,0.45387253165245056
1751278789606837200,12.090837158203126,0.07070759683847427,-0.11896591633558273,0.07147117704153061
1751278789625662000,12.109661865234376,0.1207985132932663,-0.10919208079576492,-0.2107483446598053
1751278789644486700,12.128486572265626,0.11591159552335739,0.004428769461810589,-0.14233149588108063
1751278789663311000,12.14731103515625,0.041386090219020844,-0.02000582218170166,0.16310089826583862
1751278789682135800,12.1661357421875,0.002290742937475443,-0.12018764764070511,0.4221075773239136
1751278789700960500,12.18496044921875,-0.02825249545276165,-0.14217877388000488,0.5772672295570374
1751278789719785200,12.20378515625,-0.025809036567807198,-0.15928299725055695,0.6395754218101501
1751278789738610000,12.22260986328125,-0.025809036567807198,-0.20937390625476837,0.6359102129936218
1751278789757434400,12.241434326171875,-0.10888664424419403,-0.21181736886501312,0.4269944727420807
1751278789776259000,12.260259033203125,-0.1406516134738922,-0.30833399295806885,0.17653992772102356
1751278789795083800,12.279083740234375,0.03283398225903511,-0.30833399295806885,0.02871064469218254
1751278789813908500,12.297908447265625,0.20998476445674896,-0.125074565410614,-0.025045456364750862
1751278789832733000,12.31673291015625,0.18677189946174622,0.01908952370285988,0.0030543238390237093
1751278789851557600,12.3355576171875,0.10125083476305008,0.017867794260382652,0.13500112295150757
1751278789870382300,12.35438232421875,0.04505127668380737,0.012980876490473747,0.3451386094093323
1751278789889207000,12.37320703125,-0.06979130208492279,-0.02000582218170166,0.4355465769767761
1751278789908031700,12.39203173828125,-0.19440771639347076,-0.23136503994464874,0.38667741417884827
1751278789926856400,12.4108564453125,-0.2530507445335388,-0.5001455545425415,0.2779434621334076
1751278789945681000,12.429680908203125,-0.20662501454353333,-0.5441278219223022,0.18753549456596375
1751278789964505600,12.448505615234374,-0.11499529331922531,-0.43661558628082275,0.11545344442129135
1751278789983330300,12.467330322265624,-0.008704823441803455,-0.30711227655410767,0.04459312930703163
1751278790002155000,12.486155029296874,0.05238165333867073,-0.27168211340904236,-0.10323614627122879
1751278790020979700,12.504979736328124,0.057268574833869934,-0.228921577334404,-0.13133592903614044
1751278790039804200,12.52380419921875,0.04627300798892975,-0.11774418503046036,0.13133592903614044
1751278790058628900,12.54262890625,0.10125083476305008,0.05818486958742142,0.4269944727420807
1751278790077453600,12.56145361328125,0.07192932814359665,0.06795870512723923,0.5369501113891602
1751278790096278300,12.5802783203125,0.007177661173045635,0.18402300775051117,0.41233372688293457
1751278790115103000,12.59910302734375,-0.05513054504990578,0.366060733795166,0.3549124300479889
1751278790133927700,12.617927734375,0.11713331937789917,0.6898190379142761,0.3549124300479889
1751278790152752000,12.636752197265626,0.10369429737329483,0.5138899683952332,0.2974911332130432
1751278790171576800,12.655576904296876,0.08292489498853683,0.6556106209754944,0.18631376326084137
1751278790190401500,12.674401611328125,0.11468986421823502,0.7692314982414246,0.13988803327083588
1751278790209226200,12.693226318359375,0.16600249707698822,0.6519454121589661,0.07880155742168427
1751278790228051000,12.712051025390625,-0.008704823441803455,0.5016726851463318,0.0616973415017128
1751278790246875400,12.73087548828125,-0.04657844081521034,0.45280352234840393,0.1484401375055313
1751278790265700000,12.7497001953125,-0.049021899700164795,0.0435241162776947,0.17653992772102356
1751278790284524800,12.76852490234375,-0.1467602699995041,-0.39996370673179626,0.08124501258134842
1751278790303349500,12.787349609375,-0.16508620977401733,-0.48304131627082825,-0.05436696484684944
1751278790322174200,12.80617431640625,-0.07223475724458694,-0.7176133990287781,-0.21807873249053955
1751278790340998700,12.82499853515625,0.037720900028944016,-0.6137663722038269,-0.2669478952884674
1751278790359823400,12.8438232421875,0.053603384643793106,-0.651639997959137,-0.10323614627122879
1751278790378648000,12.86264794921875,-0.0025961752980947495,-0.6430879235267639,0.16065743565559387
1751278790397472800,12.88147265625,0.04993819445371628,-0.30344706773757935,0.30970844626426697
1751278790416297500,12.90029736328125,0.060933761298656464,-0.1055268943309784,0.3659079968929291
1751278790435122200,12.9191220703125,0.09636391699314117,0.03741546720266342,0.43432486057281494
1751278790453946600,12.937946533203124,0.0792597085237503,-0.07498364895582199,0.4159989058971405
1751278790472771300,12.956771240234374,0.05238165333867073,-0.2338084876537323,0.2864955961704254
1751278790491596000,12.975595947265624,0.0010690133785828948,-0.19837833940982819,0.20341797173023224
1751278790510420700,12.994420654296874,0.005955931730568409,-0.19349141418933868,0.2571740746498108
1751278790529245400,13.013245361328124,0.014508038759231567,-0.3462076187133789,0.29993459582328796
1751278790548070100,13.032070068359374,-0.005039634648710489,-0.5465712547302246,0.3451386094093323
1751278790566894600,13.05089453125,0.047494735568761826,-0.3315468728542328,0.4416552484035492
1751278790585719300,13.06971923828125,0.1818849891424179,-0.12263110280036926,0.3390299379825592
1751278790604544000,13.0885439453125,0.07559451460838318,-0.23503021895885468,0.24495677649974823
1751278790623368700,13.10736865234375,0.004734201822429895,-0.06765327602624893,0.17043127119541168
1751278790642193400,13.126193359375,-0.0025961752980947495,0.011759147047996521,0.16798780858516693
1751278790661018000,13.14501806640625,-0.07101303339004517,0.010537417605519295,0.26450446248054504
1751278790679842600,13.163842529296875,-0.13820815086364746,0.397825688123703,0.21930044889450073
1751278790698667300,13.182667236328125,-0.12232567369937897,0.6507236957550049,0.1337793916463852
1751278790717492000,13.201491943359375,-0.10399972647428513,0.5334376692771912,0.15821397304534912
1751278790736316700,13.220316650390625,-0.06979130208492279,0.32940882444381714,0.15577052533626556
1751278790755141400,13.239141357421875,-0.02214384824037552,-0.0383317656815052,0.1948658674955368
1751278790773966000,13.257966064453125,0.11713331937789917,-0.14950916171073914,0.3915643095970154
1751278790792790500,13.27679052734375,0.20998476445674896,0.10461059212684631,0.6322450637817383
1751278790811615200,13.295615234375,0.17944152653217316,0.10705405473709106,0.739757239818573
1751278790830440000,13.31443994140625,0.13912445306777954,-0.3107774555683136,0.646905779838562
1751278790849264600,13.3332646484375,0.21975859999656677,-0.689513623714447,0.5210676789283752
1751278790868089300,13.35208935546875,0.19654574990272522,-0.6736311316490173,0.5210676789283752
1751278790886914000,13.3709140625,0.03649916872382164,-0.5209149122238159,0.4868592321872711
1751278790905738800,13.38973876953125,-0.07712167501449585,-0.23625195026397705,0.27916520833969116
1751278790924563200,13.408563232421875,-0.0539088174700737,0.20967933535575867,0.06291907280683517
1751278790943388000,13.427387939453125,-0.09056070446968079,0.6776017546653748,-0.006719512399286032
1751278790962212600,13.446212646484375,-0.2029598206281662,0.8535308241844177,0.164322629570961
1751278790981037300,13.465037353515624,-0.05146535858511925,0.8327614068984985,0.43921178579330444
1751278790999862000,13.483862060546874,0.13179408013820648,0.9634864926338196,0.6029235124588013
1751278791018686700,13.502686767578124,0.03649916872382164,1.1858412027359009,0.6591231226921082
1751278791037511200,13.52151123046875,-0.1565341055393219,1.143080711364746,0.6249146461486816
1751278791056336000,13.5403359375,-0.04046979174017906,0.7008146047592163,0.4257727563381195
1751278791075160600,13.55916064453125,0.08536835014820099,-0.0102319847792387,0.17653992772102356
1751278791093985300,13.5779853515625,0.021838415414094925,-0.39996370673179626,0.0665842592716217
1751278791112810000,13.59681005859375,0.14523309469223022,-0.49770209193229675,0.09468404203653336
1751278791131634700,13.615634765625,0.32360562682151794,-0.41584619879722595,0.16187916696071625
1751278791150459400,13.63445947265625,0.1818849891424179,-0.3303251266479492,0.1484401375055313
1751278791169284000,13.6532841796875,0.01695149764418602,0.10705405473709106,0.12034036219120026
1751278791188108500,13.672108642578126,-0.12965604662895203,0.4332558512687683,0.1081230640411377
1751278791206933200,13.690933349609375,-0.2444986253976822,0.3318522870540619,0.000610864779446274
1751278791225758000,13.709758056640625,-0.21517711877822876,0.06673697382211685,-0.17531819641590118
1751278791244582700,13.728582763671875,-0.15531237423419952,0.04841103404760361,-0.0824667438864708
1751278791263407400,13.747407470703125,-0.07101303339004517,0.3819431960582733,0.20219624042510986
1751278791282232000,13.766232177734375,-0.01359174121171236,0.6165152788162231,0.35246896743774414
1751278791301056500,13.785056396484375,0.1207985132932663,0.5114465355873108,0.45020735263824463
1751278791319881200,13.803881103515625,0.26740604639053345,0.1925751268863678,0.4269944727420807
1751278791338706000,13.822705810546875,0.2087630331516266,-0.13973531126976013,0.2315177470445633
1751278791357530600,13.841530517578125,0.05482511222362518,-0.5551233887672424,-0.06291907280683517
1751278791376355300,13.860355224609375,0.010842849500477314,-0.8300125002861023,-0.21807873249053955
1751278791395180000,13.879179931640625,-0.005039634648710489,-0.7860302329063416,-0.09957095980644226
1751278791414004700,13.898004638671875,-0.017256930470466614,-0.4341721534729004,0.1496618688106537
1751278791432829200,13.9168291015625,0.031612250953912735,-0.18127411603927612,0.3646862804889679
1751278791451654000,13.93565380859375,0.07070759683847427,-0.17516547441482544,0.45875945687294006
1751278791470478600,13.954478515625,-0.033139415085315704,-0.19960007071495056,0.3756818473339081
1751278791489303300,13.97330322265625,-0.17852523922920227,-0.09941824525594711,0.185092031955719
1751278791508128000,13.9921279296875,-0.12476912885904312,-0.04810560122132301,0.04581485688686371
1751278791526952700,14.01095263671875,-0.04780016839504242,-0.14950916171073914,0.08491020649671555
1751278791545777400,14.02977734375,-0.039248060435056686,-0.22036947309970856,0.2571740746498108
1751278791564602000,14.04860205078125,-0.08323032408952713,-0.017562363296747208,0.34636032581329346
1751278791583426800,14.0674267578125,-0.1259908676147461,0.3672824501991272,0.3035998046398163
1751278791602251300,14.086251220703126,-0.08323032408952713,0.6140718460083008,0.20463970303535461
1751278791621076000,14.105075927734376,-0.19440771639347076,0.5004509687423706,0.10323614627122879
1751278791639900700,14.123900634765626,-0.30314165353775024,0.08872810751199722,0.1692095398902893
1751278791658725400,14.142725341796876,-0.12354740500450134,-0.125074565410614,0.33536475896835327
1751278791677550000,14.161550048828126,-0.06001746281981468,-0.05299251899123192,0.3488037884235382
1751278791696374800,14.180374755859376,-0.04413498193025589,0.24999640882015228,0.2608392536640167
1751278791715199200,14.19919921875,-0.01359174121171236,0.7680097222328186,0.3744601011276245
1751278791734024000,14.21802392578125,0.047494735568761826,1.1479676961898804,0.8374956250190735
1751278791752848600,14.2368486328125,0.36025750637054443,1.4216350317001343,1.6975932121276855
1751278791771673300,14.25567333984375,0.37858346104621887,0.5542070865631104,2.1704025268554688
1751278791790498000,14.274498046875,0.17455461621284485,0.09117157012224197,1.4019346237182617
1751278791809322800,14.29332275390625,0.2124282270669937,-0.17394374310970306,0.2412915825843811
1751278791828147500,14.3121474609375,0.10735948383808136,-0.6736311316490173,-0.31093016266822815
1751278791846972200,14.33097216796875,-0.012370011769235134,-0.7567087411880493,-0.205861434340477
1751278791865796900,14.349796875,-0.06001746281981468,-0.29367324709892273,-0.01893680728971958
1751278791884621300,14.368621337890625,-0.13209950923919678,0.39049530029296875,-0.006719512399286032
1751278791903446000,14.387446044921875,-0.1259908676147461,0.6763800382614136,0.0873536616563797
1751278791922270700,14.406270751953125,-0.18096868693828583,0.5383245944976807,0.2657261788845062
1751278791941095400,14.425095458984375,-0.11133010685443878,0.4039343297481537,0.24006985127925873
1751278791959920000,14.443920166015625,-0.06734783947467804,0.2280052751302719,0.03481929376721382
1751278791978744800,14.462744873046875,-0.15775582194328308,0.17058399319648743,-0.164322629570961
1751278791997569500,14.481569580078125,-0.16508620977401733,0.20601414144039154,-0.22907429933547974
1751278792016394000,14.50039404296875,-0.10888664424419403,0.39416050910949707,-0.2816086709499359
1751278792035218700,14.51921875,0.0951421856880188,0.9634864926338196,-0.029932374134659767
1751278792054043400,14.53804345703125,0.42745262384414673,1.134528636932373,0.7470875978469849
1751278792072868000,14.5568681640625,0.31383177638053894,0.8571959733963013,1.3249657154083252
1751278792091692800,14.57569287109375,0.5410735011100769,0.6873756051063538,1.2699878215789795
1751278792110517500,14.594517578125,0.947909414768219,0.57008957862854,0.7727439403533936
1751278792129342200,14.61334228515625,1.1140646934509277,-0.08231402933597565,0.41355544328689575
1751278792148167000,14.6321669921875,0.34315329790115356,-1.1549925804138184,0.2926042377948761
1751278792166991400,14.650991455078126,-0.08933897316455841,-1.6717841625213623,0.07757982611656189
1751278792185816000,14.669816162109376,-0.11988221108913422,-1.0010546445846558,-0.22174391150474548
1751278792204640800,14.688640869140626,-0.005039634648710489,-0.24236060678958893,-0.3451386094093323
1751278792223465500,14.707465576171876,0.03405570983886719,-0.07254019379615784,-0.42332929372787476
1751278792242290200,14.726290283203125,-0.05757400393486023,0.33429574966430664,-0.1692095398902893
1751278792261115000,14.745114990234375,0.003512472379952669,1.0343468189239502,0.30604326725006104
1751278792279939600,14.763939697265625,0.05971203371882439,1.0893245935440063,0.4929678738117218
1751278792298764300,14.782764404296875,-0.0795651376247406,0.8901826739311218,0.4428769648075104
1751278792317589000,14.801589111328125,0.04993819445371628,1.078329086303711,0.4050033390522003
1751278792336413400,14.820413330078125,0.38469210267066956,1.4350740909576416,0.5858193039894104
1751278792355238100,14.839238037109375,0.6436987519264221,0.9805907011032104,1.0317505598068237
1751278792374062800,14.858062744140625,0.7597630620002747,0.3379609286785126,1.591302752494812
1751278792392887600,14.876887451171875,0.8403972387313843,0.006872228812426329,2.0299036502838135
1751278792411712300,14.895712158203125,0.8941532969474792,0.020311253145337105,2.087324857711792
1751278792430537000,14.914536865234375,0.771980345249176,-0.2435823380947113,1.8539745807647705
1751278792449361700,14.933361572265625,0.5007563829421997,-0.19471314549446106,1.3274091482162476
1751278792468186400,14.952186279296875,0.24174973368644714,0.05085449293255806,0.6957749724388123
1751278792487011000,14.971010986328125,-0.06246092543005943,0.2903134822845459,0.2254091054201126
1751278792505835500,14.98983544921875,-0.3202458620071411,0.6482802629470825,0.14110976457595825
1751278792524660200,15.00866015625,-0.21151192486286163,0.8804088830947876,0.21441353857517242
1751278792543485000,15.02748486328125,-0.05146535858511925,0.9292780160903931,0.45998117327690125
1751278792562309600,15.0463095703125,-0.025809036567807198,1.1320852041244507,0.822834849357605
1751278792581134300,15.06513427734375,0.04260781779885292,1.2982404232025146,1.125823736190796
1751278792599959000,15.083958984375,0.0902552679181099,1.0978766679763794,1.1710277795791626
1751278792618783700,15.10278369140625,0.04993819445371628,0.7521272301673889,0.9645555019378662
1751278792637608400,15.1216083984375,-0.05635227635502815,0.31719154119491577,0.6969966888427734
1751278792656433200,15.14043310546875,-0.17974695563316345,0.08384118974208832,0.42821621894836426
1751278792675257600,15.159257568359376,-0.2652680277824402,0.08261945843696594,0.2816086709499359
1751278792694082300,15.178082275390626,-0.25549420714378357,-0.00045814859913662076,0.3121519088745117
1751278792712907000,15.196906982421876,-0.23594652116298676,0.005650499369949102,0.4221075773239136
1751278792731731700,15.215731689453126,-0.2188423126935959,0.1156061589717865,0.41233372688293457
1751278792750556400,15.234556396484376,-0.15897755324840546,0.12660172581672668,0.268169641494751
1751278792769381000,15.253381103515625,-0.08933897316455841,-0.1153007298707962,0.08124501258134842
1751278792788205800,15.272205810546875,-0.005039634648710489,-0.046883873641490936,-0.049480047076940536
1751278792807030500,15.291030517578125,0.14523309469223022,0.3013090491294861,-0.037262752652168274
1751278792825855200,15.309855224609375,0.2637408673763275,0.48823368549346924,0.12644900381565094
1751278792844679700,15.3286796875,0.34437501430511475,0.6653844714164734,0.34147340059280396
1751278792863504400,15.34750439453125,0.2649625837802887,0.2438877671957016,0.5784889459609985
1751278792882329000,15.3663291015625,0.08170316368341446,-0.18005239963531494,0.6725621223449707
1751278792901153800,15.38515380859375,0.0743727833032608,-0.07498364895582199,0.5381718873977661
1751278792919978500,15.403978515625,0.16966769099235535,0.25610506534576416,0.2816086709499359
1751278792938803200,15.42280322265625,0.3248273432254791,0.25243985652923584,-0.006719512399286032
1751278792957628000,15.4416279296875,0.2136499583721161,-0.054214250296354294,-0.38789913058280945
1751278792976452600,15.46045263671875,-0.08200860023498535,-0.31322091817855835,-0.7153226733207703
1751278792995277300,15.47927734375,-0.16752967238426208,-0.5893318057060242,-0.8729257583618164
1751278793014102000,15.49810205078125,-0.011148282326757908,-0.9741765856742859,-0.7189878225326538
1751278793032926500,15.516926513671875,0.12690715491771698,-1.0902409553527832,-0.2974911332130432
1751278793051751200,15.535751220703125,0.26618432998657227,-0.5392408967018127,0.039706211537122726
1751278793070575900,15.554575927734374,0.33337944746017456,0.40515607595443726,0.2254091054201126
1751278793089400600,15.573400634765624,0.3272708058357239,0.8987348079681396,0.40378162264823914
1751278793108225300,15.592225341796874,0.35537058115005493,0.7118101716041565,0.6078104376792908
1751278793127050000,15.611050048828124,0.44211336970329285,0.3575085997581482,0.7250964641571045
1751278793145874700,15.629874755859374,0.3993528485298157,0.4027126133441925,0.5369501113891602
1751278793164699400,15.648699462890624,0.1769980639219284,-0.21059563755989075,0.33658650517463684
1751278793183524000,15.667524169921874,0.09880737960338593,-0.4182896614074707,0.08368847519159317
1751278793202348500,15.6863486328125,0.013286309316754341,-0.5196931958198547,-0.17165300250053406
1751278793221173200,15.70517333984375,-0.13454297184944153,-0.8067996501922607,-0.3341430425643921
1751278793239998000,15.723998046875,-0.22250749170780182,-0.7958040833473206,-0.37323838472366333
1751278793258822700,15.74282275390625,-0.16264274716377258,-0.48304131627082825,-0.25473061203956604
1751278793277647400,15.7616474609375,0.01206457894295454,-0.0798705667257309,0.0054977829568088055
1751278793296472000,15.78047216796875,0.060933761298656464,0.23533566296100616,0.2974911332130432
1751278793315296800,15.799296875,0.09392046183347702,0.5578722357749939,0.47586366534233093
1751278793334121500,15.81812158203125,0.11957678198814392,0.7533490061759949,0.5259546041488647
1751278793352946200,15.8369462890625,0.01695149764418602,0.625067412853241,0.6053670048713684
1751278793371771000,15.85577099609375,0.02672533318400383,0.2903134822845459,0.6346884965896606
1751278793390595600,15.874595703125,0.037720900028944016,-0.301003634929657,0.555276095867157
1751278793409420300,15.893420166015625,-0.02825249545276165,-0.7848085165023804,0.3659079968929291
1751278793428245000,15.912244873046875,-0.05146535858511925,-0.46715885400772095,0.07513637095689774
1751278793447069400,15.9310693359375,-0.06246092543005943,-0.2130390852689743,-0.07024945318698883
1751278793465894100,15.94989404296875,-0.027030766010284424,-0.22647811472415924,-0.03237583488225937
1751278793484718800,15.96871875,0.04260781779885292,-0.2032652497291565,0.13133592903614044
1751278793503543600,15.98754345703125,-0.09300415962934494,-0.024892739951610565,0.3194822669029236
1751278793522368300,16.0063681640625,-0.26160284876823425,0.0850629210472107,0.5259546041488647
1751278793541193000,16.02519287109375,-0.34345871210098267,0.28176137804985046,0.6298015713691711
1751278793560017700,16.044017578125,-0.38499751687049866,0.7289143800735474,0.7483093738555908
1751278793578842400,16.06284228515625,-0.3202458620071411,0.8034399151802063,0.9266818761825562
1751278793597667000,16.0816669921875,-0.15042544901371002,0.8303179740905762,1.0158681869506836
1751278793616491500,16.100491455078124,0.2124282270669937,0.8132137656211853,0.9291253089904785
1751278793635316200,16.119316162109374,0.33948808908462524,0.4637990891933441,0.739757239818573
1751278793654141000,16.138140869140624,0.2600756883621216,-0.044440411031246185,0.5589412450790405
1751278793672965600,16.156965576171874,0.2393062710762024,-0.12385283410549164,0.2864955961704254
1751278793691790300,16.175790283203124,0.18555018305778503,-0.18371757864952087,0.15577052533626556
1751278793710615000,16.194614990234374,0.21731515228748322,-0.3266599476337433,0.1545487940311432
1751278793729439700,16.213439697265624,0.3407098352909088,-0.2179260104894638,0.22663083672523499
1751278793748264400,16.232264404296874,0.34437501430511475,-0.1715002804994583,0.430659681558609
1751278793767089200,16.251089111328124,0.25152358412742615,-0.23503021895885468,0.5821541547775269
1751278793785913900,16.269913818359374,0.17944152653217316,-0.33399030566215515,0.5064069032669067
1751278793804738600,16.288738525390624,0.14401137828826904,-0.2692386507987976,0.2864955961704254
1751278793823563300,16.307563232421874,0.13423752784729004,-0.2533561587333679,0.1337793916463852
1751278793842387700,16.3263876953125,0.19165882468223572,-0.37552911043167114,0.1899789422750473
1751278793861212400,16.34521240234375,0.27107125520706177,-0.2545779049396515,0.462424635887146
1751278793880037000,16.364037109375,0.3199404180049896,-0.040775224566459656,0.7348703145980835
1751278793898861800,16.38286181640625,0.3883572816848755,0.04230238497257233,0.8472694754600525
1751278793917686500,16.4016865234375,0.3724747896194458,-0.05299251899123192,0.8668171167373657
1751278793936511200,16.42051123046875,0.2649625837802887,-0.20204351842403412,0.8216131329536438
1751278793955336000,16.4393359375,0.21487168967723846,-0.23503021895885468,0.7800742983818054
1751278793974160600,16.45816064453125,0.1977674663066864,-0.14217877388000488,0.6957749724388123
1751278793992985300,16.4769853515625,0.12690715491771698,-0.22769984602928162,0.5088503360748291
1751278794011810000,16.49581005859375,0.06337722390890121,-0.39629852771759033,0.2364046722650528
1751278794030634800,16.514634765625,0.07315105944871902,-0.578336238861084,0.09834922850131989
1751278794049459500,16.53345947265625,0.03894263133406639,-0.45127636194229126,0.12644900381565094
1751278794068284200,16.5522841796875,0.1513417512178421,-0.4744892120361328,0.2412915825843811
1751278794087108600,16.571108642578125,0.2539670467376709,-0.3816377818584442,0.34147340059280396
1751278794105933300,16.589933349609375,0.28695371747016907,-0.2900080680847168,0.5247328281402588
1751278794124758000,16.608758056640625,0.19532401859760284,-0.14462223649024963,0.6688969135284424
1751278794143582700,16.627582763671874,0.13912445306777954,-0.12996147572994232,0.7727439403533936
1751278794162407400,16.646407470703124,0.14523309469223022,-0.07376192510128021,0.7250964641571045
1751278794181232000,16.665232177734374,0.12690715491771698,-0.281455934047699,0.6212494969367981
1751278794200056800,16.684056884765624,0.14278964698314667,-0.3828594982624054,0.38179048895835876
1751278794218881500,16.702881591796874,0.18066325783729553,-0.360868364572525,0.23273947834968567
1751278794237706200,16.721706298828124,0.15500694513320923,-0.281455934047699,0.17043127119541168
1751278794256531000,16.740531005859374,0.11224640160799026,-0.3095557391643524,0.185092031955719
1751278794275355600,16.759355712890624,-0.012370011769235134,-0.1776089370250702,0.40378162264823914
1751278794294180400,16.778180419921874,-0.13698641955852509,-0.027336198836565018,0.6969966888427734
1751278794313005000,16.797005126953124,-0.1052214577794075,-0.16416990756988525,0.8790343999862671
1751278794331829800,16.815829833984374,-0.033139415085315704,-0.22769984602928162,0.9181297421455383
1751278794350654200,16.834654296875,-0.05513054504990578,-0.22647811472415924,0.8142827749252319
1751278794369479000,16.85347900390625,-0.13209950923919678,-0.20204351842403412,0.648127555847168
1751278794388303600,16.8723037109375,-0.1870773434638977,-0.14462223649024963,0.39767298102378845
1751278794407128300,16.89112841796875,-0.1821904182434082,-0.15439607203006744,0.1899789422750473
1751278794425953000,16.909953125,-0.08200860023498535,-0.0847574844956398,0.18387030065059662
1751278794444777700,16.92877783203125,0.031612250953912735,-0.11774418503046036,0.36835145950317383
1751278794463602400,16.9476025390625,0.010842849500477314,-0.12873975932598114,0.6835576891899109
1751278794482427100,16.96642724609375,-0.025809036567807198,0.03741546720266342,0.8998038172721863
1751278794501251800,16.985251953125,-0.036804601550102234,0.17547090351581573,0.9132428169250488
1751278794520076500,17.00407666015625,-0.0539088174700737,0.2341139316558838,0.8338304162025452
1751278794538901200,17.0229013671875,-0.020922118797898293,0.18890993297100067,0.7519745230674744
1751278794557726000,17.041725830078125,0.08170316368341446,0.05329795181751251,0.7238747477531433
1751278794576550700,17.060550537109375,0.10247256606817245,-0.29245150089263916,0.8949168920516968
1751278794595375000,17.079375,0.22586725652217865,-0.43661558628082275,1.1954623460769653
1751278794614199800,17.09819970703125,0.5227475166320801,-0.3559814393520355,1.2797616720199585
1751278794633024500,17.1170244140625,0.6265945434570312,-0.3046688139438629,1.064737319946289
1751278794651849200,17.13584912109375,0.3712530732154846,-0.3681987524032593,0.8301652073860168
1751278794670674000,17.154673828125,0.027947064489126205,-0.3266599476337433,0.6969966888427734
1751278794689498600,17.17349853515625,-0.10644318908452988,-0.4182896614074707,0.5687150955200195
1751278794708323300,17.1923232421875,-0.02825249545276165,-0.586888313293457,0.5980366468429565
1751278794727148000,17.21114794921875,0.16844595968723297,-0.596662163734436,0.9169080257415771
1751278794745972700,17.22997265625,0.3468184769153595,-0.5013672709465027,1.2431098222732544
1751278794764797400,17.24879736328125,0.30772313475608826,-0.39996370673179626,1.2516618967056274
1751278794783622100,17.2676220703125,0.1623373180627823,-0.30711227655410767,1.007315993309021
1751278794802446800,17.28644677734375,0.12935061752796173,-0.1776089370250702,0.7812960743904114
1751278794821271600,17.305271484375,0.25763222575187683,-0.2887863218784332,0.6860011219978333
1751278794840096300,17.32409619140625,0.3040579557418823,-0.1360701322555542,0.6493492722511292
1751278794858921000,17.3429208984375,0.2698495090007782,0.21212279796600342,0.5235111117362976
1751278794877745700,17.36174560546875,0.12446369975805283,0.13881902396678925,0.3536907136440277
1751278794896570400,17.3805703125,0.02306014485657215,-0.145843967795372,0.3390299379825592
1751278794915395000,17.39939501953125,0.04627300798892975,-0.01511890348047018,0.5174024701118469
1751278794934219800,17.4182197265625,0.13301581144332886,0.17058399319648743,0.5809323787689209
1751278794953044200,17.437044189453125,0.14523309469223022,0.22067490220069885,0.4367683231830597
1751278794971869000,17.455868896484375,0.015729768201708794,0.2084576040506363,0.22663083672523499
1751278794990693600,17.474693603515625,-0.1565341055393219,0.09361502528190613,0.28527384996414185
1751278795009518300,17.493518310546875,-0.18829907476902008,0.18280129134655,0.4453204274177551
1751278795028343000,17.512343017578125,-0.11255183815956116,0.25243985652923584,0.5797106623649597
1751278795047167700,17.531167724609375,-0.07345648854970932,-0.004123337101191282,0.646905779838562
1751278795065992400,17.549992431640625,-0.008704823441803455,-0.13484840095043182,0.5516108870506287
1751278795084817200,17.568817138671875,0.18310672044754028,-0.13240493834018707,0.2730565667152405
1751278795103641900,17.587641845703125,0.35048365592956543,-0.20204351842403412,0.35246896743774414
1751278795122466600,17.606466552734375,0.2600756883621216,-0.291229784488678,0.648127555847168
1751278795141291300,17.625291259765625,0.06582067906856537,-0.11407899856567383,0.841160774230957
1751278795160116000,17.644115966796875,-0.017256930470466614,-0.04321868345141411,0.7605266571044922
1751278795178940700,17.662940673828125,0.02306014485657215,-0.16905683279037476,0.6334667801856995
1751278795197765400,17.681765380859375,0.2503018379211426,-0.2643517255783081,0.7483093738555908
1751278795216590000,17.700590087890625,0.45677414536476135,-0.2594648003578186,0.9095776677131653
1751278795235414800,17.719414794921875,0.46166107058525085,-0.2631300091743469,0.8765909671783447
1751278795254239500,17.738239501953124,0.3565923273563385,-0.33276858925819397,0.6872228980064392
1751278795273064200,17.757064208984374,0.31383177638053894,-0.30833399295806885,0.6945532560348511
1751278795291889000,17.775888916015624,0.4017963111400604,-0.2484692484140396,0.7690787315368652
1751278795310713300,17.79471337890625,0.37491825222969055,-0.21548254787921906,0.618806004524231
1751278795329538000,17.8135380859375,0.2991710305213928,-0.13851359486579895,0.4050033390522003
1751278795348362800,17.83236279296875,0.08903354406356812,-0.28267768025398254,0.36712974309921265
1751278795367187500,17.8511875,-0.027030766010284424,-0.27779075503349304,0.4001164436340332
1751278795386012200,17.87001220703125,-0.02458730712532997,-0.08842267841100693,0.44409868121147156
1751278795404836900,17.8888369140625,0.10369429737329483,0.1107192412018776,0.379347026348114
1751278795423661600,17.90766162109375,0.28817546367645264,0.03497200831770897,0.33047783374786377
1751278795442486300,17.926486328125,0.43111783266067505,-0.23258677124977112,0.48930269479751587
1751278795461311000,17.94531103515625,0.4445568323135376,-0.2997818887233734,0.7165443897247314
1751278795480135700,17.9641357421875,0.3113883137702942,-0.19349141418933868,0.8301652073860168
1751278795498960400,17.98296044921875,0.18432845175266266,0.06551524996757507,0.8753692507743835
1751278795517785000,18.00178515625,0.16966769099235535,0.17424917221069336,0.9706641435623169
1751278795536609800,18.02060986328125,0.19165882468223572,-0.0896444097161293,0.9877683520317078
1751278795555434500,18.0394345703125,0.12690715491771698,-0.2704603672027588,0.8790343999862671
1751278795574259200,18.05825927734375,0.07803797721862793,-0.2484692484140396,0.7690787315368652
1751278795593084000,18.077083984375,0.03283398225903511,-0.1519526094198227,0.6823359727859497
1751278795611908600,18.09590869140625,0.03894263133406639,-0.054214250296354294,0.6652317643165588
1751278795630733300,18.1147333984375,0.002290742937475443,-0.009010255336761475,0.7556397318840027
1751278795649558000,18.13355810546875,0.08903354406356812,0.02764163166284561,0.9034690260887146
1751278795668382700,18.1523828125,0.2893971800804138,0.06062832847237587,0.7886264324188232
1751278795687207400,18.17120751953125,0.37858346104621887,-0.04199695214629173,0.5992583632469177
1751278795706032000,18.1900322265625,0.46654796600341797,-0.12996147572994232,0.5442805290222168
1751278795724856800,18.20885693359375,0.4787652790546417,0.01908952370285988,0.6860011219978333
1751278795743681500,18.227681640625,0.24663665890693665,0.09728021919727325,0.6432406306266785
1751278795762506200,18.24650634765625,0.10735948383808136,0.08628465235233307,0.35735589265823364
1751278795781330700,18.26533056640625,-0.008704823441803455,0.0386371985077858,0.258395791053772
1751278795800155400,18.2841552734375,-0.07834340631961823,0.020311253145337105,0.4196641147136688
1751278795818980000,18.30297998046875,-0.2029598206281662,-0.01511890348047018,0.6921098232269287
1751278795837804800,18.3218046875,-0.25793763995170593,-0.125074565410614,0.934012234210968
1751278795856629500,18.34062939453125,-0.1663079410791397,-0.23503021895885468,1.0818414688110352
1751278795875454200,18.3594541015625,0.008399390615522861,-0.06887500733137131,1.1771364212036133
1751278795894279000,18.37827880859375,0.08536835014820099,0.07162389904260635,1.2724313735961914
1751278795913103600,18.397103515625,0.20631958544254303,-0.03955349326133728,1.1979057788848877
1751278795931928300,18.41592822265625,0.29184064269065857,-0.17516547441482544,1.0891718864440918
1751278795950753000,18.4347529296875,0.33337944746017456,-0.04566214233636856,1.01708984375
1751278795969577700,18.45357763671875,0.3309359848499298,0.14859285950660706,1.1111630201339722
1751278795988402400,18.47240234375,0.300392746925354,0.19135339558124542,1.2003493309020996
1751278796007227100,18.49122705078125,0.3614792227745056,-0.02367101050913334,1.046411395072937
1751278796026051800,18.5100517578125,0.3455967605113983,-0.16416990756988525,0.9327905178070068
1751278796044876500,18.52887646484375,0.2808450758457184,-0.14828743040561676,0.7751874327659607
1751278796063701200,18.547701171875,0.08781181275844574,-0.0847574844956398,0.6444623470306396
1751278796082526000,18.56652587890625,-0.09178243577480316,-0.050549060106277466,0.5161807537078857
1751278796101350700,18.5853505859375,-0.1467602699995041,0.0032070400193333626,0.32559093832969666
1751278796120175400,18.60417529296875,-0.1418733447790146,0.016646064817905426,0.18875721096992493
1751278796139000000,18.623,-0.08078686892986298,-0.009010255336761475,0.1337793916463852
1751278796157824800,18.64182470703125,-0.02214384824037552,-0.03222311660647392,0.17898337543010712
1751278796176649500,18.6606494140625,0.025503603741526604,-0.07009673118591309,0.33169957995414734
1751278796195474200,18.67947412109375,0.11591159552335739,-0.1519526094198227,0.565049946308136
1751278796214299000,18.698298828125,0.09392046183347702,-0.18005239963531494,0.7104357481002808
1751278796233123600,18.71712353515625,0.1000291109085083,-0.15073087811470032,0.7189878225326538
1751278796251948300,18.7359482421875,0.11713331937789917,-0.14828743040561676,0.7165443897247314
1751278796270773000,18.75477294921875,0.10369429737329483,-0.20937390625476837,0.7006618976593018
1751278796289597700,18.77359765625,0.021838415414094925,-0.22525638341903687,0.4868592321872711
1751278796308422400,18.79242236328125,0.008399390615522861,-0.19104796648025513,0.28405213356018066
1751278796327247000,18.8112470703125,0.002290742937475443,-0.13240493834018707,0.2156352698802948
1751278796346071800,18.83007177734375,0.018173227086663246,0.004428769461810589,0.268169641494751
1751278796364896300,18.848896240234374,0.019394956529140472,0.0435241162776947,0.29138249158859253
1751278796383721200,18.86772119140625,-0.0062613640911877155,0.014202605932950974,0.19242240488529205
1751278796402546000,18.8865458984375,0.0902552679181099,-0.06643154472112656,0.07635809481143951
1751278796421370400,18.905370361328124,0.09636391699314117,-0.034666575491428375,0.03848448023200035
1751278796440195000,18.924195068359374,0.04627300798892975,-0.021227551624178886,0.17898337543010712
1751278796459020000,18.94302001953125,0.13545925915241241,-0.13484840095043182,0.44409868121147156
1751278796477844500,18.961844482421874,0.18310672044754028,-0.11652245372533798,0.6798924803733826
1751278796496669200,18.980669189453124,0.1623373180627823,-0.12996147572994232,0.7287616729736328
1751278796515494000,18.999493896484374,0.12690715491771698,-0.2179260104894638,0.6065887212753296
1751278796534318600,19.018318603515624,0.13545925915241241,-0.21548254787921906,0.4819723069667816
1751278796553143300,19.037143310546874,0.07315105944871902,-0.09697478264570236,0.3243691921234131
1751278796571968000,19.055968017578124,0.07192932814359665,-0.08597921580076218,0.185092031955719
1751278796590792700,19.074792724609374,0.057268574833869934,-0.12263110280036926,0.17531819641590118
1751278796609617400,19.093617431640624,0.057268574833869934,-0.18493930995464325,0.2522871494293213
1751278796628442000,19.112442138671874,0.031612250953912735,-0.145843967795372,0.3659079968929291
1751278796647266800,19.131266845703124,0.014508038759231567,-0.0798705667257309,0.42332929372787476
1751278796666091500,19.150091552734374,0.057268574833869934,-0.06154462695121765,0.48075059056282043
1751278796684916200,19.168916259765624,0.0902552679181099,-0.02977965772151947,0.5039634704589844
1751278796703741000,19.187740966796873,0.15256348252296448,-0.0896444097161293,0.4575377106666565
1751278796722565600,19.206565673828123,0.18310672044754028,-0.16661337018013,0.35124725103378296
1751278796741390300,19.225390380859373,0.18555018305778503,-0.16539163887500763,0.24495677649974823
1751278796760215000,19.244215087890623,0.1769980639219284,-0.1360701322555542,0.17653992772102356
1751278796779039700,19.263039794921873,0.12690715491771698,-0.14462223649024963,0.17165300250053406
1751278796797864400,19.281864501953127,0.05849030241370201,-0.10063996911048889,0.21441353857517242
1751278796816689200,19.300689208984377,-0.0038179049734026194,0.0019853105768561363,0.27916520833969116
1751278796835513900,19.319513916015627,-0.01847865991294384,-0.028557928279042244,0.3341430425643921
1751278796854338600,19.338338623046877,0.01206457894295454,-0.11163553595542908,0.35246896743774414
1751278796873163300,19.357163330078127,0.025503603741526604,-0.09453132748603821,0.37201663851737976
1751278796891988000,19.375988037109376,0.0487164668738842,-0.10063996911048889,0.41233372688293457
1751278796910812700,19.394812744140626,0.041386090219020844,-0.09941824525594711,0.4477638900279999
1751278796929637400,19.413637451171876,0.04260781779885292,-0.08353576064109802,0.45387253165245056
1751278796948462000,19.432462158203126,0.051159925758838654,-0.0798705667257309,0.4355465769767761
1751278796967286800,19.451286865234376,0.12446369975805283,-0.10430516302585602,0.4111120104789734
1751278796986111500,19.470111572265626,0.18555018305778503,-0.08353576064109802,0.430659681558609
1751278797004936200,19.488936279296876,0.16478078067302704,-0.1262962967157364,0.44898560643196106
1751278797023761000,19.507760986328126,0.10369429737329483,-0.20693044364452362,0.4367683231830597
1751278797042585600,19.526585693359376,0.07681624591350555,-0.15439607203006744,0.4477638900279999
1751278797061410300,19.545410400390626,0.07681624591350555,-0.06887500733137131,0.44898560643196106
1751278797080235000,19.564235107421876,0.1207985132932663,-0.12873975932598114,0.4367683231830597
1751278797099059700,19.583059814453126,0.14523309469223022,-0.16539163887500763,0.48563748598098755
1751278797117884400,19.601884521484376,0.1513417512178421,-0.14217877388000488,0.573602020740509
1751278797136709000,19.620709228515626,0.11835505068302155,-0.125074565410614,0.6090322136878967
1751278797155533800,19.639533935546876,0.07803797721862793,-0.2130390852689743,0.46364638209342957
1751278797174358500,19.658358642578126,0.1049160286784172,-0.1409570425748825,0.25961753726005554
1751278797193183200,19.677183349609376,0.03649916872382164,-0.11407899856567383,0.08368847519159317
1751278797212008000,19.696008056640625,-0.04046979174017906,-0.12140937149524689,0.015271619893610477
1751278797230832600,19.71483251953125,-0.049021899700164795,-0.05543597787618637,0.10934479534626007
1751278797249657300,19.7336572265625,-0.03802633285522461,-0.03222311660647392,0.19730933010578156
1751278797268482000,19.75248193359375,-0.030695954337716103,-0.06643154472112656,0.18875721096992493
1751278797287306800,19.771306640625,0.004734201822429895,-0.050549060106277466,0.15577052533626556
1751278797306131500,19.79013134765625,0.064598947763443,-0.03711003437638283,0.16798780858516693
1751278797324956200,19.8089560546875,0.10858121514320374,-0.028557928279042244,0.2559523284435272
1751278797343780900,19.82778076171875,0.08536835014820099,-0.031001387163996696,0.3646862804889679
1751278797362605600,19.84660546875,0.009621120058000088,-0.1311832070350647,0.4917461574077606
1751278797381430300,19.86543017578125,-0.11377356201410294,-0.10674861818552017,0.48441576957702637
1751278797400255000,19.8842548828125,-0.2078467458486557,-0.1153007298707962,0.4612029194831848
1751278797419079700,19.90307958984375,-0.2383899837732315,-0.145843967795372,0.5809323787689209
1751278797437904400,19.921904296875,-0.22128576040267944,-0.08720094710588455,0.6798924803733826
1751278797456729000,19.94072900390625,-0.18952079117298126,-0.11163553595542908,0.5723803043365479
1751278797475553800,19.9595537109375,-0.11499529331922531,-0.027336198836565018,0.3585776388645172
1751278797494378500,19.97837841796875,-0.0025961752980947495,0.0032070400193333626,0.1948658674955368
1751278797513203200,19.997203125,0.08292489498853683,0.0435241162776947,0.07757982611656189
1751278797550852600,20.0348525390625,0.07681624591350555,0.052076224237680435,0.11178825795650482
1751278797569677300,20.05367724609375,0.008399390615522861,0.011759147047996521,0.20830489695072174
1751278797588502000,20.072501953125,-0.03802633285522461,0.004428769461810589,0.30970844626426697
1751278797607326700,20.09132666015625,0.057268574833869934,0.1107192412018776,0.46608981490135193
1751278797626151400,20.1101513671875,0.021838415414094925,0.055741410702466965,0.6701186895370483
1751278797644976000,20.12897607421875,-0.12965604662895203,-0.08231402933597565,0.729983389377594
1751278797663800800,20.14780078125,-0.13332124054431915,-0.09330959618091583,0.6627882719039917
1751278797682625500,20.16662548828125,-0.05024362727999687,-0.08109229803085327,0.5259546041488647
1751278797701450200,20.1854501953125,-0.011148282326757908,-0.060322895646095276,0.4001164436340332
1751278797720275000,20.20427490234375,0.03649916872382164,-0.046883873641490936,0.22663083672523499
1751278797739099600,20.223099609375,0.05604684352874756,-0.006566796451807022,0.09712749719619751
1751278797757924400,20.24192431640625,0.0487164668738842,-0.0334448479115963,0.0665842592716217
1751278797776749000,20.2607490234375,0.0487164668738842,-0.031001387163996696,0.17776164412498474
1751278797795573800,20.27957373046875,0.0487164668738842,-0.0102319847792387,0.36835145950317383
1751278797814398700,20.298398681640624,0.025503603741526604,-0.002901607658714056,0.4783071279525757
1751278797833223200,20.31722314453125,-0.03558287397027016,-0.10919208079576492,0.56382817029953
1751278797852048000,20.3360478515625,-0.12110394239425659,-0.04321868345141411,0.6322450637817383
1751278797870872800,20.354872802734373,-0.13820815086364746,-0.08231402933597565,0.6994401812553406
1751278797889697300,20.373697265625,-0.10644318908452988,-0.05299251899123192,0.7238747477531433
1751278797908522000,20.39252197265625,-0.07223475724458694,-0.10430516302585602,0.6603448390960693
1751278797927347000,20.411346923828123,-0.06734783947467804,-0.10797034949064255,0.5992583632469177
1751278797946171400,20.43017138671875,-0.03191768378019333,-0.02000582218170166,0.5540543794631958
1751278797964996400,20.448996337890627,-0.05024362727999687,-0.05543597787618637,0.5296197533607483
1751278797983821000,20.467821044921877,-0.06734783947467804,0.023976443335413933,0.4783071279525757
1751278798002645500,20.4866455078125,-0.07101303339004517,0.11804962158203125,0.37201663851737976
1751278798021470500,20.505470458984377,-0.03436114266514778,0.011759147047996521,0.2987128794193268
1751278798040295200,20.524295166015627,0.009621120058000088,-0.031001387163996696,0.23762640357017517
1751278798059119900,20.543119873046876,0.0010690133785828948,-0.03711003437638283,0.19853104650974274
1751278798077944600,20.561944580078126,-0.014813470654189587,-0.02977965772151947,0.1997527778148651
1751278798096769300,20.580769287109376,-0.009926552884280682,-0.022449281066656113,0.21441353857517242
1751278798115594000,20.599593994140626,-0.011148282326757908,0.02519817277789116,0.2571740746498108
1751278798134418700,20.618418701171876,-0.019700389355421066,0.039858926087617874,0.3084867000579834
1751278798153243400,20.637243408203126,-0.04046979174017906,0.07162389904260635,0.389120876789093
1751278798172068000,20.656068115234376,-0.06856957077980042,0.14370593428611755,0.37812530994415283
1751278798190892800,20.674892822265626,-0.1467602699995041,0.036193739622831345,0.3231474757194519
1751278798209717500,20.693717529296876,-0.13454297184944153,-0.06765327602624893,0.30604326725006104
1751278798228542200,20.712542236328126,-0.09422589093446732,-0.04566214233636856,0.3329212963581085
1751278798247367000,20.731366943359376,-0.09422589093446732,0.0007635809597559273,0.3610210716724396
1751278798266191600,20.750191650390626,-0.07223475724458694,-0.0102319847792387,0.3500255048274994
1751278798285016300,20.769016357421876,-0.06368265300989151,-0.03711003437638283,0.2889390289783478
1751278798303841000,20.787841064453126,-0.0539088174700737,0.03130681812763214,0.27550002932548523
1751278798322665700,20.806665771484376,-0.06612611562013626,0.0899498388171196,0.2779434621334076
1751278798341490400,20.825490478515626,-0.04413498193025589,0.0386371985077858,0.2877173125743866
1751278798360315100,20.844315185546876,-0.03191768378019333,-0.02000582218170166,0.24373504519462585
1751278798379139800,20.863139892578126,-0.029474224895238876,-0.011453714221715927,0.17043127119541168
1751278798397964500,20.881964599609375,-0.008704823441803455,-0.005345067009329796,0.16065743565559387
1751278798416789200,20.900789306640625,0.01206457894295454,-0.002901607658714056,0.18264856934547424
1751278798435614000,20.919614013671875,0.025503603741526604,-0.009010255336761475,0.205861434340477
1751278798454438700,20.938438720703125,0.013286309316754341,-0.006566796451807022,0.24740023910999298
1751278798473263400,20.957263427734375,-0.02214384824037552,-0.03711003437638283,0.2974911332130432
1751278798492088000,20.976088134765625,-0.007483093533664942,-0.07376192510128021,0.3292561173439026
1751278798510912800,20.994912841796875,0.018173227086663246,-0.0383317656815052,0.33536475896835327
1751278798529737500,21.013737548828125,0.02916879393160343,0.04841103404760361,0.32559093832969666
1751278798548562200,21.032562255859375,0.02916879393160343,0.06673697382211685,0.31093016266822815
1751278798567387000,21.051386962890625,0.04016435891389847,0.05940660089254379,0.32192572951316833
1751278798586211600,21.070211669921875,0.047494735568761826,0.02153298258781433,0.337808221578598
1751278798605036300,21.089036376953125,0.07192932814359665,0.04108065739274025,0.3597993552684784
1751278798623861000,21.107861083984375,0.05971203371882439,0.049632761627435684,0.37812530994415283
1751278798642685700,21.126685791015625,0.053603384643793106,-0.004123337101191282,0.44898560643196106
1751278798661510400,21.145510498046875,0.05482511222362518,0.004428769461810589,0.4990765154361725
1751278798680335000,21.164335205078125,0.04016435891389847,0.0386371985077858,0.5198459029197693
1751278798699159800,21.183159912109375,0.047494735568761826,0.10583232343196869,0.5540543794631958
1751278798717984500,21.201984619140624,0.05238165333867073,0.10827577859163284,0.5980366468429565
1751278798736809200,21.220809326171874,0.08292489498853683,0.12782345712184906,0.6530144214630127
1751278798755634200,21.23963427734375,0.09269873052835464,0.12660172581672668,0.6847794055938721
1751278798774458600,21.258458740234374,0.11713331937789917,0.12904518842697144,0.6945532560348511
1751278798793283600,21.27728369140625,0.1562286615371704,0.19013166427612305,0.6688969135284424
1751278798812108300,21.2961083984375,0.15256348252296448,0.15958842635154724,0.6102539300918579
1751278798830933000,21.31493310546875,0.1256854236125946,0.09850194305181503,0.5271763205528259
1751278798849757700,21.3337578125,0.11102467030286789,0.0850629210472107,0.45509424805641174
1751278798868582400,21.35258251953125,0.14523309469223022,0.0642935186624527,0.38789913058280945
1751278798887407000,21.371406982421874,0.1769980639219284,0.04718930274248123,0.3549124300479889
1751278798906231800,21.390231689453124,0.13179408013820648,0.04841103404760361,0.3329212963581085
1751278798925056500,21.409056396484374,0.043829549103975296,0.011759147047996521,0.2864955961704254
1751278798943881200,21.427881103515624,0.02672533318400383,-0.03222311660647392,0.2254091054201126
1751278798962706000,21.446705810546874,0.047494735568761826,0.022754713892936707,0.23029601573944092
1751278798981530600,21.465530517578124,0.07681624591350555,0.04474584385752678,0.21930044889450073
1751278799000355300,21.484355224609374,0.07315105944871902,0.028863361105322838,0.2156352698802948
1751278799019180000,21.503179931640624,0.003512472379952669,-0.05543597787618637,0.21807873249053955
1751278799038004700,21.522004638671874,-0.029474224895238876,-0.08353576064109802,0.2156352698802948
1751278799056829400,21.540829345703123,-0.03191768378019333,-0.07131846249103546,0.21319180727005005
1751278799075654100,21.559654052734373,-0.01359174121171236,-0.0639880821108818,0.24984370172023773
1751278799094478800,21.578478759765623,0.041386090219020844,0.004428769461810589,0.2974911332130432
1751278799113303600,21.597303466796873,-0.0013744457392022014,0.0642935186624527,0.3536907136440277
1751278799132128300,21.616128173828123,-0.033139415085315704,0.08139773458242416,0.3610210716724396
1751278799150953000,21.634952880859377,-0.0539088174700737,0.0899498388171196,0.4098902642726898
1751278799169777700,21.653777587890627,-0.04169152304530144,0.09117157012224197,0.41844236850738525
1751278799188602400,21.672602294921877,-0.009926552884280682,0.0386371985077858,0.3952295184135437
1751278799207427000,21.691427001953127,0.009621120058000088,0.04718930274248123,0.4062250852584839
1751278799226251800,21.710251708984377,0.004734201822429895,0.049632761627435684,0.4111120104789734
1751278799245076700,21.72907666015625,-0.02825249545276165,0.036193739622831345,0.4221075773239136
1751278799263901200,21.747901123046876,-0.05146535858511925,0.028863361105322838,0.42332929372787476
1751278799282726100,21.76672607421875,-0.027030766010284424,0.004428769461810589,0.4269944727420807
1751278799301550800,21.78555078125,0.019394956529140472,-0.06276635825634003,0.4379900395870209
1751278799320375600,21.80437548828125,0.0694858655333519,-0.09941824525594711,0.4477638900279999
1751278799339200300,21.8232001953125,0.08170316368341446,-0.07864884287118912,0.4404335021972656
1751278799358025000,21.84202490234375,0.064598947763443,-0.07620538026094437,0.4147771894931793
1751278799376849700,21.860849609375,0.027947064489126205,-0.06276635825634003,0.3903425931930542
1751278799395674400,21.87967431640625,-0.023365577682852745,-0.0383317656815052,0.3072649836540222
1751278799414499000,21.8984990234375,-0.0038179049734026194,-0.05299251899123192,0.2156352698802948
1751278799433323800,21.91732373046875,0.04505127668380737,-0.02977965772151947,0.2205221801996231
1751278799452148500,21.9361484375,0.06582067906856537,-0.06765327602624893,0.31581708788871765
1751278799470973200,21.95497314453125,0.06582067906856537,-0.022449281066656113,0.4318813979625702
1751278799489798000,21.9737978515625,0.02916879393160343,-0.006566796451807022,0.5296197533607483
1751278799508622600,21.99262255859375,-0.02458730712532997,-0.056657709181308746,0.5589412450790405
1751278799527447300,22.011447265625,-0.027030766010284424,-0.04810560122132301,0.49663305282592773
1751278799546272000,22.03027197265625,-0.01359174121171236,-0.007788525894284248,0.4172206521034241
1751278799565096700,22.0490966796875,-0.0025961752980947495,0.012980876490473747,0.35735589265823364
1751278799583921400,22.06792138671875,-0.009926552884280682,0.023976443335413933,0.29626941680908203
1751278799602746000,22.08674609375,-0.01847865991294384,0.011759147047996521,0.2107483446598053
1751278799621570800,22.10557080078125,-0.023365577682852745,-0.011453714221715927,0.14110976457595825
1751278799640395500,22.1243955078125,0.002290742937475443,-0.027336198836565018,0.1081230640411377
1751278799659220200,22.14322021484375,0.02916879393160343,-0.001679878099821508,0.13255766034126282
1751278799678045000,22.162044921875,0.019394956529140472,0.017867794260382652,0.185092031955719
1751278799696870000,22.180869873046873,-0.019700389355421066,0.06673697382211685,0.23029601573944092
1751278799715694600,22.199694580078123,-0.03436114266514778,0.0386371985077858,0.19853104650974274
1751278799734519300,22.218519287109373,-0.019700389355421066,-0.040775224566459656,0.22418737411499023
1751278799753344000,22.237343994140623,-0.012370011769235134,-0.004123337101191282,0.32681265473365784
1751278799772168700,22.256168701171877,0.009621120058000088,0.016646064817905426,0.4147771894931793
1751278799790993400,22.274993408203127,0.04260781779885292,0.004428769461810589,0.430659681558609
1751278799809818000,22.293818115234377,0.04627300798892975,-0.07254019379615784,0.4062250852584839
1751278799828642800,22.312642822265627,0.0206166859716177,-0.06765327602624893,0.3597993552684784
1751278799847467500,22.331467529296877,-0.03558287397027016,-0.0383317656815052,0.32070401310920715
1751278799866292200,22.350292236328126,-0.058795735239982605,-0.005345067009329796,0.3084867000579834
1751278799885117000,22.369116943359376,-0.033139415085315704,-0.028557928279042244,0.2730565667152405
1751278799903941600,22.387941650390626,-0.007483093533664942,-0.04932733252644539,0.2522871494293213
1751278799922766300,22.406766357421876,-0.0062613640911877155,-0.060322895646095276,0.2364046722650528
1751278799941591000,22.425591064453126,-0.0038179049734026194,-0.02977965772151947,0.2657261788845062
1751278799960415700,22.444415771484376,0.002290742937475443,-0.005345067009329796,0.28038692474365234
1751278799979240400,22.463240478515626,0.015729768201708794,-0.00045814859913662076,0.3084867000579834
1751278799998065200,22.482065185546876,0.013286309316754341,-0.001679878099821508,0.3072649836540222
1751278800016889900,22.500889892578126,0.004734201822429895,-0.013897174037992954,0.24740023910999298
1751278800035714600,22.519714599609376,-0.016035201027989388,-0.0639880821108818,0.164322629570961
1751278800054539500,22.53853955078125,-0.01847865991294384,-0.07376192510128021,0.11545344442129135
1751278800073364200,22.5573642578125,-0.007483093533664942,-0.056657709181308746,0.17287473380565643
1751278800092189000,22.57618896484375,-0.029474224895238876,-0.03588830679655075,0.25350889563560486
1751278800111013600,22.595013671875,-0.008704823441803455,-0.06520981341600418,0.3035998046398163
1751278800129838300,22.61383837890625,0.06215549260377884,0.004428769461810589,0.32681265473365784
1751278800148663000,22.6326630859375,0.0743727833032608,0.03252854943275452,0.2877173125743866
1751278800167487700,22.65148779296875,0.04260781779885292,-0.024892739951610565,0.2205221801996231
1751278800186312400,22.6703125,0.027947064489126205,0.039858926087617874,0.1740964651107788
1751278800205137200,22.68913720703125,0.06582067906856537,0.039858926087617874,0.14477495849132538
1751278800223961900,22.7079619140625,0.07681624591350555,-0.09453132748603821,0.056810423731803894
1751278800242786600,22.72678662109375,0.015729768201708794,-0.2606865465641022,-0.053145237267017365
1751278800261611300,22.745611328125,-0.04780016839504242,-0.291229784488678,-0.164322629570961
1751278800280436000,22.76443603515625,-0.0062613640911877155,-0.16416990756988525,-0.18387030065059662
1751278800299260700,22.7832607421875,0.1207985132932663,-0.046883873641490936,-0.143553227186203
1751278800318085400,22.80208544921875,0.2234237939119339,0.055741410702466965,-0.10445787757635117
1751278800336910000,22.82091015625,0.21609342098236084,0.07284562289714813,-0.10323614627122879
1751278800365147400,22.8491474609375,0.1721111536026001,-0.17638720571994781,-0.20341797173023224
1751278800383972000,22.86797216796875,0.1513417512178421,-0.30711227655410767,-0.18264856934547424
1751278800402796800,22.886796875,0.17821979522705078,-0.2228129357099533,-0.02871064469218254
1751278800421621500,22.90562158203125,0.1721111536026001,-0.27656903862953186,0.08368847519159317
1751278800440446200,22.9244462890625,0.1415679156780243,-0.40118545293807983,0.07024945318698883
1751278800459271000,22.94327099609375,0.08048143237829208,-0.21059563755989075,0.04459312930703163
1751278800478095600,22.962095703125,-0.007483093533664942,-0.24113887548446655,0.0616973415017128
1751278800496920300,22.98092041015625,0.14034618437290192,-0.33276858925819397,0.025045456364750862
1751278800515745000,22.9997451171875,0.300392746925354,-0.49770209193229675,-0.03481929376721382
1751278800534569700,23.01856982421875,0.17088942229747772,-0.281455934047699,-0.03848448023200035
1751278800553394400,23.03739453125,-0.15775582194328308,0.05085449293255806,0.13744457066059113
1751278800572219100,23.05621923828125,-0.3116937577724457,0.1156061589717865,0.21319180727005005
1751278800591043800,23.0750439453125,-0.13454297184944153,-0.07620538026094437,0.22418737411499023
1751278800609868500,23.09386865234375,0.1415679156780243,-0.0383317656815052,0.20952661335468292
1751278800628693500,23.112693603515623,0.2490801066160202,0.01908952370285988,0.1594357043504715
