time,seconds_elapsed,z,y,x
1751278777803806200,0.28780615234375,-0.014049889519810677,0.009621120058000088,-0.001679878099821508
1751278777841455400,0.325455322265625,0.004276053514331579,0.03756818547844887,0.012980876490473747
1751278777860279800,0.34427978515625,-0.000610864779446274,0.015729768201708794,0.0154243353754282
1751278777879104500,0.3631044921875,-0.011606430634856224,-0.014813470654189587,0.006872228812426329
1751278777897929000,0.381928955078125,-0.01282816007733345,-0.04780016839504242,-0.012675444595515728
1751278777916753400,0.40075341796875,-0.009162971749901772,-0.05513054504990578,-0.02718348242342472
1751278777935578000,0.419578125,-0.010384701192378998,-0.011148282326757908,-0.03817904740571976
1751278777954402600,0.438402587890625,-0.009162971749901772,0.05833758786320686,-0.03222311660647392
1751278777973227300,0.457227294921875,0.010384701192378998,0.09132428467273712,-0.004123337101191282
1751278777992051700,0.4760517578125,0.023823726922273636,0.12675444781780243,0.0154243353754282
1751278778010876200,0.494876220703125,0.01649334840476513,0.10231985151767731,0.017867794260382652
1751278778029700900,0.513700927734375,-0.001832594396546483,0.0206166859716177,-0.001679878099821508
1751278778048525300,0.532525390625,-0.015271619893610477,-0.06246092543005943,-0.035735588520765305
1751278778067350000,0.55135009765625,-0.021380268037319183,-0.07223475724458694,-0.05283980444073677
1751278778086174500,0.570174560546875,-0.02626718580722809,-0.06368265300989151,-0.041844237595796585
1751278778104999000,0.5889990234375,-0.014049889519810677,-0.036804601550102234,0.004428769461810589
1751278778123823600,0.60782373046875,0.007941242307424545,0.02779434807598591,0.03252854943275452
1751278778142648000,0.62664794921875,-0.006719512399286032,0.05100720748305321,0.008093958720564842
1751278778161472800,0.64547265625,-0.02871064469218254,-0.0025961752980947495,-0.021227551624178886
1751278778180297200,0.664297119140625,-0.02871064469218254,-0.05513054504990578,-0.029626941308379173
1751278778199122000,0.683121826171875,-0.031154103577136993,-0.0539088174700737,-0.019853105768561363
1751278778217946400,0.7019462890625,-0.033597562462091446,-0.04046979174017906,-0.012675444595515728
1751278778236770800,0.720770751953125,-0.02871064469218254,-0.005039634648710489,-0.007788525894284248
1751278778255595500,0.739595458984375,-0.02260199747979641,0.05222893878817558,0.0019853105768561363
1751278778274420000,0.758419921875,-0.009162971749901772,0.07422006875276566,0.005650499369949102
1751278778293244700,0.77724462890625,0.004276053514331579,0.060781046748161316,0.012980876490473747
1751278778312069000,0.796069091796875,0.006719512399286032,0.030390523374080658,0.017867794260382652
1751278778330893800,0.814893798828125,0.001832594396546483,-0.011148282326757908,0.01908952370285988
1751278778349718300,0.83371826171875,-0.007941242307424545,-0.06612611562013626,0.0007635809597559273
1751278778368542700,0.852542724609375,-0.009162971749901772,-0.019700389355421066,-0.024740023538470268
1751278778387367400,0.871367431640625,-0.004276053514331579,0.04367683082818985,-0.013744457624852657
1751278778406192000,0.890192138671875,0.004276053514331579,0.054672397673130035,0.020311253145337105
1751278778425016600,0.9090166015625,-0.011606430634856224,0.0206166859716177,0.02764163166284561
1751278778443841000,0.927841064453125,-0.031154103577136993,-0.05024362727999687,0.0154243353754282
1751278778462665700,0.946665771484375,-0.02626718580722809,-0.07589995115995407,0.0007635809597559273
1751278778481490200,0.965490234375,-0.011606430634856224,-0.005039634648710489,-0.01511890348047018
1751278778500315000,0.98431494140625,0.0054977829568088055,0.07544180005788803,-0.031001387163996696
1751278778519139300,1.003139404296875,0.01282816007733345,0.09376774728298187,-0.035735588520765305
1751278778537964000,1.021964111328125,0.001832594396546483,0.0412333719432354,-0.01740964688360691
1751278778556788500,1.04078857421875,-0.014049889519810677,0.0010690133785828948,0.010537417605519295
1751278778575613000,1.059613037109375,-0.01893680728971958,-0.0001527161948615685,0.023976443335413933
1751278778594437600,1.078437744140625,-0.033597562462091446,-0.0025961752980947495,0.026419902220368385
1751278778613262300,1.097262451171875,-0.02871064469218254,-0.008704823441803455,0.03741546720266342
1751278778632086800,1.116086669921875,-0.017715077847242355,-0.011148282326757908,0.04108065739274025
1751278778650911200,1.1349111328125,-0.015271619893610477,-0.014813470654189587,0.02519817277789116
1751278778669736000,1.15373583984375,-0.011606430634856224,0.007177661173045635,-0.005345067009329796
1751278778688560400,1.172560302734375,-0.010384701192378998,0.026572618633508682,-0.011453714221715927
1751278778707385000,1.191385009765625,-0.0030543238390237093,0.004734201822429895,0.0032070400193333626
1751278778726209500,1.21020947265625,-0.007941242307424545,-0.03191768378019333,0.009315688163042068
1751278778745034200,1.2290341796875,-0.01649334840476513,-0.012370011769235134,0.005650499369949102
1751278778763858700,1.247858642578125,-0.01649334840476513,0.009621120058000088,-0.001679878099821508
1751278778782683400,1.266683349609375,-0.011606430634856224,-0.0013744457392022014,-0.011453714221715927
1751278778801507800,1.2855078125,-0.006719512399286032,-0.009926552884280682,-0.0102319847792387
1751278778820332500,1.30433251953125,-0.0054977829568088055,0.029016077518463135,0.009315688163042068
1751278778839157000,1.323156982421875,-0.0030543238390237093,0.0461202897131443,0.03741546720266342
1751278778857981700,1.341981689453125,-0.006719512399286032,0.005955931730568409,0.03130681812763214
1751278778876806100,1.36080615234375,-0.01282816007733345,0.005955931730568409,-0.009010255336761475
1751278778895630800,1.379630859375,-0.010384701192378998,-0.0038179049734026194,-0.023518294095993042
1751278778914455300,1.398455322265625,0.015271619893610477,0.03634645417332649,0.020311253145337105
1751278778933280000,1.417280029296875,0.039706211537122726,0.10965022444725037,0.08872810751199722
1751278778952104400,1.4361044921875,0.04825831577181816,0.11331541836261749,0.11316270381212234
1751278778970929200,1.45492919921875,0.025045456364750862,0.05955931544303894,0.030085090547800064
1751278778989753600,1.473753662109375,-0.03237583488225937,0.01206457894295454,-0.09437860548496246
1751278779008578300,1.492578369140625,-0.05436696484684944,-0.06490438431501389,-0.1285870373249054
1751278779027402800,1.51140283203125,-0.06414080411195755,-0.1003345400094986,-0.05283980444073677
1751278779046227500,1.5302275390625,-0.04581485688686371,-0.033139415085315704,0.05940660089254379
1751278779065052000,1.549052001953125,-0.007941242307424545,0.08032871782779694,0.13881902396678925
1751278779083876400,1.56787646484375,0.01893680728971958,0.10231985151767731,0.1314886510372162
1751278779102701000,1.586701171875,0.010384701192378998,0.02306014485657215,0.036193739622831345
1751278779121525800,1.60552587890625,-0.0030543238390237093,-0.025809036567807198,-0.07849612087011337
1751278779140350200,1.62435009765625,-0.023823726922273636,-0.02458730712532997,-0.10659590363502502
1751278779159175000,1.6431748046875,-0.020158538594841957,0.003512472379952669,-0.03329212963581085
1751278779177999400,1.661999267578125,-0.004276053514331579,0.002290742937475443,0.05085449293255806
1751278779196823800,1.68082373046875,0.006719512399286032,0.008399390615522861,0.07651081681251526
1751278779215648500,1.6996484375,0.004276053514331579,0.021838415414094925,0.04718930274248123
1751278779234473200,1.71847314453125,-0.0030543238390237093,0.02306014485657215,-0.019853105768561363
1751278779253297700,1.737297607421875,-0.015271619893610477,0.01695149764418602,-0.06750056147575378
1751278779272122400,1.756122314453125,-0.01893680728971958,-0.016035201027989388,-0.03817904740571976
1751278779290946800,1.77494677734375,-0.01282816007733345,-0.0013744457392022014,0.026419902220368385
1751278779309771500,1.793771484375,-0.001832594396546483,0.009621120058000088,0.05451968312263489
1751278779328596000,1.812595947265625,-0.001832594396546483,-0.008704823441803455,0.011759147047996521
1751278779347420700,1.831420654296875,-0.020158538594841957,0.0010690133785828948,-0.03940077871084213
1751278779366245000,1.8502451171875,-0.023823726922273636,0.01695149764418602,-0.035735588520765305
1751278779385069800,1.86906982421875,-0.01893680728971958,0.021838415414094925,0.020311253145337105
1751278779403894300,1.887894287109375,-0.010384701192378998,0.003512472379952669,0.061850059777498245
1751278779422719000,1.906718994140625,-0.006719512399286032,-0.03191768378019333,0.039858926087617874
1751278779441543400,1.92554345703125,-0.004276053514331579,-0.03802633285522461,-0.01740964688360691
1751278779460368100,1.9443681640625,-0.015271619893610477,-0.009926552884280682,-0.047952886670827866
1751278779479192600,1.963192626953125,-0.014049889519810677,0.02306014485657215,-0.024740023538470268
1751278779498017300,1.982017333984375,-0.0054977829568088055,0.013286309316754341,0.02764163166284561
1751278779516841700,2.000841796875,-0.007941242307424545,-0.012370011769235134,0.04474584385752678
1751278779535666400,2.01966650390625,-0.010384701192378998,-0.03802633285522461,-0.007788525894284248
1751278779554491000,2.038490966796875,-0.01282816007733345,-0.049021899700164795,-0.05894844979047775
1751278779573315600,2.057315673828125,-0.014049889519810677,-0.05146535858511925,-0.05283980444073677
1751278779592140000,2.07614013671875,-0.000610864779446274,0.008399390615522861,0.014202605932950974
1751278779610964700,2.09496484375,0.01282816007733345,0.054672397673130035,0.07651081681251526
1751278779629789200,2.1137890625,0.010384701192378998,0.04978547990322113,0.0899498388171196
1751278779648614000,2.13261376953125,-0.004276053514331579,0.013286309316754341,0.049632761627435684
1751278779667438300,2.151438232421875,-0.006719512399286032,-0.01847865991294384,-0.011453714221715927
1751278779686263000,2.170262939453125,-0.007941242307424545,-0.0038179049734026194,-0.03451386094093323
1751278779705087700,2.189087646484375,-0.004276053514331579,0.021838415414094925,-0.007788525894284248
1751278779723912200,2.207912109375,-0.006719512399286032,0.05711585655808449,0.036193739622831345
1751278779742737000,2.22673681640625,-0.004276053514331579,0.03527744114398956,0.07284562289714813
1751278779761561300,2.245561279296875,0.004276053514331579,0.0010690133785828948,0.08261945843696594
1751278779780386000,2.264385986328125,-0.0030543238390237093,-0.03191768378019333,0.03497200831770897
1751278779799210500,2.28321044921875,-0.021380268037319183,-0.049021899700164795,-0.035735588520765305
1751278779818035200,2.30203515625,-0.04214967042207718,-0.04780016839504242,-0.0565049909055233
1751278779836859600,2.320859619140625,-0.039706211537122726,-0.005039634648710489,-0.01740964688360691
1751278779855684400,2.339684326171875,-0.021380268037319183,0.05345066636800766,0.026419902220368385
1751278779874508800,2.3585087890625,0.007941242307424545,0.06933315098285675,0.04108065739274025
1751278779893333500,2.37733349609375,0.020158538594841957,0.04367683082818985,0.02764163166284561
1751278779912158200,2.396158203125,0.0054977829568088055,-0.0001527161948615685,-0.005345067009329796
1751278779930982700,2.414982666015625,-0.011606430634856224,-0.02214384824037552,-0.03451386094093323
1751278779949807400,2.433807373046875,-0.020158538594841957,-0.029474224895238876,-0.013744457624852657
1751278779968631800,2.4526318359375,-0.010384701192378998,-0.03436114266514778,0.03497200831770897
1751278779987456500,2.47145654296875,-0.009162971749901772,0.025503603741526604,0.04841103404760361
1751278780006281000,2.490281005859375,-0.010384701192378998,0.05955931544303894,0.01908952370285988
1751278780025105700,2.509105712890625,-0.0054977829568088055,0.014508038759231567,-0.009010255336761475
1751278780043930000,2.52793017578125,-0.009162971749901772,-0.017256930470466614,-0.01511890348047018
1751278780062754800,2.5467548828125,-0.010384701192378998,-0.005039634648710489,-0.002901607658714056
1751278780081579500,2.56557958984375,0.004276053514331579,0.021838415414094925,0.022754713892936707
1751278780100404000,2.584404052734375,0.015271619893610477,0.04245510324835777,0.028863361105322838
1751278780119228700,2.603228759765625,0.006719512399286032,0.021838415414094925,0.0019853105768561363
1751278780138053000,2.62205322265625,-0.025045456364750862,-0.02825249545276165,-0.04550942778587341
1751278780156877800,2.6408779296875,-0.037262752652168274,-0.07834340631961823,-0.06750056147575378
1751278780175702300,2.659702392578125,-0.027488915249705315,-0.07101303339004517,-0.02718348242342472
1751278780194527000,2.67852685546875,-0.007941242307424545,-0.019700389355421066,-0.00045814859913662076
1751278780213351400,2.697351318359375,-0.0054977829568088055,0.038789913058280945,0.0032070400193333626
1751278780232176000,2.716176025390625,-0.027488915249705315,0.09010255336761475,0.0032070400193333626
1751278780251000600,2.73500048828125,-0.05925388261675835,0.07422006875276566,0.0032070400193333626
1751278780269825300,2.7538251953125,-0.07024945318698883,-0.0038179049734026194,-0.004123337101191282
1751278780288650000,2.77264990234375,-0.06291907280683517,-0.04169152304530144,-0.011453714221715927
1751278780307474400,2.791474365234375,-0.06780599057674408,-0.052687086164951324,-0.01740964688360691
1751278780326299100,2.810299072265625,-0.08979712426662445,-0.09544762223958969,0.0154243353754282
1751278780345123600,2.82912353515625,-0.06291907280683517,-0.15775582194328308,0.08261945843696594
1751278780363948300,2.8479482421875,-0.056810423731803894,-0.06734783947467804,0.05329795181751251
1751278780382772700,2.866772705078125,-0.010384701192378998,-0.049021899700164795,-0.08338304609060287
1751278780401597400,2.885597412109375,0.037262752652168274,-0.04169152304530144,-0.21777328848838806
1751278780420422000,2.904421875,0.13988803327083588,0.026572618633508682,-0.25320345163345337
1751278780439246600,2.92324658203125,0.1130099818110466,0.09132428467273712,-0.18600831925868988
1751278780458071300,2.9420712890625,0.07513637095689774,0.05345066636800766,-0.10170898586511612
1751278780476895700,2.960895751953125,0.04459312930703163,0.10109812021255493,0.006872228812426329
1751278780495720400,2.979720458984375,0.0360410213470459,0.12064579129219055,0.13271036744117737
1751278780514545000,2.998544921875,0.08002328872680664,0.032681263983249664,0.20479241013526917
1751278780533369600,3.01736962890625,0.05803215503692627,-0.04657844081521034,0.20967933535575867
1751278780552194300,3.0361943359375,0.047036588191986084,-0.12843431532382965,0.10461059212684631
1751278780571018800,3.055018798828125,0.029932374134659767,-0.12232567369937897,0.03130681812763214
1751278780589843500,3.073843505859375,0.017715077847242355,-0.11255183815956116,0.03741546720266342
1751278780608668000,3.09266796875,0.015271619893610477,-0.07223475724458694,0.05085449293255806
1751278780627492600,3.11149267578125,-0.020158538594841957,-0.0062613640911877155,-0.018631376326084137
1751278780646317000,3.130317138671875,-0.053145237267017365,0.03145953640341759,-0.08460476994514465
1751278780665141800,3.149141845703125,-0.056810423731803894,0.003512472379952669,-0.07116574794054031
1751278780683966200,3.16796630859375,-0.037262752652168274,-0.016035201027989388,-0.01511890348047018
1751278780702791000,3.186791015625,-0.03481929376721382,-0.02458730712532997,-0.002901607658714056
1751278780721615600,3.20561572265625,-0.015271619893610477,-0.0062613640911877155,0.0007635809597559273
1751278780740440000,3.224440185546875,0.0030543238390237093,0.029016077518463135,0.04841103404760361
1751278780759264800,3.2432646484375,0.011606430634856224,0.007177661173045635,0.0948367565870285
1751278780778089200,3.262089111328125,0.009162971749901772,-0.03191768378019333,0.07895427197217941
1751278780796914000,3.280913818359375,0.0054977829568088055,-0.025809036567807198,0.02519817277789116
1751278780815738600,3.299738525390625,0.010384701192378998,-0.005039634648710489,-0.001679878099821508
1751278780834563000,3.31856298828125,0.0030543238390237093,-0.0025961752980947495,-0.004123337101191282
1751278780853387800,3.3373876953125,-0.0030543238390237093,-0.0062613640911877155,-0.002901607658714056
1751278780872212200,3.356212158203125,0.006719512399286032,-0.008704823441803455,-0.001679878099821508
1751278780891037000,3.375036865234375,0.009162971749901772,0.024281874299049377,-0.01740964688360691
1751278780909861400,3.393861328125,-0.001832594396546483,0.032681263983249664,-0.04917461425065994
1751278780928686000,3.41268603515625,-0.011606430634856224,0.021838415414094925,-0.06383536756038666
1751278780947510800,3.4315107421875,-0.023823726922273636,0.010842849500477314,-0.04062250629067421
1751278780966335200,3.450335205078125,-0.023823726922273636,-0.016035201027989388,-0.007788525894284248
1751278780985160000,3.469159912109375,-0.01282816007733345,-0.01359174121171236,0.005650499369949102
1751278781003984400,3.487984375,-0.000610864779446274,0.018173227086663246,0.012980876490473747
1751278781022809000,3.50680908203125,0.01282816007733345,0.05345066636800766,0.011759147047996521
1751278781041633800,3.5256337890625,0.025045456364750862,0.0461202897131443,-0.011453714221715927
1751278781060458200,3.544458251953125,0.006719512399286032,0.021838415414094925,-0.03222311660647392
1751278781079283000,3.563282958984375,-0.01649334840476513,-0.023365577682852745,-0.031001387163996696
1751278781098107400,3.582107421875,-0.021380268037319183,-0.04657844081521034,-0.018631376326084137
1751278781116932000,3.60093212890625,-0.014049889519810677,-0.02458730712532997,-0.005345067009329796
1751278781135756800,3.6197568359375,0.001832594396546483,-0.009926552884280682,-0.001679878099821508
1751278781154581200,3.638581298828125,0.007941242307424545,0.018173227086663246,-0.004123337101191282
1751278781173406000,3.657406005859375,-0.001832594396546483,0.03145953640341759,-0.023518294095993042
1751278781192230400,3.67623046875,-0.01282816007733345,0.018173227086663246,-0.03695731982588768
1751278781211055000,3.69505517578125,-0.021380268037319183,0.02779434807598591,-0.03222311660647392
1751278781229879600,3.713879638671875,-0.01649334840476513,0.05222893878817558,-0.009010255336761475
1751278781248704300,3.732704345703125,-0.0054977829568088055,0.024281874299049377,0.02153298258781433
1751278781267529000,3.751529052734375,0.000610864779446274,-0.020922118797898293,0.02764163166284561
1751278781286353400,3.770353515625,-0.004276053514331579,-0.02458730712532997,0.022754713892936707
1751278781305178000,3.78917822265625,-0.004276053514331579,-0.014813470654189587,0.028863361105322838
1751278781324002600,3.80800244140625,-0.000610864779446274,-0.014813470654189587,0.020311253145337105
1751278781342827300,3.8268271484375,-0.009162971749901772,-0.014813470654189587,-0.009010255336761475
1751278781361652000,3.84565185546875,-0.01649334840476513,-0.0038179049734026194,-0.04062250629067421
1751278781380476400,3.864476318359375,-0.02260199747979641,-0.017256930470466614,-0.04306596517562866
1751278781399301000,3.883301025390625,-0.021380268037319183,-0.011148282326757908,-0.006566796451807022
1751278781418125600,3.90212548828125,-0.0054977829568088055,0.004734201822429895,0.045967575162649155
1751278781436950300,3.9209501953125,-0.000610864779446274,0.019394956529140472,0.0691804364323616
1751278781455775000,3.93977490234375,-0.009162971749901772,0.0206166859716177,0.04108065739274025
1751278781474599400,3.958599365234375,-0.017715077847242355,-0.01847865991294384,-0.00045814859913662076
1751278781493424000,3.977424072265625,-0.023823726922273636,-0.06123919412493706,-0.019853105768561363
1751278781512248600,3.99624853515625,-0.027488915249705315,-0.007483093533664942,0.011759147047996521
1751278781531073300,4.0150732421875,-0.017715077847242355,0.04016435891389847,0.04230238497257233
1751278781549898000,4.03389794921875,-0.014049889519810677,0.04505127668380737,0.01908952370285988
1751278781568722400,4.052722412109375,-0.01282816007733345,0.003512472379952669,-0.01740964688360691
1751278781587547100,4.071547119140625,-0.006719512399286032,0.024281874299049377,-0.03222311660647392
1751278781606371600,4.09037158203125,0.0030543238390237093,0.0461202897131443,-0.035735588520765305
1751278781625196300,4.1091962890625,-0.000610864779446274,0.005955931730568409,-0.002901607658714056
1751278781644021000,4.12802099609375,-0.010384701192378998,-0.042913250625133514,0.0386371985077858
1751278781662845400,4.146845458984375,-0.015271619893610477,-0.027030766010284424,0.039858926087617874
1751278781681670100,4.165670166015625,-0.0054977829568088055,-0.005039634648710489,0.006872228812426329
1751278781700494600,4.18449462890625,0.011606430634856224,0.010842849500477314,-0.029626941308379173
1751278781719319300,4.2033193359375,0.020158538594841957,0.015729768201708794,-0.0565049909055233
1751278781738144000,4.22214404296875,0.007941242307424545,0.032681263983249664,-0.05039634555578232
1751278781756968400,4.240968505859375,-0.020158538594841957,0.004734201822429895,-0.012675444595515728
1751278781775793200,4.259793212890625,-0.04214967042207718,-0.019700389355421066,0.02519817277789116
1751278781794617900,4.278617919921875,-0.03848448023200035,-0.019700389355421066,0.04230238497257233
1751278781813442300,4.2974423828125,-0.015271619893610477,-0.014813470654189587,0.03252854943275452
1751278781832267000,4.31626708984375,-0.000610864779446274,-0.01359174121171236,-0.00045814859913662076
1751278781851091500,4.335091552734375,0.010384701192378998,-0.005039634648710489,-0.02611446939408779
1751278781869916200,4.353916259765625,0.010384701192378998,-0.014813470654189587,-0.029626941308379173
1751278781888740900,4.372740966796875,0.001832594396546483,-0.02214384824037552,-0.01740964688360691
1751278781907565300,4.3915654296875,-0.001832594396546483,-0.020922118797898293,-0.016340631991624832
1751278781926390000,4.41039013671875,-0.01893680728971958,0.005955931730568409,-0.0102319847792387
1751278781945214500,4.42921435546875,-0.027488915249705315,-0.012370011769235134,-0.005345067009329796
1751278781964039200,4.4480390625,-0.017715077847242355,-0.039248060435056686,-0.002901607658714056
1751278781982864000,4.46686376953125,-0.007941242307424545,-0.008704823441803455,-0.002901607658714056
1751278782001688300,4.485688232421875,0.001832594396546483,0.032681263983249664,-0.007788525894284248
1751278782020513000,4.504512939453125,0.009162971749901772,0.02779434807598591,-0.0102319847792387
1751278782039337500,4.52333740234375,-0.0030543238390237093,0.002290742937475443,-0.006566796451807022
1751278782058162200,4.542162109375,-0.0054977829568088055,-0.023365577682852745,0.008093958720564842
1751278782076987000,4.56098681640625,-0.006719512399286032,-0.0038179049734026194,0.012980876490473747
1751278782095811300,4.579811279296875,0.006719512399286032,0.015729768201708794,0.009315688163042068
1751278782114636000,4.598635986328125,0.0054977829568088055,0.010842849500477314,0.008093958720564842
1751278782133460500,4.61746044921875,-0.014049889519810677,-0.009926552884280682,0.0007635809597559273
1751278782152285200,4.63628515625,-0.03481929376721382,-0.03558287397027016,-0.012675444595515728
1751278782171110000,4.65510986328125,-0.031154103577136993,-0.04780016839504242,-0.006566796451807022
1751278782189934300,4.673934326171875,-0.011606430634856224,-0.019700389355421066,0.0019853105768561363
1751278782208759000,4.692759033203125,-0.001832594396546483,0.026572618633508682,-0.012675444595515728
1751278782227583700,4.711583740234375,-0.001832594396546483,0.021838415414094925,-0.02611446939408779
1751278782246408200,4.730408203125,-0.009162971749901772,-0.0001527161948615685,-0.012675444595515728
1751278782265233000,4.74923291015625,-0.01282816007733345,-0.016035201027989388,0.02153298258781433
1751278782284057300,4.768057373046875,-0.011606430634856224,-0.008704823441803455,0.028863361105322838
1751278782302882000,4.786882080078125,-0.004276053514331579,0.0010690133785828948,0.004428769461810589
1751278782321706800,4.805706787109375,0.000610864779446274,0.021838415414094925,-0.029626941308379173
1751278782340531200,4.82453125,-0.0030543238390237093,0.03145953640341759,-0.03695731982588768
1751278782359356000,4.84335595703125,-0.0054977829568088055,-0.0001527161948615685,-0.012675444595515728
1751278782378180600,4.8621806640625,-0.004276053514331579,-0.02458730712532997,0.014202605932950974
1751278782397005000,4.881005126953125,-0.004276053514331579,-0.02458730712532997,0.022754713892936707
1751278782415829800,4.899829833984375,-0.007941242307424545,-0.008704823441803455,0.020311253145337105
1751278782434654500,4.918654541015625,-0.009162971749901772,-0.020922118797898293,0.0019853105768561363
1751278782453479000,4.93747900390625,-0.004276053514331579,-0.008704823441803455,-0.012675444595515728
1751278782472303600,4.9563037109375,0.000610864779446274,0.030390523374080658,-0.002901607658714056
1751278782491128000,4.975128173828125,0.000610864779446274,0.03390299528837204,0.036193739622831345
1751278782509952800,4.993952880859375,-0.007941242307424545,0.013286309316754341,0.05085449293255806
1751278782528777500,5.012777587890625,-0.021380268037319183,-0.005039634648710489,0.009315688163042068
1751278782547602000,5.031601806640625,-0.025045456364750862,0.01695149764418602,-0.03222311660647392
1751278782566426600,5.050426513671875,-0.014049889519810677,0.026572618633508682,-0.021227551624178886
1751278782585251000,5.0692509765625,-0.0030543238390237093,0.02779434807598591,0.009315688163042068
1751278782604075800,5.08807568359375,0.000610864779446274,0.03634645417332649,0.023976443335413933
1751278782622900500,5.106900390625,-0.004276053514331579,-0.012370011769235134,0.006872228812426329
1751278782641725000,5.125724853515625,-0.010384701192378998,-0.07345648854970932,-0.007788525894284248
1751278782660549600,5.144549560546875,-0.010384701192378998,-0.04535670951008797,-0.013744457624852657
1751278782679374300,5.163374267578125,0.007941242307424545,0.010842849500477314,0.0019853105768561363
1751278782698198800,5.18219873046875,0.01649334840476513,0.048563748598098755,0.017867794260382652
1751278782717023500,5.2010234375,0.014049889519810677,0.048563748598098755,0.022754713892936707
1751278782735848000,5.219847900390625,0.004276053514331579,0.01206457894295454,0.012980876490473747
1751278782754672600,5.238672607421875,-0.014049889519810677,-0.023365577682852745,-0.006566796451807022
1751278782773497300,5.257497314453125,-0.020158538594841957,-0.04413498193025589,-0.005345067009329796
1751278782792321800,5.27632177734375,-0.01649334840476513,-0.025809036567807198,0.016646064817905426
1751278782811146500,5.295146484375,0.0030543238390237093,-0.0013744457392022014,0.04841103404760361
1751278782829971200,5.31397119140625,0.015271619893610477,0.03634645417332649,0.05329795181751251
1751278782848795600,5.332795654296875,0.01649334840476513,0.03527744114398956,0.05329795181751251
1751278782867620400,5.351620361328125,0.006719512399286032,0.004734201822429895,0.039858926087617874
1751278782886444800,5.37044482421875,-0.025045456364750862,-0.02458730712532997,0.0007635809597559273
1751278782905269500,5.38926953125,-0.05070177838206291,-0.01847865991294384,-0.03451386094093323
1751278782924094200,5.40809423828125,-0.047036588191986084,0.01206457894295454,-0.019853105768561363
1751278782942918700,5.426918701171875,-0.02626718580722809,0.01695149764418602,0.04474584385752678
1751278782961743400,5.445743408203125,-0.001832594396546483,-0.0013744457392022014,0.10094540566205978
1751278782980568000,5.464568115234375,-0.000610864779446274,-0.01847865991294384,0.11682789027690887
1751278782999392500,5.483392578125,-0.006719512399286032,-0.029474224895238876,0.08384118974208832
1751278783018217200,5.50221728515625,-0.021380268037319183,-0.03436114266514778,0.03252854943275452
1751278783037042000,5.5210419921875,-0.02626718580722809,-0.017256930470466614,0.0032070400193333626
1751278783055866400,5.539866455078125,-0.015271619893610477,0.05589412897825241,0.010537417605519295
1751278783074691000,5.558691162109375,-0.006719512399286032,0.08032871782779694,0.030085090547800064
1751278783093515500,5.577515625,-0.011606430634856224,0.04016435891389847,0.05085449293255806
1751278783112340200,5.59634033203125,-0.014049889519810677,-0.0038179049734026194,0.07651081681251526
1751278783131165000,5.6151650390625,-0.009162971749901772,-0.020922118797898293,0.08384118974208832
1751278783149989400,5.6339892578125,-0.004276053514331579,-0.019700389355421066,0.039858926087617874
1751278783168814000,5.65281396484375,-0.011606430634856224,-0.023365577682852745,0.008093958720564842
1751278783187638800,5.671638671875,-0.0054977829568088055,-0.058795735239982605,0.04108065739274025
1751278783206463200,5.690463134765625,-0.001832594396546483,-0.06612611562013626,0.09361502528190613
1751278783225288000,5.709287841796875,-0.010384701192378998,-0.042913250625133514,0.10827577859163284
1751278783244112600,5.728112548828125,-0.020158538594841957,-0.02458730712532997,0.05696314200758934
1751278783262937000,5.74693701171875,-0.02871064469218254,-0.008704823441803455,0.0032070400193333626
1751278783281761800,5.76576171875,-0.020158538594841957,0.005955931730568409,0.01908952370285988
1751278783300586500,5.78458642578125,-0.0030543238390237093,0.015729768201708794,0.08261945843696594
1751278783319411000,5.803410888671875,0.023823726922273636,0.05833758786320686,0.14248420298099518
1751278783338235600,5.822235595703125,0.01282816007733345,0.08032871782779694,0.18524473905563354
1751278783357060400,5.841060302734375,-0.01649334840476513,0.07544180005788803,0.21578797698020935
1751278783375884800,5.859884765625,-0.025045456364750862,0.0461202897131443,0.2390008419752121
1751278783404121900,5.888121826171875,-0.01649334840476513,-0.027030766010284424,0.1974620372056961
1751278783422946300,5.9069462890625,-0.020158538594841957,-0.020922118797898293,0.16081015765666962
1751278783441771000,5.92577099609375,-0.0054977829568088055,-0.016035201027989388,0.16081015765666962
1751278783460595700,5.944595703125,0.014049889519810677,0.026572618633508682,0.22189663350582123
1751278783479420200,5.963420166015625,0.009162971749901772,0.06566796451807022,0.28787001967430115
1751278783498244900,5.982244873046875,-0.017715077847242355,0.06444623321294785,0.3000873327255249
1751278783517069600,6.001069580078125,-0.0360410213470459,0.04016435891389847,0.25243985652923584
1751278783535894000,6.01989404296875,-0.027488915249705315,0.05589412897825241,0.19013166427612305
1751278783554718700,6.03871875,-0.001832594396546483,0.07422006875276566,0.16447533667087555
1751278783573543400,6.05754345703125,0.000610864779446274,0.03527744114398956,0.18402300775051117
1751278783592367900,6.076367919921875,0.0054977829568088055,0.0206166859716177,0.24266603589057922
1751278783611192600,6.095192626953125,0.023823726922273636,0.05711585655808449,0.35384342074394226
1751278783630017300,6.114017333984375,0.05436696484684944,0.08765909820795059,0.4540252387523651
1751278783648841700,6.132841796875,0.05803215503692627,0.10354158282279968,0.5114465355873108
1751278783667666400,6.15166650390625,0.04214967042207718,0.03527744114398956,0.5102248191833496
1751278783686491000,6.170490966796875,0.006719512399286032,-0.017256930470466614,0.4454731345176697
1751278783705315600,6.189315673828125,-0.01282816007733345,-0.04169152304530144,0.3452913165092468
1751278783724140300,6.208140380859375,-0.017715077847242355,-0.007483093533664942,0.25732678174972534
1751278783742964700,6.22696484375,-0.007941242307424545,0.05100720748305321,0.23777911067008972
1751278783761789400,6.24578955078125,0.0030543238390237093,0.07299833744764328,0.2903134822845459
1751278783780614100,6.2646142578125,0.001832594396546483,0.08521563559770584,0.3404043912887573
1751278783799438600,6.2834384765625,0.006719512399286032,0.11453714966773987,0.35017824172973633
1751278783818263300,6.30226318359375,0.009162971749901772,0.10354158282279968,0.356286883354187
1751278783837088000,6.321087890625,-0.001832594396546483,0.06811141967773438,0.3269653618335724
1751278783855912400,6.339912353515625,0.004276053514331579,0.010842849500477314,0.2842048406600952
1751278783874737200,6.358737060546875,-0.004276053514331579,-0.04413498193025589,0.2756527364253998
1751278783893561900,6.377561767578125,-0.011606430634856224,-0.06123919412493706,0.2683223485946655
1751278783912386300,6.39638623046875,0.0054977829568088055,-0.06979130208492279,0.2597702443599701
1751278783931211000,6.4152109375,0.004276053514331579,-0.04413498193025589,0.28787001967430115
1751278783950035700,6.43403564453125,-0.011606430634856224,-0.0025961752980947495,0.3159697949886322
1751278783968860200,6.452860107421875,-0.0054977829568088055,0.06322450190782547,0.29275694489479065
1751278783987684900,6.471684814453125,0.020158538594841957,0.14263692498207092,0.28787001967430115
1751278784006509600,6.490509521484375,0.05558869615197182,0.18906265497207642,0.31719154119491577
1751278784025334000,6.509333984375,0.053145237267017365,0.15729768574237823,0.3733910918235779
1751278784044158700,6.52815869140625,0.025045456364750862,0.09010255336761475,0.4405862092971802
1751278784062983400,6.5469833984375,0.021380268037319183,0.05589412897825241,0.49189886450767517
1751278784081808000,6.565807861328125,-0.0030543238390237093,0.02306014485657215,0.502894401550293
1751278784100632600,6.584632568359375,-0.04581485688686371,-0.03802633285522461,0.4540252387523651
1751278784119457300,6.603457275390625,-0.06291907280683517,-0.01359174121171236,0.3428478538990021
1751278784138281700,6.62228173828125,-0.047036588191986084,0.05345066636800766,0.24266603589057922
1751278784157106400,6.6411064453125,-0.006719512399286032,0.08643736690282822,0.2438877671957016
1751278784175931100,6.65993115234375,0.006719512399286032,0.05589412897825241,0.2597702443599701
1751278784194755600,6.678755615234375,0.015271619893610477,0.032681263983249664,0.2793179154396057
1751278784213580300,6.697580322265625,-0.006719512399286032,0.021838415414094925,0.34406960010528564
1751278784232405000,6.716405029296875,-0.0054977829568088055,-0.016035201027989388,0.4088212549686432
1751278784251229400,6.7352294921875,-0.001832594396546483,-0.04169152304530144,0.44180795550346375
1751278784270054100,6.75405419921875,0.0054977829568088055,-0.03558287397027016,0.4185950756072998
1751278784288878600,6.772878662109375,0.015271619893610477,-0.014813470654189587,0.38560840487480164
1751278784307703300,6.791703369140625,0.031154103577136993,0.048563748598098755,0.41492989659309387
1751278784326528000,6.810528076171875,0.0873536616563797,0.11453714966773987,0.5175551772117615
1751278784345352400,6.8293525390625,0.11423171311616898,0.1951712965965271,0.6556106209754944
1751278784364177200,6.84817724609375,0.05436696484684944,0.28557929396629333,0.7631227970123291
1751278784383001900,6.867001953125,-0.056810423731803894,0.3503309488296509,0.7631227970123291
1751278784401826300,6.885826416015625,-0.0824667438864708,0.26969680190086365,0.6702713966369629
1751278784420651000,6.904651123046875,-0.06536252796649933,0.11209368705749512,0.6006327867507935
1751278784439475700,6.923475830078125,-0.08124501258134842,0.11331541836261749,0.47357290983200073
1751278784458300200,6.942300048828125,-0.1288924664258957,0.14752385020256042,0.3733910918235779
1751278784477124900,6.961124755859375,-0.10567960888147354,0.19394956529140472,0.2707658112049103
1751278784495949600,6.979949462890625,-0.11423171311616898,0.27458372712135315,0.22434009611606598
1751278784514774000,6.99877392578125,-0.1594357043504715,0.25503605604171753,0.22189663350582123
1751278784533598700,7.0175986328125,-0.13622283935546875,0.0925460159778595,0.23167046904563904
1751278784552423400,7.03642333984375,-0.10201441496610641,-0.039248060435056686,0.34895649552345276
1751278784571247900,7.055247802734375,-0.04581485688686371,-0.09300415962934494,0.5187768936157227
1751278784590072600,7.074072509765625,0.015271619893610477,-0.14920371770858765,0.5737547278404236
1751278784608897300,7.092897216796875,0.037262752652168274,-0.33368489146232605,0.5517635941505432
1751278784627721700,7.1117216796875,0.05558869615197182,-0.4338667094707489,0.5676460862159729
1751278784646546400,7.13054638671875,0.05925388261675835,-0.4289797842502594,0.5749764442443848
1751278784665371100,7.14937109375,0.0360410213470459,-0.31291547417640686,0.5493201613426208
1751278784684195600,7.168195556640625,0.05192350596189499,-0.24327689409255981,0.5554288029670715
1751278784703020300,7.187020263671875,0.1178968995809555,-0.34834563732147217,0.6507236957550049
1751278784721845000,7.205844970703125,0.18387030065059662,-0.44119709730148315,0.708145022392273
1751278784740669400,7.22466943359375,0.1740964651107788,-0.4277580678462982,0.6189587116241455
1751278784759494100,7.243494140625,0.10323614627122879,-0.3263545036315918,0.4540252387523651
1751278784778318800,7.26231884765625,0.05925388261675835,-0.21029019355773926,0.33429574966430664
1751278784797143300,7.281143310546875,0.03848448023200035,-0.13698641955852509,0.2597702443599701
1751278784815968000,7.299968017578125,0.021380268037319183,-0.10399972647428513,0.21945317089557648
1751278784834792700,7.318792724609375,0.023823726922273636,-0.06001746281981468,0.20357069373130798
1751278784853617200,7.3376171875,0.039706211537122726,0.0206166859716177,0.27809619903564453
1751278784872441900,7.35644189453125,0.0360410213470459,0.024281874299049377,0.314748078584671
1751278784891266600,7.3752666015625,-0.000610864779446274,0.025503603741526604,0.25732678174972534
1751278784910091300,7.39409130859375,-0.027488915249705315,0.054672397673130035,0.1815795600414276
1751278784928915700,7.412915771484375,-0.029932374134659767,0.10109812021255493,0.1718057245016098
1751278784947740400,7.431740478515625,-0.02871064469218254,0.1438586562871933,0.17424917221069336
1751278784966565000,7.450565185546875,-0.021380268037319183,0.12675444781780243,0.10216713696718216
1751278784985389600,7.4693896484375,-0.03237583488225937,0.1487455666065216,0.10827577859163284
1751278785004214300,7.48821435546875,-0.014049889519810677,0.12553271651268005,0.2023489624261856
1751278785023039000,7.5070390625,0.031154103577136993,0.07910698652267456,0.29275694489479065
1751278785041863400,7.525863525390625,0.0409279391169548,0.06322450190782547,0.31230461597442627
1751278785060688100,7.544688232421875,0.01649334840476513,0.1182023361325264,0.29886558651924133
1751278785079512800,7.563512939453125,0.017715077847242355,0.15607595443725586,0.34895649552345276
1751278785098337300,7.582337158203125,0.021380268037319183,0.10842850059270859,0.3672824501991272
1751278785117162000,7.601161865234375,0.01893680728971958,0.024281874299049377,0.30741769075393677
1751278785135986700,7.619986572265625,-0.01282816007733345,-0.042913250625133514,0.20479241013526917
1751278785154811100,7.63881103515625,-0.02260199747979641,-0.017256930470466614,0.13759729266166687
1751278785173635800,7.6576357421875,-0.0409279391169548,0.024281874299049377,0.10949750989675522
1751278785192460500,7.67646044921875,-0.05925388261675835,0.0206166859716177,0.11682789027690887
1751278785211285000,7.695284912109375,-0.027488915249705315,0.05833758786320686,0.1718057245016098
1751278785230109700,7.714109619140625,0.0054977829568088055,0.060781046748161316,0.2231183648109436
1751278785248934400,7.732934326171875,0.004276053514331579,0.0412333719432354,0.22189663350582123
1751278785267759000,7.751759033203125,-0.006719512399286032,0.010842849500477314,0.1876882016658783
1751278785286583600,7.77058349609375,0.0030543238390237093,-0.049021899700164795,0.17791436612606049
1751278785305408300,7.789408203125,0.011606430634856224,-0.09789107739925385,0.20112723112106323
1751278785324233000,7.80823291015625,-0.0054977829568088055,-0.08689551800489426,0.20601414144039154
1751278785343057400,7.827057373046875,-0.001832594396546483,-0.0795651376247406,0.15958842635154724
1751278785361882000,7.845882080078125,0.0030543238390237093,-0.04780016839504242,0.14859285950660706
1751278785380706800,7.864706787109375,-0.021380268037319183,0.03145953640341759,0.15225805342197418
1751278785399531300,7.88353125,-0.02260199747979641,0.10598503798246384,0.17791436612606049
1751278785418356000,7.90235595703125,-0.006719512399286032,0.1366809904575348,0.23777911067008972
1751278785437180700,7.9211806640625,0.014049889519810677,0.0717766135931015,0.25243985652923584
1751278785456005000,7.940005126953125,0.027488915249705315,-0.05024362727999687,0.17913609743118286
1751278785474829800,7.958829833984375,0.01893680728971958,-0.08689551800489426,0.07040216773748398
1751278785493654500,7.977654541015625,0.000610864779446274,0.026572618633508682,0.05085449293255806
1751278785512479000,7.99647900390625,-0.007941242307424545,0.11087195575237274,0.10094540566205978
1751278785531303700,8.0153037109375,-0.009162971749901772,0.07910698652267456,0.14859285950660706
1751278785550128400,8.03412841796875,0.006719512399286032,-0.03802633285522461,0.2023489624261856
1751278785568952800,8.052952880859374,0.011606430634856224,-0.07834340631961823,0.21212279796600342
1751278785587777500,8.071777587890624,0.011606430634856224,-0.09300415962934494,0.16814053058624268
1751278785606602200,8.090602294921876,0.0054977829568088055,-0.09056070446968079,0.11316270381212234
1751278785625426700,8.1094267578125,-0.01649334840476513,-0.058795735239982605,0.07651081681251526
1751278785644251400,8.12825146484375,-0.01893680728971958,-0.020922118797898293,0.07162389904260635
1751278785663076000,8.147076171875,-0.004276053514331579,0.03390299528837204,0.13881902396678925
1751278785681900800,8.16590087890625,0.010384701192378998,0.03527744114398956,0.2084576040506363
1751278785700725200,8.184725341796875,0.000610864779446274,-0.020922118797898293,0.23533566296100616
1751278785728962300,8.21296240234375,-0.011606430634856224,-0.042913250625133514,0.15470150113105774
1751278785747787000,8.231787109375,-0.0360410213470459,-0.017256930470466614,0.03375028073787689
1751278785766611500,8.250611572265624,-0.0360410213470459,0.03390299528837204,-0.018631376326084137
1751278785785436200,8.269436279296874,-0.01893680728971958,0.12553271651268005,0.10461059212684631
1751278785804260900,8.2882607421875,0.000610864779446274,0.14508038759231567,0.25243985652923584
1751278785823085300,8.307085205078126,0.009162971749901772,0.10720676928758621,0.29275694489479065
1751278785841910000,8.325909912109376,0.001832594396546483,0.07910698652267456,0.23167046904563904
1751278785860734700,8.344734619140626,-0.007941242307424545,-0.0062613640911877155,0.12660172581672668
1751278785879559200,8.36355908203125,-0.001832594396546483,-0.10399972647428513,0.07040216773748398
1751278785898384000,8.3823837890625,-0.011606430634856224,-0.11133010685443878,0.12904518842697144
1751278785917208600,8.40120849609375,-0.007941242307424545,-0.014813470654189587,0.2548833191394806
1751278785936033000,8.420032958984375,-0.000610864779446274,0.032681263983249664,0.3208567202091217
1751278785954857700,8.438857666015625,-0.014049889519810677,0.014508038759231567,0.29275694489479065
1751278785973682400,8.457682373046875,-0.033597562462091446,-0.027030766010284424,0.23044873774051666
1751278785992507000,8.4765068359375,-0.03481929376721382,-0.07101303339004517,0.1669187992811203
1751278786011331600,8.49533154296875,-0.014049889519810677,-0.1052214577794075,0.1253799945116043
1751278786030156300,8.51415625,-0.029932374134659767,-0.07589995115995407,0.13881902396678925
1751278786048981000,8.53298095703125,-0.0409279391169548,-0.017256930470466614,0.17913609743118286
1751278786067805400,8.551805419921875,-0.023823726922273636,0.013286309316754341,0.2438877671957016
1751278786086630100,8.570630126953125,-0.020158538594841957,0.005955931730568409,0.2646571695804596
1751278786105454800,8.589454833984375,-0.017715077847242355,-0.05635227635502815,0.23044873774051666
1751278786124279300,8.608279296875,-0.011606430634856224,-0.1003345400094986,0.22678354382514954
1751278786143104000,8.62710400390625,-0.023823726922273636,-0.08689551800489426,0.2438877671957016
1751278786161928700,8.6459287109375,-0.05070177838206291,0.002290742937475443,0.2548833191394806
1751278786180753400,8.66475341796875,-0.06536252796649933,0.06811141967773438,0.26710063219070435
1751278786199577900,8.683577880859374,-0.05803215503692627,0.04016435891389847,0.2854265570640564
1751278786218402600,8.702402587890624,-0.049480047076940536,-0.04780016839504242,0.28787001967430115
1751278786237227300,8.721227294921874,-0.02871064469218254,-0.1406516134738922,0.2597702443599701
1751278786256051700,8.7400517578125,-0.023823726922273636,-0.15775582194328308,0.20723587274551392
1751278786274876400,8.75887646484375,-0.03237583488225937,-0.13820815086364746,0.17302745580673218
1751278786293701000,8.777701171875,-0.03848448023200035,-0.12232567369937897,0.19868376851081848
1751278786312525600,8.796525634765626,-0.05070177838206291,-0.049021899700164795,0.2756527364253998
1751278786331350300,8.815350341796876,-0.05192350596189499,-0.011148282326757908,0.32452189922332764
1751278786350175000,8.834175048828126,-0.014049889519810677,-0.05146535858511925,0.2842048406600952
1751278786368999700,8.852999755859376,-0.000610864779446274,-0.04780016839504242,0.19379685819149017
1751278786387824000,8.87182421875,-0.006719512399286032,-0.0013744457392022014,0.15225805342197418
1751278786406648800,8.89064892578125,-0.0030543238390237093,0.01695149764418602,0.20601414144039154
1751278786425473500,8.9094736328125,-0.03237583488225937,0.05833758786320686,0.2585485279560089
1751278786444298000,8.928298095703125,-0.03237583488225937,0.0766635313630104,0.2707658112049103
1751278786463122700,8.947122802734375,-0.006719512399286032,0.0717766135931015,0.2646571695804596
1751278786481947400,8.965947509765625,0.01282816007733345,0.04505127668380737,0.2842048406600952
1751278786500771800,8.984771728515625,0.006719512399286032,0.03634645417332649,0.3257436454296112
1751278786519596500,9.003596435546875,0.011606430634856224,-0.023365577682852745,0.2964221239089966
1751278786538421200,9.022421142578125,0.02626718580722809,-0.06490438431501389,0.2231183648109436
1751278786557246000,9.041245849609375,-0.0030543238390237093,-0.06368265300989151,0.18035782873630524
1751278786576070400,9.0600703125,-0.039706211537122726,-0.03558287397027016,0.17058399319648743
1751278786594895000,9.07889501953125,-0.039706211537122726,0.029016077518463135,0.18280129134655
1751278786613719800,9.0977197265625,0.000610864779446274,0.0461202897131443,0.19624030590057373
1751278786632544300,9.116544189453125,0.007941242307424545,0.0010690133785828948,0.18402300775051117
1751278786651369000,9.135368896484374,-0.010384701192378998,-0.06246092543005943,0.1461493968963623
1751278786670193700,9.154193603515624,-0.023823726922273636,-0.033139415085315704,0.1363755613565445
1751278786689018400,9.173018310546874,-0.021380268037319183,0.05345066636800766,0.16936226189136505
1751278786707842800,9.1918427734375,-0.01282816007733345,0.06200277432799339,0.19868376851081848
1751278786726667500,9.21066748046875,0.001832594396546483,0.0010690133785828948,0.17424917221069336
1751278786745492200,9.2294921875,0.000610864779446274,-0.04413498193025589,0.1314886510372162
1751278786764316700,9.248316650390626,0.0030543238390237093,0.029016077518463135,0.13759729266166687
1751278786783141400,9.267141357421876,0.007941242307424545,0.14263692498207092,0.2328922003507614
1751278786801966000,9.285966064453126,-0.023823726922273636,0.14508038759231567,0.2952004075050354
1751278786820790500,9.30479052734375,-0.06291907280683517,0.07422006875276566,0.2646571695804596
1751278786839615200,9.323615234375,-0.06047561392188072,0.05345066636800766,0.2084576040506363
1751278786858440000,9.34243994140625,-0.05558869615197182,0.04734202101826668,0.2023489624261856
1751278786877264600,9.3612646484375,-0.02871064469218254,0.002290742937475443,0.25243985652923584
1751278786896089000,9.380089111328125,-0.014049889519810677,-0.005039634648710489,0.27198755741119385
1751278786914913800,9.398913818359375,-0.023823726922273636,0.03527744114398956,0.24999640882015228
1751278786933738500,9.417738525390625,-0.0409279391169548,0.09621120244264603,0.2292270064353943
1751278786952563200,9.436563232421875,-0.06047561392188072,0.07422006875276566,0.19624030590057373
1751278786971387600,9.4553876953125,-0.07635809481143951,-0.01847865991294384,0.11804962158203125
1751278786990212400,9.47421240234375,-0.0665842592716217,-0.08323032408952713,0.03497200831770897
1751278787009037000,9.493037109375,-0.06536252796649933,-0.014813470654189587,0.04230238497257233
1751278787027861500,9.511861572265625,-0.06414080411195755,0.05711585655808449,0.12171480804681778
1751278787046686200,9.530686279296875,-0.05925388261675835,0.04367683082818985,0.17424917221069336
1751278787065511000,9.549510986328125,-0.04581485688686371,0.018173227086663246,0.1363755613565445
1751278787084335600,9.568335693359375,-0.021380268037319183,0.025503603741526604,0.11682789027690887
1751278787103160000,9.58716015625,-0.001832594396546483,0.05345066636800766,0.17058399319648743
1751278787121984800,9.60598486328125,0.007941242307424545,0.009621120058000088,0.19013166427612305
1751278787140809500,9.6248095703125,0.014049889519810677,-0.07223475724458694,0.18035782873630524
1751278787159634000,9.643634033203124,0.01649334840476513,-0.09911280870437622,0.16081015765666962
1751278787178458600,9.662458740234374,0.01282816007733345,-0.009926552884280682,0.1876882016658783
1751278787197283300,9.681283447265624,0.015271619893610477,0.05222893878817558,0.24266603589057922
1751278787216108000,9.70010791015625,0.02260199747979641,0.03390299528837204,0.2805396616458893
1751278787234932500,9.718932373046876,0.0409279391169548,-0.011148282326757908,0.2854265570640564
1751278787253757200,9.737757080078126,0.05925388261675835,-0.036804601550102234,0.2683223485946655
1751278787272582000,9.756581787109376,0.06902772188186646,-0.08323032408952713,0.2133445292711258
1751278787291406300,9.77540625,0.04214967042207718,-0.09544762223958969,0.18280129134655
1751278787310231000,9.79423095703125,0.010384701192378998,-0.06368265300989151,0.17913609743118286
1751278787329055700,9.8130556640625,0.006719512399286032,0.0461202897131443,0.19501857459545135
1751278787347880400,9.83188037109375,0.01649334840476513,0.14019346237182617,0.22189663350582123
1751278787366705000,9.850704833984375,0.000610864779446274,0.23548837006092072,0.2280052751302719
1751278787385529600,9.869529541015625,0.004276053514331579,0.19272783398628235,0.18280129134655
1751278787404354300,9.888354248046875,-0.007941242307424545,0.004734201822429895,0.11438442766666412
1751278787423178800,9.9071787109375,-0.031154103577136993,-0.13698641955852509,0.05818486958742142
1751278787442003500,9.92600341796875,-0.001832594396546483,-0.10399972647428513,0.08017600327730179
1751278787460828200,9.944828125,0.03848448023200035,-0.016035201027989388,0.19135339558124542
1751278787479652900,9.96365283203125,0.05558869615197182,0.018173227086663246,0.30741769075393677
1751278787498477300,9.982477294921875,0.03848448023200035,0.06322450190782547,0.3452913165092468
1751278787517302000,10.001302001953125,0.021380268037319183,-0.0001527161948615685,0.3000873327255249
1751278787536126700,10.020126708984375,0.017715077847242355,-0.22617268562316895,0.27687445282936096
1751278787554951400,10.038951416015625,0.017715077847242355,-0.2835939824581146,0.29275694489479065
1751278787573776000,10.05777587890625,0.0054977829568088055,-0.08689551800489426,0.32940882444381714
1751278787592600600,10.0766005859375,-0.023823726922273636,0.12064579129219055,0.4344775676727295
1751278787611425300,10.09542529296875,0.056810423731803894,0.2611446976661682,0.5395463109016418
1751278787630250000,10.11425,0.02626718580722809,0.03756818547844887,0.5761982202529907
1751278787649074400,10.133074462890624,-0.02260199747979641,-0.07223475724458694,0.5480984449386597
1751278787667899100,10.151899169921874,-0.043371398001909256,-0.09178243577480316,0.53221595287323
1751278787686723800,10.170723876953126,-0.031154103577136993,-0.15531237423419952,0.5578722357749939
1751278787705548300,10.18954833984375,-0.004276053514331579,-0.21151192486286163,0.585972011089325
1751278787724373000,10.208373046875,0.027488915249705315,-0.18585561215877533,0.5896372199058533
1751278787743197700,10.22719775390625,0.056810423731803894,-0.12721258401870728,0.6323977708816528
1751278787762022400,10.2460224609375,0.006719512399286032,-0.012370011769235134,0.6348412036895752
1751278787780846800,10.264846923828125,-0.05925388261675835,0.04245510324835777,0.5786416530609131
1751278787799671600,10.283671630859375,-0.08613193035125732,-0.049021899700164795,0.5236638188362122
1751278787818496300,10.302496337890625,-0.06047561392188072,-0.18096868693828583,0.4637990891933441
1751278787837321000,10.321321044921875,-0.04459312930703163,-0.23228132724761963,0.41615164279937744
1751278787856145400,10.3401455078125,-0.020158538594841957,-0.1406516134738922,0.4637990891933441
1751278787874970000,10.35897021484375,0.020158538594841957,-0.02214384824037552,0.6177369952201843
1751278787893794800,10.377794921875,0.031154103577136993,-0.011148282326757908,0.7680097222328186
1751278787912619500,10.39661962890625,0.0030543238390237093,-0.04169152304530144,0.716697096824646
1751278787931444000,10.41544384765625,-0.006719512399286032,-0.0844520553946495,0.5444332361221313
1751278787950268700,10.4342685546875,-0.0030543238390237093,-0.15409064292907715,0.42592546343803406
1751278787969093400,10.45309326171875,-0.009162971749901772,-0.13454297184944153,0.5016726851463318
1751278787987917800,10.471917724609375,-0.029932374134659767,-0.0013744457392022014,0.6788234710693359
1751278788006742500,10.490742431640625,0.04581485688686371,0.17806708812713623,0.8571959733963013
1751278788025567200,10.509567138671875,0.06902772188186646,0.18417572975158691,0.7887791395187378
1751278788044392000,10.528391845703124,0.07024945318698883,0.032681263983249664,0.6018545031547546
1751278788063216400,10.54721630859375,0.06536252796649933,-0.03436114266514778,0.3990474045276642
1751278788082041000,10.566041015625,0.03848448023200035,-0.04657844081521034,0.24266603589057922
1751278788100865800,10.58486572265625,0.015271619893610477,-0.09666935354471207,0.1314886510372162
1751278788119690500,10.6036904296875,0.033597562462091446,-0.12721258401870728,0.14370593428611755
1751278788138515000,10.622514892578126,0.05192350596189499,-0.06612611562013626,0.27687445282936096
1751278788157339600,10.641339599609376,0.029932374134659767,0.014508038759231567,0.3868301212787628
1751278788176164400,10.660164306640626,0.01649334840476513,0.048563748598098755,0.35384342074394226
1751278788194989000,10.678989013671876,0.017715077847242355,0.08521563559770584,0.3306305706501007
1751278788213813500,10.6978134765625,-0.0030543238390237093,0.10720676928758621,0.407599538564682
1751278788232638200,10.71663818359375,-0.01282816007733345,0.08399390429258347,0.5248855352401733
1751278788251463000,10.735462890625,0.007941242307424545,0.002290742937475443,0.5933024287223816
1751278788270287600,10.75428759765625,0.01893680728971958,-0.052687086164951324,0.5810851454734802
1751278788289112000,10.773112060546875,-0.0409279391169548,-0.009926552884280682,0.48334676027297974
1751278788307936800,10.791936767578125,-0.09101885557174683,0.02779434807598591,0.41004297137260437
1751278788326761500,10.810761474609375,-0.07880155742168427,0.03634645417332649,0.3990474045276642
1751278788345586200,10.829586181640625,-0.08979712426662445,0.0010690133785828948,0.3929387629032135
1751278788364410600,10.84841064453125,-0.08124501258134842,-0.033139415085315704,0.38438665866851807
1751278788383235300,10.8672353515625,-0.05192350596189499,-0.0062613640911877155,0.3623955249786377
1751278788402060000,10.88606005859375,-0.04825831577181816,0.015729768201708794,0.30375251173973083
1751278788420884500,10.904884521484375,-0.04581485688686371,-0.04535670951008797,0.23655737936496735
1751278788439709200,10.923709228515625,-0.0360410213470459,-0.05635227635502815,0.22434009611606598
1751278788458534000,10.942533935546875,-0.027488915249705315,0.0010690133785828948,0.24510949850082397
1751278788477358600,10.961358642578125,-0.009162971749901772,0.007177661173045635,0.24510949850082397
1751278788496183300,10.980183349609375,0.000610864779446274,0.008399390615522861,0.2390008419752121
1751278788515007700,10.9990078125,-0.01893680728971958,0.026572618633508682,0.28298309445381165
1751278788533832400,11.01783251953125,-0.031154103577136993,0.013286309316754341,0.32330018281936646
1751278788552657200,11.0366572265625,-0.020158538594841957,0.009621120058000088,0.35995206236839294
1751278788571481900,11.05548193359375,0.001832594396546483,0.02306014485657215,0.40149086713790894
1751278788590306300,11.074306396484374,0.03237583488225937,-0.030695954337716103,0.4124864339828491
1751278788609131000,11.093131103515624,0.053145237267017365,-0.15409064292907715,0.35506516695022583
1751278788627955700,11.111955810546876,0.05558869615197182,-0.2444986253976822,0.2707658112049103
1751278788646780200,11.1307802734375,0.047036588191986084,-0.18096868693828583,0.27809619903564453
1751278788665604900,11.14960498046875,0.04214967042207718,-0.1467602699995041,0.397825688123703
1751278788684429600,11.1684296875,-0.006719512399286032,-0.22495095431804657,0.46624255180358887
1751278788703254300,11.187254150390626,-0.06414080411195755,-0.23716825246810913,0.41126471757888794
1751278788722079000,11.206078857421875,-0.05192350596189499,-0.0795651376247406,0.36972591280937195
1751278788740903400,11.2249033203125,0.025045456364750862,0.10842850059270859,0.407599538564682
1751278788759728000,11.24372802734375,0.05436696484684944,0.07422006875276566,0.44791659712791443
1751278788778552800,11.262552734375,0.05070177838206291,0.07544180005788803,0.4198168218135834
1751278788797377500,11.28137744140625,0.023823726922273636,0.1597411334514618,0.35873034596443176
1751278788816202000,11.300201904296875,0.009162971749901772,0.10598503798246384,0.3452913165092468
1751278788835026700,11.319026611328125,0.007941242307424545,-0.011148282326757908,0.3416261374950409
1751278788853851400,11.337851318359375,0.03481929376721382,-0.04535670951008797,0.3917170464992523
1751278788872676000,11.356676025390625,0.07880155742168427,-0.025809036567807198,0.43569931387901306
1751278788891500500,11.37550048828125,0.09468404203653336,-0.0062613640911877155,0.39416050910949707
1751278788910325200,11.3943251953125,0.04825831577181816,0.002290742937475443,0.25732678174972534
1751278788929150000,11.41314990234375,0.056810423731803894,-0.04657844081521034,0.18035782873630524
1751278788947974700,11.431974609375,0.04825831577181816,-0.09178243577480316,0.18646647036075592
1751278788966799400,11.45079931640625,0.03848448023200035,-0.06490438431501389,0.19990549981594086
1751278788985623800,11.469623779296874,0.025045456364750862,-0.008704823441803455,0.22189663350582123
1751278789004448500,11.488448486328124,0.02871064469218254,0.05222893878817558,0.24022257328033447
1751278789023273200,11.507273193359374,0.04214967042207718,0.08888082206249237,0.29764387011528015
1751278789042097700,11.52609765625,0.01282816007733345,0.09987638890743256,0.346513032913208
1751278789060922400,11.54492236328125,-0.007941242307424545,0.09498947113752365,0.35506516695022583
1751278789079747000,11.5637470703125,0.020158538594841957,0.010842849500477314,0.3623955249786377
1751278789098571800,11.58257177734375,0.010384701192378998,-0.08567378669977188,0.2805396616458893
1751278789117396500,11.601396484375,0.004276053514331579,-0.13332124054431915,0.2341139316558838
1751278789136221000,11.620220947265626,0.011606430634856224,-0.06856957077980042,0.2805396616458893
1751278789155045600,11.639045654296876,-0.010384701192378998,-0.06734783947467804,0.366060733795166
1751278789173870300,11.657870361328126,-0.07513637095689774,-0.11621702462434769,0.40026915073394775
1751278789192695000,11.676695068359376,-0.07880155742168427,-0.15042544901371002,0.4124864339828491
1751278789211519500,11.69551953125,-0.03848448023200035,-0.18829907476902008,0.4124864339828491
1751278789230344200,11.71434423828125,-0.031154103577136993,-0.1821904182434082,0.37461283802986145
1751278789249169000,11.7331689453125,-0.03848448023200035,-0.12965604662895203,0.3379609286785126
1751278789267993600,11.75199365234375,0.015271619893610477,-0.042913250625133514,0.3208567202091217
1751278789286818300,11.770818359375,0.07513637095689774,-0.02825249545276165,0.2964221239089966
1751278789305642800,11.789642822265625,0.07147117704153061,0.10354158282279968,0.3061959743499756
1751278789324467500,11.808467529296875,0.08979712426662445,0.08765909820795059,0.45280352234840393
1751278789343292200,11.827292236328125,0.12034036219120026,-0.0062613640911877155,0.585972011089325
1751278789362116900,11.846116943359375,0.11423171311616898,-0.1467602699995041,0.5566505193710327
1751278789380941300,11.86494140625,0.07391463965177536,-0.3312414288520813,0.5004509687423706
1751278789399766000,11.88376611328125,0.05192350596189499,-0.4705185890197754,0.4637990891933441
1751278789418590700,11.9025908203125,-0.014049889519810677,-0.4790706932544708,0.43203410506248474
1751278789437415400,11.92141552734375,-0.05558869615197182,-0.551152765750885,0.42592546343803406
1751278789456240000,11.940240234375,-0.0409279391169548,-0.5328267812728882,0.43692103028297424
1751278789475064600,11.959064697265624,-0.06780599057674408,-0.3507890999317169,0.5016726851463318
1751278789493889300,11.97788916015625,-0.08368847519159317,-0.19562944769859314,0.6519454121589661
1751278789512714000,11.9967138671875,-0.009162971749901772,-0.13332124054431915,0.7887791395187378
1751278789531538700,12.01553857421875,0.05558869615197182,-0.0038179049734026194,0.7961094975471497
1751278789550363100,12.034363037109374,0.0824667438864708,0.08888082206249237,0.7484620809555054
1751278789569187800,12.053187744140626,0.04581485688686371,0.10598503798246384,0.6519454121589661
1751278789588012500,12.072012451171876,0.039706211537122726,0.0010690133785828948,0.45769044756889343
1751278789606837200,12.090837158203126,0.06536252796649933,-0.11621702462434769,0.07528908550739288
1751278789625662000,12.109661865234376,0.11545344442129135,-0.10644318908452988,-0.20677772164344788
1751278789644486700,12.128486572265626,0.11056652665138245,0.007177661173045635,-0.1383608728647232
1751278789663311000,12.14731103515625,0.0360410213470459,-0.017256930470466614,0.1669187992811203
1751278789682135800,12.1661357421875,-0.0030543238390237093,-0.11743875592947006,0.42592546343803406
1751278789700960500,12.18496044921875,-0.033597562462091446,-0.13942988216876984,0.5810851454734802
1751278789719785200,12.20378515625,-0.031154103577136993,-0.1565341055393219,0.643393337726593
1751278789738610000,12.22260986328125,-0.031154103577136993,-0.20662501454353333,0.6397281289100647
1751278789757434400,12.241434326171875,-0.11423171311616898,-0.20906847715377808,0.43081238865852356
1751278789776259000,12.260259033203125,-0.14599667489528656,-0.305585116147995,0.18035782873630524
1751278789795083800,12.279083740234375,0.027488915249705315,-0.305585116147995,0.03252854943275452
1751278789813908500,12.297908447265625,0.20463970303535461,-0.12232567369937897,-0.021227551624178886
1751278789832733000,12.31673291015625,0.18142683804035187,0.021838415414094925,0.006872228812426329
1751278789851557600,12.3355576171875,0.09590577334165573,0.0206166859716177,0.13881902396678925
1751278789870382300,12.35438232421875,0.039706211537122726,0.015729768201708794,0.34895649552345276
1751278789889207000,12.37320703125,-0.07513637095689774,-0.017256930470466614,0.439364492893219
1751278789908031700,12.39203173828125,-0.1997527778148651,-0.2286161482334137,0.39049530029296875
1751278789926856400,12.4108564453125,-0.258395791053772,-0.49739664793014526,0.28176137804985046
1751278789945681000,12.429680908203125,-0.21197007596492767,-0.541378915309906,0.19135339558124542
1751278789964505600,12.448505615234374,-0.12034036219120026,-0.4338667094707489,0.11927134543657303
1751278789983330300,12.467330322265624,-0.014049889519810677,-0.3043633699417114,0.04841103404760361
1751278790002155000,12.486155029296874,0.047036588191986084,-0.2689332067966461,-0.09926552325487137
1751278790020979700,12.504979736328124,0.05192350596189499,-0.22617268562316895,-0.12736530601978302
1751278790039804200,12.52380419921875,0.0409279391169548,-0.11499529331922531,0.13515383005142212
1751278790058628900,12.54262890625,0.09590577334165573,0.060781046748161316,0.43081238865852356
1751278790077453600,12.56145361328125,0.0665842592716217,0.07055488228797913,0.540768027305603
1751278790096278300,12.5802783203125,0.001832594396546483,0.18661919236183167,0.41615164279937744
1751278790115103000,12.59910302734375,-0.06047561392188072,0.3686569035053253,0.35873034596443176
1751278790133927700,12.617927734375,0.11178825795650482,0.6924152374267578,0.35873034596443176
1751278790152752000,12.636752197265626,0.09834922850131989,0.5164861679077148,0.3013090491294861
1751278790171576800,12.655576904296876,0.07757982611656189,0.6582068204879761,0.19013166427612305
1751278790190401500,12.674401611328125,0.10934479534626007,0.7718276381492615,0.14370593428611755
1751278790209226200,12.693226318359375,0.16065743565559387,0.6545416116714478,0.08261945843696594
1751278790228051000,12.712051025390625,-0.014049889519810677,0.5042688846588135,0.06551524996757507
1751278790246875400,12.73087548828125,-0.05192350596189499,0.45539969205856323,0.15225805342197418
1751278790265700000,12.7497001953125,-0.05436696484684944,0.0461202897131443,0.18035782873630524
1751278790284524800,12.76852490234375,-0.15210533142089844,-0.3972148299217224,0.0850629210472107
1751278790303349500,12.787349609375,-0.17043127119541168,-0.4802924394607544,-0.05039634555578232
1751278790322174200,12.80617431640625,-0.07757982611656189,-0.7148644924163818,-0.21410810947418213
1751278790340998700,12.82499853515625,0.03237583488225937,-0.6110175251960754,-0.2629773020744324
1751278790359823400,12.8438232421875,0.04825831577181816,-0.6488910913467407,-0.09926552325487137
1751278790378648000,12.86264794921875,-0.007941242307424545,-0.6403390169143677,0.16447533667087555
1751278790397472800,12.88147265625,0.04459312930703163,-0.3006981909275055,0.31352636218070984
1751278790416297500,12.90029736328125,0.05558869615197182,-0.10277800261974335,0.36972591280937195
1751278790435122200,12.9191220703125,0.09101885557174683,0.04016435891389847,0.4381427764892578
1751278790453946600,12.937946533203124,0.07391463965177536,-0.07223475724458694,0.4198168218135834
1751278790472771300,12.956771240234374,0.047036588191986084,-0.23105959594249725,0.2903134822845459
1751278790491596000,12.975595947265624,-0.004276053514331579,-0.19562944769859314,0.20723587274551392
1751278790510420700,12.994420654296874,0.000610864779446274,-0.19074252247810364,0.26099199056625366
1751278790529245400,13.013245361328124,0.009162971749901772,-0.34345871210098267,0.30375251173973083
1751278790548070100,13.032070068359374,-0.010384701192378998,-0.5438223481178284,0.34895649552345276
1751278790566894600,13.05089453125,0.04214967042207718,-0.32879796624183655,0.4454731345176697
1751278790585719300,13.06971923828125,0.17653992772102356,-0.11988221108913422,0.3428478538990021
1751278790604544000,13.0885439453125,0.07024945318698883,-0.23228132724761963,0.2487746775150299
1751278790623368700,13.10736865234375,-0.000610864779446274,-0.06490438431501389,0.17424917221069336
1751278790642193400,13.126193359375,-0.007941242307424545,0.014508038759231567,0.1718057245016098
1751278790661018000,13.14501806640625,-0.07635809481143951,0.013286309316754341,0.2683223485946655
1751278790679842600,13.163842529296875,-0.143553227186203,0.4004218578338623,0.2231183648109436
1751278790698667300,13.182667236328125,-0.12767073512077332,0.6533198952674866,0.13759729266166687
1751278790717492000,13.201491943359375,-0.10934479534626007,0.5360338687896729,0.162031888961792
1751278790736316700,13.220316650390625,-0.07513637095689774,0.33200499415397644,0.15958842635154724
1751278790755141400,13.239141357421875,-0.027488915249705315,-0.03558287397027016,0.19868376851081848
1751278790773966000,13.257966064453125,0.11178825795650482,-0.1467602699995041,0.39538222551345825
1751278790792790500,13.27679052734375,0.20463970303535461,0.10720676928758621,0.6360629796981812
1751278790811615200,13.295615234375,0.1740964651107788,0.10965022444725037,0.7435751557350159
1751278790830440000,13.31443994140625,0.1337793916463852,-0.30802857875823975,0.6507236957550049
1751278790849264600,13.3332646484375,0.21441353857517242,-0.6867647171020508,0.5248855352401733
1751278790868089300,13.35208935546875,0.19120067358016968,-0.6708822250366211,0.5248855352401733
1751278790886914000,13.3709140625,0.031154103577136993,-0.5181660652160645,0.490677148103714
1751278790905738800,13.38973876953125,-0.0824667438864708,-0.233503058552742,0.28298309445381165
1751278790924563200,13.408563232421875,-0.05925388261675835,0.21227550506591797,0.06673697382211685
1751278790943388000,13.427387939453125,-0.09590577334165573,0.6801979541778564,-0.002901607658714056
1751278790962212600,13.446212646484375,-0.20830489695072174,0.8561269640922546,0.16814053058624268
1751278790981037300,13.465037353515624,-0.056810423731803894,0.8353576064109802,0.4430296719074249
1751278790999862000,13.483862060546874,0.12644900381565094,0.9660826325416565,0.6067414283752441
1751278791018686700,13.502686767578124,0.031154103577136993,1.1884374618530273,0.6629409790039062
1751278791037511200,13.52151123046875,-0.16187916696071625,1.145676851272583,0.6287325620651245
1751278791056336000,13.5403359375,-0.04581485688686371,0.703410804271698,0.42959064245224
1751278791075160600,13.55916064453125,0.08002328872680664,-0.007483093533664942,0.18035782873630524
1751278791093985300,13.5779853515625,0.01649334840476513,-0.3972148299217224,0.07040216773748398
1751278791112810000,13.59681005859375,0.13988803327083588,-0.4949531853199005,0.09850194305181503
1751278791131634700,13.615634765625,0.3182605504989624,-0.4130973219871521,0.16569706797599792
1751278791150459400,13.63445947265625,0.17653992772102356,-0.32757624983787537,0.15225805342197418
1751278791169284000,13.6532841796875,0.011606430634856224,0.10965022444725037,0.12415826320648193
1751278791188108500,13.672108642578126,-0.13500112295150757,0.4358520209789276,0.11194097250699997
1751278791206933200,13.690933349609375,-0.24984370172023773,0.3344484567642212,0.004428769461810589
1751278791225758000,13.709758056640625,-0.2205221801996231,0.06933315098285675,-0.17134757339954376
1751278791244582700,13.728582763671875,-0.16065743565559387,0.05100720748305321,-0.07849612087011337
1751278791263407400,13.747407470703125,-0.07635809481143951,0.3845393657684326,0.20601414144039154
1751278791282232000,13.766232177734375,-0.01893680728971958,0.6191114783287048,0.356286883354187
1751278791301056500,13.785056396484375,0.11545344442129135,0.5140427350997925,0.4540252387523651
1751278791319881200,13.803881103515625,0.2620609998703003,0.1951712965965271,0.43081238865852356
1751278791338706000,13.822705810546875,0.20341797173023224,-0.13698641955852509,0.23533566296100616
1751278791357530600,13.841530517578125,0.049480047076940536,-0.5523744821548462,-0.05894844979047775
1751278791376355300,13.860355224609375,0.0054977829568088055,-0.8272636532783508,-0.21410810947418213
1751278791395180000,13.879179931640625,-0.010384701192378998,-0.7832813858985901,-0.09560033679008484
1751278791414004700,13.898004638671875,-0.02260199747979641,-0.43142324686050415,0.15347976982593536
1751278791432829200,13.9168291015625,0.02626718580722809,-0.17852523922920227,0.3685041666030884
1751278791451654000,13.93565380859375,0.06536252796649933,-0.1724165827035904,0.46257734298706055
1751278791470478600,13.954478515625,-0.03848448023200035,-0.19685117900371552,0.37949973344802856
1751278791489303300,13.97330322265625,-0.18387030065059662,-0.09666935354471207,0.18890993297100067
1751278791508128000,13.9921279296875,-0.13011419773101807,-0.04535670951008797,0.049632761627435684
1751278791526952700,14.01095263671875,-0.053145237267017365,-0.1467602699995041,0.08872810751199722
1751278791545777400,14.02977734375,-0.04459312930703163,-0.2176205813884735,0.26099199056625366
1751278791564602000,14.04860205078125,-0.08857539296150208,-0.014813470654189587,0.35017824172973633
1751278791583426800,14.0674267578125,-0.13133592903614044,0.3698786199092865,0.30741769075393677
1751278791602251300,14.086251220703126,-0.08857539296150208,0.6166679859161377,0.2084576040506363
1751278791621076000,14.105075927734376,-0.1997527778148651,0.5030471682548523,0.10705405473709106
1751278791639900700,14.123900634765626,-0.3084867000579834,0.09132428467273712,0.17302745580673218
1751278791658725400,14.142725341796876,-0.1288924664258957,-0.12232567369937897,0.33918267488479614
1751278791677550000,14.161550048828126,-0.06536252796649933,-0.05024362727999687,0.3526217043399811
1751278791696374800,14.180374755859376,-0.049480047076940536,0.2525925934314728,0.2646571695804596
1751278791715199200,14.19919921875,-0.01893680728971958,0.7706059217453003,0.3782780170440674
1751278791734024000,14.21802392578125,0.04214967042207718,1.1505638360977173,0.8413135409355164
1751278791752848600,14.2368486328125,0.3549124300479889,1.4242312908172607,1.7014111280441284
1751278791771673300,14.25567333984375,0.37323838472366333,0.5568032264709473,2.174220561981201
1751278791790498000,14.274498046875,0.1692095398902893,0.09376774728298187,1.4057525396347046
1751278791809322800,14.29332275390625,0.20708316564559937,-0.17119485139846802,0.24510949850082397
1751278791828147500,14.3121474609375,0.10201441496610641,-0.6708822250366211,-0.3069595396518707
1751278791846972200,14.33097216796875,-0.017715077847242355,-0.7539598345756531,-0.20189081132411957
1751278791865796900,14.349796875,-0.06536252796649933,-0.2909243404865265,-0.01511890348047018
1751278791884621300,14.368621337890625,-0.13744457066059113,0.39309149980545044,-0.002901607658714056
1751278791903446000,14.387446044921875,-0.13133592903614044,0.6789761781692505,0.09117157012224197
1751278791922270700,14.406270751953125,-0.18631376326084137,0.5409207344055176,0.2695440948009491
1751278791941095400,14.425095458984375,-0.11667517572641373,0.406530499458313,0.2438877671957016
1751278791959920000,14.443920166015625,-0.07269290834665298,0.2306014597415924,0.0386371985077858
1751278791978744800,14.462744873046875,-0.16310089826583862,0.17318016290664673,-0.16035200655460358
1751278791997569500,14.481569580078125,-0.17043127119541168,0.20861032605171204,-0.22510367631912231
1751278792016394000,14.50039404296875,-0.11423171311616898,0.39675667881965637,-0.2776380479335785
1751278792035218700,14.51921875,0.08979712426662445,0.9660826325416565,-0.02611446939408779
1751278792054043400,14.53804345703125,0.4221075773239136,1.13712477684021,0.7509055137634277
1751278792072868000,14.5568681640625,0.3084867000579834,0.859792172908783,1.328783631324768
1751278792091692800,14.57569287109375,0.535728394985199,0.6899717450141907,1.2738057374954224
1751278792110517500,14.594517578125,0.9425643682479858,0.572685718536377,0.7765618562698364
1751278792129342200,14.61334228515625,1.1087195873260498,-0.0795651376247406,0.4173733592033386
1751278792148167000,14.6321669921875,0.337808221578598,-1.152243733406067,0.2964221239089966
1751278792166991400,14.650991455078126,-0.09468404203653336,-1.6690353155136108,0.08139773458242416
1751278792185816000,14.669816162109376,-0.12522727251052856,-0.9983057379722595,-0.21777328848838806
1751278792204640800,14.688640869140626,-0.010384701192378998,-0.23961171507835388,-0.34116798639297485
1751278792223465500,14.707465576171876,0.02871064469218254,-0.06979130208492279,-0.41935867071151733
1751278792242290200,14.726290283203125,-0.06291907280683517,0.33689191937446594,-0.16523891687393188
1751278792261115000,14.745114990234375,-0.001832594396546483,1.036942958831787,0.3098611533641815
1751278792279939600,14.763939697265625,0.05436696484684944,1.0919208526611328,0.4967857897281647
1751278792298764300,14.782764404296875,-0.08491020649671555,0.8927788734436035,0.44669488072395325
1751278792317589000,14.801589111328125,0.04459312930703163,1.0809252262115479,0.4088212549686432
1751278792336413400,14.820413330078125,0.379347026348114,1.4376702308654785,0.5896372199058533
1751278792355238100,14.839238037109375,0.638353705406189,0.9831868410110474,1.0355684757232666
1751278792374062800,14.858062744140625,0.7544180154800415,0.34055712819099426,1.5951206684112549
1751278792392887600,14.876887451171875,0.8350521326065063,0.009621120058000088,2.033721685409546
1751278792411712300,14.895712158203125,0.8888082504272461,0.02306014485657215,2.0911428928375244
1751278792430537000,14.914536865234375,0.7666352987289429,-0.24083344638347626,1.8577924966812134
1751278792449361700,14.933361572265625,0.49541133642196655,-0.191964253783226,1.3312270641326904
1751278792468186400,14.952186279296875,0.2364046722650528,0.05345066636800766,0.6995928883552551
1751278792487011000,14.971010986328125,-0.06780599057674408,0.2929096519947052,0.2292270064353943
1751278792505835500,14.98983544921875,-0.32559093832969666,0.6508764028549194,0.14492766559123993
1751278792524660200,15.00866015625,-0.21685700118541718,0.8830050230026245,0.2182314395904541
1751278792543485000,15.02748486328125,-0.056810423731803894,0.9318742156028748,0.4637990891933441
1751278792562309600,15.0463095703125,-0.031154103577136993,1.1346813440322876,0.8266527652740479
1751278792581134300,15.06513427734375,0.037262752652168274,1.3008365631103516,1.1296416521072388
1751278792599959000,15.083958984375,0.08491020649671555,1.1004729270935059,1.1748456954956055
1751278792618783700,15.10278369140625,0.04459312930703163,0.7547234296798706,0.9683734178543091
1751278792637608400,15.1216083984375,-0.0616973415017128,0.3197877109050751,0.7008146047592163
1751278792656433200,15.14043310546875,-0.185092031955719,0.08643736690282822,0.43203410506248474
1751278792675257600,15.159257568359376,-0.2706131041049957,0.08521563559770584,0.2854265570640564
1751278792694082300,15.178082275390626,-0.2608392536640167,0.002290742937475443,0.3159697949886322
1751278792712907000,15.196906982421876,-0.2412915825843811,0.008399390615522861,0.42592546343803406
1751278792731731700,15.215731689453126,-0.22418737411499023,0.1182023361325264,0.41615164279937744
1751278792750556400,15.234556396484376,-0.164322629570961,0.129197895526886,0.27198755741119385
1751278792769381000,15.253381103515625,-0.09468404203653336,-0.11255183815956116,0.0850629210472107
1751278792788205800,15.272205810546875,-0.010384701192378998,-0.04413498193025589,-0.04550942778587341
1751278792807030500,15.291030517578125,0.13988803327083588,0.3039052188396454,-0.03329212963581085
1751278792825855200,15.309855224609375,0.258395791053772,0.49082985520362854,0.1302669197320938
1751278792844679700,15.3286796875,0.3390299379825592,0.6679806113243103,0.3452913165092468
1751278792863504400,15.34750439453125,0.25961753726005554,0.2464839369058609,0.5823068618774414
1751278792882329000,15.3663291015625,0.07635809481143951,-0.1773035079240799,0.6763800382614136
1751278792901153800,15.38515380859375,0.06902772188186646,-0.07223475724458694,0.541989803314209
1751278792919978500,15.403978515625,0.164322629570961,0.25870123505592346,0.2854265570640564
1751278792938803200,15.42280322265625,0.3194822669029236,0.25503605604171753,-0.002901607658714056
1751278792957628000,15.4416279296875,0.20830489695072174,-0.05146535858511925,-0.383928507566452
1751278792976452600,15.46045263671875,-0.0873536616563797,-0.3104720115661621,-0.7113520503044128
1751278792995277300,15.47927734375,-0.17287473380565643,-0.5865828990936279,-0.868955135345459
1751278793014102000,15.49810205078125,-0.01649334840476513,-0.9714277386665344,-0.7150171995162964
1751278793032926500,15.516926513671875,0.12156209349632263,-1.0874919891357422,-0.2935205399990082
1751278793051751200,15.535751220703125,0.2608392536640167,-0.5364919900894165,0.0435241162776947
1751278793070575900,15.554575927734374,0.3280344009399414,0.40775224566459656,0.2292270064353943
1751278793089400600,15.573400634765624,0.32192572951316833,0.9013310074806213,0.407599538564682
1751278793108225300,15.592225341796874,0.3500255048274994,0.7144063711166382,0.6116283535957336
1751278793127050000,15.611050048828124,0.4367683231830597,0.3601047992706299,0.7289143800735474
1751278793145874700,15.629874755859374,0.39400777220726013,0.4053087830543518,0.540768027305603
1751278793164699400,15.648699462890624,0.17165300250053406,-0.2078467458486557,0.3404043912887573
1751278793183524000,15.667524169921874,0.09346231073141098,-0.41554075479507446,0.08750637620687485
1751278793202348500,15.6863486328125,0.007941242307424545,-0.5169443488121033,-0.16768237948417664
1751278793221173200,15.70517333984375,-0.13988803327083588,-0.8040507435798645,-0.33017241954803467
1751278793239998000,15.723998046875,-0.22785256803035736,-0.7930551767349243,-0.3692677617073059
1751278793258822700,15.74282275390625,-0.16798780858516693,-0.4802924394607544,-0.2507599890232086
1751278793277647400,15.7616474609375,0.006719512399286032,-0.07712167501449585,0.009315688163042068
1751278793296472000,15.78047216796875,0.05558869615197182,0.23793183267116547,0.3013090491294861
1751278793315296800,15.799296875,0.08857539296150208,0.5604684352874756,0.4796815812587738
1751278793334121500,15.81812158203125,0.11423171311616898,0.7559451460838318,0.5297724604606628
1751278793352946200,15.8369462890625,0.011606430634856224,0.6276635527610779,0.6091849207878113
1751278793371771000,15.85577099609375,0.021380268037319183,0.2929096519947052,0.6385064125061035
1751278793390595600,15.874595703125,0.03237583488225937,-0.29825472831726074,0.5590940117835999
1751278793409420300,15.893420166015625,-0.033597562462091446,-0.7820596098899841,0.36972591280937195
1751278793428245000,15.912244873046875,-0.056810423731803894,-0.4644099473953247,0.07895427197217941
1751278793447069400,15.9310693359375,-0.06780599057674408,-0.21029019355773926,-0.06627883017063141
1751278793465894100,15.94989404296875,-0.03237583488225937,-0.2237292230129242,-0.028405211865901947
1751278793484718800,15.96871875,0.037262752652168274,-0.20051635801792145,0.13515383005142212
1751278793503543600,15.98754345703125,-0.09834922850131989,-0.02214384824037552,0.32330018281936646
1751278793522368300,16.0063681640625,-0.2669478952884674,0.08765909820795059,0.5297724604606628
1751278793541193000,16.02519287109375,-0.3488037884235382,0.28435754776000977,0.633619487285614
1751278793560017700,16.044017578125,-0.3903425931930542,0.731510579586029,0.7521272301673889
1751278793578842400,16.06284228515625,-0.32559093832969666,0.8060360550880432,0.930499792098999
1751278793597667000,16.0816669921875,-0.15577052533626556,0.8329141139984131,1.019685983657837
1751278793616491500,16.100491455078124,0.20708316564559937,0.8158099055290222,0.9329432249069214
1751278793635316200,16.119316162109374,0.3341430425643921,0.4663952589035034,0.7435751557350159
1751278793654141000,16.138140869140624,0.25473061203956604,-0.04169152304530144,0.5627591609954834
1751278793672965600,16.156965576171874,0.23396120965480804,-0.12110394239425659,0.2903134822845459
1751278793691790300,16.175790283203124,0.1802051067352295,-0.18096868693828583,0.15958842635154724
1751278793710615000,16.194614990234374,0.21197007596492767,-0.32391104102134705,0.15836669504642487
1751278793729439700,16.213439697265624,0.33536475896835327,-0.21517711877822876,0.23044873774051666
1751278793748264400,16.232264404296874,0.3390299379825592,-0.16875138878822327,0.4344775676727295
1751278793767089200,16.251089111328124,0.2461785078048706,-0.23228132724761963,0.585972011089325
1751278793785913900,16.269913818359374,0.1740964651107788,-0.3312414288520813,0.5102248191833496
1751278793804738600,16.288738525390624,0.1386663019657135,-0.26648977398872375,0.2903134822845459
1751278793823563300,16.307563232421874,0.1288924664258957,-0.25060728192329407,0.13759729266166687
1751278793842387700,16.3263876953125,0.18631376326084137,-0.3727802336215973,0.19379685819149017
1751278793861212400,16.34521240234375,0.2657261788845062,-0.25182899832725525,0.46624255180358887
1751278793880037000,16.364037109375,0.31459537148475647,-0.03802633285522461,0.7386882305145264
1751278793898861800,16.38286181640625,0.38301220536231995,0.04505127668380737,0.8510873317718506
1751278793917686500,16.4016865234375,0.36712974309921265,-0.05024362727999687,0.8706350326538086
1751278793936511200,16.42051123046875,0.25961753726005554,-0.19929464161396027,0.8254310488700867
1751278793955336000,16.4393359375,0.20952661335468292,-0.23228132724761963,0.7838922142982483
1751278793974160600,16.45816064453125,0.19242240488529205,-0.13942988216876984,0.6995928883552551
1751278793992985300,16.4769853515625,0.12156209349632263,-0.22495095431804657,0.512668251991272
1751278794011810000,16.49581005859375,0.05803215503692627,-0.3935496211051941,0.24022257328033447
1751278794030634800,16.514634765625,0.06780599057674408,-0.5755873322486877,0.10216713696718216
1751278794049459500,16.53345947265625,0.033597562462091446,-0.448527455329895,0.1302669197320938
1751278794068284200,16.5522841796875,0.14599667489528656,-0.47174033522605896,0.24510949850082397
1751278794087108600,16.571108642578125,0.24862197041511536,-0.378888875246048,0.3452913165092468
1751278794105933300,16.589933349609375,0.2816086709499359,-0.28725916147232056,0.5285507440567017
1751278794124758000,16.608758056640625,0.1899789422750473,-0.1418733447790146,0.6727148294448853
1751278794143582700,16.627582763671874,0.1337793916463852,-0.12721258401870728,0.7765618562698364
1751278794162407400,16.646407470703124,0.13988803327083588,-0.07101303339004517,0.7289143800735474
1751278794181232000,16.665232177734374,0.12156209349632263,-0.2787070572376251,0.625067412853241
1751278794200056800,16.684056884765624,0.13744457066059113,-0.38011062145233154,0.38560840487480164
1751278794218881500,16.702881591796874,0.17531819641590118,-0.35811948776245117,0.23655737936496735
1751278794237706200,16.721706298828124,0.1496618688106537,-0.2787070572376251,0.17424917221069336
1751278794256531000,16.740531005859374,0.10690133273601532,-0.3068068325519562,0.18890993297100067
1751278794275355600,16.759355712890624,-0.017715077847242355,-0.17486004531383514,0.407599538564682
1751278794294180400,16.778180419921874,-0.14233149588108063,-0.02458730712532997,0.7008146047592163
1751278794313005000,16.797005126953124,-0.11056652665138245,-0.1614210158586502,0.88285231590271
1751278794331829800,16.815829833984374,-0.03848448023200035,-0.22495095431804657,0.9219476580619812
1751278794350654200,16.834654296875,-0.06047561392188072,-0.2237292230129242,0.81810063123703
1751278794369479000,16.85347900390625,-0.13744457066059113,-0.19929464161396027,0.6519454121589661
1751278794388303600,16.8723037109375,-0.19242240488529205,-0.1418733447790146,0.40149086713790894
1751278794407128300,16.89112841796875,-0.18753549456596375,-0.1516471803188324,0.19379685819149017
1751278794425953000,16.909953125,-0.0873536616563797,-0.08200860023498535,0.1876882016658783
1751278794444777700,16.92877783203125,0.02626718580722809,-0.11499529331922531,0.3721693754196167
1751278794463602400,16.9476025390625,0.0054977829568088055,-0.1259908676147461,0.6873756051063538
1751278794482427100,16.96642724609375,-0.031154103577136993,0.04016435891389847,0.9036217331886292
1751278794501251800,16.985251953125,-0.04214967042207718,0.17806708812713623,0.9170607328414917
1751278794520076500,17.00407666015625,-0.05925388261675835,0.2367101013660431,0.837648332118988
1751278794538901200,17.0229013671875,-0.02626718580722809,0.19150610268115997,0.7557924389839172
1751278794557726000,17.041725830078125,0.07635809481143951,0.05589412897825241,0.7276926636695862
1751278794576550700,17.060550537109375,0.09712749719619751,-0.2897026240825653,0.8987348079681396
1751278794595375000,17.079375,0.2205221801996231,-0.4338667094707489,1.1992802619934082
1751278794614199800,17.09819970703125,0.5174024701118469,-0.35323256254196167,1.2835795879364014
1751278794633024500,17.1170244140625,0.6212494969367981,-0.3019199073314667,1.068555235862732
1751278794651849200,17.13584912109375,0.3659079968929291,-0.36544984579086304,0.8339831233024597
1751278794670674000,17.154673828125,0.02260199747979641,-0.32391104102134705,0.7008146047592163
1751278794689498600,17.17349853515625,-0.11178825795650482,-0.41554075479507446,0.5725330114364624
1751278794708323300,17.1923232421875,-0.033597562462091446,-0.5841394662857056,0.6018545031547546
1751278794727148000,17.21114794921875,0.16310089826583862,-0.5939132571220398,0.92072594165802
1751278794745972700,17.22997265625,0.34147340059280396,-0.49861836433410645,1.2469277381896973
1751278794764797400,17.24879736328125,0.3023780584335327,-0.3972148299217224,1.2554798126220703
1751278794783622100,17.2676220703125,0.15699224174022675,-0.3043633699417114,1.0111339092254639
1751278794802446800,17.28644677734375,0.12400554865598679,-0.17486004531383514,0.7851139307022095
1751278794821271600,17.305271484375,0.2522871494293213,-0.2860374450683594,0.6898190379142761
1751278794840096300,17.32409619140625,0.2987128794193268,-0.13332124054431915,0.653167188167572
1751278794858921000,17.3429208984375,0.26450446248054504,0.21471896767616272,0.5273290276527405
1751278794877745700,17.36174560546875,0.11911863088607788,0.14141519367694855,0.3575085997581482
1751278794896570400,17.3805703125,0.017715077847242355,-0.14309507608413696,0.3428478538990021
1751278794915395000,17.39939501953125,0.0409279391169548,-0.012370011769235134,0.5212203860282898
1751278794934219800,17.4182197265625,0.12767073512077332,0.17318016290664673,0.5847502946853638
1751278794953044200,17.437044189453125,0.13988803327083588,0.22327107191085815,0.4405862092971802
1751278794971869000,17.455868896484375,0.010384701192378998,0.2110537886619568,0.23044873774051666
1751278794990693600,17.474693603515625,-0.16187916696071625,0.09621120244264603,0.2890917658805847
1751278795009518300,17.493518310546875,-0.19364413619041443,0.1853974610567093,0.449138343334198
1751278795028343000,17.512343017578125,-0.1178968995809555,0.25503605604171753,0.5835285782814026
1751278795047167700,17.531167724609375,-0.07880155742168427,-0.0013744457392022014,0.6507236957550049
1751278795065992400,17.549992431640625,-0.014049889519810677,-0.13209950923919678,0.5554288029670715
1751278795084817200,17.568817138671875,0.17776164412498474,-0.12965604662895203,0.27687445282936096
1751278795103641900,17.587641845703125,0.3451386094093323,-0.19929464161396027,0.356286883354187
1751278795122466600,17.606466552734375,0.25473061203956604,-0.28848087787628174,0.6519454121589661
1751278795141291300,17.625291259765625,0.06047561392188072,-0.11133010685443878,0.8449786901473999
1751278795160116000,17.644115966796875,-0.02260199747979641,-0.04046979174017906,0.7643445730209351
1751278795178940700,17.662940673828125,0.017715077847242355,-0.1663079410791397,0.6372846961021423
1751278795197765400,17.681765380859375,0.24495677649974823,-0.26160284876823425,0.7521272301673889
1751278795216590000,17.700590087890625,0.4514290690422058,-0.25671592354774475,0.9133955836296082
1751278795235414800,17.719414794921875,0.4563159942626953,-0.2603811025619507,0.8804088830947876
1751278795254239500,17.738239501953124,0.35124725103378296,-0.33001968264579773,0.6910407543182373
1751278795273064200,17.757064208984374,0.3084867000579834,-0.305585116147995,0.698371171951294
1751278795291889000,17.775888916015624,0.3964512348175049,-0.24572035670280457,0.7728966474533081
1751278795310713300,17.79471337890625,0.3695732057094574,-0.212733656167984,0.6226239204406738
1751278795329538000,17.8135380859375,0.2938259541988373,-0.1357647031545639,0.4088212549686432
1751278795348362800,17.83236279296875,0.08368847519159317,-0.2799287736415863,0.37094762921333313
1751278795367187500,17.8511875,-0.03237583488225937,-0.2750418782234192,0.4039343297481537
1751278795386012200,17.87001220703125,-0.029932374134659767,-0.08567378669977188,0.44791659712791443
1751278795404836900,17.8888369140625,0.09834922850131989,0.11331541836261749,0.3831649422645569
1751278795423661600,17.90766162109375,0.2828303873538971,0.03756818547844887,0.33429574966430664
1751278795442486300,17.926486328125,0.4257727563381195,-0.22983787953853607,0.49312058091163635
1751278795461311000,17.94531103515625,0.43921178579330444,-0.29703301191329956,0.7203623056411743
1751278795480135700,17.9641357421875,0.30604326725006104,-0.19074252247810364,0.8339831233024597
1751278795498960400,17.98296044921875,0.17898337543010712,0.06811141967773438,0.8791871070861816
1751278795517785000,18.00178515625,0.164322629570961,0.17684535682201385,0.9744820594787598
1751278795536609800,18.02060986328125,0.18631376326084137,-0.08689551800489426,0.9915862679481506
1751278795555434500,18.0394345703125,0.12156209349632263,-0.26771149039268494,0.88285231590271
1751278795574259200,18.05825927734375,0.07269290834665298,-0.24572035670280457,0.7728966474533081
1751278795593084000,18.077083984375,0.027488915249705315,-0.14920371770858765,0.6861538887023926
1751278795611908600,18.09590869140625,0.033597562462091446,-0.05146535858511925,0.6690496206283569
1751278795630733300,18.1147333984375,-0.0030543238390237093,-0.0062613640911877155,0.7594576478004456
1751278795649558000,18.13355810546875,0.08368847519159317,0.030390523374080658,0.9072869420051575
1751278795668382700,18.1523828125,0.28405213356018066,0.06322450190782547,0.7924443483352661
1751278795687207400,18.17120751953125,0.37323838472366333,-0.039248060435056686,0.6030762791633606
1751278795706032000,18.1900322265625,0.4612029194831848,-0.12721258401870728,0.5480984449386597
1751278795724856800,18.20885693359375,0.4734202027320862,0.021838415414094925,0.6898190379142761
1751278795743681500,18.227681640625,0.2412915825843811,0.09987638890743256,0.6470585465431213
1751278795762506200,18.24650634765625,0.10201441496610641,0.08888082206249237,0.3611738085746765
1751278795781330700,18.26533056640625,-0.014049889519810677,0.0412333719432354,0.26221370697021484
1751278795800155400,18.2841552734375,-0.08368847519159317,0.02306014485657215,0.4234820008277893
1751278795818980000,18.30297998046875,-0.20830489695072174,-0.012370011769235134,0.6959276795387268
1751278795837804800,18.3218046875,-0.2632827162742615,-0.12232567369937897,0.9378301501274109
1751278795856629500,18.34062939453125,-0.17165300250053406,-0.23228132724761963,1.085659384727478
1751278795875454200,18.3594541015625,0.0030543238390237093,-0.06612611562013626,1.1809543371200562
1751278795894279000,18.37827880859375,0.08002328872680664,0.07422006875276566,1.2762492895126343
1751278795913103600,18.397103515625,0.2009745091199875,-0.036804601550102234,1.2017236948013306
1751278795931928300,18.41592822265625,0.2864955961704254,-0.1724165827035904,1.0929898023605347
1751278795950753000,18.4347529296875,0.3280344009399414,-0.042913250625133514,1.0209077596664429
1751278795969577700,18.45357763671875,0.32559093832969666,0.15118902921676636,1.114980936050415
1751278795988402400,18.47240234375,0.29504770040512085,0.19394956529140472,1.2041672468185425
1751278796007227100,18.49122705078125,0.35613417625427246,-0.020922118797898293,1.0502293109893799
1751278796026051800,18.5100517578125,0.3402516841888428,-0.1614210158586502,0.9366084337234497
1751278796044876500,18.52887646484375,0.27550002932548523,-0.1455385386943817,0.7790052890777588
1751278796063701200,18.547701171875,0.0824667438864708,-0.08200860023498535,0.6482802629470825
1751278796082526000,18.56652587890625,-0.09712749719619751,-0.04780016839504242,0.5199986696243286
1751278796101350700,18.5853505859375,-0.15210533142089844,0.005955931730568409,0.32940882444381714
1751278796120175400,18.60417529296875,-0.14721840620040894,0.019394956529140472,0.1925751268863678
1751278796139000000,18.623,-0.08613193035125732,-0.0062613640911877155,0.13759729266166687
1751278796157824800,18.64182470703125,-0.027488915249705315,-0.029474224895238876,0.18280129134655
1751278796176649500,18.6606494140625,0.020158538594841957,-0.06734783947467804,0.3355174660682678
1751278796195474200,18.67947412109375,0.11056652665138245,-0.14920371770858765,0.5688678026199341
1751278796214299000,18.698298828125,0.08857539296150208,-0.1773035079240799,0.7142536640167236
1751278796233123600,18.71712353515625,0.09468404203653336,-0.14798198640346527,0.7228057384490967
1751278796251948300,18.7359482421875,0.11178825795650482,-0.1455385386943817,0.7203623056411743
1751278796270773000,18.75477294921875,0.09834922850131989,-0.20662501454353333,0.7044798135757446
1751278796289597700,18.77359765625,0.01649334840476513,-0.22250749170780182,0.490677148103714
1751278796308422400,18.79242236328125,0.0030543238390237093,-0.18829907476902008,0.28787001967430115
1751278796327247000,18.8112470703125,-0.0030543238390237093,-0.12965604662895203,0.21945317089557648
1751278796346071800,18.83007177734375,0.01282816007733345,0.007177661173045635,0.27198755741119385
1751278796364896300,18.848896240234374,0.014049889519810677,0.0461202897131443,0.2952004075050354
1751278796383721200,18.86772119140625,-0.011606430634856224,0.01695149764418602,0.19624030590057373
1751278796402546000,18.8865458984375,0.08491020649671555,-0.06368265300989151,0.08017600327730179
1751278796421370400,18.905370361328124,0.09101885557174683,-0.03191768378019333,0.04230238497257233
1751278796440195000,18.924195068359374,0.0409279391169548,-0.01847865991294384,0.18280129134655
1751278796459020000,18.94302001953125,0.13011419773101807,-0.13209950923919678,0.44791659712791443
1751278796477844500,18.961844482421874,0.17776164412498474,-0.11377356201410294,0.6837103962898254
1751278796496669200,18.980669189453124,0.15699224174022675,-0.12721258401870728,0.7325795888900757
1751278796515494000,18.999493896484374,0.12156209349632263,-0.21517711877822876,0.6104066371917725
1751278796534318600,19.018318603515624,0.13011419773101807,-0.212733656167984,0.4857902228832245
1751278796553143300,19.037143310546874,0.06780599057674408,-0.09422589093446732,0.32818710803985596
1751278796571968000,19.055968017578124,0.0665842592716217,-0.08323032408952713,0.18890993297100067
1751278796590792700,19.074792724609374,0.05192350596189499,-0.11988221108913422,0.17913609743118286
1751278796609617400,19.093617431640624,0.05192350596189499,-0.1821904182434082,0.25610506534576416
1751278796628442000,19.112442138671874,0.02626718580722809,-0.14309507608413696,0.36972591280937195
1751278796647266800,19.131266845703124,0.009162971749901772,-0.07712167501449585,0.4271472096443176
1751278796666091500,19.150091552734374,0.05192350596189499,-0.058795735239982605,0.4845684766769409
1751278796684916200,19.168916259765624,0.08491020649671555,-0.027030766010284424,0.5077813267707825
1751278796703741000,19.187740966796873,0.14721840620040894,-0.08689551800489426,0.46135562658309937
1751278796722565600,19.206565673828123,0.17776164412498474,-0.16386447846889496,0.35506516695022583
1751278796741390300,19.225390380859373,0.1802051067352295,-0.16264274716377258,0.2487746775150299
1751278796760215000,19.244215087890623,0.17165300250053406,-0.13332124054431915,0.18035782873630524
1751278796779039700,19.263039794921873,0.12156209349632263,-0.1418733447790146,0.17547090351581573
1751278796797864400,19.281864501953127,0.053145237267017365,-0.09789107739925385,0.2182314395904541
1751278796816689200,19.300689208984377,-0.009162971749901772,0.004734201822429895,0.28298309445381165
1751278796835513900,19.319513916015627,-0.023823726922273636,-0.025809036567807198,0.3379609286785126
1751278796854338600,19.338338623046877,0.006719512399286032,-0.10888664424419403,0.356286883354187
1751278796873163300,19.357163330078127,0.020158538594841957,-0.09178243577480316,0.37583455443382263
1751278796891988000,19.375988037109376,0.043371398001909256,-0.09789107739925385,0.41615164279937744
1751278796910812700,19.394812744140626,0.0360410213470459,-0.09666935354471207,0.45158177614212036
1751278796929637400,19.413637451171876,0.037262752652168274,-0.08078686892986298,0.45769044756889343
1751278796948462000,19.432462158203126,0.04581485688686371,-0.07712167501449585,0.439364492893219
1751278796967286800,19.451286865234376,0.11911863088607788,-0.10155627131462097,0.41492989659309387
1751278796986111500,19.470111572265626,0.1802051067352295,-0.08078686892986298,0.4344775676727295
1751278797004936200,19.488936279296876,0.1594357043504715,-0.12354740500450134,0.45280352234840393
1751278797023761000,19.507760986328126,0.09834922850131989,-0.20418155193328857,0.4405862092971802
1751278797042585600,19.526585693359376,0.07147117704153061,-0.1516471803188324,0.45158177614212036
1751278797061410300,19.545410400390626,0.07147117704153061,-0.06612611562013626,0.45280352234840393
1751278797080235000,19.564235107421876,0.11545344442129135,-0.1259908676147461,0.4405862092971802
1751278797099059700,19.583059814453126,0.13988803327083588,-0.16264274716377258,0.4894554018974304
1751278797117884400,19.601884521484376,0.14599667489528656,-0.13942988216876984,0.5774199366569519
1751278797136709000,19.620709228515626,0.1130099818110466,-0.12232567369937897,0.6128500699996948
1751278797155533800,19.639533935546876,0.07269290834665298,-0.21029019355773926,0.46746426820755005
1751278797174358500,19.658358642578126,0.09957095980644226,-0.13820815086364746,0.263435423374176
1751278797193183200,19.677183349609376,0.031154103577136993,-0.11133010685443878,0.08750637620687485
1751278797212008000,19.696008056640625,-0.04581485688686371,-0.11866047978401184,0.01908952370285988
1751278797230832600,19.71483251953125,-0.05436696484684944,-0.052687086164951324,0.11316270381212234
1751278797249657300,19.7336572265625,-0.043371398001909256,-0.029474224895238876,0.20112723112106323
1751278797268482000,19.75248193359375,-0.0360410213470459,-0.06368265300989151,0.1925751268863678
1751278797287306800,19.771306640625,-0.000610864779446274,-0.04780016839504242,0.15958842635154724
1751278797306131500,19.79013134765625,0.05925388261675835,-0.03436114266514778,0.1718057245016098
1751278797324956200,19.8089560546875,0.10323614627122879,-0.025809036567807198,0.2597702443599701
1751278797343780900,19.82778076171875,0.08002328872680664,-0.02825249545276165,0.3685041666030884
1751278797362605600,19.84660546875,0.004276053514331579,-0.12843431532382965,0.4955640435218811
1751278797381430300,19.86543017578125,-0.11911863088607788,-0.10399972647428513,0.48823368549346924
1751278797400255000,19.8842548828125,-0.21319180727005005,-0.11255183815956116,0.4650208055973053
1751278797419079700,19.90307958984375,-0.24373504519462585,-0.14309507608413696,0.5847502946853638
1751278797437904400,19.921904296875,-0.22663083672523499,-0.0844520553946495,0.6837103962898254
1751278797456729000,19.94072900390625,-0.1948658674955368,-0.10888664424419403,0.5761982202529907
1751278797475553800,19.9595537109375,-0.12034036219120026,-0.02458730712532997,0.3623955249786377
1751278797494378500,19.97837841796875,-0.007941242307424545,0.005955931730568409,0.19868376851081848
1751278797513203200,19.997203125,0.07757982611656189,0.0461202897131443,0.08139773458242416
1751278797532028000,20.01602783203125,0.0922405794262886,0.06200277432799339,0.05085449293255806
1751278797550852600,20.0348525390625,0.07147117704153061,0.054672397673130035,0.1156061589717865
1751278797569677300,20.05367724609375,0.0030543238390237093,0.014508038759231567,0.21212279796600342
1751278797588502000,20.072501953125,-0.043371398001909256,0.007177661173045635,0.31352636218070984
1751278797607326700,20.09132666015625,0.05192350596189499,0.11331541836261749,0.4699077308177948
1751278797626151400,20.1101513671875,0.01649334840476513,0.05833758786320686,0.6739365458488464
1751278797644976000,20.12897607421875,-0.13500112295150757,-0.0795651376247406,0.7338013052940369
1751278797663800800,20.14780078125,-0.1386663019657135,-0.09056070446968079,0.6666061878204346
1751278797682625500,20.16662548828125,-0.05558869615197182,-0.07834340631961823,0.5297724604606628
1751278797701450200,20.1854501953125,-0.01649334840476513,-0.05757400393486023,0.4039343297481537
1751278797720275000,20.20427490234375,0.031154103577136993,-0.04413498193025589,0.23044873774051666
1751278797739099600,20.223099609375,0.05070177838206291,-0.0038179049734026194,0.10094540566205978
1751278797757924400,20.24192431640625,0.043371398001909256,-0.030695954337716103,0.07040216773748398
1751278797776749000,20.2607490234375,0.043371398001909256,-0.02825249545276165,0.1815795600414276
1751278797795573800,20.27957373046875,0.043371398001909256,-0.007483093533664942,0.3721693754196167
1751278797814398700,20.298398681640624,0.020158538594841957,-0.0001527161948615685,0.48212501406669617
1751278797833223200,20.31722314453125,-0.0409279391169548,-0.10644318908452988,0.5676460862159729
1751278797852048000,20.3360478515625,-0.12644900381565094,-0.04046979174017906,0.6360629796981812
1751278797870872800,20.354872802734373,-0.143553227186203,-0.0795651376247406,0.7032580971717834
1751278797889697300,20.373697265625,-0.11178825795650482,-0.05024362727999687,0.7276926636695862
1751278797908522000,20.39252197265625,-0.07757982611656189,-0.10155627131462097,0.6641627550125122
1751278797927347000,20.411346923828123,-0.07269290834665298,-0.1052214577794075,0.6030762791633606
1751278797946171400,20.43017138671875,-0.037262752652168274,-0.017256930470466614,0.5578722357749939
1751278797964996400,20.448996337890627,-0.05558869615197182,-0.052687086164951324,0.5334376692771912
1751278797983821000,20.467821044921877,-0.07269290834665298,0.026572618633508682,0.48212501406669617
1751278798002645500,20.4866455078125,-0.07635809481143951,0.12064579129219055,0.37583455443382263
1751278798021470500,20.505470458984377,-0.039706211537122726,0.014508038759231567,0.30253079533576965
1751278798040295200,20.524295166015627,0.004276053514331579,-0.02825249545276165,0.24144430458545685
1751278798059119900,20.543119873046876,-0.004276053514331579,-0.03436114266514778,0.2023489624261856
1751278798077944600,20.561944580078126,-0.020158538594841957,-0.027030766010284424,0.20357069373130798
1751278798096769300,20.580769287109376,-0.015271619893610477,-0.019700389355421066,0.2182314395904541
1751278798115594000,20.599593994140626,-0.01649334840476513,0.02779434807598591,0.26099199056625366
1751278798134418700,20.618418701171876,-0.025045456364750862,0.04245510324835777,0.31230461597442627
1751278798153243400,20.637243408203126,-0.04581485688686371,0.07422006875276566,0.3929387629032135
1751278798172068000,20.656068115234376,-0.07391463965177536,0.14630211889743805,0.3819431960582733
1751278798190892800,20.674892822265626,-0.15210533142089844,0.038789913058280945,0.3269653618335724
1751278798209717500,20.693717529296876,-0.13988803327083588,-0.06490438431501389,0.3098611533641815
1751278798228542200,20.712542236328126,-0.09957095980644226,-0.042913250625133514,0.3367392122745514
1751278798247367000,20.731366943359376,-0.09957095980644226,0.003512472379952669,0.36483898758888245
1751278798266191600,20.750191650390626,-0.07757982611656189,-0.007483093533664942,0.35384342074394226
1751278798285016300,20.769016357421876,-0.06902772188186646,-0.03436114266514778,0.29275694489479065
1751278798303841000,20.787841064453126,-0.05925388261675835,0.03390299528837204,0.2793179154396057
1751278798322665700,20.806665771484376,-0.07147117704153061,0.0925460159778595,0.28176137804985046
1751278798341490400,20.825490478515626,-0.049480047076940536,0.0412333719432354,0.29153522849082947
1751278798360315100,20.844315185546876,-0.037262752652168274,-0.017256930470466614,0.24755294620990753
1751278798379139800,20.863139892578126,-0.03481929376721382,-0.008704823441803455,0.17424917221069336
1751278798397964500,20.881964599609375,-0.014049889519810677,-0.0025961752980947495,0.16447533667087555
1751278798416789200,20.900789306640625,0.006719512399286032,-0.0001527161948615685,0.18646647036075592
1751278798435614000,20.919614013671875,0.020158538594841957,-0.0062613640911877155,0.20967933535575867
1751278798454438700,20.938438720703125,0.007941242307424545,-0.0038179049734026194,0.25121814012527466
1751278798473263400,20.957263427734375,-0.027488915249705315,-0.03436114266514778,0.3013090491294861
1751278798492088000,20.976088134765625,-0.01282816007733345,-0.07101303339004517,0.33307403326034546
1751278798510912800,20.994912841796875,0.01282816007733345,-0.03558287397027016,0.33918267488479614
1751278798529737500,21.013737548828125,0.023823726922273636,0.05100720748305321,0.32940882444381714
1751278798548562200,21.032562255859375,0.023823726922273636,0.06933315098285675,0.314748078584671
1751278798567387000,21.051386962890625,0.03481929376721382,0.06200277432799339,0.3257436454296112
1751278798586211600,21.070211669921875,0.04214967042207718,0.024281874299049377,0.3416261374950409
1751278798605036300,21.089036376953125,0.0665842592716217,0.04367683082818985,0.36361727118492126
1751278798623861000,21.107861083984375,0.05436696484684944,0.05222893878817558,0.3819431960582733
1751278798642685700,21.126685791015625,0.04825831577181816,-0.0013744457392022014,0.45280352234840393
1751278798661510400,21.145510498046875,0.049480047076940536,0.007177661173045635,0.502894401550293
1751278798680335000,21.164335205078125,0.03481929376721382,0.0412333719432354,0.5236638188362122
1751278798699159800,21.183159912109375,0.04214967042207718,0.10842850059270859,0.5578722357749939
1751278798717984500,21.201984619140624,0.047036588191986084,0.11087195575237274,0.6018545031547546
1751278798736809200,21.220809326171874,0.07757982611656189,0.13041962683200836,0.6568323373794556
1751278798755634200,21.23963427734375,0.0873536616563797,0.129197895526886,0.6885973215103149
1751278798774458600,21.258458740234374,0.11178825795650482,0.13164135813713074,0.698371171951294
1751278798793283600,21.27728369140625,0.15088360011577606,0.19272783398628235,0.6727148294448853
1751278798812108300,21.2961083984375,0.14721840620040894,0.16218459606170654,0.6140718460083008
1751278798830933000,21.31493310546875,0.12034036219120026,0.10109812021255493,0.5309942364692688
1751278798849757700,21.3337578125,0.10567960888147354,0.08765909820795059,0.4589121639728546
1751278798868582400,21.35258251953125,0.13988803327083588,0.0668896958231926,0.3917170464992523
1751278798887407000,21.371406982421874,0.17165300250053406,0.04978547990322113,0.35873034596443176
1751278798906231800,21.390231689453124,0.12644900381565094,0.05100720748305321,0.3367392122745514
1751278798925056500,21.409056396484374,0.03848448023200035,0.014508038759231567,0.2903134822845459
1751278798953293600,21.43729345703125,0.029932374134659767,-0.008704823441803455,0.21945317089557648
1751278798972118300,21.4561181640625,0.056810423731803894,0.04367683082818985,0.23777911067008972
1751278798990943000,21.47494287109375,0.08002328872680664,0.048563748598098755,0.2182314395904541
1751278799009767700,21.493767578125,0.033597562462091446,0.0010690133785828948,0.21700970828533173
1751278799028592400,21.51259228515625,-0.027488915249705315,-0.07345648854970932,0.2280052751302719
1751278799047417000,21.5314169921875,-0.03848448023200035,-0.06734783947467804,0.20967933535575867
1751278799066241800,21.55024169921875,-0.043371398001909256,-0.08323032408952713,0.2341139316558838
1751278799085066500,21.56906640625,0.017715077847242355,-0.030695954337716103,0.27809619903564453
1751278799103891200,21.58789111328125,0.025045456364750862,0.04367683082818985,0.33307403326034546
1751278799122716000,21.6067158203125,-0.029932374134659767,0.08521563559770584,0.3611738085746765
1751278799141540600,21.62554052734375,-0.049480047076940536,0.08521563559770584,0.3819431960582733
1751278799160365300,21.644365234375,-0.06047561392188072,0.10109812021255493,0.43081238865852356
1751278799179190000,21.66318994140625,-0.02871064469218254,0.06933315098285675,0.40637779235839844
1751278799198014700,21.6820146484375,-0.006719512399286032,0.038789913058280945,0.4027126133441925
1751278799216839400,21.70083935546875,0.006719512399286032,0.05711585655808449,0.4124864339828491
1751278799235664100,21.7196640625,-0.015271619893610477,0.04734202101826668,0.4198168218135834
1751278799254488800,21.73848876953125,-0.049480047076940536,0.03527744114398956,0.4283689260482788
1751278799273313500,21.7573134765625,-0.049480047076940536,0.026572618633508682,0.42592546343803406
1751278799292138500,21.776138427734374,-0.011606430634856224,-0.02458730712532997,0.43692103028297424
1751278799310963200,21.794963134765624,0.043371398001909256,-0.08689551800489426,0.44791659712791443
1751278799329788000,21.813787841796874,0.07513637095689774,-0.08811724185943604,0.4540252387523651
1751278799348612600,21.832612548828124,0.07024945318698883,-0.07223475724458694,0.43081238865852356
1751278799367437300,21.851437255859373,0.043371398001909256,-0.07101303339004517,0.41004297137260437
1751278799386262000,21.870261962890623,-0.0030543238390237093,-0.04046979174017906,0.3611738085746765
1751278799405086700,21.889086669921873,-0.031154103577136993,-0.04780016839504242,0.25732678174972534
1751278799423911400,21.907911376953123,0.01893680728971958,-0.03802633285522461,0.2084576040506363
1751278799442736000,21.926736083984373,0.053145237267017365,-0.039248060435056686,0.263435423374176
1751278799461560800,21.945560791015627,0.0616973415017128,-0.05635227635502815,0.3782780170440674
1751278799480385500,21.964385498046877,0.04459312930703163,0.009621120058000088,0.48701193928718567
1751278799499210200,21.983210205078127,-0.004276053514331579,-0.049021899700164795,0.5639809370040894
1751278799518035000,22.002034912109377,-0.0360410213470459,-0.058795735239982605,0.5383245944976807
1751278799536859600,22.020859619140627,-0.02626718580722809,-0.029474224895238876,0.46257734298706055
1751278799555684400,22.039684326171876,-0.01282816007733345,0.010842849500477314,0.388051837682724
1751278799574509000,22.058509033203126,-0.010384701192378998,0.021838415414094925,0.3367392122745514
1751278799593333800,22.077333740234376,-0.01893680728971958,0.02779434807598591,0.2548833191394806
1751278799612158500,22.096158447265626,-0.02871064469218254,0.0010690133785828948,0.17913609743118286
1751278799630983200,22.114983154296876,-0.02260199747979641,-0.017256930470466614,0.11804962158203125
1751278799649808000,22.133807861328126,0.015271619893610477,-0.01359174121171236,0.1204930767416954
1751278799668632800,22.1526328125,0.02260199747979641,0.013286309316754341,0.15836669504642487
1751278799687457300,22.171457275390626,-0.004276053514331579,0.04734202101826668,0.21578797698020935
1751278799706282200,22.1902822265625,-0.039706211537122726,0.0668896958231926,0.22678354382514954
1751278799725107000,22.20910693359375,-0.03237583488225937,-0.005039634648710489,0.19624030590057373
1751278799743931600,22.227931640625,-0.01893680728971958,-0.03436114266514778,0.2756527364253998
1751278799762756400,22.24675634765625,-0.011606430634856224,0.018173227086663246,0.3831649422645569
1751278799781581000,22.2655810546875,0.021380268037319183,0.019394956529140472,0.4344775676727295
1751278799800405800,22.28440576171875,0.04581485688686371,-0.039248060435056686,0.4247037470340729
1751278799819230500,22.30323046875,0.031154103577136993,-0.06734783947467804,0.3929387629032135
1751278799838055200,22.32205517578125,-0.011606430634856224,-0.05635227635502815,0.33429574966430664
1751278799856879900,22.3408798828125,-0.05925388261675835,-0.014813470654189587,0.32330018281936646
1751278799875704600,22.35970458984375,-0.053145237267017365,-0.0062613640911877155,0.29153522849082947
1751278799894529300,22.378529296875,-0.02260199747979641,-0.039248060435056686,0.2695440948009491
1751278799913354000,22.39735400390625,-0.009162971749901772,-0.06368265300989151,0.2390008419752121
1751278799932178700,22.4161787109375,-0.014049889519810677,-0.04046979174017906,0.2548833191394806
1751278799951003400,22.43500341796875,-0.0054977829568088055,-0.016035201027989388,0.27809619903564453
1751278799969828000,22.453828125,0.001832594396546483,0.004734201822429895,0.2964221239089966
1751278799988652800,22.47265283203125,0.01282816007733345,0.002290742937475443,0.31719154119491577
1751278800007477500,22.4914775390625,0.004276053514331579,0.0010690133785828948,0.28664830327033997
1751278800026302500,22.510302490234373,-0.010384701192378998,-0.039248060435056686,0.21090106666088104
1751278800045127000,22.529126953125,-0.02871064469218254,-0.06734783947467804,0.13271036744117737
1751278800063952000,22.547951904296873,-0.015271619893610477,-0.07101303339004517,0.1363755613565445
1751278800082776600,22.566776611328127,-0.02260199747979641,-0.03436114266514778,0.22067490220069885
1751278800101601300,22.585601318359377,-0.03481929376721382,-0.05635227635502815,0.28664830327033997
1751278800120426000,22.604426025390627,0.025045456364750862,-0.03436114266514778,0.32452189922332764
1751278800139250700,22.623250732421877,0.06902772188186646,0.03756818547844887,0.31719154119491577
1751278800158075400,22.642075439453127,0.06291907280683517,0.0206166859716177,0.2646571695804596
1751278800176900000,22.660900146484376,0.017715077847242355,-0.012370011769235134,0.18524473905563354
1751278800195724800,22.679724853515626,0.04214967042207718,0.0668896958231926,0.16814053058624268
1751278800214549500,22.698549560546876,0.07024945318698883,-0.019700389355421066,0.10949750989675522
1751278800233374200,22.717374267578126,0.05070177838206291,-0.16997312009334564,0.012980876490473747
1751278800252199000,22.736198974609376,-0.03237583488225937,-0.3116937577724457,-0.12492185086011887
1751278800271023600,22.755023681640626,-0.04581485688686371,-0.22739441692829132,-0.17623448371887207
1751278800289848300,22.773848388671876,0.047036588191986084,-0.10399972647428513,-0.16646064817905426
1751278800308673000,22.792673095703126,0.1802051067352295,0.019394956529140472,-0.11392628401517868
1751278800327498000,22.811498046875,0.2254091054201126,0.07299833744764328,-0.09437860548496246
1751278800346322400,22.830322509765626,0.1899789422750473,0.03527744114398956,-0.12125665694475174
1751278800365147400,22.8491474609375,0.16676609218120575,-0.17363831400871277,-0.19944734871387482
1751278800383972000,22.86797216796875,0.14599667489528656,-0.3043633699417114,-0.17867794632911682
1751278800402796800,22.886796875,0.17287473380565643,-0.22006404399871826,-0.024740023538470268
1751278800421621500,22.90562158203125,0.16676609218120575,-0.2738201320171356,0.08750637620687485
1751278800440446200,22.9244462890625,0.13622283935546875,-0.3984365463256836,0.07406735420227051
1751278800459271000,22.94327099609375,0.07513637095689774,-0.2078467458486557,0.04841103404760361
1751278800478095600,22.962095703125,-0.01282816007733345,-0.2383899837732315,0.06551524996757507
1751278800496920300,22.98092041015625,0.13500112295150757,-0.33001968264579773,0.028863361105322838
1751278800515745000,22.9997451171875,0.29504770040512085,-0.4949531853199005,-0.031001387163996696
1751278800534569700,23.01856982421875,0.16554436087608337,-0.2787070572376251,-0.03451386094093323
1751278800553394400,23.03739453125,-0.16310089826583862,0.05345066636800766,0.141262486577034
1751278800572219100,23.05621923828125,-0.3170388340950012,0.1182023361325264,0.21700970828533173
1751278800591043800,23.0750439453125,-0.13988803327083588,-0.07345648854970932,0.2280052751302719
1751278800609868500,23.09386865234375,0.13622283935546875,-0.03558287397027016,0.2133445292711258
1751278800628693500,23.112693603515623,0.24373504519462585,0.021838415414094925,0.16325360536575317
1751278800647518200,23.131518310546873,0.2315177470445633,-0.16264274716377258,0.020311253145337105
