time,seconds_elapsed,z,y,x
1751278777791751200,0.275751220703125,105.88125610351562,-3.5062501430511475,9.61875057220459
1751278777821751300,0.305751220703125,105.8062515258789,-3.468750238418579,8.71875
1751278777841751300,0.325751220703125,105.37500762939453,-3.543750047683716,8.700000762939453
1751278777851751200,0.335751220703125,105.41250610351562,-3.7875001430511475,8.77500057220459
1751278777861751300,0.345751220703125,105.56250762939453,-3.8062500953674316,8.456250190734863
1751278777871751200,0.355751220703125,105.65625762939453,-3.9562501907348633,8.30625057220459
1751278777881751300,0.365751220703125,105.78750610351562,-3.9750001430511475,8.268750190734863
1751278777891751200,0.375751220703125,105.88125610351562,-4.21875,8.100000381469727
1751278777901751300,0.385751220703125,106.01250457763672,-4.40625,8.175000190734863
1751278777911751200,0.395751220703125,106.2750015258789,-4.59375,8.0625
1751278777921751300,0.405751220703125,106.6500015258789,-4.537500381469727,8.081250190734863
1751278777931751200,0.415751220703125,106.63125610351562,-4.256250381469727,8.043750762939453
1751278777941751300,0.425751220703125,106.66875457763672,-4.106250286102295,8.606250762939453
1751278777951751200,0.435751220703125,106.4625015258789,-3.9750001430511475,8.606250762939453
1751278777961751300,0.445751220703125,106.51875305175781,-3.937500238418579,8.71875
1751278777971751200,0.455751220703125,106.25625610351562,-3.9937500953674316,8.700000762939453
1751278777981751300,0.465751220703125,106.2750015258789,-3.8062500953674316,8.793750762939453
1751278777991751200,0.475751220703125,106.2750015258789,-3.7875001430511475,8.887500762939453
1751278778001751300,0.485751220703125,106.20000457763672,-3.8625001907348633,8.71875
1751278778011751200,0.495751220703125,106.40625762939453,-3.9000000953674316,8.53125
1751278778021751300,0.505751220703125,106.21875762939453,-4.012500286102295,8.34375
1751278778031751200,0.515751220703125,106.48125457763672,-4.125,8.418750762939453
1751278778041751300,0.525751220703125,106.33125305175781,-4.03125,8.381250381469727
1751278778051751200,0.535751220703125,106.61250305175781,-3.9000000953674316,8.34375
1751278778061751300,0.545751220703125,106.4625015258789,-3.9750001430511475,8.30625057220459
1751278778071751200,0.555751220703125,106.48125457763672,-3.918750047683716,8.568750381469727
1751278778081751300,0.565751220703125,106.0875015258789,-4.03125,8.58750057220459
1751278778091751200,0.575751220703125,105.9000015258789,-4.087500095367432,8.568750381469727
1751278778101751300,0.585751220703125,105.8062515258789,-4.143750190734863,8.53125
1751278778111751200,0.595751220703125,105.48750305175781,-4.03125,8.418750762939453
1751278778121751300,0.605751220703125,105.45000457763672,-4.162500381469727,8.418750762939453
1751278778131751200,0.615751220703125,105.11250305175781,-4.143750190734863,8.4375
1751278778141751300,0.625751220703125,105.13125610351562,-4.050000190734863,8.550000190734863
1751278778151751200,0.635751220703125,104.7750015258789,-4.087500095367432,8.137500762939453
1751278778161751300,0.645751220703125,104.92500305175781,-3.7687501907348633,8.193750381469727
1751278778171751200,0.655751220703125,104.92500305175781,-3.7125000953674316,8.325000762939453
1751278778181751300,0.665751220703125,105.18750762939453,-3.4312500953674316,8.4375
1751278778191751200,0.675751220703125,105.2437515258789,-3.6000001430511475,8.25
1751278778201751300,0.685751220703125,105.2437515258789,-3.6187500953674316,8.15625
1751278778211751200,0.695751220703125,105.37500762939453,-3.5812501907348633,8.268750190734863
1751278778221751300,0.705751220703125,105.39375305175781,-3.5812501907348633,8.081250190734863
1751278778231751200,0.715751220703125,105.58125305175781,-3.375000238418579,8.418750762939453
1751278778241751300,0.725751220703125,105.86250305175781,-3.5062501430511475,8.793750762939453
1751278778251751200,0.735751220703125,105.67500305175781,-3.4875001907348633,8.512500762939453
1751278778261751300,0.745751220703125,105.56250762939453,-3.9000000953674316,8.49375057220459
1751278778271751200,0.755751220703125,105.6187515258789,-3.8062500953674316,8.71875
1751278778281751300,0.765751220703125,105.6187515258789,-3.6750001907348633,8.86875057220459
1751278778291751200,0.775751220703125,105.39375305175781,-3.7125000953674316,8.737500190734863
1751278778301751300,0.785751220703125,105.5250015258789,-3.6750001907348633,8.850000381469727
1751278778311751200,0.795751220703125,105.65625762939453,-3.7125000953674316,8.77500057220459
1751278778321751300,0.805751220703125,105.6187515258789,-3.6750001907348633,8.53125
1751278778331751200,0.815751220703125,105.8062515258789,-3.9562501907348633,8.737500190734863
1751278778341751300,0.825751220703125,105.86250305175781,-3.9000000953674316,8.662500381469727
1751278778351751200,0.835751220703125,105.91875457763672,-3.750000238418579,8.58750057220459
1751278778361751300,0.845751220703125,106.05000305175781,-3.918750047683716,8.49375057220459
1751278778371751200,0.855751220703125,106.33125305175781,-3.937500238418579,8.49375057220459
1751278778381751300,0.865751220703125,106.1812515258789,-4.012500286102295,8.475000381469727
1751278778391751200,0.875751220703125,106.06875610351562,-3.9937500953674316,8.568750381469727
1751278778401751300,0.885751220703125,105.91875457763672,-4.125,8.53125
1751278778411751200,0.895751220703125,105.9937515258789,-3.9562501907348633,8.68125057220459
1751278778421751300,0.905751220703125,105.93750762939453,-3.9562501907348633,8.643750190734863
1751278778431751200,0.915751220703125,105.9000015258789,-3.9562501907348633,8.71875
1751278778441751300,0.925751220703125,105.84375762939453,-3.8625001907348633,8.90625
1751278778451751200,0.935751220703125,105.76875305175781,-3.937500238418579,9
1751278778461751300,0.945751220703125,106.01250457763672,-3.9750001430511475,8.737500190734863
1751278778471751200,0.955751220703125,105.91875457763672,-4.256250381469727,8.512500762939453
1751278778481751300,0.965751220703125,106.12500762939453,-4.200000286102295,8.40000057220459
1751278778491751200,0.975751220703125,106.05000305175781,-4.256250381469727,8.25
1751278778501751300,0.985751220703125,105.93750762939453,-4.162500381469727,8.34375
1751278778511751200,0.995751220703125,105.86250305175781,-4.237500190734863,8.268750190734863
1751278778521751300,1.005751220703125,105.91875457763672,-4.03125,8.137500762939453
1751278778531751200,1.015751220703125,105.82500457763672,-3.825000047683716,8.25
1751278778541751300,1.025751220703125,105.67500305175781,-3.7875001430511475,8.49375057220459
1751278778551751200,1.035751220703125,105.69375610351562,-3.637500047683716,8.550000190734863
1751278778561751300,1.045751220703125,105.69375610351562,-3.4125001430511475,8.662500381469727
1751278778571751200,1.055751220703125,105.56250762939453,-3.450000047683716,8.71875
1751278778581751300,1.065751220703125,105.78750610351562,-3.468750238418579,8.662500381469727
1751278778591751200,1.075751220703125,105.86250305175781,-3.543750047683716,8.737500190734863
1751278778601751300,1.085751220703125,105.9937515258789,-3.731250047683716,8.90625
1751278778611751200,1.095751220703125,105.97500610351562,-3.637500047683716,8.943750381469727
1751278778621751300,1.105751220703125,105.8062515258789,-3.7875001430511475,8.887500762939453
1751278778631751200,1.115751220703125,106.03125762939453,-3.9000000953674316,8.71875
1751278778641751300,1.125751220703125,105.86250305175781,-4.050000190734863,8.606250762939453
1751278778651751200,1.135751220703125,106.21875762939453,-3.9562501907348633,8.58750057220459
1751278778661751300,1.145751220703125,106.23750305175781,-4.068750381469727,8.475000381469727
1751278778671751200,1.155751220703125,106.35000610351562,-4.125,8.475000381469727
1751278778681751300,1.165751220703125,106.12500762939453,-4.087500095367432,8.34375
1751278778691751200,1.175751220703125,106.48125457763672,-4.293750286102295,8.25
1751278778701751300,1.185751220703125,106.31250762939453,-4.275000095367432,8.175000190734863
1751278778711751200,1.195751220703125,105.9937515258789,-4.256250381469727,8.325000762939453
1751278778721751300,1.205751220703125,105.9937515258789,-4.256250381469727,8.325000762939453
1751278778731751200,1.215751220703125,105.84375762939453,-4.106250286102295,8.475000381469727
1751278778741751300,1.225751220703125,105.6187515258789,-4.012500286102295,8.381250381469727
1751278778751751200,1.235751220703125,105.6187515258789,-3.9562501907348633,8.362500190734863
1751278778761751300,1.245751220703125,105.58125305175781,-3.9937500953674316,8.550000190734863
1751278778771751200,1.255751220703125,105.20625305175781,-4.050000190734863,8.475000381469727
1751278778781751300,1.265751220703125,105.26250457763672,-3.825000047683716,8.606250762939453
1751278778791751200,1.275751220703125,105.50625610351562,-3.8812501430511475,8.700000762939453
1751278778801751300,1.285751220703125,105.45000457763672,-3.843750238418579,8.737500190734863
1751278778811751200,1.295751220703125,105.58125305175781,-3.918750047683716,8.662500381469727
1751278778821751300,1.305751220703125,105.65625762939453,-3.918750047683716,8.662500381469727
1751278778831751200,1.315751220703125,105.48750305175781,-3.9750001430511475,8.756250381469727
1751278778841751300,1.325751220703125,105.50625610351562,-3.8625001907348633,8.700000762939453
1751278778851751200,1.335751220703125,105.56250762939453,-3.7875001430511475,8.793750762939453
1751278778861751300,1.345751220703125,105.73125457763672,-3.937500238418579,8.77500057220459
1751278778871751200,1.355751220703125,105.67500305175781,-3.750000238418579,8.887500762939453
1751278778881751300,1.365751220703125,105.76875305175781,-3.7875001430511475,8.943750381469727
1751278778891751200,1.375751220703125,105.67500305175781,-3.750000238418579,8.887500762939453
1751278778901751300,1.385751220703125,105.84375762939453,-3.7125000953674316,9.131250381469727
1751278778911751200,1.395751220703125,105.91875457763672,-3.825000047683716,9.131250381469727
1751278778921751300,1.405751220703125,105.82500457763672,-3.8625001907348633,9.018750190734863
1751278778931751200,1.415751220703125,105.91875457763672,-3.9000000953674316,8.8125
1751278778941751300,1.425751220703125,105.97500610351562,-3.825000047683716,8.831250190734863
1751278778951751200,1.435751220703125,105.97500610351562,-3.918750047683716,8.77500057220459
1751278778961751300,1.445751220703125,105.73125457763672,-3.9937500953674316,8.793750762939453
1751278778971751200,1.455751220703125,105.75000762939453,-4.143750190734863,8.943750381469727
1751278778981751300,1.465751220703125,105.50625610351562,-4.200000286102295,8.850000381469727
1751278778991751200,1.475751220703125,105.54375457763672,-3.9562501907348633,8.71875
1751278779001751300,1.485751220703125,105.60000610351562,-4.068750381469727,8.756250381469727
1751278779011751200,1.495751220703125,105.45000457763672,-3.918750047683716,9
1751278779021751300,1.505751220703125,105.3375015258789,-4.012500286102295,8.887500762939453
1751278779031751200,1.515751220703125,105.30000305175781,-4.106250286102295,8.700000762939453
1751278779041751300,1.525751220703125,105.54375457763672,-4.125,8.625
1751278779051751200,1.535751220703125,105.63750457763672,-4.125,8.30625057220459
1751278779061751300,1.545751220703125,105.69375610351562,-4.181250095367432,8.381250381469727
1751278779071751200,1.555751220703125,105.46875762939453,-4.125,8.4375
1751278779081751300,1.565751220703125,105.6187515258789,-4.106250286102295,8.287500381469727
1751278779091751200,1.575751220703125,105.5250015258789,-4.21875,8.34375
1751278779101751300,1.585751220703125,105.56250762939453,-4.275000095367432,8.49375057220459
1751278779111751200,1.595751220703125,105.5250015258789,-4.143750190734863,8.71875
1751278779121751300,1.605751220703125,105.63750457763672,-4.050000190734863,8.68125057220459
1751278779131751200,1.615751220703125,105.50625610351562,-3.9937500953674316,8.925000190734863
1751278779141751300,1.625751220703125,105.65625762939453,-3.9000000953674316,8.90625
1751278779151751200,1.635751220703125,105.91875457763672,-3.9000000953674316,8.90625
1751278779161751300,1.645751220703125,105.69375610351562,-3.8625001907348633,9.1875
1751278779171751200,1.655751220703125,106.05000305175781,-3.918750047683716,9.112500190734863
1751278779181751300,1.665751220703125,106.20000457763672,-3.843750238418579,9.05625057220459
1751278779191751200,1.675751220703125,106.2750015258789,-3.9000000953674316,8.943750381469727
1751278779201751300,1.685751220703125,106.12500762939453,-3.918750047683716,9.15000057220459
1751278779211751200,1.695751220703125,106.12500762939453,-3.918750047683716,9.112500190734863
1751278779221751300,1.705751220703125,106.10625457763672,-3.7687501907348633,9.15000057220459
1751278779231751200,1.715751220703125,105.8062515258789,-3.8062500953674316,9.318750381469727
1751278779241751300,1.725751220703125,105.82500457763672,-3.7875001430511475,9
1751278779251751200,1.735751220703125,105.78750610351562,-3.825000047683716,8.96250057220459
1751278779261751300,1.745751220703125,105.7125015258789,-3.843750238418579,8.90625
1751278779271751200,1.755751220703125,105.7125015258789,-3.731250047683716,8.96250057220459
1751278779281751300,1.765751220703125,105.76875305175781,-3.918750047683716,8.831250190734863
1751278779291751200,1.775751220703125,105.69375610351562,-3.9750001430511475,8.756250381469727
1751278779301751300,1.785751220703125,105.56250762939453,-4.03125,8.71875
1751278779311751200,1.795751220703125,105.58125305175781,-4.068750381469727,8.831250190734863
1751278779321751300,1.805751220703125,105.76875305175781,-3.937500238418579,9.05625057220459
1751278779331751200,1.815751220703125,105.65625762939453,-3.9562501907348633,9.15000057220459
1751278779341751300,1.825751220703125,105.60000610351562,-3.937500238418579,9.28125
1751278779351751200,1.835751220703125,105.73125457763672,-3.9000000953674316,9.168750762939453
1751278779361751300,1.845751220703125,105.7125015258789,-3.8062500953674316,9.262500762939453
1751278779371751200,1.855751220703125,105.73125457763672,-3.6937501430511475,9.46875
1751278779381751300,1.865751220703125,105.82500457763672,-3.825000047683716,9.46875
1751278779391751200,1.875751220703125,106.01250457763672,-3.656250238418579,9.318750381469727
1751278779401751300,1.885751220703125,105.9937515258789,-3.7687501907348633,9.393750190734863
1751278779411751200,1.895751220703125,105.97500610351562,-3.731250047683716,9.28125
1751278779421751300,1.905751220703125,106.0875015258789,-3.7687501907348633,9.112500190734863
1751278779431751200,1.915751220703125,105.95625305175781,-3.918750047683716,9.112500190734863
1751278779441751300,1.925751220703125,105.88125610351562,-3.918750047683716,8.943750381469727
1751278779451751200,1.935751220703125,105.7125015258789,-3.937500238418579,8.793750762939453
1751278779461751300,1.945751220703125,105.63750457763672,-3.731250047683716,8.756250381469727
1751278779471751200,1.955751220703125,105.73125457763672,-3.937500238418579,8.793750762939453
1751278779481751300,1.965751220703125,105.69375610351562,-4.012500286102295,8.625
1751278779491751200,1.975751220703125,105.78750610351562,-3.937500238418579,8.662500381469727
1751278779501751300,1.985751220703125,105.73125457763672,-3.825000047683716,8.756250381469727
1751278779511751200,1.995751220703125,105.65625762939453,-3.8062500953674316,8.943750381469727
1751278779521751300,2.005751220703125,105.5250015258789,-3.8812501430511475,9.018750190734863
1751278779531751200,2.015751220703125,105.76875305175781,-3.918750047683716,8.943750381469727
1751278779541751300,2.025751220703125,106.06875610351562,-4.106250286102295,8.925000190734863
1751278779561751300,2.045751220703125,106.01250457763672,-3.918750047683716,8.625
1751278779571751200,2.055751220703125,105.9937515258789,-3.9000000953674316,8.625
1751278779581751300,2.065751220703125,106.16250610351562,-4.050000190734863,8.643750190734863
1751278779591751200,2.075751220703125,106.23750305175781,-3.937500238418579,8.606250762939453
1751278779601751300,2.085751220703125,106.42500305175781,-3.750000238418579,8.737500190734863
1751278779611751200,2.095751220703125,106.31250762939453,-3.7875001430511475,8.943750381469727
1751278779621751300,2.105751220703125,106.2750015258789,-3.7875001430511475,8.90625
1751278779631751200,2.115751220703125,106.01250457763672,-3.825000047683716,8.8125
1751278779641751300,2.125751220703125,106.0875015258789,-3.8625001907348633,9.018750190734863
1751278779651751200,2.135751220703125,106.05000305175781,-3.843750238418579,9.112500190734863
1751278779661751300,2.145751220703125,106.05000305175781,-3.8812501430511475,8.981250762939453
1751278779671751200,2.155751220703125,106.29375457763672,-3.9750001430511475,8.943750381469727
1751278779681751300,2.165751220703125,106.16250610351562,-4.125,8.71875
1751278779691751200,2.175751220703125,106.35000610351562,-4.106250286102295,8.625
1751278779701751300,2.185751220703125,106.1812515258789,-4.087500095367432,8.662500381469727
1751278779711751200,2.195751220703125,106.53750610351562,-4.293750286102295,8.625
1751278779721751300,2.205751220703125,106.72500610351562,-4.387500286102295,8.456250190734863
1751278779731751200,2.215751220703125,106.89375305175781,-4.518750190734863,8.25
1751278779741751300,2.225751220703125,106.57500457763672,-4.350000381469727,8.362500190734863
1751278779751751200,2.235751220703125,106.63125610351562,-4.275000095367432,8.25
1751278779761751300,2.245751220703125,106.72500610351562,-4.237500190734863,8.30625057220459
1751278779771751200,2.255751220703125,106.63125610351562,-4.162500381469727,8.268750190734863
1751278779781751300,2.265751220703125,106.70625305175781,-4.162500381469727,8.34375
1751278779791751200,2.275751220703125,106.5562515258789,-4.050000190734863,8.53125
1751278779801751300,2.285751220703125,106.61250305175781,-4.012500286102295,8.662500381469727
1751278779811751200,2.295751220703125,106.61250305175781,-3.9562501907348633,8.850000381469727
1751278779821751300,2.305751220703125,106.98750305175781,-3.9562501907348633,8.8125
1751278779831751200,2.315751220703125,106.91250610351562,-4.068750381469727,8.981250762939453
1751278779841751300,2.325751220703125,107.1187515258789,-4.03125,9.206250190734863
1751278779851751200,2.335751220703125,106.98750305175781,-4.106250286102295,9.075000762939453
1751278779861751300,2.345751220703125,106.70625305175781,-4.143750190734863,9.1875
1751278779871751200,2.355751220703125,106.81875610351562,-4.087500095367432,9.09375
1751278779881751300,2.365751220703125,106.48125457763672,-4.012500286102295,9.075000762939453
1751278779891751200,2.375751220703125,106.6500015258789,-4.087500095367432,8.981250762939453
1751278779901751300,2.385751220703125,106.33125305175781,-4.087500095367432,9.075000762939453
1751278779911751200,2.395751220703125,105.95625305175781,-4.050000190734863,8.96250057220459
1751278779921751300,2.405751220703125,105.6187515258789,-3.9937500953674316,8.793750762939453
1751278779931751200,2.415751220703125,105.67500305175781,-4.200000286102295,8.90625
1751278779941751300,2.425751220703125,105.91875457763672,-4.125,8.8125
1751278779951751200,2.435751220703125,105.8062515258789,-4.237500190734863,8.793750762939453
1751278779961751300,2.445751220703125,105.8062515258789,-4.181250095367432,8.850000381469727
1751278779971751200,2.455751220703125,105.73125457763672,-4.143750190734863,8.90625
1751278779981751300,2.465751220703125,106.03125762939453,-4.256250381469727,8.887500762939453
1751278779991751200,2.475751220703125,106.29375457763672,-4.275000095367432,9.075000762939453
1751278780001751300,2.485751220703125,106.35000610351562,-4.387500286102295,8.943750381469727
1751278780011751200,2.495751220703125,106.5562515258789,-4.3125,8.831250190734863
1751278780021751300,2.505751220703125,106.59375762939453,-4.537500381469727,8.86875057220459
1751278780031751200,2.515751220703125,106.72500610351562,-4.368750095367432,9
1751278780041751300,2.525751220703125,107.04375457763672,-4.425000190734863,9.075000762939453
1751278780051751200,2.535751220703125,106.81875610351562,-4.425000190734863,9.131250381469727
1751278780061751300,2.545751220703125,106.85625457763672,-4.40625,9.168750762939453
1751278780071751200,2.555751220703125,106.8375015258789,-4.5,9
1751278780081751300,2.565751220703125,106.8375015258789,-4.443750381469727,9.09375
1751278780091751200,2.575751220703125,106.98750305175781,-4.350000381469727,9.28125
1751278780101751300,2.585751220703125,107.08125305175781,-4.21875,9.168750762939453
1751278780111751200,2.595751220703125,106.95000457763672,-4.256250381469727,9.206250190734863
1751278780121751300,2.605751220703125,106.89375305175781,-4.575000286102295,8.850000381469727
1751278780131751200,2.615751220703125,107.1187515258789,-4.612500190734863,8.662500381469727
1751278780141751300,2.625751220703125,106.80000305175781,-4.443750381469727,8.625
1751278780151751200,2.635751220703125,106.91250610351562,-4.3125,8.77500057220459
1751278780161751300,2.645751220703125,107.08125305175781,-4.237500190734863,8.737500190734863
1751278780171751200,2.655751220703125,106.70625305175781,-4.162500381469727,8.550000190734863
1751278780181751300,2.665751220703125,106.59375762939453,-4.162500381469727,8.68125057220459
1751278780191751200,2.675751220703125,106.63125610351562,-4.21875,8.8125
1751278780201751300,2.685751220703125,106.38750457763672,-3.9750001430511475,9.09375
1751278780211751200,2.695751220703125,106.25625610351562,-3.7687501907348633,9.1875
1751278780221751300,2.705751220703125,106.63125610351562,-4.03125,9.356250762939453
1751278780231751200,2.715751220703125,106.25625610351562,-3.843750238418579,9.375
1751278780241751300,2.725751220703125,106.14375305175781,-3.750000238418579,9.46875
1751278780251751200,2.735751220703125,106.12500762939453,-3.8062500953674316,9.881250381469727
1751278780261751300,2.745751220703125,106.21875762939453,-3.8625001907348633,9.80625057220459
1751278780271751200,2.755751220703125,106.06875610351562,-3.918750047683716,9.581250190734863
1751278780281751300,2.765751220703125,106.1812515258789,-3.9750001430511475,9.43125057220459
1751278780291751200,2.775751220703125,106.05000305175781,-3.9750001430511475,9.61875057220459
1751278780301751300,2.785751220703125,105.76875305175781,-3.9000000953674316,9.393750190734863
1751278780311751200,2.795751220703125,106.16250610351562,-4.162500381469727,9.1875
1751278780321751300,2.805751220703125,106.05000305175781,-4.293750286102295,9.075000762939453
1751278780331751200,2.815751220703125,106.10625457763672,-4.256250381469727,9.112500190734863
1751278780341751300,2.825751220703125,105.84375762939453,-4.181250095367432,9.112500190734863
1751278780351751200,2.835751220703125,105.95625305175781,-4.162500381469727,9.168750762939453
1751278780361751300,2.845751220703125,106.10625457763672,-3.9750001430511475,9.46875
1751278780371751200,2.855751220703125,106.16250610351562,-4.03125,9.225000381469727
1751278780381751300,2.865751220703125,105.9937515258789,-3.825000047683716,9.28125
1751278780391751200,2.875751220703125,105.82500457763672,-3.8625001907348633,9.28125
1751278780401751300,2.885751220703125,106.05000305175781,-3.8062500953674316,9.24375057220459
1751278780411751200,2.895751220703125,106.12500762939453,-3.7687501907348633,8.981250762939453
1751278780421751300,2.905751220703125,106.23750305175781,-3.656250238418579,8.90625
1751278780431751200,2.915751220703125,106.0875015258789,-3.543750047683716,8.90625
1751278780441751300,2.925751220703125,105.69375610351562,-3.637500047683716,8.756250381469727
1751278780451751200,2.935751220703125,105.8062515258789,-3.4312500953674316,8.86875057220459
1751278780461751300,2.945751220703125,105.93750762939453,-3.5062501430511475,8.887500762939453
1751278780471751200,2.955751220703125,105.91875457763672,-3.4312500953674316,8.943750381469727
1751278780481751300,2.965751220703125,105.6187515258789,-3.450000047683716,9.075000762939453
1751278780491751200,2.975751220703125,105.39375305175781,-3.2437500953674316,9.1875
1751278780501751300,2.985751220703125,105.18750762939453,-3.3937501907348633,9.075000762939453
1751278780511751200,2.995751220703125,105.18750762939453,-3.4312500953674316,8.86875057220459
1751278780521751300,3.005751220703125,105.18750762939453,-3.4125001430511475,8.77500057220459
1751278780531751200,3.015751220703125,105.03750610351562,-3.5062501430511475,8.8125
1751278780541751300,3.025751220703125,104.83125305175781,-3.6187500953674316,8.793750762939453
1751278780551751200,3.035751220703125,104.83125305175781,-3.656250238418579,8.700000762939453
1751278780561751300,3.045751220703125,105.00000762939453,-3.6187500953674316,8.68125057220459
1751278780571751200,3.055751220703125,105.01875305175781,-3.8062500953674316,8.58750057220459
1751278780581751300,3.065751220703125,105.18750762939453,-3.7875001430511475,8.643750190734863
1751278780591751200,3.075751220703125,105.18750762939453,-3.8062500953674316,8.49375057220459
1751278780601751300,3.085751220703125,105.4312515258789,-3.8812501430511475,8.418750762939453
1751278780611751200,3.095751220703125,105.22500610351562,-3.9562501907348633,8.231250762939453
1751278780621751300,3.105751220703125,105.5250015258789,-4.125,8.193750381469727
1751278780631751200,3.115751220703125,105.4312515258789,-4.068750381469727,8.15625
1751278780641751300,3.125751220703125,105.50625610351562,-4.012500286102295,8.175000190734863
1751278780651751200,3.135751220703125,105.58125305175781,-4.143750190734863,7.950000286102295
1751278780661751300,3.145751220703125,105.56250762939453,-4.068750381469727,8.0625
1751278780671751200,3.155751220703125,105.3375015258789,-3.9937500953674316,8.49375057220459
1751278780681751300,3.165751220703125,105.37500762939453,-4.012500286102295,8.40000057220459
1751278780691751200,3.175751220703125,105.48750305175781,-3.937500238418579,8.456250190734863
1751278780701751300,3.185751220703125,105.39375305175781,-3.731250047683716,8.30625057220459
1751278780711751200,3.195751220703125,105.48750305175781,-3.5812501907348633,8.34375
1751278780721751300,3.205751220703125,105.31875610351562,-3.656250238418579,8.21250057220459
1751278780731751200,3.215751220703125,105.48750305175781,-3.5812501907348633,8.456250190734863
1751278780741751300,3.225751220703125,105.54375457763672,-3.6000001430511475,8.30625057220459
1751278780751751200,3.235751220703125,105.84375762939453,-3.7875001430511475,8.100000381469727
1751278780761751300,3.245751220703125,105.63750457763672,-3.8812501430511475,8.362500190734863
1751278780771751200,3.255751220703125,105.63750457763672,-3.9937500953674316,8.34375
1751278780781751300,3.265751220703125,105.56250762939453,-4.012500286102295,8.606250762939453
1751278780791751200,3.275751220703125,105.5250015258789,-4.106250286102295,8.662500381469727
1751278780801751300,3.285751220703125,105.69375610351562,-4.387500286102295,8.793750762939453
1751278780811751200,3.295751220703125,105.67500305175781,-4.293750286102295,8.606250762939453
1751278780821751300,3.305751220703125,105.6187515258789,-4.256250381469727,8.850000381469727
1751278780831751200,3.315751220703125,105.67500305175781,-4.106250286102295,8.850000381469727
1751278780841751300,3.325751220703125,105.67500305175781,-4.068750381469727,8.793750762939453
1751278780851751200,3.335751220703125,105.9000015258789,-4.293750286102295,8.58750057220459
1751278780861751300,3.345751220703125,106.01250457763672,-4.181250095367432,8.512500762939453
1751278780871751200,3.355751220703125,106.20000457763672,-4.143750190734863,8.418750762939453
1751278780881751300,3.365751220703125,105.9937515258789,-3.918750047683716,8.381250381469727
1751278780891751200,3.375751220703125,105.88125610351562,-3.9000000953674316,8.71875
1751278780901751300,3.385751220703125,105.86250305175781,-4.068750381469727,8.58750057220459
1751278780911751200,3.395751220703125,105.78750610351562,-4.21875,8.606250762939453
1751278780921751300,3.405751220703125,106.05000305175781,-4.143750190734863,8.568750381469727
1751278780931751200,3.415751220703125,105.97500610351562,-3.9000000953674316,8.737500190734863
1751278780941751300,3.425751220703125,105.91875457763672,-4.087500095367432,8.68125057220459
1751278780951751200,3.435751220703125,105.9000015258789,-4.143750190734863,8.737500190734863
1751278780961751300,3.445751220703125,106.31250762939453,-4.181250095367432,8.662500381469727
1751278780971751200,3.455751220703125,106.1812515258789,-4.350000381469727,8.568750381469727
1751278780981751300,3.465751220703125,106.33125305175781,-4.21875,8.58750057220459
1751278780991751200,3.475751220703125,106.31250762939453,-3.9750001430511475,8.8125
1751278781001751300,3.485751220703125,105.9937515258789,-3.8812501430511475,8.71875
1751278781011751200,3.495751220703125,106.03125762939453,-3.937500238418579,8.793750762939453
1751278781021751300,3.505751220703125,105.93750762939453,-3.9562501907348633,8.850000381469727
1751278781031751200,3.515751220703125,105.91875457763672,-4.012500286102295,8.793750762939453
1751278781041751300,3.525751220703125,105.50625610351562,-3.9937500953674316,8.90625
1751278781051751200,3.535751220703125,105.65625762939453,-4.03125,8.625
1751278781061751300,3.545751220703125,105.73125457763672,-4.200000286102295,8.68125057220459
1751278781071751200,3.555751220703125,105.50625610351562,-4.5,8.325000762939453
1751278781081751300,3.565751220703125,105.7125015258789,-4.575000286102295,8.418750762939453
1751278781091751200,3.575751220703125,105.37500762939453,-4.6875,8.137500762939453
1751278781101751300,3.585751220703125,105.46875762939453,-4.575000286102295,8.193750381469727
1751278781111751200,3.595751220703125,105.35625457763672,-4.556250095367432,8.381250381469727
1751278781121751300,3.605751220703125,105.13125610351562,-4.575000286102295,8.30625057220459
1751278781131751200,3.615751220703125,105.03750610351562,-4.59375,8.4375
1751278781141751300,3.625751220703125,104.94375610351562,-4.59375,8.40000057220459
1751278781151751200,3.635751220703125,105.1500015258789,-4.425000190734863,8.606250762939453
1751278781161751300,3.645751220703125,105.01875305175781,-4.368750095367432,8.71875
1751278781171751200,3.655751220703125,105.28125762939453,-4.181250095367432,8.925000190734863
1751278781191751200,3.675751220703125,105.46875762939453,-4.181250095367432,8.8125
1751278781201751300,3.685751220703125,105.8062515258789,-4.03125,8.850000381469727
1751278781211751200,3.695751220703125,105.84375762939453,-3.8062500953674316,8.86875057220459
1751278781221751300,3.705751220703125,105.7125015258789,-3.5812501907348633,9.09375
1751278781231751200,3.715751220703125,105.75000762939453,-3.6937501430511475,8.981250762939453
1751278781241751300,3.725751220703125,105.75000762939453,-3.8062500953674316,8.850000381469727
1751278781251751200,3.735751220703125,105.88125610351562,-3.843750238418579,8.90625
1751278781261751300,3.745751220703125,105.86250305175781,-3.656250238418579,8.943750381469727
1751278781271751200,3.755751220703125,105.84375762939453,-3.825000047683716,8.643750190734863
1751278781281751300,3.765751220703125,105.69375610351562,-3.8812501430511475,8.77500057220459
1751278781291751200,3.775751220703125,105.7125015258789,-4.050000190734863,8.90625
1751278781301751300,3.785751220703125,105.8062515258789,-4.050000190734863,8.71875
1751278781311751200,3.795751220703125,105.8062515258789,-3.8062500953674316,8.86875057220459
1751278781321751300,3.805751220703125,105.78750610351562,-3.8625001907348633,8.550000190734863
1751278781331751200,3.815751220703125,105.78750610351562,-3.9000000953674316,8.643750190734863
1751278781341751300,3.825751220703125,105.60000610351562,-3.9000000953674316,8.737500190734863
1751278781351751200,3.835751220703125,105.58125305175781,-3.7875001430511475,8.943750381469727
1751278781361751300,3.845751220703125,105.7125015258789,-3.8625001907348633,8.831250190734863
1751278781371751200,3.855751220703125,105.65625762939453,-3.750000238418579,8.86875057220459
1751278781381751300,3.865751220703125,105.45000457763672,-3.750000238418579,8.8125
1751278781391751200,3.875751220703125,105.58125305175781,-3.9562501907348633,8.71875
1751278781401751300,3.885751220703125,105.58125305175781,-3.843750238418579,9
1751278781411751200,3.895751220703125,105.46875762939453,-3.731250047683716,8.887500762939453
1751278781421751300,3.905751220703125,105.60000610351562,-3.7875001430511475,8.925000190734863
1751278781431751200,3.915751220703125,105.50625610351562,-3.7125000953674316,8.831250190734863
1751278781441751300,3.925751220703125,105.5250015258789,-3.656250238418579,8.793750762939453
1751278781451751200,3.935751220703125,105.67500305175781,-3.543750047683716,9
1751278781461751300,3.945751220703125,105.78750610351562,-3.6937501430511475,8.943750381469727
1751278781471751200,3.955751220703125,105.73125457763672,-3.6937501430511475,9.131250381469727
1751278781481751300,3.965751220703125,105.86250305175781,-3.656250238418579,9.168750762939453
1751278781491751200,3.975751220703125,105.8062515258789,-3.8812501430511475,9.24375057220459
1751278781501751300,3.985751220703125,105.8062515258789,-3.7125000953674316,9.168750762939453
1751278781511751200,3.995751220703125,105.69375610351562,-3.8812501430511475,9.15000057220459
1751278781521751300,4.005751220703125,105.78750610351562,-3.918750047683716,9.168750762939453
1751278781531751200,4.015751220703125,105.8062515258789,-4.03125,8.662500381469727
1751278781541751300,4.025751220703125,105.97500610351562,-3.918750047683716,8.643750190734863
1751278781551751200,4.035751220703125,105.9937515258789,-3.8812501430511475,8.606250762939453
1751278781561751300,4.045751220703125,105.82500457763672,-3.7875001430511475,8.4375
1751278781571751200,4.055751220703125,105.8062515258789,-3.656250238418579,8.25
1751278781581751300,4.065751220703125,105.67500305175781,-3.8812501430511475,8.268750190734863
1751278781591751200,4.075751220703125,105.73125457763672,-3.825000047683716,8.268750190734863
1751278781601751300,4.085751220703125,105.48750305175781,-3.7125000953674316,8.193750381469727
1751278781611751200,4.095751220703125,105.56250762939453,-3.825000047683716,8.49375057220459
1751278781621751300,4.105751220703125,105.56250762939453,-3.8812501430511475,8.68125057220459
1751278781631751200,4.115751220703125,105.4312515258789,-3.6937501430511475,8.53125
1751278781641751300,4.125751220703125,105.54375457763672,-3.825000047683716,8.71875
1751278781651751200,4.135751220703125,105.46875762939453,-3.843750238418579,8.793750762939453
1751278781661751300,4.145751220703125,105.65625762939453,-3.750000238418579,8.887500762939453
1751278781671751200,4.155751220703125,105.69375610351562,-3.468750238418579,9.037500381469727
1751278781681751300,4.165751220703125,105.91875457763672,-3.5062501430511475,9.131250381469727
1751278781691751200,4.175751220703125,105.75000762939453,-3.450000047683716,9.037500381469727
1751278781701751300,4.185751220703125,105.37500762939453,-3.4312500953674316,9.037500381469727
1751278781711751200,4.195751220703125,105.5250015258789,-3.5062501430511475,9.131250381469727
1751278781721751300,4.205751220703125,105.76875305175781,-3.543750047683716,9.05625057220459
1751278781731751200,4.215751220703125,105.75000762939453,-3.4875001907348633,9
1751278781741751300,4.225751220703125,105.69375610351562,-3.6000001430511475,8.96250057220459
1751278781751751200,4.235751220703125,105.7125015258789,-3.843750238418579,8.700000762939453
1751278781761751300,4.245751220703125,105.82500457763672,-3.937500238418579,8.625
1751278781771751200,4.255751220703125,105.7125015258789,-3.8062500953674316,8.77500057220459
1751278781781751300,4.265751220703125,105.9000015258789,-3.7875001430511475,8.68125057220459
1751278781791751200,4.275751220703125,105.7125015258789,-3.825000047683716,8.606250762939453
1751278781801751300,4.285751220703125,105.4312515258789,-3.6937501430511475,8.737500190734863
1751278781811751200,4.295751220703125,105.67500305175781,-3.750000238418579,8.887500762939453
1751278781821751300,4.305751220703125,105.39375305175781,-3.5812501907348633,8.850000381469727
1751278781831751200,4.315751220703125,105.39375305175781,-3.6750001907348633,8.96250057220459
1751278781841751300,4.325751220703125,105.46875762939453,-3.5062501430511475,8.77500057220459
1751278781851751200,4.335751220703125,105.7125015258789,-3.637500047683716,8.568750381469727
1751278781861751300,4.345751220703125,105.9937515258789,-3.6187500953674316,8.475000381469727
1751278781871751200,4.355751220703125,106.05000305175781,-3.5812501907348633,8.418750762939453
1751278781881751300,4.365751220703125,105.93750762939453,-3.656250238418579,8.325000762939453
1751278781891751200,4.375751220703125,106.1812515258789,-3.543750047683716,8.287500381469727
1751278781901751300,4.385751220703125,106.44375610351562,-3.6937501430511475,8.362500190734863
1751278781911751200,4.395751220703125,106.4625015258789,-3.562500238418579,8.325000762939453
1751278781921751300,4.405751220703125,106.35000610351562,-3.5812501907348633,8.325000762939453
1751278781931751200,4.415751220703125,106.2750015258789,-3.656250238418579,8.30625057220459
1751278781941751300,4.425751220703125,105.93750762939453,-3.5062501430511475,8.456250190734863
1751278781951751200,4.435751220703125,105.9000015258789,-3.468750238418579,8.550000190734863
1751278781961751300,4.445751220703125,106.23750305175781,-3.3375000953674316,8.58750057220459
1751278781971751200,4.455751220703125,105.86250305175781,-3.6000001430511475,8.512500762939453
1751278781981751300,4.465751220703125,106.0875015258789,-3.5250000953674316,8.568750381469727
1751278781991751200,4.475751220703125,106.25625610351562,-3.637500047683716,8.58750057220459
1751278782001751300,4.485751220703125,106.31250762939453,-3.7875001430511475,8.700000762939453
1751278782011751200,4.495751220703125,106.35000610351562,-3.7125000953674316,8.662500381469727
1751278782021751300,4.505751220703125,106.25625610351562,-3.8625001907348633,8.325000762939453
1751278782031751200,4.515751220703125,106.38750457763672,-4.125,8.268750190734863
1751278782041751300,4.525751220703125,106.1812515258789,-4.331250190734863,8.100000381469727
1751278782051751200,4.535751220703125,106.0875015258789,-4.200000286102295,8.137500762939453
1751278782061751300,4.545751220703125,105.91875457763672,-4.200000286102295,8.081250190734863
1751278782071751200,4.555751220703125,105.95625305175781,-4.068750381469727,8.100000381469727
1751278782081751300,4.565751220703125,105.75000762939453,-3.8062500953674316,8.30625057220459
1751278782091751200,4.575751220703125,105.75000762939453,-3.750000238418579,8.456250190734863
1751278782101751300,4.585751220703125,105.91875457763672,-3.637500047683716,8.643750190734863
1751278782111751200,4.595751220703125,105.78750610351562,-3.468750238418579,8.568750381469727
1751278782121751300,4.605751220703125,105.54375457763672,-3.4312500953674316,8.737500190734863
1751278782131751200,4.615751220703125,105.73125457763672,-3.375000238418579,8.700000762939453
1751278782141751300,4.625751220703125,105.58125305175781,-3.4875001907348633,8.643750190734863
1751278782151751200,4.635751220703125,105.56250762939453,-3.468750238418579,8.53125
1751278782161751300,4.645751220703125,105.75000762939453,-3.5812501907348633,8.30625057220459
1751278782171751200,4.655751220703125,105.7125015258789,-3.5062501430511475,8.25
1751278782181751300,4.665751220703125,105.76875305175781,-3.562500238418579,8.0625
1751278782191751200,4.675751220703125,106.12500762939453,-3.5250000953674316,8.231250762939453
1751278782201751300,4.685751220703125,106.25625610351562,-3.4875001907348633,8.21250057220459
1751278782211751200,4.695751220703125,106.01250457763672,-3.468750238418579,8.362500190734863
1751278782221751300,4.705751220703125,106.14375305175781,-3.375000238418579,8.15625
1751278782231751200,4.715751220703125,106.20000457763672,-3.3937501907348633,8.11875057220459
1751278782241751300,4.725751220703125,106.01250457763672,-3.4312500953674316,8.100000381469727
1751278782251751200,4.735751220703125,105.76875305175781,-3.4125001430511475,8.268750190734863
1751278782261751300,4.745751220703125,105.7125015258789,-3.3375000953674316,8.68125057220459
1751278782271751200,4.755751220703125,105.45000457763672,-3.4312500953674316,8.58750057220459
1751278782281751300,4.765751220703125,105.56250762939453,-3.281250238418579,8.40000057220459
1751278782291751200,4.775751220703125,105.76875305175781,-3.375000238418579,8.137500762939453
1751278782301751300,4.785751220703125,105.75000762939453,-3.4875001907348633,8.381250381469727
1751278782311751200,4.795751220703125,105.69375610351562,-3.562500238418579,8.418750762939453
1751278782321751300,4.805751220703125,105.69375610351562,-3.543750047683716,8.456250190734863
1751278782331751200,4.815751220703125,105.63750457763672,-3.637500047683716,8.287500381469727
1751278782341751300,4.825751220703125,105.78750610351562,-3.637500047683716,8.02500057220459
1751278782351751200,4.835751220703125,105.84375762939453,-3.6000001430511475,7.968750476837158
1751278782361751300,4.845751220703125,105.60000610351562,-3.637500047683716,7.968750476837158
1751278782371751200,4.855751220703125,105.67500305175781,-3.5812501907348633,8.193750381469727
1751278782381751300,4.865751220703125,105.39375305175781,-3.5250000953674316,8.175000190734863
1751278782391751200,4.875751220703125,105.30000305175781,-3.543750047683716,8.193750381469727
1751278782401751300,4.885751220703125,105.22500610351562,-3.4875001907348633,8.21250057220459
1751278782411751200,4.895751220703125,105.46875762939453,-3.6000001430511475,8.287500381469727
1751278782421751300,4.905751220703125,105.4312515258789,-3.656250238418579,8.381250381469727
1751278782431751200,4.915751220703125,105.30000305175781,-3.6937501430511475,8.456250190734863
1751278782441751300,4.925751220703125,105.45000457763672,-3.7125000953674316,8.49375057220459
1751278782451751200,4.935751220703125,105.18750762939453,-3.750000238418579,8.568750381469727
1751278782461751300,4.945751220703125,105.46875762939453,-3.825000047683716,8.4375
1751278782471751200,4.955751220703125,105.39375305175781,-3.6937501430511475,8.49375057220459
1751278782481751300,4.965751220703125,105.3375015258789,-3.6937501430511475,8.643750190734863
1751278782491751200,4.975751220703125,105.31875610351562,-3.5250000953674316,8.606250762939453
1751278782501751300,4.985751220703125,105.31875610351562,-3.637500047683716,8.40000057220459
1751278782511751200,4.995751220703125,105.46875762939453,-3.450000047683716,8.40000057220459
1751278782521751300,5.005751220703125,105.5250015258789,-3.4875001907348633,8.49375057220459
1751278782531751200,5.015751220703125,105.45000457763672,-3.562500238418579,8.325000762939453
1751278782541751300,5.025751220703125,105.2437515258789,-3.4875001907348633,8.381250381469727
1751278782551751200,5.035751220703125,105.41250610351562,-3.656250238418579,8.30625057220459
1751278782561751300,5.045751220703125,105.7125015258789,-3.731250047683716,7.950000286102295
1751278782571751200,5.055751220703125,105.58125305175781,-3.843750238418579,7.818750381469727
1751278782581751300,5.065751220703125,105.6187515258789,-3.7875001430511475,7.968750476837158
1751278782591751200,5.075751220703125,105.56250762939453,-3.7687501907348633,8.268750190734863
1751278782601751300,5.085751220703125,105.58125305175781,-3.825000047683716,8.287500381469727
1751278782611751200,5.095751220703125,105.67500305175781,-3.656250238418579,8.287500381469727
1751278782621751300,5.105751220703125,105.88125610351562,-3.562500238418579,8.381250381469727
1751278782631751200,5.115751220703125,105.9937515258789,-3.3375000953674316,8.362500190734863
1751278782641751300,5.125751220703125,105.78750610351562,-3.4312500953674316,8.606250762939453
1751278782651751200,5.135751220703125,106.0875015258789,-3.468750238418579,8.887500762939453
1751278782661751300,5.145751220703125,105.82500457763672,-3.6000001430511475,8.77500057220459
1751278782671751200,5.155751220703125,105.8062515258789,-3.731250047683716,8.606250762939453
1751278782681751300,5.165751220703125,105.63750457763672,-3.7687501907348633,8.58750057220459
1751278782691751200,5.175751220703125,105.56250762939453,-3.843750238418579,8.793750762939453
1751278782701751300,5.185751220703125,105.6187515258789,-3.8062500953674316,8.68125057220459
1751278782711751200,5.195751220703125,105.4312515258789,-3.937500238418579,8.606250762939453
1751278782721751300,5.205751220703125,105.4312515258789,-3.7687501907348633,8.662500381469727
1751278782731751200,5.215751220703125,105.2437515258789,-3.637500047683716,8.456250190734863
1751278782741751300,5.225751220703125,105.09375762939453,-3.4875001907348633,8.418750762939453
1751278782751751200,5.235751220703125,105.03750610351562,-3.543750047683716,8.15625
1751278782761751300,5.245751220703125,105.01875305175781,-3.543750047683716,8.02500057220459
1751278782771751200,5.255751220703125,105.20625305175781,-3.4125001430511475,7.950000286102295
1751278782781751300,5.265751220703125,105.0562515258789,-3.3375000953674316,7.781250476837158
1751278782791751200,5.275751220703125,104.81250762939453,-3,7.875000476837158
1751278782801751300,5.285751220703125,104.7750015258789,-3.093750238418579,7.762500286102295
1751278782811751200,5.295751220703125,104.88750457763672,-3.093750238418579,7.875000476837158
1751278782821751300,5.305751220703125,105.11250305175781,-3.168750047683716,8.02500057220459
1751278782831751200,5.315751220703125,105.46875762939453,-3.1312501430511475,8.268750190734863
1751278782841751300,5.325751220703125,105.76875305175781,-3.187500238418579,8.287500381469727
1751278782851751200,5.335751220703125,105.8062515258789,-3.3375000953674316,8.100000381469727
1751278782861751300,5.345751220703125,105.8062515258789,-3.5250000953674316,8.268750190734863
1751278782871751200,5.355751220703125,105.9937515258789,-3.7875001430511475,8.362500190734863
1751278782881751300,5.365751220703125,106.1812515258789,-3.7125000953674316,8.362500190734863
1751278782891751200,5.375751220703125,106.10625457763672,-3.7875001430511475,8.193750381469727
1751278782901751300,5.385751220703125,106.1812515258789,-3.7875001430511475,8.11875057220459
1751278782911751200,5.395751220703125,105.95625305175781,-3.7125000953674316,8.175000190734863
1751278782921751300,5.405751220703125,105.9937515258789,-3.5812501907348633,8.231250762939453
1751278782931751200,5.415751220703125,105.95625305175781,-3.4875001907348633,8.40000057220459
1751278782941751300,5.425751220703125,105.93750762939453,-3.281250238418579,8.625
1751278782951751200,5.435751220703125,105.97500610351562,-3.5062501430511475,8.456250190734863
1751278782961751300,5.445751220703125,105.78750610351562,-3.5250000953674316,8.512500762939453
1751278782971751200,5.455751220703125,105.76875305175781,-3.5062501430511475,8.700000762939453
1751278782981751300,5.465751220703125,105.76875305175781,-3.5250000953674316,8.831250190734863
1751278782991751200,5.475751220703125,105.6187515258789,-3.731250047683716,8.550000190734863
1751278783001751300,5.485751220703125,105.60000610351562,-3.637500047683716,8.625
1751278783011751200,5.495751220703125,105.45000457763672,-3.6937501430511475,8.568750381469727
1751278783021751300,5.505751220703125,105.6187515258789,-3.825000047683716,8.381250381469727
1751278783031751200,5.515751220703125,105.6187515258789,-3.731250047683716,8.568750381469727
1751278783041751300,5.525751220703125,105.7125015258789,-3.825000047683716,8.512500762939453
1751278783051751200,5.535751220703125,105.63750457763672,-3.843750238418579,8.4375
1751278783061751300,5.545751220703125,105.58125305175781,-3.843750238418579,8.49375057220459
1751278783071751200,5.555751220703125,105.58125305175781,-3.843750238418579,8.887500762939453
1751278783081751300,5.565751220703125,105.50625610351562,-4.03125,8.86875057220459
1751278783091751200,5.575751220703125,105.75000762939453,-4.106250286102295,8.71875
1751278783101751300,5.585751220703125,105.6187515258789,-4.012500286102295,8.68125057220459
1751278783111751200,5.595751220703125,105.7125015258789,-4.050000190734863,8.568750381469727
1751278783121751300,5.605751220703125,105.58125305175781,-4.143750190734863,8.4375
1751278783131751200,5.615751220703125,105.86250305175781,-4.162500381469727,8.512500762939453
1751278783141751300,5.625751220703125,106.06875610351562,-4.162500381469727,8.381250381469727
1751278783151751200,5.635751220703125,106.05000305175781,-4.21875,8.137500762939453
1751278783161751300,5.645751220703125,106.01250457763672,-4.181250095367432,7.818750381469727
1751278783171751200,5.655751220703125,106.06875610351562,-4.200000286102295,7.818750381469727
1751278783181751300,5.665751220703125,106.14375305175781,-4.425000190734863,7.818750381469727
1751278783191751200,5.675751220703125,106.20000457763672,-4.368750095367432,7.800000190734863
1751278783201751300,5.685751220703125,106.40625762939453,-4.275000095367432,8.100000381469727
1751278783211751200,5.695751220703125,106.1812515258789,-4.3125,8.15625
1751278783221751300,5.705751220703125,105.82500457763672,-4.350000381469727,8.25
1751278783231751200,5.715751220703125,105.86250305175781,-4.350000381469727,8.34375
1751278783241751300,5.725751220703125,105.91875457763672,-4.443750381469727,8.40000057220459
1751278783251751200,5.735751220703125,105.67500305175781,-4.387500286102295,8.606250762939453
1751278783261751300,5.745751220703125,105.67500305175781,-4.275000095367432,8.606250762939453
1751278783271751200,5.755751220703125,105.54375457763672,-4.293750286102295,8.53125
1751278783281751300,5.765751220703125,105.30000305175781,-4.3125,8.4375
1751278783291751200,5.775751220703125,105.45000457763672,-4.331250190734863,8.4375
1751278783301751300,5.785751220703125,105.76875305175781,-4.331250190734863,8.25
1751278783311751200,5.795751220703125,105.73125457763672,-4.237500190734863,8.30625057220459
1751278783321751300,5.805751220703125,105.60000610351562,-4.143750190734863,8.568750381469727
1751278783331751200,5.815751220703125,105.67500305175781,-4.125,8.512500762939453
1751278783341751300,5.825751220703125,105.56250762939453,-4.200000286102295,8.550000190734863
1751278783351751200,5.835751220703125,105.65625762939453,-4.331250190734863,8.68125057220459
1751278783361751300,5.845751220703125,105.91875457763672,-4.368750095367432,8.58750057220459
1751278783371751200,5.855751220703125,105.56250762939453,-4.443750381469727,8.49375057220459
1751278783381751300,5.865751220703125,105.2437515258789,-4.387500286102295,8.643750190734863
1751278783391751200,5.875751220703125,105.30000305175781,-4.518750190734863,8.568750381469727
1751278783401751300,5.885751220703125,105.50625610351562,-4.59375,8.456250190734863
1751278783421751300,5.905751220703125,105.58125305175781,-4.631250381469727,8.643750190734863
1751278783431751200,5.915751220703125,105.65625762939453,-4.6875,8.700000762939453
1751278783441751300,5.925751220703125,105.65625762939453,-4.631250381469727,8.793750762939453
1751278783451751200,5.935751220703125,106.0875015258789,-4.818750381469727,8.737500190734863
1751278783461751300,5.945751220703125,106.38750457763672,-5.137500286102295,8.700000762939453
1751278783471751200,5.955751220703125,106.50000762939453,-5.231250286102295,8.700000762939453
1751278783481751300,5.965751220703125,106.59375762939453,-5.400000095367432,8.68125057220459
1751278783491751200,5.975751220703125,106.85625457763672,-5.568750381469727,8.53125
1751278783501751300,5.985751220703125,106.9312515258789,-5.737500190734863,8.325000762939453
1751278783511751200,5.995751220703125,107.15625762939453,-5.643750190734863,8.25
1751278783521751300,6.005751220703125,107.41875457763672,-5.925000190734863,8.231250762939453
1751278783531751200,6.015751220703125,107.38125610351562,-5.737500190734863,8.4375
1751278783541751300,6.025751220703125,107.45625305175781,-5.737500190734863,8.362500190734863
1751278783551751200,6.035751220703125,107.73750305175781,-5.868750095367432,8.287500381469727
1751278783561751300,6.045751220703125,107.75625610351562,-5.831250190734863,8.456250190734863
1751278783571751200,6.055751220703125,107.71875762939453,-5.887500286102295,8.362500190734863
1751278783581751300,6.065751220703125,107.73750305175781,-5.943750381469727,8.475000381469727
1751278783591751200,6.075751220703125,107.51250457763672,-6.300000190734863,8.512500762939453
1751278783601751300,6.085751220703125,107.34375762939453,-6.412500381469727,8.49375057220459
1751278783611751200,6.095751220703125,107.34375762939453,-6.675000190734863,8.325000762939453
1751278783621751300,6.105751220703125,107.34375762939453,-6.618750095367432,8.58750057220459
1751278783631751200,6.115751220703125,107.36250305175781,-6.600000381469727,8.793750762939453
1751278783641751300,6.125751220703125,107.5875015258789,-6.881250381469727,8.68125057220459
1751278783651751200,6.135751220703125,107.66250610351562,-7.050000190734863,8.77500057220459
1751278783661751300,6.145751220703125,107.83125305175781,-7.162500381469727,8.850000381469727
1751278783671751200,6.155751220703125,108.03750610351562,-7.181250095367432,8.943750381469727
1751278783681751300,6.165751220703125,108.1500015258789,-7.106250286102295,9.05625057220459
1751278783691751200,6.175751220703125,108.45000457763672,-7.162500381469727,9.225000381469727
1751278783701751300,6.185751220703125,108.54375457763672,-7.143750190734863,8.981250762939453
1751278783711751200,6.195751220703125,108.76875305175781,-7.350000381469727,8.737500190734863
1751278783721751300,6.205751220703125,108.84375762939453,-7.368750095367432,9.018750190734863
1751278783731751200,6.215751220703125,109.06875610351562,-7.462500095367432,9.375
1751278783741751300,6.225751220703125,109.2750015258789,-7.706250190734863,9.168750762939453
1751278783751751200,6.235751220703125,109.4625015258789,-7.837500095367432,9.05625057220459
1751278783761751300,6.245751220703125,109.51875305175781,-7.875000476837158,9.15000057220459
1751278783771751200,6.255751220703125,109.61250305175781,-8.100000381469727,9
1751278783781751300,6.265751220703125,109.68750762939453,-8.40000057220459,9.075000762939453
1751278783791751200,6.275751220703125,109.63125610351562,-8.475000381469727,9.1875
1751278783801751300,6.285751220703125,109.63125610351562,-8.606250762939453,8.981250762939453
1751278783811751200,6.295751220703125,109.6500015258789,-8.606250762939453,8.737500190734863
1751278783821751300,6.305751220703125,109.8375015258789,-8.568750381469727,8.77500057220459
1751278783831751200,6.315751220703125,109.78125762939453,-8.68125057220459,8.925000190734863
1751278783841751300,6.325751220703125,110.0250015258789,-9,8.68125057220459
1751278783851751200,6.335751220703125,110.1187515258789,-9.112500190734863,8.643750190734863
1751278783861751300,6.345751220703125,110.4937515258789,-9.356250762939453,8.643750190734863
1751278783871751200,6.355751220703125,110.66250610351562,-9.450000762939453,8.606250762939453
1751278783881751300,6.365751220703125,110.79375457763672,-9.71250057220459,8.40000057220459
1751278783891751200,6.375751220703125,110.7750015258789,-9.80625057220459,8.568750381469727
1751278783901751300,6.385751220703125,110.85000610351562,-9.80625057220459,8.77500057220459
1751278783911751200,6.395751220703125,110.79375457763672,-9.71250057220459,8.756250381469727
1751278783921751300,6.405751220703125,110.70000457763672,-9.693750381469727,8.90625
1751278783931751200,6.415751220703125,110.43750762939453,-9.80625057220459,8.887500762939453
1751278783941751300,6.425751220703125,110.2125015258789,-9.637500762939453,8.925000190734863
1751278783951751200,6.435751220703125,110.25000762939453,-9.918750762939453,9.09375
1751278783961751300,6.445751220703125,110.60625457763672,-9.768750190734863,9.262500762939453
1751278783971751200,6.455751220703125,110.79375457763672,-9.90000057220459,9.018750190734863
1751278783981751300,6.465751220703125,110.5875015258789,-10.08750057220459,8.8125
1751278783991751200,6.475751220703125,110.81250762939453,-10.331250190734863,8.68125057220459
1751278784001751300,6.485751220703125,111.00000762939453,-10.40625,8.756250381469727
1751278784011751200,6.495751220703125,111.30000305175781,-10.40625,8.793750762939453
1751278784021751300,6.505751220703125,111.48750305175781,-10.612500190734863,8.925000190734863
1751278784031751200,6.515751220703125,111.63750457763672,-10.387500762939453,8.850000381469727
1751278784041751300,6.525751220703125,111.50625610351562,-10.631250381469727,8.737500190734863
1751278784051751200,6.535751220703125,111.5250015258789,-10.762500762939453,8.77500057220459
1751278784061751300,6.545751220703125,111.9937515258789,-10.93125057220459,8.71875
1751278784071751200,6.555751220703125,112.23750305175781,-10.93125057220459,9.05625057220459
1751278784081751300,6.565751220703125,112.4625015258789,-11.02500057220459,8.943750381469727
1751278784091751200,6.575751220703125,112.68750762939453,-11.043750762939453,8.90625
1751278784101751300,6.585751220703125,112.96875762939453,-11.11875057220459,8.831250190734863
1751278784111751200,6.595751220703125,113.06250762939453,-11.268750190734863,8.90625
1751278784121751300,6.605751220703125,113.28750610351562,-11.268750190734863,8.925000190734863
1751278784131751200,6.615751220703125,113.38125610351562,-11.4375,8.981250762939453
1751278784141751300,6.625751220703125,113.4937515258789,-11.756250381469727,8.887500762939453
1751278784151751200,6.635751220703125,113.32500457763672,-11.86875057220459,8.90625
1751278784161751300,6.645751220703125,113.36250305175781,-12.262500762939453,8.943750381469727
1751278784171751200,6.655751220703125,113.60625457763672,-12.225000381469727,8.887500762939453
1751278784181751300,6.665751220703125,113.5875015258789,-12.43125057220459,8.831250190734863
1751278784191751200,6.675751220703125,113.55000305175781,-12.562500953674316,8.625
1751278784201751300,6.685751220703125,113.4937515258789,-12.543750762939453,8.606250762939453
1751278784211751200,6.695751220703125,113.94375610351562,-12.562500953674316,8.77500057220459
1751278784221751300,6.705751220703125,114.00000762939453,-12.468750953674316,8.96250057220459
1751278784231751200,6.715751220703125,114.1500015258789,-12.600000381469727,8.68125057220459
1751278784241751300,6.725751220703125,114.26250457763672,-12.468750953674316,8.793750762939453
1751278784251751200,6.735751220703125,114.41250610351562,-12.731250762939453,8.981250762939453
1751278784261751300,6.745751220703125,114.58125305175781,-12.80625057220459,9.1875
1751278784271751200,6.755751220703125,114.8062515258789,-12.99375057220459,9.46875
1751278784281751300,6.765751220703125,114.88125610351562,-13.293750762939453,9.581250190734863
1751278784291751200,6.775751220703125,114.88125610351562,-13.443750381469727,9.412500381469727
1751278784301751300,6.785751220703125,114.95625305175781,-13.46250057220459,9.43125057220459
1751278784311751200,6.795751220703125,114.93750762939453,-13.631250381469727,9.375
1751278784321751300,6.805751220703125,115.16250610351562,-13.74375057220459,9.1875
1751278784331751200,6.815751220703125,115.20000457763672,-13.781250953674316,9.15000057220459
1751278784341751300,6.825751220703125,115.35000610351562,-13.781250953674316,9.037500381469727
1751278784351751200,6.835751220703125,115.42500305175781,-14.043750762939453,9
1751278784361751300,6.845751220703125,115.44375610351562,-14.156250953674316,9
1751278784371751200,6.855751220703125,115.70625305175781,-14.268750190734863,8.981250762939453
1751278784381751300,6.865751220703125,116.04375457763672,-14.531250953674316,9.262500762939453
1751278784391751200,6.875751220703125,116.47500610351562,-14.662500381469727,9.262500762939453
1751278784401751300,6.885751220703125,116.81250762939453,-14.981250762939453,9.393750190734863
1751278784411751200,6.895751220703125,117.01875305175781,-15.187500953674316,9.46875
1751278784421751300,6.905751220703125,117.22500610351562,-15.487500190734863,9.33750057220459
1751278784431751200,6.915751220703125,117.6187515258789,-15.487500190734863,9.33750057220459
1751278784441751300,6.925751220703125,117.95625305175781,-15.581250190734863,9.487500190734863
1751278784451751200,6.935751220703125,118.03125762939453,-15.937500953674316,9.637500762939453
1751278784461751300,6.945751220703125,118.16250610351562,-16.125,9.581250190734863
1751278784471751200,6.955751220703125,118.3687515258789,-16.293750762939453,9.731250762939453
1751278784481751300,6.965751220703125,118.57500457763672,-16.162500381469727,9.84375
1751278784491751200,6.975751220703125,118.6500015258789,-16.293750762939453,9.99375057220459
1751278784501751300,6.985751220703125,118.7437515258789,-16.275001525878906,10.012500762939453
1751278784511751200,6.995751220703125,118.8375015258789,-16.23750114440918,10.106250762939453
1751278784521751300,7.005751220703125,119.08125305175781,-16.14375114440918,10.27500057220459
1751278784531751200,7.015751220703125,119.17500305175781,-16.087501525878906,10.350000381469727
1751278784541751300,7.025751220703125,119.45625305175781,-16.14375114440918,10.3125
1751278784551751200,7.035751220703125,119.70000457763672,-16.14375114440918,10.5
1751278784561751300,7.045751220703125,119.7750015258789,-16.481250762939453,10.537500381469727
1751278784571751200,7.055751220703125,119.90625762939453,-16.443750381469727,10.65000057220459
1751278784581751300,7.065751220703125,120.18750762939453,-16.61250114440918,10.875
1751278784591751200,7.075751220703125,120.09375762939453,-16.575000762939453,10.83750057220459
1751278784601751300,7.085751220703125,120.16875457763672,-16.89375114440918,10.83750057220459
1751278784611751200,7.095751220703125,120.37500762939453,-16.875,10.668750762939453
1751278784621751300,7.105751220703125,120.50625610351562,-16.78125,10.668750762939453
1751278784631751200,7.115751220703125,120.50625610351562,-16.931251525878906,10.55625057220459
1751278784641751300,7.125751220703125,120.58125305175781,-16.912500381469727,10.443750381469727
1751278784651751200,7.135751220703125,120.82500457763672,-17.08125114440918,10.125
1751278784661751300,7.145751220703125,120.9937515258789,-17.0625,10.18125057220459
1751278784671751200,7.155751220703125,121.20000457763672,-17.400001525878906,10.012500762939453
1751278784681751300,7.165751220703125,121.38750457763672,-17.45625114440918,9.75
1751278784691751200,7.175751220703125,121.6500015258789,-17.493751525878906,9.956250190734863
1751278784701751300,7.185751220703125,121.53750610351562,-17.55000114440918,9.84375
1751278784711751200,7.195751220703125,121.6500015258789,-17.587501525878906,9.71250057220459
1751278784721751300,7.205751220703125,121.70625305175781,-17.493751525878906,9.693750381469727
1751278784731751200,7.215751220703125,121.72500610351562,-17.700000762939453,9.600000381469727
1751278784741751300,7.225751220703125,121.87500762939453,-18.01875114440918,9.393750190734863
1751278784751751200,7.235751220703125,122.38125610351562,-18.09375,9.450000762939453
1751278784761751300,7.245751220703125,122.7750015258789,-18.243751525878906,9.506250381469727
1751278784771751200,7.255751220703125,122.90625762939453,-18.39375114440918,9.393750190734863
1751278784781751300,7.265751220703125,123.11250305175781,-18.712501525878906,9.393750190734863
1751278784791751200,7.275751220703125,123.45000457763672,-18.900001525878906,9.225000381469727
1751278784801751300,7.285751220703125,123.7125015258789,-19.200000762939453,9.112500190734863
1751278784811751200,7.295751220703125,124.14375305175781,-19.23750114440918,9.112500190734863
1751278784821751300,7.305751220703125,124.20000457763672,-19.33125114440918,9.018750190734863
1751278784831751200,7.315751220703125,124.1812515258789,-19.462501525878906,9.018750190734863
1751278784841751300,7.325751220703125,123.97500610351562,-19.33125114440918,8.793750762939453
1751278784851751200,7.335751220703125,124.21875762939453,-19.462501525878906,8.568750381469727
1751278784861751300,7.345751220703125,123.9937515258789,-19.368751525878906,8.58750057220459
1751278784871751200,7.355751220703125,124.0875015258789,-19.42500114440918,8.606250762939453
1751278784881751300,7.365751220703125,124.12500762939453,-19.350000381469727,8.40000057220459
1751278784891751200,7.375751220703125,124.01250457763672,-19.443750381469727,8.49375057220459
1751278784901751300,7.385751220703125,124.16250610351562,-19.387500762939453,8.49375057220459
1751278784911751200,7.395751220703125,124.01250457763672,-19.256250381469727,8.34375
1751278784921751300,7.405751220703125,124.20000457763672,-19.537500381469727,8.21250057220459
1751278784931751200,7.415751220703125,124.01250457763672,-19.631250381469727,8.043750762939453
1751278784941751300,7.425751220703125,124.4625015258789,-19.61250114440918,8.043750762939453
1751278784951751200,7.435751220703125,124.25625610351562,-19.51875114440918,8.137500762939453
1751278784961751300,7.445751220703125,124.4625015258789,-19.575000762939453,8.137500762939453
1751278784971751200,7.455751220703125,124.35000610351562,-19.59375,8.137500762939453
1751278784981751300,7.465751220703125,124.42500305175781,-19.78125,8.231250762939453
1751278784991751200,7.475751220703125,124.7437515258789,-19.78125,8.175000190734863
1751278785001751300,7.485751220703125,124.81875610351562,-19.912500381469727,8.100000381469727
1751278785011751200,7.495751220703125,125.15625762939453,-19.837501525878906,8.268750190734863
1751278785021751300,7.505751220703125,125.4937515258789,-19.950000762939453,8.381250381469727
1751278785031751200,7.515751220703125,125.5875015258789,-20.15625,8.287500381469727
1751278785041751300,7.525751220703125,125.51250457763672,-20.118751525878906,8.550000190734863
1751278785051751200,7.535751220703125,126.03750610351562,-20.17500114440918,8.68125057220459
1751278785061751300,7.545751220703125,126.18750762939453,-20.025001525878906,8.475000381469727
1751278785071751200,7.555751220703125,126.16875457763672,-20.26875114440918,8.700000762939453
1751278785081751300,7.565751220703125,126.26250457763672,-20.15625,8.981250762939453
1751278785091751200,7.575751220703125,125.98125457763672,-20.17500114440918,9.018750190734863
1751278785101751300,7.585751220703125,125.71875762939453,-20.287500381469727,8.925000190734863
1751278785111751200,7.595751220703125,126.16875457763672,-20.231250762939453,9.037500381469727
1751278785121751300,7.605751220703125,126.46875762939453,-20.306251525878906,9.018750190734863
1751278785131751200,7.615751220703125,126.31875610351562,-20.26875114440918,8.71875
1751278785141751300,7.625751220703125,126.54375457763672,-20.512500762939453,8.662500381469727
1751278785151751200,7.635751220703125,126.69375610351562,-20.512500762939453,8.700000762939453
1751278785161751300,7.645751220703125,126.63750457763672,-20.493751525878906,8.475000381469727
1751278785171751200,7.655751220703125,126.97500610351562,-20.681251525878906,8.475000381469727
1751278785181751300,7.665751220703125,127.4625015258789,-20.73750114440918,8.25
1751278785191751200,7.675751220703125,127.33125305175781,-20.981250762939453,8.11875057220459
1751278785201751300,7.685751220703125,127.23750305175781,-21.01875114440918,7.893750190734863
1751278785211751200,7.695751220703125,127.50000762939453,-21.075000762939453,8.0625
1751278785221751300,7.705751220703125,127.38750457763672,-21.037500381469727,7.968750476837158
1751278785231751200,7.715751220703125,127.35000610351562,-21.075000762939453,7.781250476837158
1751278785241751300,7.725751220703125,127.70625305175781,-21.131250381469727,7.987500190734863
1751278785251751200,7.735751220703125,127.76250457763672,-21.150001525878906,8.11875057220459
1751278785261751300,7.745751220703125,127.66875457763672,-21.225000381469727,8.25
1751278785271751200,7.755751220703125,127.6500015258789,-21.09375,8.15625
1751278785281751300,7.765751220703125,127.80000305175781,-21.09375,8.137500762939453
1751278785291751200,7.775751220703125,127.68750762939453,-21.28125,8.02500057220459
1751278785301751300,7.785751220703125,127.7437515258789,-21.168750762939453,8.325000762939453
1751278785311751200,7.795751220703125,127.72500610351562,-21.28125,8.40000057220459
1751278785321751300,7.805751220703125,127.68750762939453,-21.412500381469727,8.25
1751278785331751200,7.815751220703125,127.57500457763672,-21.356250762939453,8.34375
1751278785341751300,7.825751220703125,127.48125457763672,-21.28125,8.325000762939453
1751278785351751200,7.835751220703125,127.91250610351562,-21.39375114440918,8.30625057220459
1751278785361751300,7.845751220703125,127.89375305175781,-21.46875,8.49375057220459
1751278785371751200,7.855751220703125,127.95000457763672,-21.375,8.40000057220459
1751278785381751300,7.865751220703125,128.11875915527344,-21.356250762939453,8.40000057220459
1751278785391751200,7.875751220703125,128.47500610351562,-21.318750381469727,8.381250381469727
1751278785401751300,7.885751220703125,128.60626220703125,-21.30000114440918,8.475000381469727
1751278785411751200,7.895751220703125,128.56875610351562,-21.337501525878906,8.193750381469727
1751278785421751300,7.905751220703125,128.90625,-21.375,8.006250381469727
1751278785431751200,7.915751220703125,128.90625,-21.337501525878906,8.21250057220459
1751278785441751300,7.925751220703125,129.15000915527344,-21.450000762939453,8.006250381469727
1751278785451751200,7.935751220703125,129.26251220703125,-21.525001525878906,8.25
1751278785461751300,7.945751220703125,129.22500610351562,-21.600000381469727,8.175000190734863
1751278785471751200,7.955751220703125,129.52500915527344,-21.67500114440918,7.912500381469727
1751278785481751300,7.965751220703125,129.41250610351562,-21.65625,7.781250476837158
1751278785491751200,7.975751220703125,129.4875030517578,-21.731250762939453,7.856250286102295
1751278785501751300,7.985751220703125,129.26251220703125,-21.525001525878906,8.0625
1751278785511751200,7.995751220703125,129.1875,-21.450000762939453,7.950000286102295
1751278785521751300,8.005751220703125,129.22500610351562,-21.46875,8.043750762939453
1751278785531751200,8.015751220703125,129.16876220703125,-21.450000762939453,8.02500057220459
1751278785541751300,8.025751220703125,129.3000030517578,-21.412500381469727,7.987500190734863
1751278785551751200,8.035751220703125,129.07501220703125,-21.28125,8.231250762939453
1751278785561751300,8.045751220703124,129.41250610351562,-21.375,8.34375
1751278785571751200,8.055751220703126,129.61875915527344,-21.450000762939453,8.081250190734863
1751278785581751300,8.065751220703126,129.8625030517578,-21.86250114440918,7.912500381469727
1751278785591751200,8.075751220703125,130.1437530517578,-22.125,7.800000190734863
1751278785601751300,8.085751220703125,130.03125,-22.256250381469727,7.687500476837158
1751278785611751200,8.095751220703125,130.35000610351562,-22.087501525878906,7.631250381469727
1751278785621751300,8.105751220703125,130.16250610351562,-22.181251525878906,7.612500190734863
1751278785631751200,8.115751220703125,130.3125,-22.275001525878906,7.556250095367432
1751278785641751300,8.125751220703124,130.21875,-22.200000762939453,7.500000476837158
1751278785651751200,8.135751220703124,130.36875915527344,-21.993751525878906,7.612500190734863
1751278785661751300,8.145751220703126,130.4250030517578,-21.693750381469727,7.556250095367432
1751278785671751200,8.155751220703126,130.29376220703125,-21.506250381469727,7.743750095367432
1751278785681751300,8.165751220703125,130.48126220703125,-21.20625114440918,8.006250381469727
1751278785691751200,8.175751220703125,130.55625915527344,-21.543750762939453,7.762500286102295
1751278785701751300,8.185751220703125,130.72500610351562,-21.58125114440918,7.856250286102295
1751278785711751200,8.195751220703125,130.5,-21.375,7.818750381469727
1751278785721751300,8.205751220703124,130.6125030517578,-21.28125,7.968750476837158
1751278785731751200,8.215751220703124,130.7062530517578,-21.506250381469727,8.100000381469727
1751278785741751300,8.225751220703126,130.46250915527344,-21.76875114440918,8.381250381469727
1751278785751751200,8.235751220703126,130.5187530517578,-21.67500114440918,8.568750381469727
1751278785761751300,8.245751220703125,130.46250915527344,-21.693750381469727,8.4375
1751278785771751200,8.255751220703125,130.53750610351562,-21.46875,8.58750057220459
1751278785781751300,8.265751220703125,130.66876220703125,-21.412500381469727,8.287500381469727
1751278785791751200,8.275751220703125,130.8000030517578,-21.525001525878906,8.381250381469727
1751278785801751300,8.285751220703125,130.8937530517578,-21.712501525878906,8.268750190734863
1751278785811751200,8.295751220703124,131.0625,-21.712501525878906,8.137500762939453
1751278785821751300,8.305751220703126,131.1750030517578,-21.58125114440918,8.081250190734863
1751278785831751200,8.315751220703126,131.25,-21.731250762939453,7.706250190734863
1751278785841751300,8.325751220703125,131.3625030517578,-21.95625114440918,7.706250190734863
1751278785851751200,8.335751220703125,131.28750610351562,-21.918750762939453,7.893750190734863
1751278785861751300,8.345751220703125,131.51251220703125,-22.012500762939453,8.325000762939453
1751278785871751200,8.355751220703125,131.7375030517578,-22.125,8.418750762939453
1751278785881751300,8.365751220703125,131.7375030517578,-21.975000381469727,8.4375
1751278785891751200,8.375751220703124,131.71875,-21.9375,8.568750381469727
1751278785901751300,8.385751220703124,132.03750610351562,-21.975000381469727,8.662500381469727
1751278785911751200,8.395751220703126,132.13125610351562,-22.125,8.86875057220459
1751278785921751300,8.405751220703126,132.24375915527344,-22.21875,8.756250381469727
1751278785931751200,8.415751220703125,132.4875030517578,-22.21875,8.475000381469727
1751278785941751300,8.425751220703125,132.46875,-22.14375114440918,8.362500190734863
1751278785951751200,8.435751220703125,132.4875030517578,-22.012500762939453,8.11875057220459
1751278785961751300,8.445751220703125,132.60000610351562,-22.162500381469727,8.006250381469727
1751278785971751200,8.455751220703124,132.63751220703125,-22.14375114440918,7.762500286102295
1751278785981751300,8.465751220703124,132.84375,-22.125,7.518750190734863
1751278785991751200,8.475751220703126,132.99375915527344,-22.087501525878906,7.575000286102295
1751278786001751300,8.485751220703126,133.16250610351562,-21.993751525878906,7.743750095367432
1751278786011751200,8.495751220703125,133.3312530517578,-22.293750762939453,7.725000381469727
1751278786021751300,8.505751220703125,133.03125,-22.275001525878906,7.650000095367432
1751278786031751200,8.515751220703125,133.16250610351562,-22.387500762939453,7.743750095367432
1751278786041751300,8.525751220703125,133.59375,-22.668750762939453,7.781250476837158
1751278786051751200,8.535751220703125,133.6875,-22.70625114440918,7.931250095367432
1751278786061751300,8.545751220703124,133.5187530517578,-22.6875,8.137500762939453
1751278786071751200,8.555751220703126,133.55625915527344,-22.650001525878906,7.987500190734863
1751278786081751300,8.565751220703126,133.5,-22.481250762939453,8.137500762939453
1751278786091751200,8.575751220703125,133.27500915527344,-22.42500114440918,8.268750190734863
1751278786101751300,8.585751220703125,133.72500610351562,-22.481250762939453,8.25
1751278786111751200,8.595751220703125,133.81875610351562,-22.61250114440918,8.15625
1751278786121751300,8.605751220703125,133.46250915527344,-22.293750762939453,8.0625
1751278786131751200,8.615751220703125,133.48126220703125,-22.40625,8.006250381469727
1751278786141751300,8.625751220703124,133.46250915527344,-22.631250381469727,8.02500057220459
1751278786151751200,8.635751220703124,133.65000915527344,-22.78125,8.081250190734863
1751278786161751300,8.645751220703126,133.8000030517578,-22.912500381469727,7.950000286102295
1751278786171751200,8.655751220703126,133.81875610351562,-22.725000381469727,8.081250190734863
1751278786181751300,8.665751220703125,133.91250610351562,-22.875,7.987500190734863
1751278786191751200,8.675751220703125,134.10000610351562,-22.818750381469727,8.137500762939453
1751278786201751300,8.685751220703125,134.41876220703125,-23.006250381469727,8.40000057220459
1751278786211751200,8.695751220703125,134.70001220703125,-23.043750762939453,8.456250190734863
1751278786221751300,8.705751220703124,134.9250030517578,-22.912500381469727,8.34375
1751278786231751200,8.715751220703124,135.07501220703125,-22.837501525878906,8.40000057220459
1751278786241751300,8.725751220703126,135.31875610351562,-22.950000762939453,8.362500190734863
1751278786251751200,8.735751220703126,135.61875915527344,-23.25,8.175000190734863
1751278786261751300,8.745751220703125,135.61875915527344,-23.400001525878906,8.362500190734863
1751278786271751200,8.755751220703125,135.69375610351562,-23.606250762939453,8.4375
1751278786281751300,8.765751220703125,135.5625,-23.625,8.362500190734863
1751278786291751200,8.775751220703125,135.5812530517578,-23.587501525878906,8.568750381469727
1751278786301751300,8.785751220703125,135.80625915527344,-23.568750381469727,8.568750381469727
1751278786311751200,8.795751220703124,135.71250915527344,-23.512500762939453,8.58750057220459
1751278786321751300,8.805751220703126,135.60000610351562,-23.512500762939453,8.58750057220459
1751278786331751200,8.815751220703126,135.5625,-23.493751525878906,8.606250762939453
1751278786341751300,8.825751220703125,135.78750610351562,-23.212501525878906,8.58750057220459
1751278786351751200,8.835751220703125,135.84375,-23.118751525878906,8.456250190734863
1751278786361751300,8.845751220703125,135.90000915527344,-23.100000381469727,8.418750762939453
1751278786371751200,8.855751220703125,136.0500030517578,-23.118751525878906,8.325000762939453
1751278786381751300,8.865751220703125,136.16250610351562,-23.17500114440918,8.418750762939453
1751278786391751200,8.875751220703124,136.20001220703125,-23.118751525878906,8.418750762939453
1751278786401751300,8.885751220703124,136.20001220703125,-23.137500762939453,8.362500190734863
1751278786411751200,8.895751220703126,136.3312530517578,-22.912500381469727,8.418750762939453
1751278786421751300,8.905751220703126,136.29376220703125,-23.212501525878906,8.362500190734863
1751278786431751200,8.915751220703125,136.36875915527344,-23.36250114440918,8.231250762939453
1751278786441751300,8.925751220703125,136.5187530517578,-23.325000762939453,8.137500762939453
1751278786451751200,8.935751220703125,136.46250915527344,-23.34375,8.11875057220459
1751278786461751300,8.945751220703125,136.27500915527344,-23.381250381469727,8.175000190734863
1751278786471751200,8.955751220703124,136.5187530517578,-23.606250762939453,8.043750762939453
1751278786481751300,8.965751220703124,136.6125030517578,-23.606250762939453,8.0625
1751278786491751200,8.975751220703126,136.66876220703125,-23.587501525878906,8.02500057220459
1751278786501751300,8.985751220703126,136.95001220703125,-23.493751525878906,7.875000476837158
1751278786511751200,8.995751220703125,136.9875030517578,-23.381250381469727,7.987500190734863
1751278786531751200,9.015751220703125,137.28750610351562,-23.306251525878906,8.231250762939453
1751278786541751300,9.025751220703125,137.56875610351562,-23.212501525878906,8.25
1751278786551751200,9.035751220703125,137.66250610351562,-23.212501525878906,8.34375
1751278786561751300,9.045751220703124,138.1125030517578,-23.325000762939453,8.381250381469727
1751278786571751200,9.055751220703126,138.33750915527344,-23.45625114440918,8.58750057220459
1751278786581751300,9.065751220703126,138.15000915527344,-23.231250762939453,8.700000762939453
1751278786591751200,9.075751220703125,138.16876220703125,-23.118751525878906,8.68125057220459
1751278786601751300,9.085751220703125,138.24375915527344,-23.325000762939453,8.456250190734863
1751278786611751200,9.095751220703125,138.46875,-23.34375,8.512500762939453
1751278786621751300,9.105751220703125,138.35626220703125,-23.493751525878906,8.456250190734863
1751278786631751200,9.115751220703125,138.4875030517578,-23.475000381469727,8.512500762939453
1751278786641751300,9.125751220703124,138.375,-23.400001525878906,8.700000762939453
1751278786651751200,9.135751220703124,138.61875915527344,-23.400001525878906,8.53125
1751278786661751300,9.145751220703126,138.91876220703125,-23.681251525878906,8.58750057220459
1751278786671751200,9.155751220703126,139.16250610351562,-23.775001525878906,8.58750057220459
1751278786681751300,9.165751220703125,139.16250610351562,-23.606250762939453,8.643750190734863
1751278786691751200,9.175751220703125,139.25625610351562,-23.700000762939453,8.475000381469727
1751278786701751300,9.185751220703125,139.40625,-23.587501525878906,8.287500381469727
1751278786711751200,9.195751220703125,139.44375610351562,-23.73750114440918,8.137500762939453
1751278786721751300,9.205751220703124,139.25625610351562,-23.887500762939453,7.875000476837158
1751278786731751200,9.215751220703124,139.08750915527344,-24.01875114440918,7.762500286102295
1751278786741751300,9.225751220703126,138.9375,-23.943750381469727,7.537500381469727
1751278786751751200,9.235751220703126,139.10626220703125,-24.056251525878906,7.612500190734863
1751278786761751300,9.245751220703125,139.125,-24.150001525878906,7.706250190734863
1751278786771751200,9.255751220703125,139.16250610351562,-23.943750381469727,7.631250381469727
1751278786781751300,9.265751220703125,139.03125,-24.056251525878906,7.668750286102295
1751278786791751200,9.275751220703125,139.1437530517578,-23.92500114440918,7.781250476837158
1751278786801751300,9.285751220703125,139.29376220703125,-23.92500114440918,7.781250476837158
1751278786811751200,9.295751220703124,139.6125030517578,-23.962501525878906,7.856250286102295
1751278786821751300,9.305751220703126,139.93125915527344,-23.981250762939453,8.100000381469727
1751278786831751200,9.315751220703126,139.7062530517578,-23.90625,8.11875057220459
1751278786841751300,9.325751220703125,139.78125,-23.943750381469727,8.287500381469727
1751278786851751200,9.335751220703125,139.76251220703125,-24.037500381469727,8.456250190734863
1751278786861751300,9.345751220703125,140.2687530517578,-24.056251525878906,8.40000057220459
1751278786871751200,9.355751220703125,140.23126220703125,-23.943750381469727,8.456250190734863
1751278786881751300,9.365751220703125,140.41876220703125,-23.887500762939453,8.625
1751278786891751200,9.375751220703124,140.2687530517578,-23.71875,8.58750057220459
1751278786901751300,9.385751220703124,140.0812530517578,-23.756250381469727,8.512500762939453
1751278786911751200,9.395751220703126,140.25,-23.606250762939453,8.606250762939453
1751278786921751300,9.405751220703126,140.41876220703125,-23.568750381469727,8.381250381469727
1751278786931751200,9.415751220703125,140.68125915527344,-23.493751525878906,8.381250381469727
1751278786941751300,9.425751220703125,140.68125915527344,-23.26875114440918,8.550000190734863
1751278786951751200,9.435751220703125,140.79376220703125,-23.287500381469727,8.606250762939453
1751278786961751300,9.445751220703125,140.90625,-23.287500381469727,8.34375
1751278786971751200,9.455751220703124,141.03750610351562,-23.400001525878906,8.362500190734863
1751278786981751300,9.465751220703124,141.22500610351562,-23.4375,8.512500762939453
1751278786991751200,9.475751220703126,141.43125915527344,-23.625,8.325000762939453
1751278787001751300,9.485751220703126,141.41250610351562,-23.662500381469727,8.193750381469727
1751278787011751200,9.495751220703125,141.45001220703125,-23.793750762939453,8.11875057220459
1751278787021751300,9.505751220703125,141.71250915527344,-23.962501525878906,8.137500762939453
1751278787031751200,9.515751220703125,141.71250915527344,-24.11250114440918,8.193750381469727
1751278787041751300,9.525751220703125,141.90000915527344,-24,8.58750057220459
1751278787051751200,9.535751220703125,142.01251220703125,-24.01875114440918,8.71875
1751278787061751300,9.545751220703124,142.2375030517578,-24.187501907348633,8.53125
1751278787071751200,9.555751220703126,142.18125915527344,-24.11250114440918,8.756250381469727
1751278787081751300,9.565751220703126,142.25625610351562,-24.01875114440918,9.112500190734863
1751278787091751200,9.575751220703125,142.36875915527344,-23.962501525878906,9.393750190734863
1751278787101751300,9.585751220703125,142.2375030517578,-23.887500762939453,9.393750190734863
1751278787111751200,9.595751220703125,142.5187530517578,-23.71875,9.412500381469727
1751278787121751300,9.605751220703125,142.44375610351562,-23.90625,9.112500190734863
1751278787131751200,9.615751220703125,142.55625915527344,-23.850000381469727,9.300000190734863
1751278787141751300,9.625751220703124,142.76251220703125,-23.64375114440918,9.506250381469727
1751278787151751200,9.635751220703124,143.1750030517578,-23.681251525878906,9.65625
1751278787161751300,9.645751220703126,143.25,-23.681251525878906,9.46875
1751278787171751200,9.655751220703126,143.3625030517578,-23.73750114440918,9.356250762939453
1751278787181751300,9.665751220703125,143.53125,-23.73750114440918,9.356250762939453
1751278787191751200,9.675751220703125,143.49375915527344,-23.868751525878906,9.15000057220459
1751278787201751300,9.685751220703125,143.5500030517578,-23.868751525878906,9.24375057220459
1751278787211751200,9.695751220703125,143.5500030517578,-23.850000381469727,9.05625057220459
1751278787221751300,9.705751220703124,143.38125610351562,-23.8125,8.943750381469727
1751278787231751200,9.715751220703124,143.1750030517578,-23.8125,8.756250381469727
1751278787241751300,9.725751220703126,143.2687530517578,-23.981250762939453,8.71875
1751278787251751200,9.735751220703126,143.28750610351562,-24.075000762939453,8.475000381469727
1751278787261751300,9.745751220703125,143.13751220703125,-24.093751907348633,8.325000762939453
1751278787271751200,9.755751220703125,143.3625030517578,-24.11250114440918,8.268750190734863
1751278787281751300,9.765751220703125,143.23126220703125,-23.92500114440918,8.268750190734863
1751278787291751200,9.775751220703125,143.32501220703125,-23.73750114440918,8.362500190734863
1751278787301751300,9.785751220703125,143.40000915527344,-23.793750762939453,8.40000057220459
1751278787311751200,9.795751220703124,143.34375,-23.71875,8.34375
1751278787321751300,9.805751220703126,143.58750915527344,-23.55000114440918,8.325000762939453
1751278787331751200,9.815751220703126,143.56875610351562,-23.418750762939453,8.34375
1751278787341751300,9.825751220703125,143.71875,-23.4375,8.30625057220459
1751278787351751200,9.835751220703125,143.60626220703125,-23.400001525878906,8.30625057220459
1751278787361751300,9.845751220703125,144.07501220703125,-23.4375,8.15625
1751278787371751200,9.855751220703125,144.3000030517578,-23.868751525878906,7.856250286102295
1751278787381751300,9.865751220703125,144.41250610351562,-23.775001525878906,7.650000095367432
1751278787391751200,9.875751220703124,144.52500915527344,-23.71875,7.462500095367432
1751278787401751300,9.885751220703124,144.65625,-24.075000762939453,7.368750095367432
1751278787411751200,9.895751220703126,144.91876220703125,-24.093751907348633,7.368750095367432
1751278787431751200,9.915751220703125,145.40625,-24.168750762939453,7.368750095367432
1751278787441751300,9.925751220703125,145.3125,-24.20625114440918,7.650000095367432
1751278787451751200,9.935751220703125,145.21875,-23.943750381469727,7.931250095367432
1751278787461751300,9.945751220703125,145.25625610351562,-23.943750381469727,7.968750476837158
1751278787471751200,9.955751220703124,145.57501220703125,-24.01875114440918,8.137500762939453
1751278787481751300,9.965751220703124,145.5,-23.71875,8.0625
1751278787491751200,9.975751220703126,145.48126220703125,-23.756250381469727,8.081250190734863
1751278787501751300,9.985751220703126,145.40625,-23.756250381469727,8.25
1751278787511751200,9.995751220703125,145.4250030517578,-23.775001525878906,8.418750762939453
1751278787521751300,10.005751220703125,145.65000915527344,-23.681251525878906,8.4375
1751278787531751200,10.015751220703125,145.63125610351562,-23.64375114440918,8.231250762939453
1751278787541751300,10.025751220703125,145.7062530517578,-23.662500381469727,8.30625057220459
1751278787551751200,10.035751220703125,145.93125915527344,-23.756250381469727,8.175000190734863
1751278787561751300,10.045751220703124,146.02500915527344,-23.92500114440918,8.25
1751278787571751200,10.055751220703126,146.13751220703125,-23.92500114440918,8.4375
1751278787581751300,10.065751220703126,146.3625030517578,-24.01875114440918,8.381250381469727
1751278787591751200,10.075751220703125,146.49375915527344,-24.168750762939453,8.30625057220459
1751278787601751300,10.085751220703125,146.49375915527344,-24.225000381469727,8.081250190734863
1751278787611751200,10.095751220703125,146.96250915527344,-24.20625114440918,7.743750095367432
1751278787621751300,10.105751220703125,147.16876220703125,-24.131250381469727,7.762500286102295
1751278787631751200,10.115751220703125,146.94375610351562,-24.150001525878906,7.856250286102295
1751278787641751300,10.125751220703124,147.28125,-24.093751907348633,7.968750476837158
1751278787651751200,10.135751220703124,147.4875030517578,-24.11250114440918,7.762500286102295
1751278787661751300,10.145751220703126,147.6750030517578,-23.90625,7.612500190734863
1751278787671751200,10.155751220703126,147.78750610351562,-23.83125114440918,7.593750476837158
1751278787681751300,10.165751220703125,148.18125915527344,-23.8125,7.462500095367432
1751278787691751200,10.175751220703125,148.40625,-24.01875114440918,7.650000095367432
1751278787701751300,10.185751220703125,148.76251220703125,-24.150001525878906,7.687500476837158
1751278787711751200,10.195751220703125,149.34375,-24.093751907348633,7.537500381469727
1751278787721751300,10.205751220703124,149.66250610351562,-24.075000762939453,7.537500381469727
1751278787731751200,10.215751220703124,149.88751220703125,-23.962501525878906,7.593750476837158
1751278787741751300,10.225751220703126,150.03750610351562,-24.131250381469727,7.650000095367432
1751278787751751200,10.235751220703126,150.45001220703125,-24.037500381469727,7.818750381469727
1751278787761751300,10.245751220703125,150.61875915527344,-24,7.875000476837158
1751278787771751200,10.255751220703125,150.78750610351562,-23.981250762939453,7.837500095367432
1751278787781751300,10.265751220703125,150.69375610351562,-23.83125114440918,7.706250190734863
1751278787791751200,10.275751220703125,150.69375610351562,-23.962501525878906,7.706250190734863
1751278787801751300,10.285751220703125,150.84375,-24,7.425000190734863
1751278787811751200,10.295751220703124,151.10626220703125,-23.962501525878906,7.237500190734863
1751278787821751300,10.305751220703126,151.4250030517578,-23.83125114440918,7.237500190734863
1751278787831751200,10.315751220703126,151.46250915527344,-23.700000762939453,7.162500381469727
1751278787841751300,10.325751220703125,151.3125,-23.625,7.462500095367432
1751278787851751200,10.335751220703125,151.35000610351562,-23.381250381469727,7.687500476837158
1751278787861751300,10.345751220703125,151.55625915527344,-23.475000381469727,7.837500095367432
1751278787871751200,10.355751220703125,151.66876220703125,-23.34375,8.02500057220459
1751278787881751300,10.365751220703125,151.74375915527344,-23.26875114440918,8.325000762939453
1751278787891751200,10.375751220703124,151.76251220703125,-23.381250381469727,8.4375
1751278787901751300,10.385751220703124,151.85626220703125,-23.493751525878906,8.475000381469727
1751278787911751200,10.395751220703126,152.10000610351562,-23.493751525878906,8.456250190734863
1751278787921751300,10.405751220703126,152.6437530517578,-23.53125,8.081250190734863
1751278787931751200,10.415751220703125,152.96250915527344,-23.662500381469727,7.837500095367432
1751278787941751300,10.425751220703125,153.5812530517578,-23.8125,7.875000476837158
1751278787951751200,10.435751220703125,153.84375,-23.756250381469727,7.875000476837158
1751278787961751300,10.445751220703125,154.27500915527344,-23.662500381469727,7.950000286102295
1751278787971751200,10.455751220703124,154.59375,-23.662500381469727,7.987500190734863
1751278787991751200,10.475751220703126,154.85626220703125,-23.55000114440918,8.0625
1751278788001751300,10.485751220703126,155.02500915527344,-23.53125,8.25
1751278788011751200,10.495751220703125,155.25,-23.4375,8.34375
1751278788021751300,10.505751220703125,155.3625030517578,-23.17500114440918,8.100000381469727
1751278788031751200,10.515751220703125,155.58750915527344,-23.118751525878906,8.02500057220459
1751278788041751300,10.525751220703125,155.77500915527344,-23.212501525878906,7.856250286102295
1751278788051751200,10.535751220703125,156.13125610351562,-23.0625,7.931250095367432
1751278788061751300,10.545751220703124,156.26251220703125,-23.006250381469727,8.006250381469727
1751278788071751200,10.555751220703126,156.69375610351562,-22.856250762939453,7.893750190734863
1751278788081751300,10.565751220703126,156.84375,-22.743751525878906,8.006250381469727
1751278788091751200,10.575751220703125,157.1437530517578,-22.725000381469727,8.175000190734863
1751278788101751300,10.585751220703125,157.35000610351562,-22.6875,8.418750762939453
1751278788111751200,10.595751220703125,157.66876220703125,-22.443750381469727,8.456250190734863
1751278788121751300,10.605751220703125,157.66876220703125,-22.3125,8.381250381469727
1751278788131751200,10.615751220703125,157.55625915527344,-22.368751525878906,8.287500381469727
1751278788141751300,10.625751220703124,157.78125,-22.462501525878906,8.15625
1751278788151751200,10.635751220703124,157.83750915527344,-22.5,8.193750381469727
1751278788161751300,10.645751220703126,157.95001220703125,-22.575000762939453,7.968750476837158
1751278788171751200,10.655751220703126,157.85626220703125,-22.575000762939453,7.931250095367432
1751278788181751300,10.665751220703125,157.91250610351562,-22.537500381469727,7.668750286102295
1751278788191751200,10.675751220703125,157.91250610351562,-22.650001525878906,7.443750381469727
1751278788201751300,10.685751220703125,158.21250915527344,-22.631250381469727,7.556250095367432
1751278788211751200,10.695751220703125,158.60626220703125,-22.537500381469727,7.668750286102295
1751278788221751300,10.705751220703124,158.70001220703125,-22.3125,7.650000095367432
1751278788231751200,10.715751220703124,158.9250030517578,-22.3125,7.612500190734863
1751278788241751300,10.725751220703126,159.15000915527344,-22.33125114440918,7.800000190734863
1751278788251751200,10.735751220703126,159.26251220703125,-22.200000762939453,7.725000381469727
1751278788261751300,10.745751220703125,159.33750915527344,-22.293750762939453,7.893750190734863
1751278788271751200,10.755751220703125,159.52500915527344,-22.350000381469727,8.081250190734863
1751278788281751300,10.765751220703125,159.375,-22.293750762939453,8.137500762939453
1751278788291751200,10.775751220703125,159.5625,-22.181251525878906,7.893750190734863
1751278788301751300,10.785751220703125,160.06875610351562,-22.23750114440918,7.837500095367432
1751278788311751200,10.795751220703124,159.9562530517578,-22.181251525878906,7.818750381469727
1751278788321751300,10.805751220703126,160.10626220703125,-21.975000381469727,7.706250190734863
1751278788331751200,10.815751220703126,160.59375,-21.86250114440918,7.631250381469727
1751278788341751300,10.825751220703125,160.91250610351562,-21.543750762939453,7.556250095367432
1751278788351751200,10.835751220703125,161.00625610351562,-21.150001525878906,7.612500190734863
1751278788361751300,10.845751220703125,161.38125610351562,-21.01875114440918,7.537500381469727
1751278788371751200,10.855751220703125,161.3625030517578,-20.943750381469727,7.725000381469727
1751278788381751300,10.865751220703125,161.41876220703125,-20.73750114440918,7.668750286102295
1751278788391751200,10.875751220703124,161.77500915527344,-20.700000762939453,7.500000476837158
1751278788401751300,10.885751220703124,161.98126220703125,-20.45625114440918,7.725000381469727
1751278788411751200,10.895751220703126,162.16876220703125,-20.606250762939453,7.931250095367432
1751278788421751300,10.905751220703126,162.3000030517578,-20.700000762939453,7.950000286102295
1751278788431751200,10.915751220703125,162.73126220703125,-20.943750381469727,7.837500095367432
1751278788441751300,10.925751220703125,162.9562530517578,-20.8125,8.006250381469727
1751278788451751200,10.935751220703125,163.18125915527344,-20.868751525878906,8.006250381469727
1751278788461751300,10.945751220703125,162.97500610351562,-21.037500381469727,8.006250381469727
1751278788471751200,10.955751220703124,163.1437530517578,-21,8.25
1751278788481751300,10.965751220703124,163.57501220703125,-21.01875114440918,8.02500057220459
1751278788491751200,10.975751220703126,163.59375,-20.943750381469727,8.006250381469727
1751278788501751300,10.985751220703126,163.6125030517578,-20.83125114440918,7.912500381469727
1751278788511751200,10.995751220703125,163.6125030517578,-20.681251525878906,8.043750762939453
1751278788521751300,11.005751220703125,163.35000610351562,-20.793750762939453,7.950000286102295
1751278788531751200,11.015751220703125,163.48126220703125,-20.83125114440918,8.100000381469727
1751278788541751300,11.025751220703125,163.85626220703125,-20.662500381469727,8.40000057220459
1751278788551751200,11.035751220703125,163.96875,-20.71875,8.53125
1751278788561751300,11.045751220703124,163.81875610351562,-20.850000381469727,8.4375
1751278788571751200,11.055751220703126,163.95001220703125,-20.8125,8.287500381469727
1751278788581751300,11.065751220703126,163.9875030517578,-20.64375114440918,8.40000057220459
1751278788591751200,11.075751220703125,164.25,-20.64375114440918,8.287500381469727
1751278788601751300,11.085751220703125,164.68125915527344,-20.606250762939453,8.231250762939453
1751278788611751200,11.095751220703125,164.79376220703125,-20.475000381469727,8.100000381469727
1751278788621751300,11.105751220703125,164.85000610351562,-20.381250381469727,7.931250095367432
1751278788631751200,11.115751220703125,164.96250915527344,-20.15625,7.875000476837158
1751278788641751300,11.125751220703124,165.1125030517578,-20.08125114440918,7.987500190734863
1751278788651751200,11.135751220703124,165.41250610351562,-20.118751525878906,8.100000381469727
1751278788661751300,11.145751220703126,165.54376220703125,-20.118751525878906,8.11875057220459
1751278788671751200,11.155751220703126,165.50625610351562,-19.912500381469727,8.325000762939453
1751278788681751300,11.165751220703125,165.61875915527344,-19.98750114440918,8.193750381469727
1751278788691751200,11.175751220703125,165.54376220703125,-19.59375,8.475000381469727
1751278788701751300,11.185751220703125,165.35626220703125,-19.5,8.475000381469727
1751278788711751200,11.195751220703125,165.43125915527344,-19.33125114440918,8.475000381469727
1751278788721751300,11.205751220703124,165.33750915527344,-19.387500762939453,8.512500762939453
1751278788731751200,11.215751220703124,165.16876220703125,-19.106250762939453,8.456250190734863
1751278788741751300,11.225751220703126,165.16876220703125,-19.106250762939453,8.550000190734863
1751278788751751200,11.235751220703126,165.2062530517578,-19.23750114440918,8.40000057220459
1751278788761751300,11.245751220703125,165.22500610351562,-19.125,8.700000762939453
1751278788771751200,11.255751220703125,165.3937530517578,-19.350000381469727,8.475000381469727
1751278788781751300,11.265751220703125,165.78750610351562,-19.368751525878906,8.71875
1751278788791751200,11.275751220703125,165.84375,-19.387500762939453,8.606250762939453
1751278788801751300,11.285751220703125,166.06875610351562,-19.23750114440918,8.625
1751278788811751200,11.295751220703124,166.20001220703125,-19.200000762939453,8.606250762939453
1751278788821751300,11.305751220703126,166.57501220703125,-19.200000762939453,8.53125
1751278788831751200,11.315751220703126,166.63125610351562,-19.012500762939453,8.643750190734863
1751278788841751300,11.325751220703125,166.7062530517578,-18.75,8.53125
1751278788851751200,11.335751220703125,167.11875915527344,-18.39375114440918,8.53125
1751278788861751300,11.345751220703125,167.4562530517578,-18.225000381469727,8.418750762939453
1751278788871751200,11.355751220703125,167.86875915527344,-18.318750381469727,8.456250190734863
1751278788881751300,11.365751220703125,167.98126220703125,-18.20625114440918,8.418750762939453
1751278788891751200,11.375751220703124,168.15000915527344,-18.075000762939453,8.475000381469727
1751278788901751300,11.385751220703124,168.22500610351562,-17.83125114440918,8.418750762939453
1751278788911751200,11.395751220703126,168.60000610351562,-17.8125,8.193750381469727
1751278788921751300,11.405751220703126,168.80625915527344,-17.90625,8.11875057220459
1751278788931751200,11.415751220703125,168.84375,-18.225000381469727,7.875000476837158
1751278788941751300,11.425751220703125,168.88125610351562,-18.337501525878906,7.950000286102295
1751278788951751200,11.435751220703125,168.71250915527344,-18.1875,7.725000381469727
1751278788961751300,11.445751220703125,168.84375,-18.11250114440918,7.556250095367432
1751278788971751200,11.455751220703124,169.10626220703125,-18.30000114440918,7.556250095367432
1751278788981751300,11.465751220703124,169.2375030517578,-18.65625,7.406250476837158
1751278788991751200,11.475751220703126,169.35000610351562,-18.67500114440918,7.425000190734863
1751278789001751300,11.485751220703126,169.38751220703125,-18.5625,7.668750286102295
1751278789011751200,11.495751220703125,169.18125915527344,-18.30000114440918,7.950000286102295
1751278789021751300,11.505751220703125,169.01251220703125,-18.1875,7.687500476837158
1751278789031751200,11.515751220703125,169.29376220703125,-18.30000114440918,7.875000476837158
1751278789041751300,11.525751220703125,169.35000610351562,-18.39375114440918,7.931250095367432
1751278789051751200,11.535751220703125,169.3125,-18.225000381469727,7.987500190734863
1751278789061751300,11.545751220703124,169.36875915527344,-18.037500381469727,8.0625
1751278789071751200,11.555751220703126,169.3125,-17.92500114440918,8.193750381469727
1751278789081751300,11.565751220703126,169.3312530517578,-17.92500114440918,7.968750476837158
1751278789091751200,11.575751220703125,169.6875,-18.075000762939453,7.612500190734863
1751278789101751300,11.585751220703125,169.875,-18.150001525878906,7.556250095367432
1751278789111751200,11.595751220703125,169.83750915527344,-18.037500381469727,7.462500095367432
1751278789121751300,11.605751220703125,169.93125915527344,-17.981250762939453,7.687500476837158
1751278789131751200,11.615751220703125,170.02500915527344,-17.868751525878906,7.500000476837158
1751278789141751300,11.625751220703124,169.95001220703125,-17.662500381469727,7.631250381469727
1751278789151751200,11.635751220703124,169.95001220703125,-17.4375,7.406250476837158
1751278789161751300,11.645751220703126,170.3625030517578,-17.26875114440918,7.443750381469727
1751278789171751200,11.655751220703126,170.3625030517578,-17.118751525878906,7.781250476837158
1751278789181751300,11.665751220703125,170.30625915527344,-17.025001525878906,8.02500057220459
1751278789191751200,11.675751220703125,170.60626220703125,-16.89375114440918,8.15625
1751278789201751300,11.685751220703125,170.77500915527344,-16.80000114440918,8.0625
1751278789211751200,11.695751220703125,170.75625610351562,-16.818750381469727,8.043750762939453
1751278789221751300,11.705751220703124,170.98126220703125,-16.837501525878906,7.987500190734863
1751278789231751200,11.715751220703124,171.09375,-17.006250381469727,8.100000381469727
1751278789241751300,11.725751220703126,171.2062530517578,-17.0625,8.043750762939453
1751278789251751200,11.735751220703126,171.45001220703125,-16.78125,7.931250095367432
1751278789261751300,11.745751220703125,171.78750610351562,-16.575000762939453,7.968750476837158
1751278789271751200,11.755751220703125,171.88125610351562,-16.481250762939453,7.893750190734863
1751278789281751300,11.765751220703125,172.0500030517578,-16.33125114440918,8.043750762939453
1751278789291751200,11.775751220703125,172.3312530517578,-16.256250381469727,8.15625
1751278789301751300,11.785751220703125,172.3312530517578,-16.05000114440918,8.231250762939453
1751278789311751200,11.795751220703124,172.59375,-15.881250381469727,8.568750381469727
1751278789321751300,11.805751220703126,172.4250030517578,-15.656250953674316,8.643750190734863
1751278789331751200,11.815751220703126,172.40625,-15.731250762939453,8.700000762939453
1751278789341751300,11.825751220703125,172.40625,-15.600000381469727,8.53125
1751278789351751200,11.835751220703125,172.18125915527344,-15.600000381469727,8.418750762939453
1751278789361751300,11.845751220703125,172.1437530517578,-15.61875057220459,8.268750190734863
1751278789371751200,11.855751220703125,172.10626220703125,-15.52500057220459,8.21250057220459
1751278789381751300,11.865751220703125,172.38751220703125,-15.543750762939453,8.100000381469727
1751278789391751200,11.875751220703124,172.6125030517578,-15.318750381469727,7.762500286102295
1751278789401751300,11.885751220703124,172.91250610351562,-15.24375057220459,7.856250286102295
1751278789411751200,11.895751220703126,173.04376220703125,-15.018750190734863,8.006250381469727
1751278789421751300,11.905751220703126,173.15625,-15.112500190734863,7.987500190734863
1751278789431751200,11.915751220703125,173.68125915527344,-14.943750381469727,8.25
1751278789441751300,11.925751220703125,174.05625915527344,-14.756250381469727,8.325000762939453
1751278789451751200,11.935751220703125,174.16876220703125,-14.531250953674316,8.512500762939453
1751278789461751300,11.945751220703125,174.3937530517578,-14.456250190734863,8.756250381469727
1751278789471751200,11.955751220703124,174.4875030517578,-14.21250057220459,8.850000381469727
1751278789481751300,11.965751220703124,174.61875915527344,-14.175000190734863,8.8125
1751278789491751200,11.975751220703126,175.01251220703125,-14.02500057220459,9.018750190734863
1751278789501751300,11.985751220703126,175.0500030517578,-13.781250953674316,9.1875
1751278789511751200,11.995751220703125,175.06875610351562,-13.668750762939453,9.318750381469727
1751278789521751300,12.005751220703125,175.29376220703125,-13.65000057220459,9.33750057220459
1751278789531751200,12.015751220703125,175.65000915527344,-13.425000190734863,9.393750190734863
1751278789541751300,12.025751220703125,175.83750915527344,-13.143750190734863,9.46875
1751278789551751200,12.035751220703125,176.2687530517578,-13.218750953674316,9.768750190734863
1751278789561751300,12.045751220703124,176.30625915527344,-12.99375057220459,9.918750762939453
1751278789571751200,12.055751220703126,176.4562530517578,-12.825000762939453,9.581250190734863
1751278789581751300,12.065751220703126,176.9250030517578,-12.675000190734863,9.787500381469727
1751278789591751200,12.075751220703125,177.16876220703125,-12.206250190734863,9.75
1751278789601751300,12.085751220703125,177.41250610351562,-11.943750381469727,9.768750190734863
1751278789611751200,12.095751220703125,177.35626220703125,-11.8125,9.768750190734863
1751278789621751300,12.105751220703125,177.33750915527344,-11.887500762939453,9.46875
1751278789631751200,12.115751220703125,177.09375,-11.77500057220459,9.393750190734863
1751278789641751300,12.125751220703124,177.26251220703125,-11.887500762939453,9.131250381469727
1751278789651751200,12.135751220703124,177.22500610351562,-11.925000190734863,9.112500190734863
1751278789661751300,12.145751220703126,177.2062530517578,-11.8125,8.981250762939453
1751278789671751200,12.155751220703126,177.45001220703125,-11.981250762939453,8.943750381469727
1751278789681751300,12.165751220703125,177.15000915527344,-11.90625,8.981250762939453
1751278789691751200,12.175751220703125,177.41250610351562,-12.05625057220459,9
1751278789701751300,12.185751220703125,177.54376220703125,-12.168750762939453,9.131250381469727
1751278789711751200,12.195751220703125,177.63751220703125,-12.168750762939453,9.131250381469727
1751278789721751300,12.205751220703124,177.65625,-11.90625,9.33750057220459
1751278789731751200,12.215751220703124,177.73126220703125,-11.831250190734863,9.637500762939453
1751278789741751300,12.225751220703126,177.73126220703125,-11.850000381469727,9.84375
1751278789751751200,12.235751220703126,177.61875915527344,-11.831250190734863,9.862500190734863
1751278789761751300,12.245751220703125,177.5625,-11.68125057220459,9.84375
1751278789771751200,12.255751220703125,177.65625,-11.550000190734863,9.9375
1751278789781751300,12.265751220703125,177.71250915527344,-11.137500762939453,10.143750190734863
1751278789791751200,12.275751220703125,177.73126220703125,-10.762500762939453,10.27500057220459
1751278789801751300,12.285751220703125,178.0500030517578,-10.443750381469727,10.3125
1751278789811751200,12.295751220703124,178.25625610351562,-10.3125,10.125
1751278789821751300,12.305751220703126,178.25625610351562,-10.050000190734863,10.162500381469727
1751278789831751200,12.315751220703126,178.21875,-10.08750057220459,10.3125
1751278789841751300,12.325751220703125,178.46250915527344,-10.200000762939453,10.387500762939453
1751278789851751200,12.335751220703125,178.21875,-10.08750057220459,10.256250381469727
1751278789861751300,12.345751220703125,178.06875610351562,-10.08750057220459,10.162500381469727
1751278789871751200,12.355751220703125,177.9375,-10.3125,9.9375
1751278789881751300,12.365751220703125,177.78750610351562,-10.46250057220459,9.99375057220459
1751278789891751200,12.375751220703124,177.60000610351562,-10.350000381469727,10.050000190734863
1751278789901751300,12.385751220703124,177.84375,-10.481250762939453,9.881250381469727
1751278789911751200,12.395751220703126,177.91876220703125,-10.125,9.825000762939453
1751278789921751300,12.405751220703126,177.9375,-9.881250381469727,9.956250190734863
1751278789931751200,12.415751220703125,178.44375610351562,-9.75,10.200000762939453
1751278789941751300,12.425751220703125,178.59375,-9.5625,10.5
1751278789951751200,12.435751220703125,178.78125,-9.393750190734863,10.762500762939453
1751278789961751300,12.445751220703125,179.04376220703125,-9.393750190734863,10.800000190734863
1751278789971751200,12.455751220703124,179.21250915527344,-9.375,11.15625
1751278789981751300,12.465751220703124,179.15625,-9.262500762939453,11.231250762939453
1751278789991751200,12.475751220703126,179.34375,-9.300000190734863,11.4375
1751278790001751300,12.485751220703126,179.40000915527344,-9.318750381469727,11.550000190734863
1751278790011751200,12.495751220703125,179.23126220703125,-9.28125,11.625
1751278790021751300,12.505751220703125,179.0812530517578,-9.15000057220459,11.737500190734863
1751278790031751200,12.515751220703125,179.1750030517578,-9.15000057220459,12
1751278790041751300,12.525751220703125,179.00625610351562,-9,12.05625057220459
1751278790051751200,12.535751220703125,178.6875,-9,11.831250190734863
1751278790061751300,12.545751220703124,178.72500610351562,-9.131250381469727,12.131250381469727
1751278790071751200,12.555751220703126,178.57501220703125,-8.96250057220459,12.262500762939453
1751278790081751300,12.565751220703126,178.7062530517578,-8.943750381469727,12.375000953674316
1751278790091751200,12.575751220703125,178.78125,-8.8125,12.318750381469727
1751278790101751300,12.585751220703125,178.8937530517578,-9.037500381469727,12.300000190734863
1751278790111751200,12.595751220703125,178.8937530517578,-8.925000190734863,12.318750381469727
1751278790121751300,12.605751220703125,179.04376220703125,-8.96250057220459,12.356250762939453
1751278790131751200,12.615751220703125,179.11875915527344,-8.68125057220459,12.450000762939453
1751278790141751300,12.625751220703124,179.19375610351562,-8.381250381469727,12.206250190734863
1751278790151751200,12.635751220703124,179.38125610351562,-8.325000762939453,11.90625
1751278790161751300,12.645751220703126,179.38125610351562,-8.137500762939453,11.643750190734863
1751278790171751200,12.655751220703126,179.49375915527344,-8.231250762939453,11.643750190734863
1751278790181751300,12.665751220703125,179.86875915527344,-8.02500057220459,11.381250381469727
1751278790191751200,12.675751220703125,179.9250030517578,-8.137500762939453,10.78125
1751278790201751300,12.685751220703125,180.16876220703125,-7.893750190734863,10.800000190734863
1751278790211751200,12.695751220703125,180.4875030517578,-8.006250381469727,10.350000381469727
1751278790221751300,12.705751220703124,180.73126220703125,-7.912500381469727,10.106250762939453
1751278790231751200,12.715751220703124,181.06875610351562,-8.0625,9.956250190734863
1751278790241751300,12.725751220703126,181.25625610351562,-8.137500762939453,9.75
1751278790251751200,12.735751220703126,181.4250030517578,-7.987500190734863,9.46875
1751278790261751300,12.745751220703125,181.55625915527344,-7.987500190734863,9.24375057220459
1751278790271751200,12.755751220703125,181.65000915527344,-7.875000476837158,9.131250381469727
1751278790281751300,12.765751220703125,181.48126220703125,-7.875000476837158,8.96250057220459
1751278790291751200,12.775751220703125,181.6125030517578,-7.950000286102295,9.075000762939453
1751278790301751300,12.785751220703125,181.53750610351562,-8.043750762939453,8.86875057220459
1751278790311751200,12.795751220703124,181.5,-8.02500057220459,8.887500762939453
1751278790321751300,12.805751220703126,181.72500610351562,-7.762500286102295,8.887500762939453
1751278790331751200,12.815751220703126,181.55625915527344,-7.875000476837158,8.8125
1751278790341751300,12.825751220703125,181.40625,-8.02500057220459,8.86875057220459
1751278790351751200,12.835751220703125,181.55625915527344,-7.987500190734863,9.262500762939453
1751278790361751300,12.845751220703125,181.65000915527344,-8.193750381469727,9.225000381469727
1751278790371751200,12.855751220703125,181.7062530517578,-8.081250190734863,9.300000190734863
1751278790381751300,12.865751220703125,181.7062530517578,-8.137500762939453,9.862500190734863
1751278790391751200,12.875751220703124,181.44375610351562,-8.21250057220459,9.80625057220459
1751278790401751300,12.885751220703124,181.125,-8.4375,10.012500762939453
1751278790411751200,12.895751220703126,181.1437530517578,-8.362500190734863,10.3125
1751278790421751300,12.905751220703126,181.125,-8.231250762939453,10.6875
1751278790431751200,12.915751220703125,180.75,-8.043750762939453,10.668750762939453
1751278790441751300,12.925751220703125,180.65625,-7.912500381469727,10.893750190734863
1751278790451751200,12.935751220703125,180.90000915527344,-7.875000476837158,11.100000381469727
1751278790461751300,12.945751220703125,181.06875610351562,-7.650000095367432,11.11875057220459
1751278790471751200,12.955751220703124,181.18125915527344,-7.368750095367432,11.381250381469727
1751278790481751300,12.965751220703124,181.38751220703125,-7.237500190734863,11.456250190734863
1751278790491751200,12.975751220703126,181.3312530517578,-7.068750381469727,11.550000190734863
1751278790501751300,12.985751220703126,181.46250915527344,-6.881250381469727,11.456250190734863
1751278790511751200,12.995751220703125,181.76251220703125,-6.956250190734863,11.512500762939453
1751278790521751300,13.005751220703125,181.76251220703125,-6.900000095367432,11.40000057220459
1751278790531751200,13.015751220703125,181.53750610351562,-6.787500381469727,11.418750762939453
1751278790541751300,13.025751220703125,181.36875915527344,-6.787500381469727,11.325000762939453
1751278790551751200,13.035751220703125,181.48126220703125,-6.862500190734863,11.49375057220459
1751278790561751300,13.045751220703124,181.18125915527344,-6.768750190734863,11.700000762939453
1751278790571751200,13.055751220703126,181.2375030517578,-6.825000286102295,11.662500381469727
1751278790581751300,13.065751220703126,181.29376220703125,-6.618750095367432,11.86875057220459
1751278790591751200,13.075751220703125,181.48126220703125,-6.487500190734863,12.018750190734863
1751278790601751300,13.085751220703125,181.5,-6.375000476837158,12.225000381469727
1751278790611751200,13.095751220703125,181.3125,-6.468750476837158,12.356250762939453
1751278790621751300,13.105751220703125,181.3312530517578,-6.431250095367432,12.52500057220459
1751278790631751200,13.115751220703125,181.06875610351562,-6.131250381469727,12.581250190734863
1751278790641751300,13.125751220703124,181.2375030517578,-6,12.412500381469727
1751278790651751200,13.135751220703124,181.10626220703125,-5.831250190734863,12.637500762939453
1751278790661751300,13.145751220703126,181.0500030517578,-5.925000190734863,12.43125057220459
1751278790671751200,13.155751220703126,180.99375915527344,-5.925000190734863,12.43125057220459
1751278790681751300,13.165751220703125,181.18125915527344,-5.850000381469727,12.61875057220459
1751278790691751200,13.175751220703125,181.44375610351562,-5.625,12.71250057220459
1751278790701751300,13.185751220703125,181.40625,-5.643750190734863,12.562500953674316
1751278790711751200,13.195751220703125,181.57501220703125,-5.71875,12.375000953674316
1751278790721751300,13.205751220703124,181.6875,-5.625,12.300000190734863
1751278790731751200,13.215751220703124,182.1750030517578,-5.456250190734863,12.187500953674316
1751278790741751300,13.225751220703126,182.1750030517578,-5.456250190734863,12.112500190734863
1751278790751751200,13.235751220703126,182.4375,-5.381250381469727,12.018750190734863
1751278790761751300,13.245751220703125,182.58750915527344,-5.25,11.925000190734863
1751278790771751200,13.255751220703125,182.94375610351562,-5.137500286102295,11.737500190734863
1751278790781751300,13.265751220703125,183.1875,-5.043750286102295,11.625
1751278790791751200,13.275751220703125,183.3937530517578,-4.875,11.700000762939453
1751278790801751300,13.285751220703125,183.61875915527344,-4.762500286102295,11.831250190734863
1751278790811751200,13.295751220703124,183.5625,-4.556250095367432,11.71875
1751278790821751300,13.305751220703126,183.91876220703125,-4.350000381469727,11.831250190734863
1751278790831751200,13.315751220703126,183.99375915527344,-4.087500095367432,11.981250762939453
1751278790841751300,13.325751220703125,183.90000915527344,-3.825000047683716,11.68125057220459
1751278790851751200,13.335751220703125,183.5625,-3.6937501430511475,11.90625
1751278790861751300,13.345751220703125,183.41250610351562,-3.3187501430511475,12.131250381469727
1751278790871751200,13.355751220703125,183.41250610351562,-3.1125001907348633,12.206250190734863
1751278790881751300,13.365751220703125,183.3937530517578,-2.9250001907348633,12.131250381469727
1751278790891751200,13.375751220703124,183.31875610351562,-2.90625,12.281250953674316
1751278790901751300,13.385751220703124,183.0187530517578,-2.71875,12.262500762939453
1751278790911751200,13.395751220703126,182.71875,-2.700000047683716,12.187500953674316
1751278790921751300,13.405751220703126,182.66250610351562,-2.7750000953674316,12.506250381469727
1751278790931751200,13.415751220703125,182.86875915527344,-2.6812500953674316,12.018750190734863
1751278790941751300,13.425751220703125,183.0187530517578,-2.6625001430511475,12.112500190734863
1751278790951751200,13.435751220703125,183.0187530517578,-2.6437501907348633,12.075000762939453
1751278790961751300,13.445751220703125,183.09375,-2.8500001430511475,12.206250190734863
1751278790971751200,13.455751220703124,183.03750610351562,-2.7375001907348633,12.15000057220459
1751278790981751300,13.465751220703124,183.45001220703125,-2.6437501907348633,12.187500953674316
1751278790991751200,13.475751220703126,183.61875915527344,-2.700000047683716,11.71875
1751278791001751300,13.485751220703126,183.69375610351562,-2.53125,11.34375
1751278791011751200,13.495751220703125,183.7687530517578,-2.25,11.362500190734863
1751278791021751300,13.505751220703125,184.1437530517578,-2.1000001430511475,11.006250381469727
1751278791031751200,13.515751220703125,184.5,-2.0625,10.668750762939453
1751278791041751300,13.525751220703125,184.78125,-1.6875001192092896,10.200000762939453
1751278791051751200,13.535751220703125,185.19375610351562,-1.5562500953674316,9.787500381469727
1751278791061751300,13.545751220703124,185.4375,-1.40625,9.262500762939453
1751278791071751200,13.555751220703126,185.75625610351562,-1.03125,9.28125
1751278791081751300,13.565751220703126,186.35626220703125,-0.9187500476837158,9.018750190734863
1751278791091751200,13.575751220703125,186.71250915527344,-0.9750000238418579,8.606250762939453
1751278791101751300,13.585751220703125,186.97500610351562,-0.9187500476837158,8.34375
1751278791111751200,13.595751220703125,187.18125915527344,-0.6937500238418579,8.11875057220459
1751278791121751300,13.605751220703125,187.3125,-0.6187500357627869,7.950000286102295
1751278791131751200,13.615751220703125,187.44375610351562,-0.581250011920929,7.987500190734863
1751278791141751300,13.625751220703124,187.3312530517578,-0.5437500476837158,8.006250381469727
