time,seconds_elapsed,z,y,x
1751620525242941400,0.14094140625,-0.014359474182128906,0.039602428674697876,-0.010979749262332916
1751620525280588500,0.178588623046875,0.0023736953735351562,0.025926321744918823,-0.03728771209716797
1751620525337059300,0.235059326171875,0.06251144409179688,-0.03946727514266968,0.10963178426027298
1751620525374706700,0.272706787109375,0.05420684814453125,0.10595601797103882,-0.0019286274909973145
1751620525402942000,0.30094189453125,0.01706981658935547,-0.0921231061220169,-0.13347120583057404
1751620525421765600,0.319765625,0.009552955627441406,0.07743123173713684,-0.11724717915058136
1751620525440589000,0.338589111328125,-0.013035774230957031,0.2908756732940674,-0.02715516835451126
1751620525459412700,0.357412841796875,0.026213645935058594,0.1639266461133957,-0.075041763484478
1751620525478236400,0.376236328125,0.08578968048095703,-0.10134559869766235,-0.09686001390218735
1751620525497059800,0.395059814453125,0.04644012451171875,-0.10239995270967484,-0.02673690766096115
1751620525515883500,0.413883544921875,0.02752399444580078,0.008720383048057556,0.08418276906013489
1751620525534707200,0.432707275390625,-0.014247894287109375,0.02540011703968048,0.1343582570552826
1751620525553531000,0.45153076171875,-0.009339332580566406,-0.15089035034179688,0.06233711168169975
1751620525572354300,0.470354248046875,-0.014627456665039062,-0.1796300709247589,0.022138744592666626
1751620525591178000,0.489177978515625,-0.03936195373535156,-0.02698245644569397,0.01656290888786316
1751620525610001700,0.508001708984375,-0.0718069076538086,0.16288422048091888,-0.0031965598464012146
1751620525628825000,0.5268251953125,-0.04266643524169922,0.10902455449104309,-0.031208805739879608
1751620525647648800,0.545648681640625,0.01810455322265625,-0.02507096529006958,-0.09003687649965286
1751620525666472400,0.564472412109375,0.021856307983398438,0.01851208508014679,-0.07705806940793991
1751620525685296000,0.583296142578125,0.007390022277832031,0.12464188039302826,-0.023084312677383423
1751620525704119600,0.60211962890625,0.022008895874023438,0.09625357389450073,0.0006524547934532166
1751620525722943200,0.620943115234375,-0.010355949401855469,-0.03769761323928833,0.0014258772134780884
1751620525741767000,0.639766845703125,0.2108154296875,-0.16212913393974304,0.02059897780418396
1751620525760590600,0.658590576171875,0.00542449951171875,-0.1040458083152771,0.1271708905696869
1751620525779414000,0.6774140625,-0.013029098510742188,0.08092686533927917,0.12736685574054718
1751620525798237700,0.69623779296875,-0.0078105926513671875,-0.020488053560256958,0.03432603180408478
1751620525817061400,0.715061279296875,0.00554656982421875,-0.1735229790210724,-0.06938563287258148
1751620525835885000,0.733885009765625,-0.014557838439941406,-0.0742739588022232,-0.039100758731365204
1751620525854708500,0.75270849609375,-0.057445526123046875,0.0766444206237793,0.06496305763721466
1751620525873532200,0.7715322265625,-0.04754447937011719,0.22721892595291138,0.0016763582825660706
1751620525892355800,0.79035595703125,-0.004561424255371094,0.04633037745952606,-0.1152506172657013
1751620525911179300,0.80917919921875,0.05605602264404297,-0.06686411798000336,-0.17195017635822296
1751620525930003000,0.8280029296875,0.04086494445800781,0.11332830786705017,-0.08241502195596695
1751620525948826600,0.84682666015625,0.012926101684570312,0.15094098448753357,0.03671657294034958
1751620525967650300,0.865650390625,0.051163673400878906,-0.0689723789691925,0.08191166818141937
1751620525986473700,0.8844736328125,0.04577922821044922,-0.19663193821907043,0.0791671872138977
1751620526005297400,0.90329736328125,0.035635948181152344,-0.1335836797952652,0.08123411983251572
1751620526024121000,0.92212109375,-0.016595840454101562,-0.012484446167945862,0.06447233259677887
1751620526042944800,0.94094482421875,-0.016275405883789062,-0.022087961435317993,0.06209840998053551
1751620526061768400,0.9597685546875,-0.011729240417480469,-0.05897629261016846,0.022949106991291046
1751620526080592000,0.978591796875,-0.02639484405517578,-0.029229044914245605,-0.019952379167079926
1751620526099415600,0.99741552734375,-0.012339591979980469,0.0505489856004715,-0.0377962663769722
1751620526118239200,1.0162392578125,-0.00298309326171875,0.10906246304512024,-0.04140999913215637
1751620526137063000,1.03506298828125,0.02998065948486328,0.14765861630439758,-0.08664408326148987
1751620526155886300,1.05388623046875,0.020209312438964844,0.1655944436788559,-0.18624481558799744
1751620526174710000,1.0727099609375,0.06236457824707031,0.11821393668651581,-0.17051275074481964
1751620526193533700,1.09153369140625,0.033397674560546875,0.14725011587142944,-0.1135033667087555
1751620526212357400,1.110357421875,0.009700775146484375,0.10068592429161072,-0.002658255398273468
1751620526231180800,1.129180908203125,0.02411937713623047,-0.018853023648262024,0.05792776495218277
1751620526250004500,1.14800439453125,0.014140129089355469,-0.1624346375465393,0.07942157983779907
1751620526268828200,1.166828125,-0.0050754547119140625,-0.22199971973896027,0.1048474982380867
1751620526287651800,1.18565185546875,-0.010243415832519531,-0.18189124763011932,0.14788062870502472
1751620526306475300,1.204475341796875,-0.02959156036376953,-0.14325663447380066,0.1571458876132965
1751620526325299000,1.223298828125,-0.029626846313476562,-0.1201065182685852,0.07720956951379776
1751620526344122600,1.24212255859375,-0.02032947540283203,-0.05104994773864746,0.00937698781490326
1751620526362946300,1.2609462890625,-0.011104583740234375,0.01540897786617279,-0.05637215077877045
1751620526381769700,1.279769775390625,0.007855415344238281,0.10327565670013428,-0.06850016862154007
1751620526400593400,1.298593505859375,0.021950721740722656,0.11846120655536652,-0.08497355878353119
1751620526419417000,1.3174169921875,0.0407562255859375,0.11455307900905609,-0.07275071740150452
1751620526438240800,1.33624072265625,0.05446624755859375,0.09248286485671997,-0.05144723504781723
1751620526457064400,1.355064453125,0.049289703369140625,0.061835601925849915,-0.007482960820198059
1751620526475887900,1.373887939453125,0.02075672149658203,0.003694579005241394,-0.01160895824432373
1751620526494711600,1.392711669921875,0.020618438720703125,-0.02468082308769226,0.016444332897663116
1751620526513535200,1.41153515625,-0.0032806396484375,-0.0703914612531662,0.03918011486530304
1751620526532359000,1.43035888671875,-0.01760578155517578,-0.06780721247196198,0.05194894224405289
1751620526551182300,1.449182373046875,-0.02745819091796875,-0.033102989196777344,0.026622474193572998
1751620526570006000,1.468006103515625,-0.04176616668701172,-0.004126757383346558,-0.002384088933467865
1751620526588829700,1.48682958984375,-0.018265724182128906,0.005381837487220764,-0.006902389228343964
1751620526607653400,1.5056533203125,-0.009190559387207031,0.005399644374847412,-0.03480076044797897
1751620526626477000,1.52447705078125,0.014093399047851562,-0.009172618389129639,-0.010594874620437622
1751620526645300500,1.543300537109375,0.027822494506835938,-0.004170089960098267,0.013005129992961884
1751620526664124200,1.562124267578125,0.04666614532470703,0.000982046127319336,0.01273435354232788
1751620526682947800,1.58094775390625,0.051239013671875,-0.017881736159324646,0.007606081664562225
1751620526701771500,1.599771484375,0.05111503601074219,-0.012627452611923218,0.0029144287109375
1751620526720595200,1.61859521484375,0.04134845733642578,-0.002918154001235962,0.0026934370398521423
1751620526739418600,1.637418701171875,0.03206062316894531,0.020587876439094543,-0.0019124224781990051
1751620526758242300,1.6562421875,0.012804031372070312,0.005748197436332703,-0.020595766603946686
1751620526777066000,1.67506591796875,-0.020481109619140625,0.0008892863988876343,-0.019916407763957977
1751620526795889700,1.6938896484375,-0.03964805603027344,-0.008716508746147156,-0.005188480019569397
1751620526814713300,1.71271337890625,-0.044457435607910156,0.02431514859199524,0.004279404878616333
1751620526833536800,1.731536865234375,-0.03514671325683594,0.004995673894882202,0.008259676396846771
1751620526852360400,1.7503603515625,-0.02559185028076172,-0.013563230633735657,0.017191633582115173
1751620526871184100,1.76918408203125,0.01674365997314453,-0.04115326702594757,0.02117278426885605
1751620526890007800,1.7880078125,0.0070133209228515625,-0.012145668268203735,0.006435878574848175
1751620526908831200,1.806831298828125,0.04490089416503906,0.002222970128059387,0.001674465835094452
1751620526927655000,1.825655029296875,0.04953575134277344,0.002187684178352356,-0.0026605650782585144
1751620526946478600,1.844478515625,0.04468250274658203,0.01595628261566162,-0.02116233855485916
1751620526965302300,1.86330224609375,0.03975391387939453,0.0386815071105957,-0.03928595036268234
1751620526984126000,1.8821259765625,0.0017337799072265625,0.02339814603328705,-0.024188563227653503
1751620527002949400,1.900949462890625,-0.003108978271484375,0.018187373876571655,-0.01414112001657486
1751620527021773000,1.91977294921875,-0.017518043518066406,-0.019603073596954346,-0.004662968218326569
1751620527040596700,1.9385966796875,-0.05576515197753906,-0.00477050244808197,0.018352419137954712
1751620527059420400,1.95742041015625,-0.04129791259765625,-0.03243124485015869,0.022100932896137238
1751620527078243800,1.976243896484375,-0.027307510375976562,-0.036068543791770935,0.020980432629585266
1751620527097067500,1.995067626953125,0.0012826919555664062,-0.020637735724449158,0.02032274752855301
1751620527115891200,2.01389111328125,0.01974964141845703,-0.015206009149551392,0.029068514704704285
1751620527134715000,2.03271484375,0.029135704040527344,0.003959059715270996,0.00014524906873703003
1751620527153538600,2.05153857421875,0.04817485809326172,0.022426337003707886,-0.00436912477016449
1751620527172362200,2.0703623046875,0.04336738586425781,0.026431426405906677,-0.027481183409690857
1751620527191185700,2.089185546875,0.04342365264892578,0.03955666720867157,-0.007905766367912292
1751620527210009300,2.10800927734375,0.02888965606689453,0.019540950655937195,-0.02156011015176773
1751620527228833000,2.1268330078125,-0.013869285583496094,0.027982845902442932,-0.025603212416172028
1751620527247656700,2.14565673828125,-0.03270721435546875,0.00845693051815033,0.007861658930778503
1751620527266480400,2.16448046875,-0.027861595153808594,-0.01994432508945465,0.007437877357006073
1751620527294715600,2.192715576171875,0.03839302062988281,-0.014345631003379822,0.016395874321460724
1751620527313539300,2.211539306640625,0.03359508514404297,-0.018540337681770325,0.030239075422286987
1751620527332363000,2.230363037109375,0.014678955078125,-0.013309657573699951,0.015355676412582397
1751620527351186700,2.249186767578125,0.005093574523925781,-0.017582178115844727,-0.003975093364715576
1751620527370010000,2.268010009765625,-0.023703575134277344,-0.016849517822265625,-0.004233658313751221
1751620527388833800,2.286833740234375,-0.033194541931152344,0.006964355707168579,-0.004373423755168915
1751620527407657500,2.305657470703125,-0.023860931396484375,0.016187146306037903,-0.018501199781894684
1751620527426481200,2.324481201171875,-0.03350353240966797,0.015379577875137329,-0.018169328570365906
1751620527445304800,2.343304931640625,-0.03365325927734375,0.01980888843536377,-0.022429265081882477
1751620527464128300,2.362128173828125,-0.014422416687011719,0.03323212265968323,-0.007696695625782013
1751620527482952000,2.380951904296875,0.02330780029296875,0.022994741797447205,-0.007244043052196503
1751620527501775600,2.399775634765625,0.0327301025390625,0.003560185432434082,-0.007116325199604034
1751620527520599300,2.418599365234375,0.047097206115722656,0.013002157211303711,-0.007230013608932495
1751620527539423000,2.437423095703125,0.06099224090576172,0.017312780022621155,0.002527683973312378
1751620527558246400,2.456246337890625,0.02297687530517578,0.007363244891166687,-0.006860718131065369
1751620527577070000,2.475070068359375,0.0042552947998046875,0.00248032808303833,0.002806328237056732
1751620527595893800,2.493893798828125,-0.000514984130859375,-0.01627853512763977,0.016747556626796722
1751620527614717400,2.512717529296875,-0.02889251708984375,-0.034416064620018005,0.020896516740322113
1751620527633540900,2.531540771484375,-0.043074607849121094,-0.03320775926113129,0.024706736207008362
1751620527652364500,2.550364501953125,-0.029024124145507812,-0.027725696563720703,0.00956745445728302
1751620527671188200,2.569188232421875,-0.010573387145996094,-0.031473904848098755,-0.005067721009254456
1751620527690012000,2.588011962890625,-0.015714645385742188,0.0023135393857955933,-0.000586189329624176
1751620527708835600,2.606835693359375,0.00292205810546875,-0.0022695809602737427,0.0039862096309661865
1751620527727659300,2.6256591796875,0.021727561950683594,0.016437217593193054,-0.0055515095591545105
1751620527746482700,2.644482666015625,0.05026531219482422,0.043931975960731506,-0.019406922161579132
1751620527765306400,2.663306396484375,0.05001544952392578,0.056711599230766296,-0.032651133835315704
1751620527784130000,2.682130126953125,0.021694183349609375,0.04067419469356537,-0.05004218965768814
1751620527802953700,2.70095361328125,0.031250953674316406,0.02508598566055298,-0.010940589010715485
1751620527821777400,2.71977734375,0.012019157409667969,-0.01763831079006195,0.008046813309192657
1751620527840600800,2.738600830078125,-0.025789260864257812,-0.04525730013847351,0.016950160264968872
1751620527859424500,2.757424560546875,-0.0443878173828125,-0.05784013122320175,0.02070213109254837
1751620527878248200,2.776248291015625,-0.03476428985595703,-0.04216267168521881,0.043043315410614014
1751620527897071900,2.79507177734375,-0.044281959533691406,-0.008100301027297974,-0.0005752816796302795
1751620527915895600,2.8138955078125,-0.015837669372558594,-0.0031639188528060913,-0.010201141238212585
1751620527934719000,2.832718994140625,0.0026464462280273438,-0.00756719708442688,-0.009704895317554474
1751620527953542700,2.851542724609375,0.016754150390625,0.030137106776237488,-0.014007516205310822
1751620527972366300,2.870366455078125,0.012198448181152344,0.01486101746559143,0.0005753561854362488
1751620527991190000,2.88918994140625,0.03610992431640625,0.01911260187625885,0.005451321601867676
1751620528010013700,2.908013671875,0.054996490478515625,-0.004697948694229126,-0.017912350594997406
1751620528028837000,2.926837158203125,0.04541206359863281,-0.0043935626745224,-0.007719367742538452
1751620528047660800,2.945660888671875,0.021715164184570312,0.014376863837242126,-0.016765311360359192
1751620528066484500,2.964484375,0.0024862289428710938,0.00918799638748169,-0.002094954252243042
1751620528085308200,2.98330810546875,-0.021282196044921875,-0.028333693742752075,0.011808604001998901
1751620528104131800,3.0021318359375,-0.035793304443359375,-0.027672022581100464,0.0065858811140060425
1751620528122955300,3.020955322265625,-0.050060272216796875,-0.03659965097904205,0.020361199975013733
1751620528141779000,3.039779052734375,-0.054599761962890625,0.006376892328262329,0.0056045204401016235
1751620528160602600,3.0586025390625,-0.03985309600830078,0.015462219715118408,-0.008899644017219543
1751620528179426300,3.07742626953125,-0.001750946044921875,0.014913871884346008,-0.027473367750644684
1751620528198250000,3.09625,0.02638530731201172,-0.009068518877029419,-0.03597663342952728
1751620528226485200,3.1244853515625,-0.049279212951660156,0.023425891995429993,-0.01609596610069275
1751620528245309000,3.143308837890625,-0.05408000946044922,0.017906054854393005,-0.006200186908245087
1751620528264132600,3.162132568359375,-0.035198211669921875,-0.019522622227668762,-0.006155453622341156
1751620528282956300,3.180956298828125,-0.020936965942382812,-0.00009091198444366455,-0.02030269056558609
1751620528301780000,3.199780029296875,-0.0018930435180664062,-0.004721879959106445,0.01283939927816391
1751620528320603400,3.218603271484375,0.021780014038085938,0.00006552040576934814,0.017070941627025604
1751620528339427000,3.237427001953125,0.04552936553955078,-0.03249342739582062,0.016269870102405548
1751620528358250800,3.256250732421875,0.06449508666992188,0.0012487173080444336,-0.002930566668510437
1751620528377074400,3.275074462890625,0.031147003173828125,0.019913509488105774,-0.012398265302181244
1751620528395898000,3.293898193359375,0.0313720703125,0.023684367537498474,-0.02155669778585434
1751620528414721800,3.3127216796875,0.007826805114746094,0.008742332458496094,-0.02073344588279724
1751620528433545200,3.331545166015625,0.012116432189941406,-0.0009637176990509033,-0.015463069081306458
1751620528452369000,3.350368896484375,-0.026088714599609375,0.01764865219593048,0.0034779831767082214
1751620528471192600,3.369192626953125,-0.04522895812988281,-0.0014523118734359741,0.0033615529537200928
1751620528490016300,3.388016357421875,-0.040676116943359375,-0.02470429241657257,-0.010758399963378906
1751620528508839700,3.406839599609375,-0.031098365783691406,-0.019187644124031067,-0.0060924142599105835
1751620528527663400,3.425663330078125,-0.0028553009033203125,0.00018584728240966797,-0.010723404586315155
1751620528546487000,3.444487060546875,0.020689964294433594,0.009553089737892151,-0.010807313024997711
1751620528565310700,3.463310791015625,0.029886245727539062,-0.004651561379432678,-0.0011163651943206787
1751620528584134400,3.482134521484375,0.04411506652832031,0.000009745359420776367,0.003938645124435425
1751620528602958000,3.5009580078125,0.05818653106689453,0.01400841772556305,0.003842569887638092
1751620528621781500,3.519781494140625,0.03437995910644531,-0.009711802005767822,0.013015516102313995
1751620528640605200,3.538605224609375,0.02493000030517578,-0.0048048049211502075,0.01736994832754135
1751620528659428900,3.557428955078125,0.02002716064453125,0.0047267526388168335,-0.0112466961145401
1751620528678252500,3.57625244140625,-0.027379989624023438,-0.01888696849346161,-0.010953009128570557
1751620528697076000,3.595075927734375,-0.04130077362060547,0.0044746845960617065,-0.015376776456832886
1751620528715899600,3.613899658203125,-0.046212196350097656,0.009262099862098694,-0.010558128356933594
1751620528734723300,3.632723388671875,-0.051116943359375,0.004288867115974426,-0.005661599338054657
1751620528753547000,3.651547119140625,-0.03679943084716797,-0.01910819113254547,-0.0058699846267700195
1751620528772370700,3.67037060546875,-0.012993812561035156,-0.009496569633483887,-0.0010965466499328613
1751620528791194400,3.6891943359375,0.024690628051757812,0.009365975856781006,-0.0010617971420288086
1751620528810017800,3.708017822265625,0.029598236083984375,-0.014008954167366028,-0.0007572844624519348
1751620528828841500,3.726841552734375,0.043837547302246094,-0.009116724133491516,-0.009954914450645447
1751620528847665200,3.7456650390625,0.0674886703491211,0.005263298749923706,0.013782650232315063
1751620528866488800,3.76448876953125,0.034198760986328125,-0.004441112279891968,0.013486102223396301
1751620528885312500,3.7833125,0.015265464782714844,0.019036784768104553,-0.010300010442733765
1751620528904136000,3.802135986328125,0.001270294189453125,0.008954286575317383,0.004078194499015808
1751620528922959600,3.820959716796875,-0.022538185119628906,-0.0006840229034423828,-0.005707010626792908
1751620528941783300,3.839783203125,-0.041716575622558594,-0.0005135387182235718,0.003968462347984314
1751620528960607000,3.85860693359375,-0.041670799255371094,-0.014732256531715393,-0.005734719336032867
1751620528979430700,3.8774306640625,-0.04170417785644531,-0.014363318681716919,-0.0013579130172729492
1751620528998254300,3.89625439453125,-0.02291393280029297,-0.004830077290534973,-0.0013610869646072388
1751620529017077800,3.915077880859375,-0.0040378570556640625,0.009407609701156616,0.012643203139305115
1751620529035901400,3.9339013671875,0.014995574951171875,-0.00024443864822387695,-0.015587486326694489
1751620529054725000,3.95272509765625,0.04814720153808594,-0.004669994115829468,0.008377261459827423
1751620529073548800,3.971548828125,0.03863525390625,-0.01396767795085907,0.0036638453602790833
1751620529092372200,3.990372314453125,0.05288887023925781,-0.009110584855079651,-0.0013534128665924072
1751620529111196000,4.00919580078125,0.033728599548339844,-0.018497973680496216,-0.0014651864767074585
1751620529130019600,4.02801953125,0.0053195953369140625,-0.013692721724510193,-0.005776666104793549
1751620529148843300,4.04684326171875,-0.027482986450195312,0.0005223453044891357,0.0037461072206497192
1751620529167667000,4.0656669921875,-0.04163360595703125,0.000387042760848999,0.0035423412919044495
1751620529186490600,4.08449072265625,-0.046535491943359375,-0.013637751340866089,-0.0012803077697753906
1751620529205314000,4.10331396484375,-0.037075042724609375,-0.004050061106681824,-0.001286052167415619
1751620529224137700,4.1221376953125,-0.037262916564941406,0.0008622705936431885,-0.010389648377895355
1751620529242961400,4.14096142578125,-0.01375579833984375,-0.01348036527633667,0.017984166741371155
1751620529261785000,4.15978515625,0.005364418029785156,0.006016343832015991,0.00361613929271698
1751620529280608800,4.17860888671875,0.03357887268066406,-0.0033654719591140747,0.0036091357469558716
1751620529299432200,4.19743212890625,0.028781890869140625,-0.007843494415283203,-0.010515302419662476
1751620529318255900,4.216255859375,0.05269432067871094,-0.0033904165029525757,0.003948412835597992
1751620529337079600,4.23507958984375,0.03840160369873047,-0.012622520327568054,-0.0008894801139831543
1751620529355903200,4.2539033203125,0.04317188262939453,-0.0029906034469604492,0.013102911412715912
1751620529374726700,4.2727265625,0.009507179260253906,-0.011999398469924927,-0.005918122828006744
1751620529393550300,4.29155029296875,-0.019278526306152344,0.00721307098865509,-0.010665200650691986
1751620529412374000,4.3103740234375,-0.033153533935546875,0.011595606803894043,-0.0010574683547019958
1751620529431197700,4.32919775390625,-0.0471954345703125,0.016145750880241394,-0.005619607865810394
1751620529450021400,4.348021484375,-0.047283172607421875,-0.01242758333683014,-0.005594119429588318
1751620529468845000,4.366844970703125,-0.02838897705078125,-0.016728505492210388,-0.015170000493526459
1751620529487668500,4.38566845703125,0.0045490264892578125,-0.025704100728034973,0.008547462522983551
1751620529506492200,4.4044921875,-0.009718894958496094,0.012440532445907593,0.003591194748878479
1751620529525315800,4.42331591796875,0.023545265197753906,-0.006601676344871521,0.003312237560749054
1751620529544139500,4.442139404296875,0.04716014862060547,-0.006347730755805969,0.008095905184745789
1751620529562963200,4.460963134765625,0.051876068115234375,0.012488514184951782,-0.001301392912864685
1751620529581786600,4.47978662109375,0.04710197448730469,0.012112647294998169,0.0034478306770324707
1751620529600610300,4.4986103515625,0.023427963256835938,0.00688643753528595,-0.010550029575824738
1751620529619434000,4.51743408203125,-0.00518798828125,-0.007767528295516968,-0.015065588057041168
1751620529638257700,4.536257568359375,-0.03356742858886719,-0.0028910189867019653,-0.010176949203014374
1751620529657081300,4.555081298828125,-0.02877330780029297,-0.012216180562973022,-0.010314486920833588
1751620529675904800,4.57390478515625,-0.038489341735839844,-0.0024401843547821045,-0.005898520350456238
1751620529694728400,4.592728515625,-0.04772663116455078,-0.006948158144950867,-0.010883420705795288
1751620529713552100,4.61155224609375,-0.009601593017578125,0.012066677212715149,-0.0016943812370300293
1751620529732375800,4.630375732421875,-0.00018596649169921875,0.0022164136171340942,-0.0065026432275772095
1751620529751199500,4.649199462890625,0.009467124938964844,0.001946672797203064,-0.03460296243429184
1751620529770023000,4.66802294921875,0.03785991668701172,-0.0030218958854675293,0.008735418319702148
1751620529788846600,4.6868466796875,0.04727649688720703,-0.0031190961599349976,0.0038532912731170654
1751620529807670300,4.705670166015625,0.042499542236328125,-0.012467995285987854,0.01795608550310135
1751620529826494000,4.724493896484375,0.028154373168945312,-0.007626742124557495,0.022335946559906006
1751620529845317400,4.7433173828125,0.004558563232421875,-0.0028658807277679443,0.007749319076538086
1751620529864141000,4.76214111328125,-0.014417648315429688,0.01110348105430603,-0.0300770103931427
1751620529882964700,4.78096484375,-0.03355121612548828,0.015434607863426208,-0.010809801518917084
1751620529901788400,4.799788330078125,-0.028990745544433594,-0.008252471685409546,-0.0011225342750549316
1751620529920612000,4.818612060546875,-0.03877830505371094,-0.0128011554479599,0.017426542937755585
1751620529939435500,4.837435546875,-0.03859424591064453,-0.00802546739578247,0.01206277310848236
1751620529958259200,4.85625927734375,-0.01488494873046875,-0.012427270412445068,-0.007129140198230743
1751620529977083000,4.875082763671875,-0.0005903244018554688,-0.0026148706674575806,-0.0068667978048324585
1751620529995906600,4.893906494140625,0.023118972778320312,0.011515825986862183,0.002725757658481598
1751620530014730200,4.912730224609375,0.046828269958496094,0.006357103586196899,-0.001879282295703888
1751620530033553700,4.9315537109375,0.046848297119140625,-0.007932513952255249,-0.006679616868495941
1751620530052377300,4.95037744140625,0.03729820251464844,0.0015762299299240112,-0.01602717489004135
1751620530071201000,4.969200927734375,0.008768081665039062,0.006220430135726929,-0.015687689185142517
1751620530090024700,4.988024658203125,-0.009717941284179688,0.010287061333656311,-0.010621614754199982
1751620530108848400,5.006848388671875,-0.01935863494873047,-0.013512939214706421,-0.005567990243434906
1751620530127671800,5.025671875,-0.03370189666748047,-0.003740638494491577,-0.0009148716926574707
1751620530146495500,5.04449560546875,-0.033924102783203125,0.001711726188659668,0.012964293360710144
1751620530165319200,5.063319091796875,-0.04370403289794922,-0.007402867078781128,0.008063562214374542
1751620530184142800,5.082142822265625,-0.033946990966796875,0.01617477834224701,-0.0018853545188903809
1751620530202966500,5.100966552734375,-0.014706611633300781,0.001953423023223877,-0.0019814297556877136
1751620530221790000,5.1197900390625,0.027894020080566406,0.006979167461395264,-0.011250793933868408
1751620530240613600,5.138613525390625,0.023286819458007812,0.0023932605981826782,-0.006331406533718109
1751620530259437300,5.157437255859375,0.05169391632080078,-0.002196699380874634,0.0028977766633033752
1751620530278261000,5.176260986328125,0.05163288116455078,0.016267016530036926,0.012639954686164856
1751620530297084400,5.19508447265625,0.04200267791748047,0.011170700192451477,-0.0013461858034133911
1751620530315908000,5.213908203125,0.01818370819091797,0.005975633859634399,-0.0012694597244262695
1751620530334731800,5.232731689453125,-0.015122413635253906,-0.017714381217956543,-0.006091773509979248
1751620530353555500,5.251555419921875,-0.015095710754394531,0.006001949310302734,0.0032544881105422974
1751620530372379100,5.270379150390625,-0.043773651123046875,0.0201168954372406,0.007537543773651123
1751620530391202600,5.28920263671875,-0.04836750030517578,0.0010931193828582764,-0.011616982519626617
1751620530410026200,5.308026123046875,-0.038848876953125,-0.008237525820732117,-0.00695454329252243
1751620530428850000,5.326849853515625,-0.029252052307128906,-0.012755408883094788,-0.002412460744380951
1751620530447673600,5.345673583984375,0.013360977172851562,0.010843545198440552,-0.007273562252521515
1751620530466497000,5.3644970703125,0.036917686462402344,0.01541854441165924,0.0026124119758605957
1751620530485320700,5.38332080078125,0.04149913787841797,0.015058010816574097,-0.01614215224981308
1751620530504144400,5.402144287109375,0.050868988037109375,0.005407959222793579,-0.006543949246406555
1751620530522968000,5.420968017578125,0.04604339599609375,0.010383352637290955,-0.011145390570163727
1751620530541791500,5.43979150390625,0.04098320007324219,0.0011103898286819458,-0.001667715609073639
1751620530560615200,5.458615234375,0.012240409851074219,-0.007744461297988892,0.0072759464383125305
1751620530579438800,5.47743896484375,-0.02119731903076172,-0.04453641176223755,0.030047081410884857
1751620530598262500,5.496262451171875,-0.030630111694335938,-0.07524948567152023,0.0374433770775795
1751620530617086200,5.515086181640625,-0.045004844665527344,-0.09571857005357742,0.04483918845653534
1751620530635909600,5.53390966796875,-0.025638580322265625,-0.02203744649887085,0.010292693972587585
1751620530654733300,5.5527333984375,-0.010828971862792969,0.03455173969268799,0.01906789094209671
1751620530673557000,5.571556884765625,-0.01532745361328125,0.05629412829875946,-0.01426522433757782
1751620530692380700,5.590380615234375,0.01309967041015625,0.050402745604515076,-0.04154587537050247
1751620530711204000,5.6092041015625,0.018158912658691406,0.12317883968353271,-0.053856976330280304
1751620530730027800,5.62802783203125,0.013790130615234375,0.10979671776294708,-0.061178140342235565
1751620530748851500,5.6468515625,0.027841567993164062,0.02246721088886261,-0.06857848912477493
1751620530767675100,5.665675048828125,0.018526077270507812,-0.006019696593284607,-0.019573569297790527
1751620530786498800,5.684498779296875,0.004418373107910156,-0.010584577918052673,0.018289342522621155
1751620530805322200,5.703322265625,-0.028985977172851562,-0.02409781515598297,0.04065621644258499
1751620530824146000,5.72214599609375,-0.028890609741210938,-0.07471774518489838,0.029503151774406433
1751620530842969600,5.740969482421875,-0.02927112579345703,-0.08629368245601654,0.03276350349187851
1751620530861793300,5.759793212890625,-0.043834686279296875,-0.036731019616127014,0.02647586166858673
1751620530880616700,5.77861669921875,-0.024972915649414062,0.02531091868877411,-0.007459916174411774
1751620530899440400,5.7974404296875,-0.015674591064453125,0.02004586160182953,-0.03556981682777405
1751620530918264000,5.81626416015625,0.017470359802246094,0.024051815271377563,-0.039019472897052765
1751620530937087700,5.835087646484375,0.03610706329345703,0.03721097111701965,-0.05176868289709091
1751620530955911400,5.853911376953125,0.03624534606933594,0.059658244252204895,-0.04104123264551163
1751620530974734800,5.87273486328125,0.05088996887207031,0.04402896761894226,-0.025885865092277527
1751620530993558500,5.89155859375,0.045989990234375,-0.0366535484790802,0.021394141018390656
1751620531012382200,5.91038232421875,0.031426429748535156,-0.04429195821285248,0.02416791021823883
1751620531031206000,5.929205810546875,-0.0023441314697265625,-0.02676372230052948,0.030993245542049408
1751620531050029300,5.948029296875,0.0025911331176757812,-0.03514629602432251,0.03373126685619354
1751620531068853000,5.96685302734375,-0.010388374328613281,-0.0506192222237587,0.0361056923866272
1751620531087676700,5.9856767578125,-0.058592796325683594,-0.026161164045333862,0.007946759462356567
1751620531106500400,6.004500244140625,-0.08724212646484375,0.01188977062702179,-0.010663367807865143
1751620531125324000,6.023323974609375,-0.05855083465576172,0.08609306812286377,-0.04776901751756668
1751620531144147500,6.0421474609375,-0.015437126159667969,0.05073454976081848,-0.05091378837823868
1751620531162971100,6.06097119140625,0.003505706787109375,0.034900203347206116,-0.04935730993747711
1751620531181794800,6.079794921875,0.03178119659423828,-0.0035982131958007812,-0.0006402432918548584
1751620531200618500,6.098618408203125,0.031907081604003906,-0.01729339361190796,0.04642179608345032
1751620531219442000,6.11744189453125,0.041359901428222656,-0.03986796736717224,0.0450407937169075
1751620531238265600,6.136265625,0.02712726593017578,-0.056831151247024536,0.05751299858093262
1751620531257089300,6.15508935546875,0.007878303527832031,-0.05028461664915085,0.023145072162151337
1751620531275913000,6.173912841796875,0.0030689239501953125,0.0024780333042144775,-0.00592823326587677
1751620531294736400,6.192736328125,-0.02064228057861328,0.020902901887893677,-0.0010546594858169556
1751620531313560000,6.21156005859375,-0.03478813171386719,0.04820655286312103,-0.033867835998535156
1751620531332383700,6.2303837890625,-0.030266761779785156,0.01390179991722107,-0.04686393588781357
1751620531351207400,6.24920751953125,-0.053818702697753906,0.036649033427238464,-0.04088138788938522
1751620531370031000,6.268031005859375,-0.025064468383789062,0.021342307329177856,-0.01180613785982132
1751620531388854500,6.2868544921875,0.0034341812133789062,-0.0021317750215530396,0.0014514848589897156
1751620531407678200,6.30567822265625,0.04051685333251953,-0.022532880306243896,-0.011964879930019379
1751620531426502000,6.324501953125,-0.03990650177001953,-0.03964392840862274,0.07086509466171265
1751620531445325600,6.34332568359375,0.21217918395996094,0.01441173255443573,-0.05690242350101471
1751620531464149000,6.36214892578125,0.0656442642211914,-0.02347242832183838,0.03766876459121704
1751620531482972700,6.38097265625,0.04638957977294922,0.2581879496574402,-0.09616761654615402
1751620531501796400,6.39979638671875,0.017974853515625,0.5079113841056824,-0.770132303237915
1751620531520620000,6.4186201171875,-0.010327339172363281,-0.03504583239555359,-0.735840916633606
1751620531539443500,6.437443359375,-0.010210037231445312,-0.09295018017292023,-0.9223278164863586
1751620531558267100,6.45626708984375,-0.024636268615722656,0.10339652001857758,-1.0551443099975586
1751620531577090800,6.4750908203125,-0.025037765502929688,-0.21056802570819855,-0.7710493803024292
1751620531595914500,6.49391455078125,-0.015941619873046875,-0.8047775030136108,0.8230726718902588
1751620531614738000,6.512738037109375,-0.011034965515136719,-0.834240734577179,1.993016242980957
1751620531633561600,6.5315615234375,-0.04440879821777344,-0.6180770397186279,2.1871862411499023
1751620531652385300,6.55038525390625,0.03677654266357422,-0.547298789024353,1.3147504329681396
1751620531671209000,6.569208984375,-0.0014190673828125,-1.281201958656311,1.667086124420166
1751620531690032400,6.588032470703125,0.05100440979003906,-1.4983479976654053,1.906952142715454
1751620531708856000,6.60685595703125,-0.006549835205078125,-1.1665785312652588,1.6935133934020996
1751620531727679700,6.6256796875,0.05530834197998047,-0.03972766548395157,0.2578897774219513
1751620531746503400,6.64450341796875,-0.02121257781982422,0.27670490741729736,-0.6175336837768555
1751620531765327000,6.6633271484375,-0.04050731658935547,0.7101465463638306,-1.4629942178726196
1751620531784150500,6.682150634765625,-0.012033462524414062,1.1147937774658203,-2.229483127593994
1751620531802974200,6.70097412109375,0.011590957641601562,1.1286154985427856,-2.1931419372558594
1751620531821798000,6.7197978515625,-0.07941818237304688,0.7777186632156372,-1.2690556049346924
1751620531840621300,6.738621337890625,-0.055382728576660156,0.03931180387735367,0.11328404396772385
1751620531859445000,6.757445068359375,-0.05999183654785156,0.1278245449066162,0.3175942003726959
1751620531878268700,6.7762685546875,0.05018138885498047,1.0284831523895264,-1.066031575202942
1751620531897092400,6.79509228515625,0.06944847106933594,1.8582391738891602,-2.6040730476379395
1751620531915915800,6.813915771484375,0.07441425323486328,1.1762391328811646,-2.7104272842407227
1751620531934739500,6.832739501953125,0.06980323791503906,0.1870770901441574,-2.447589635848999
1751620531953563100,6.851563232421875,-0.03973388671875,-0.9561850428581238,-0.9204797744750977
1751620531972386800,6.87038671875,0.027602195739746094,-1.55415678024292,0.5391232967376709
1751620531991210200,6.889210205078125,-0.0006561279296875,-2.0780701637268066,2.2042462825775146
1751620532010034000,6.908033935546875,-0.04820823669433594,-1.9615336656570435,3.7804107666015625
1751620532028857600,6.926857666015625,-0.010118484497070312,-0.39096757769584656,1.4771236181259155
1751620532047681300,6.945681396484375,0.04657936096191406,-1.2323695421218872,1.1518017053604126
1751620532066504700,6.964504638671875,0.02225971221923828,-3.1029770374298096,2.728712797164917
1751620532085328400,6.983328369140625,-0.1114645004272461,-2.5723822116851807,2.5750083923339844
1751620532104152000,7.002152099609375,0.1985759735107422,-0.9495788216590881,1.2561486959457397
1751620532122975700,7.020975830078125,0.05960655212402344,-0.4759586453437805,-0.25621816515922546
1751620532141799200,7.039799072265625,0.20329761505126953,0.3183690309524536,-1.1864726543426514
1751620532160622800,7.058622802734375,0.04038715362548828,1.1714670658111572,-1.7873796224594116
1751620532179446500,7.077446533203125,0.0021953582763671875,1.9398777484893799,-2.7348639965057373
1751620532198270200,7.096270263671875,0.021332740783691406,2.128683090209961,-3.1752512454986572
1751620532217093600,7.11509375,-0.035991668701171875,0.008397907018661499,-0.031028911471366882
1751620532235917300,7.133917236328125,0.0022974014282226562,1.6560341119766235,-1.9748189449310303
1751620532254741000,7.152740966796875,-0.031055450439453125,1.3693560361862183,-2.135152816772461
1751620532273564700,7.171564697265625,-0.04036235809326172,0.17348262667655945,-1.588152527809143
1751620532292388000,7.19038818359375,0.007664680480957031,-0.4875820577144623,-1.3714616298675537
1751620532311211800,7.209211669921875,0.041545867919921875,-0.49119728803634644,-0.99092036485672
1751620532330035500,7.228035400390625,-0.020066261291503906,-0.5006030201911926,-0.326693058013916
1751620532348859100,7.246859130859375,-0.005352020263671875,-0.9033063650131226,1.35187828540802
1751620532367682600,7.2656826171875,-0.009838104248046875,-1.5207839012145996,3.68410325050354
1751620532386506200,7.28450634765625,-0.0002155303955078125,-2.1791365146636963,3.9255645275115967
1751620532405330000,7.303329833984375,0.04718589782714844,-1.183519959449768,1.2280089855194092
1751620532424153600,7.322153564453125,0.08944892883300781,-2.1235620975494385,1.989181399345398
1751620532442977000,7.34097705078125,0.16069316864013672,-1.6477527618408203,2.916741371154785
1751620532461800700,7.35980078125,-0.0736398696899414,-1.719096302986145,2.421727180480957
1751620532480624400,7.378624267578125,-0.12631988525390625,-1.66645348072052,1.0077968835830688
1751620532499448000,7.397447998046875,0.0653696060180664,-0.7821407318115234,-0.8397694826126099
1751620532518271500,7.416271484375,-0.016600608825683594,0.16335950791835785,-2.324660301208496
1751620532537095200,7.43509521484375,0.06884384155273438,1.4904614686965942,-3.3689708709716797
1751620532555918800,7.4539189453125,-0.06520462036132812,2.5976743698120117,-4.057504653930664
1751620532574742300,7.4727421875,-0.04586219787597656,1.943285584449768,-3.1496236324310303
1751620532593566000,7.49156591796875,0.12195491790771484,1.6088573932647705,-1.8540986776351929
1751620532612389600,7.5103896484375,0.007328033447265625,1.421533465385437,-2.3540070056915283
1751620532631213300,7.52921337890625,0.06964683532714844,0.7620503306388855,-2.3894660472869873
1751620532650037000,7.548037109375,0.09842777252197266,-0.3057023286819458,-2.1738882064819336
1751620532668860400,7.5668603515625,-0.0063800811767578125,-1.38088858127594,-1.3165920972824097
1751620532687684000,7.58568408203125,0.089752197265625,-1.6235493421554565,0.010011538863182068
1751620532706507800,7.6045078125,0.013596534729003906,-1.5779104232788086,0.8898345828056335
1751620532725331200,7.623331298828125,-0.08643150329589844,-1.8037527799606323,3.3819148540496826
1751620532744155000,7.64215478515625,-0.09104347229003906,-2.160639524459839,5.852680683135986
1751620532762978600,7.660978515625,0.0234375,-1.2452986240386963,2.482816696166992
1751620532781802200,7.67980224609375,-0.01982593536376953,-2.6261415481567383,3.3137848377227783
1751620532800625700,7.698625732421875,0.037200927734375,-3.0089223384857178,2.913404703140259
1751620532819449300,7.717449462890625,0.03703022003173828,-2.7956957817077637,1.9046273231506348
1751620532838273000,7.73627294921875,-0.04944419860839844,-1.661903738975525,-0.011624790728092194
1751620532857096700,7.7550966796875,0.1652355194091797,0.3893517255783081,-2.600118637084961
1751620532875920100,7.773920166015625,0.026380538940429688,2.0722944736480713,-4.143136024475098
1751620532894743800,7.792743896484375,0.050045013427734375,2.555565357208252,-4.4527177810668945
1751620532913567500,7.8115673828125,-0.0025453567504882812,2.124371290206909,-3.7046096324920654
1751620532932391200,7.83039111328125,0.0024871826171875,1.0845937728881836,-1.1313297748565674
1751620532951214600,7.849214599609375,-0.021396636962890625,1.7369462251663208,-2.3300600051879883
1751620532970038300,7.868038330078125,-0.03557014465332031,1.2360131740570068,-2.399231195449829
1751620532988862000,7.886862060546875,-0.04008960723876953,0.3834529221057892,-2.5092780590057373
1751620533007685600,7.905685546875,0.046199798583984375,-0.5987834930419922,-1.7601908445358276
1751620533026509000,7.924509033203125,-0.03931236267089844,-0.8442329168319702,-1.3909255266189575
1751620533045332700,7.943332763671875,0.1187887191772461,-1.0893479585647583,-0.5733693242073059
1751620533064156400,7.962156494140625,-0.024415016174316406,-1.7035720348358154,0.807206928730011
1751620533082979800,7.980979736328125,-0.014621734619140625,-2.065883159637451,2.2498037815093994
1751620533101803500,7.999803466796875,0.028573989868164062,-2.047483205795288,3.3580455780029297
1751620533120627200,8.018627197265625,0.05251121520996094,-1.6277222633361816,4.2426300048828125
1751620533139451000,8.037450927734374,0.06640625,-1.6568101644515991,2.5735251903533936
1751620533158274300,8.0562744140625,0.013476371765136719,-2.630333423614502,4.533639907836914
1751620533177098000,8.075097900390626,-0.0876607894897461,-2.6798126697540283,3.4874355792999268
1751620533195921700,8.093921630859375,0.0035037994384765625,-2.177833318710327,1.373483419418335
1751620533214745300,8.112745361328125,0.05561065673828125,-1.4445984363555908,-0.4463934898376465
1751620533233569000,8.131569091796875,-0.011627197265625,-0.43946394324302673,-2.241273880004883
1751620533252392400,8.150392333984374,-0.3745241165161133,1.2248317003250122,-4.338895320892334
1751620533271216000,8.169216064453124,0.2419729232788086,2.4462661743164062,-5.025437355041504
1751620533290039800,8.188039794921876,0.011902809143066406,2.669415235519409,-4.409159183502197
1751620533308863200,8.20686328125,-0.07853317260742188,0.6700930595397949,-0.1499340832233429
1751620533327687000,8.22568701171875,0.04112815856933594,1.5194588899612427,-1.667034387588501
1751620533346510600,8.244510498046875,0.03636360168457031,1.3943333625793457,-1.4025648832321167
1751620533365334300,8.263334228515625,0.017411231994628906,0.33104515075683594,-1.0235309600830078
1751620533384157700,8.28215771484375,0.05694389343261719,0.10993048548698425,-1.7754995822906494
1751620533402981400,8.3009814453125,0.03294181823730469,0.39982572197914124,-1.6427639722824097
1751620533421805000,8.31980517578125,0.019071578979492188,0.36175236105918884,-0.9185365438461304
1751620533440628700,8.338628662109375,-0.004581451416015625,-0.08089467883110046,-0.6473677158355713
1751620533459452400,8.357452392578125,0.038283348083496094,-1.5589983463287354,-0.4752591550350189
1751620533478275800,8.37627587890625,0.08441734313964844,-2.391860246658325,-0.07607909291982651
1751620533497099500,8.395099609375,-0.5883188247680664,-2.572291612625122,1.5267292261123657
1751620533515923200,8.413923095703124,0.5644311904907227,-2.440455913543701,4.116692543029785
1751620533534746600,8.43274658203125,-0.403289794921875,-0.4807542562484741,2.8361151218414307
1751620533553570300,8.4515703125,0.3431205749511719,-1.5540556907653809,1.63417387008667
1751620533572394000,8.47039404296875,0.4104499816894531,-1.9134114980697632,1.7393983602523804
1751620533591217700,8.4892177734375,0.10930824279785156,-1.3246517181396484,1.8181425333023071
1751620533610041300,8.508041259765625,-0.019789695739746094,-1.1968414783477783,0.5982955694198608
1751620533628864800,8.52686474609375,0.07114696502685547,-0.5116061568260193,-0.37736988067626953
1751620533647688400,8.5456884765625,-0.014768600463867188,0.4002487361431122,-1.3745672702789307
1751620533666512100,8.56451220703125,-0.0054473876953125,1.0700829029083252,-2.245673656463623
1751620533685335600,8.58333544921875,0.023044586181640625,0.9514540433883667,-2.6816205978393555
1751620533704159200,8.6021591796875,-0.04415130615234375,1.1071840524673462,-2.0504090785980225
1751620533722983000,8.62098291015625,-0.10142040252685547,0.9282642006874084,0.24089452624320984
1751620533741806600,8.639806640625,-0.04880523681640625,0.7893273830413818,-0.8757193088531494
1751620533760630300,8.65863037109375,0.09461402893066406,1.5537587404251099,-2.504063367843628
1751620533779453700,8.67745361328125,-0.1345539093017578,1.7271008491516113,-3.257619619369507
1751620533798277400,8.69627734375,0.558990478515625,0.3850895166397095,-3.411921739578247
1751620533817101000,8.71510107421875,0.34604740142822266,-0.5500702261924744,-2.1572141647338867
1751620533835924700,8.7339248046875,0.7069826126098633,-1.576714277267456,-0.2463410198688507
1751620533854748200,8.752748046875,0.14803791046142578,-2.209177017211914,1.6923469305038452
1751620533873571800,8.77157177734375,-0.11848735809326172,-2.278423309326172,3.450463056564331
1751620533892395500,8.7903955078125,0.273712158203125,-2.33195424079895,3.9943792819976807
1751620533911219200,8.80921923828125,-0.12836265563964844,-1.2257003784179688,1.5836745500564575
1751620533930043000,8.82804296875,-0.03734302520751953,-2.057753562927246,2.89209246635437
1751620533948866300,8.8468662109375,0.28635501861572266,-2.046278476715088,2.2142434120178223
1751620533967690000,8.86568994140625,0.20142269134521484,-2.18830943107605,1.38826584815979
1751620533986513700,8.884513671875,0.03871345520019531,-1.72429621219635,0.8732523918151855
1751620534005337300,8.90333740234375,0.053345680236816406,-0.7321558594703674,-0.3636954426765442
1751620534024161000,8.9221611328125,-0.0662374496459961,0.7252271771430969,-1.6709346771240234
1751620534042984400,8.940984375,0.08683586120605469,2.2698206901550293,-3.3185317516326904
1751620534061808000,8.95980810546875,-0.03308582305908203,3.3275909423828125,-4.302408695220947
1751620534080631800,8.9786318359375,0.06749343872070312,1.4343643188476562,-2.101961135864258
1751620534099455500,8.99745556640625,0.12411308288574219,1.9752178192138672,-2.236360788345337
1751620534118279200,9.016279052734374,-0.057311058044433594,1.4301459789276123,-2.7924935817718506
1751620534137102600,9.0351025390625,0.38675403594970703,0.439052939414978,-2.930878162384033
1751620534155926300,9.05392626953125,-0.07220268249511719,-0.4120887517929077,-2.9278738498687744
1751620534174750000,9.07275,-0.23873424530029297,-1.1492830514907837,-1.6282695531845093
1751620534193573600,9.09157373046875,-0.1391611099243164,-1.8112553358078003,0.2899355888366699
1751620534212397300,9.110397216796875,0.27532958984375,-3.652470827102661,3.7911376953125
1751620534231220700,9.129220703125,-0.05849170684814453,-3.997225761413574,6.774536609649658
1751620534250044400,9.14804443359375,0.069488525390625,-1.4249026775360107,2.9590160846710205
1751620534268868000,9.1668681640625,0.17338085174560547,-2.3483200073242188,2.4787888526916504
1751620534287691800,9.18569189453125,0.0718679428100586,-2.7959418296813965,1.868943691253662
1751620534306515200,9.20451513671875,-0.6827917098999023,-3.1707329750061035,0.8908707499504089
1751620534325339000,9.2233388671875,-0.08465957641601562,-1.5764310359954834,-0.9135675430297852
1751620534344162600,9.24216259765625,-0.10878467559814453,1.0125164985656738,-2.7519278526306152
1751620534362986200,9.260986328125,0.1110982894897461,2.56166410446167,-3.7847378253936768
1751620534381810000,9.279809814453126,0.06773853302001953,3.777947187423706,-4.220875263214111
1751620534400633600,9.298633544921875,-0.12837982177734375,1.7814277410507202,-1.0981152057647705
1751620534419457000,9.31745703125,0.029442787170410156,1.6733016967773438,-1.7386571168899536
1751620534438280700,9.33628076171875,-0.123565673828125,1.0721890926361084,-1.8629140853881836
1751620534457104400,9.3551044921875,-0.060601234436035156,0.33078837394714355,-2.30850887298584
1751620534475928000,9.373927978515624,0.2402820587158203,-0.7456109523773193,-2.535292863845825
1751620534494751500,9.39275146484375,-0.11797332763671875,-1.482759952545166,-1.5475187301635742
1751620534513575200,9.4115751953125,-0.13864517211914062,-1.360020399093628,0.17129921913146973
1751620534532398800,9.43039892578125,-0.12593746185302734,-1.0464916229248047,1.172491192817688
1751620534551222500,9.449222412109375,0.07965755462646484,-2.930206060409546,3.283263683319092
1751620534570046200,9.468046142578125,0.10435676574707031,-3.9415807723999023,6.531599998474121
1751620534588870000,9.486869873046874,-0.010375022888183594,-1.6840239763259888,3.906057596206665
1751620534607693300,9.505693359375,-0.010867118835449219,-0.7231726050376892,1.6316357851028442
1751620534626517000,9.52451708984375,0.11663818359375,-0.9587497115135193,0.513761043548584
1751620534645340700,9.543340576171875,0.16310977935791016,-1.6648098230361938,-0.5918933749198914
1751620534664164400,9.562164306640625,0.16997814178466797,-1.643493890762329,-1.0538127422332764
1751620534682988000,9.580988037109375,0.2210521697998047,-0.19127243757247925,-2.3447396755218506
1751620534701811700,9.599811767578124,0.35045623779296875,1.411165475845337,-2.5988943576812744
1751620534720635100,9.61863525390625,0.13051795959472656,1.914018154144287,-2.9288878440856934
1751620534739458800,9.637458740234376,0.1494770050048828,1.7741659879684448,-1.590572476387024
1751620534758282500,9.656282470703125,0.006426811218261719,0.2955556809902191,0.8829489350318909
1751620534777106200,9.675106201171875,0.015954017639160156,1.2094638347625732,-0.5691469311714172
1751620534795929900,9.693929931640625,-0.05549144744873047,1.6159377098083496,-1.4990702867507935
1751620534814753300,9.712753173828125,-0.01679706573486328,1.7381019592285156,-2.52004075050354
1751620534833577000,9.731576904296874,0.42772960662841797,0.7762381434440613,-3.2196412086486816
1751620534852400600,9.750400634765626,-0.02237987518310547,-0.2155415266752243,-2.4976253509521484
1751620534871224300,9.769224365234376,0.02981281280517578,-2.0903096199035645,-0.32703495025634766
1751620534890048000,9.788048095703125,-0.6717262268066406,-3.453005790710449,2.7896409034729004
1751620534908871700,9.80687158203125,-0.38851261138916016,-4.151965618133545,6.168391704559326
1751620534927695000,9.825695068359375,0.1483926773071289,-1.5600088834762573,3.07440447807312
1751620534946518800,9.844518798828124,0.037581443786621094,-0.5277351140975952,2.1558501720428467
1751620534965342500,9.863342529296874,0.16045761108398438,-1.0924484729766846,1.162387490272522
1751620534984166100,9.882166259765626,0.08789634704589844,-1.529207468032837,0.23852771520614624
1751620535002989800,9.90098974609375,-0.4419126510620117,-1.736857533454895,-0.2896730601787567
1751620535021813500,9.9198134765625,-0.4515056610107422,-1.0114774703979492,-1.255111575126648
1751620535040637200,9.93863720703125,0.06490325927734375,0.25419461727142334,-1.774049997329712
1751620535059460600,9.957460693359375,0.10794925689697266,1.3031535148620605,-2.171243190765381
1751620535078284300,9.9762841796875,-0.07380390167236328,2.7477307319641113,-3.246563673019409
1751620535097108000,9.99510791015625,0.03631782531738281,0.9138309955596924,-1.2932566404342651
1751620535115931600,10.013931640625,0.1408681869506836,1.703628659248352,-1.7400429248809814
1751620535134755300,10.03275537109375,-0.10297679901123047,1.518739938735962,-2.031857967376709
1751620535153579000,10.0515791015625,-0.07401561737060547,0.2574561536312103,-2.0729212760925293
1751620535172402400,10.07040234375,0.2603273391723633,-0.6075529456138611,-2.3193700313568115
1751620535191226000,10.08922607421875,0.33492279052734375,-1.1644624471664429,-1.9729524850845337
1751620535210049800,10.1080498046875,0.7531499862670898,-1.690677523612976,-0.35167527198791504
1751620535228873500,10.12687353515625,-0.2979001998901367,-1.1940100193023682,1.2695465087890625
1751620535247697200,10.145697265625,0.20543670654296875,-1.5605823993682861,2.723886013031006
1751620535266520800,10.164520751953125,0.04231071472167969,-1.9121075868606567,3.1124932765960693
1751620535285344300,10.18334423828125,-0.004862785339355469,-1.6922664642333984,1.2336045503616333
1751620535304168000,10.20216796875,0.05719280242919922,0.08303435146808624,0.2990474998950958
1751620535322991600,10.22099169921875,0.2089223861694336,-0.633127748966217,0.4946785569190979
1751620535341815300,10.239815185546876,-0.11699771881103516,-2.13154673576355,1.11685311794281
1751620535360639000,10.258638916015625,0.02299785614013672,-3.2800800800323486,2.3894317150115967
1751620535379462700,10.277462646484375,0.3285856246948242,-2.6643948554992676,1.745229959487915
1751620535398286000,10.2962861328125,-0.07873249053955078,-0.31791701912879944,-0.2191193550825119
1751620535417109800,10.31510986328125,0.2615213394165039,1.9956920146942139,-2.464278221130371
1751620535435933400,10.333933349609374,-0.0011548995971679688,3.6899538040161133,-3.7111213207244873
1751620535454757000,10.352757080078124,-0.0821695327758789,2.1073837280273438,-2.9432201385498047
1751620535473580800,10.371580810546876,0.27109813690185547,2.484419584274292,-2.6095898151397705
1751620535492404500,10.390404541015625,-0.0063495635986328125,1.6306437253952026,-2.843291759490967
1751620535511228200,10.409228271484375,0.4089221954345703,-0.2780391275882721,-2.721921920776367
1751620535530051800,10.4280517578125,-1.4931068420410156,-0.7324693202972412,-1.8689152002334595
1751620535548875300,10.446875244140625,-0.3315725326538086,-2.707580089569092,-0.8224651217460632
1751620535567699000,10.465698974609374,-0.2163991928100586,-3.346728563308716,1.9001880884170532
1751620535586522600,10.484522705078126,-0.515538215637207,-2.8663806915283203,5.398169040679932
1751620535605346300,10.50334619140625,-0.045685768127441406,-0.6203075051307678,1.7313706874847412
1751620535624170000,10.522169921875,-0.04224205017089844,-1.9279494285583496,2.990694284439087
1751620535642993700,10.54099365234375,0.27794361114501953,-1.4088414907455444,2.1928367614746094
1751620535661817000,10.559817138671875,0.10869026184082031,-0.495882511138916,0.02488231286406517
1751620535680640800,10.578640869140624,0.046492576599121094,-1.6911416053771973,-1.0764954090118408
1751620535699464400,10.59746435546875,-0.029808998107910156,-1.0151811838150024,-1.380184292793274
1751620535718288100,10.6162880859375,0.08978462219238281,0.40322235226631165,-1.8472517728805542
1751620535737111800,10.63511181640625,0.14710330963134766,1.432240605354309,-2.3829779624938965
1751620535755935500,10.653935546875,0.056313514709472656,2.33888840675354,-2.3501811027526855
1751620535774759200,10.67275927734375,0.056369781494140625,0.44856855273246765,0.6443321108818054
1751620535793582600,10.69158251953125,0.02775287628173828,2.4260480403900146,-2.4474403858184814
1751620535812406300,10.71040625,0.1042337417602539,2.589355707168579,-3.4506783485412598
1751620535831230000,10.72922998046875,-0.1869068145751953,0.9761586785316467,-2.627979278564453
1751620535850053600,10.7480537109375,0.36759281158447266,-1.2795085906982422,-1.7314133644104004
1751620535868877300,10.766877197265625,0.1405811309814453,-2.573260545730591,0.033364322036504745
1751620535887701000,10.785700927734375,0.3628520965576172,-2.972684621810913,2.1006858348846436
1751620535906524700,10.804524658203125,-0.3187141418457031,-2.0799622535705566,3.5495779514312744
1751620535925348400,10.823348388671874,0.28430938720703125,-1.357129454612732,2.6232521533966064
1751620535944171800,10.842171875,0.06254768371582031,-0.8527553081512451,1.3921091556549072
1751620535962995500,10.860995361328126,-0.2526283264160156,-1.6358002424240112,2.726391315460205
1751620535981819100,10.879819091796875,0.22518348693847656,-1.5700478553771973,1.8590126037597656
1751620536000642800,10.898642822265625,0.2234210968017578,-1.8017889261245728,0.15369093418121338
1751620536019466500,10.917466552734375,-0.5457286834716797,-2.1943228244781494,-0.39845728874206543
1751620536038290200,10.936290283203125,0.028041839599609375,-1.3675860166549683,-1.0540212392807007
1751620536057113900,10.95511376953125,-0.14890289306640625,0.14521300792694092,-2.196931838989258
1751620536075937300,10.973937255859376,-0.1916341781616211,2.408259391784668,-3.531844139099121
1751620536094761000,10.992760986328125,-0.024107933044433594,3.2912957668304443,-2.3599109649658203
1751620536113584600,11.011584716796875,0.1998004913330078,1.5813628435134888,-0.9102792739868164
1751620536132408300,11.030408203125,-0.10153579711914062,2.11281156539917,-2.185211420059204
1751620536151232000,11.04923193359375,-0.014988899230957031,1.6714038848876953,-2.2632365226745605
1751620536170055700,11.0680556640625,-0.0045528411865234375,0.407831609249115,-1.8351446390151978
1751620536188879400,11.08687939453125,0.5427331924438477,-1.5544896125793457,-1.286029577255249
1751620536207703000,11.105703125,-2.3483657836914062,-2.2072877883911133,0.43890953063964844
1751620536226526500,11.1245263671875,-0.5835123062133789,-2.0533270835876465,1.7343732118606567
1751620536245350100,11.14335009765625,0.025527000427246094,-1.6221435070037842,2.8392131328582764
1751620536264173800,11.162173828125,-0.1322488784790039,-0.5138242840766907,-0.03308342397212982
1751620536282997500,11.18099755859375,0.1114816665649414,0.1530553698539734,0.31069254875183105
1751620536301821200,11.1998212890625,-0.023151397705078125,-0.3671727776527405,1.5057358741760254
1751620536320644900,11.218644775390626,0.1487741470336914,-1.672408103942871,1.7150381803512573
1751620536339468500,11.237468505859376,-0.10096359252929688,-2.5666487216949463,1.0654184818267822
1751620536358292000,11.2562919921875,0.061446189880371094,-2.1017866134643555,0.25444087386131287
1751620536377115600,11.27511572265625,-0.07747745513916016,-1.2183372974395752,-0.08850912004709244
1751620536395939300,11.293939208984375,0.023474693298339844,-0.1653444468975067,-0.3700554370880127
1751620536414763000,11.312762939453124,0.12798309326171875,2.1039066314697266,-2.3166279792785645
1751620536433586700,11.331586669921874,-0.13031387329101562,4.421050548553467,-5.218820095062256
1751620536452410400,11.350410400390626,0.046996116638183594,1.0325766801834106,-1.054179310798645
1751620536471234000,11.369234130859375,-0.024811744689941406,1.2210596799850464,-1.6903750896453857
1751620536490057700,11.3880576171875,0.11915302276611328,0.8413040637969971,-1.981205940246582
1751620536508881200,11.406881103515625,-0.05263996124267578,0.25848692655563354,-2.21331787109375
1751620536527704800,11.425704833984375,0.21920490264892578,-1.3185532093048096,-1.935183048248291
1751620536546528500,11.444528564453124,-0.14972686767578125,-1.8421287536621094,-0.343011736869812
1751620536565352200,11.463352294921876,-0.3611612319946289,-0.9640999436378479,0.7313905954360962
1751620536584175900,11.48217578125,0.1864004135131836,-0.8698534965515137,1.1324657201766968
1751620536602999600,11.50099951171875,-0.027690887451171875,-1.9184318780899048,3.1812150478363037
1751620536621823200,11.5198232421875,-0.1805868148803711,-1.1796798706054688,2.461069345474243
1751620536640647000,11.53864697265625,0.24942779541015625,0.04464346170425415,0.1153634637594223
1751620536659470600,11.557470703125,-0.018934249877929688,-1.6817511320114136,1.7144782543182373
1751620536678294000,11.5762939453125,-0.03324317932128906,-2.0925850868225098,2.4277822971343994
1751620536697117700,11.59511767578125,0.34383487701416016,-1.5742682218551636,0.9575281739234924
1751620536715941400,11.61394140625,-0.14452648162841797,-0.7861673831939697,0.12688381969928741
1751620536734765000,11.63276513671875,0.008815765380859375,-0.03808576613664627,-0.720412015914917
1751620536753588700,11.651588623046875,0.07552909851074219,1.2720263004302979,-1.7886464595794678
1751620536772412400,11.670412353515625,-0.10157489776611328,2.9186205863952637,-2.986241579055786
1751620536791236000,11.689236083984374,-0.1107177734375,0.7070435285568237,-0.9114298820495605
1751620536810059500,11.7080595703125,0.05674266815185547,1.5504627227783203,-1.317847728729248
1751620536828883200,11.72688330078125,-0.06739997863769531,0.925826907157898,-1.2797350883483887
1751620536847707000,11.745706787109375,-0.14758872985839844,0.5960544347763062,-1.9099361896514893
1751620536866530600,11.764530517578125,0.5011558532714844,-0.23235955834388733,-2.7005069255828857
1751620536885354200,11.783354248046875,-0.20851421356201172,-1.322243332862854,-1.991920828819275
1751620536904178000,11.802177978515624,0.5539770126342773,-2.569624423980713,1.093338131904602
1751620536923001600,11.821001708984374,-0.04303264617919922,-1.8968443870544434,2.9194729328155518
1751620536941825300,11.8398251953125,0.0771026611328125,-1.3999439477920532,3.7822701930999756
1751620536960649000,11.85864892578125,-0.013483047485351562,-0.12456829845905304,-0.415554940700531
1751620536979472400,11.877472412109375,0.1254749298095703,-0.17999672889709473,1.0305651426315308
1751620536998296000,11.896296142578125,-0.07081890106201172,-0.7961467504501343,1.7829049825668335
1751620537017119700,11.91511962890625,0.04436969757080078,-1.5674221515655518,1.2961492538452148
1751620537035943400,11.933943359375,0.02318286895751953,-1.5874965190887451,0.8832838535308838
1751620537054767000,11.95276708984375,-0.058032989501953125,-1.6462340354919434,0.5665000677108765
1751620537073590800,11.9715908203125,0.07531166076660156,-0.7353391647338867,0.15086784958839417
1751620537092414500,11.99041455078125,-0.02470684051513672,0.8603774905204773,-1.1433141231536865
1751620537111238100,12.009238037109375,-0.000537872314453125,2.4900405406951904,-2.60292649269104
1751620537130061600,12.0280615234375,-0.048119544982910156,2.0111243724823,-3.6070444583892822
1751620537148885200,12.04688525390625,0.1382007598876953,1.7204062938690186,-1.6031912565231323
1751620537167709000,12.065708984375,0.08510684967041016,1.9085372686386108,-2.2691855430603027
1751620537186532600,12.08453271484375,0.12801456451416016,1.167372226715088,-2.3436455726623535
1751620537205356300,12.103356201171875,-0.025142669677734375,-0.6269436478614807,-2.2541370391845703
1751620537224180000,12.122179931640625,-0.44077396392822266,-2.229588508605957,-1.852109432220459
1751620537243003600,12.141003662109375,-0.06795215606689453,-2.674201488494873,0.690368115901947
1751620537261827300,12.159827392578125,-0.16762161254882812,-2.1315717697143555,2.813952684402466
1751620537280651000,12.178651123046874,-0.59027099609375,-0.8604724407196045,3.6555378437042236
1751620537299474400,12.197474365234376,0.2974700927734375,-0.4654930830001831,0.0736849308013916
1751620537318298000,12.216298095703126,-0.2050933837890625,-0.18977466225624084,0.30722448229789734
1751620537337121800,12.235121826171875,0.06315135955810547,-1.1881537437438965,1.8048813343048096
1751620537355945500,12.253945556640625,-0.018518447875976562,-1.6603217124938965,2.1408262252807617
1751620537374769200,12.27276904296875,0.11455059051513672,-0.8465409874916077,0.9108532071113586
1751620537393592800,12.2915927734375,-0.07674407958984375,-1.2563332319259644,0.5254113078117371
1751620537412416500,12.31041650390625,0.2573566436767578,-1.6892151832580566,0.381926953792572
1751620537431240000,12.329239990234376,-0.020130157470703125,-1.0333040952682495,-0.7812440991401672
1751620537450064000,12.34806396484375,-0.0196685791015625,0.8948736786842346,-1.8218157291412354
1751620537468887300,12.36688720703125,-0.06277179718017578,2.787278890609741,-2.9399173259735107
1751620537487711000,12.3857109375,-0.07219314575195312,1.575515627861023,-3.1993210315704346
1751620537506534700,12.40453466796875,0.09963607788085938,1.0419515371322632,-1.4451770782470703
1751620537525358300,12.4233583984375,0.06562232971191406,0.7276573777198792,-1.673641562461853
1751620537544182000,12.44218212890625,0.012706756591796875,0.21260792016983032,-2.0402474403381348
1751620537563005700,12.461005615234376,-0.19199848175048828,-0.2673501968383789,-2.51141357421875
1751620537581829400,12.479829345703125,0.23856544494628906,-0.2826848030090332,-1.4646120071411133
1751620537600652800,12.49865283203125,0.05189990997314453,-0.8436877727508545,0.5883778929710388
1751620537619476500,12.5174765625,-0.03839302062988281,-1.5411124229431152,2.6975340843200684
1751620537638300200,12.536300048828124,-0.037383079528808594,-2.2843217849731445,3.8868563175201416
1751620537657123800,12.555123779296874,-0.0074100494384765625,-0.7467148303985596,0.14553172886371613
1751620537675947500,12.573947509765626,0.20189476013183594,-0.061441004276275635,1.2770415544509888
1751620537694771200,12.592771240234375,0.0056934356689453125,-0.226713627576828,1.7035977840423584
1751620537713595000,12.611594970703125,-0.0715484619140625,-0.9391735792160034,1.219611644744873
1751620537732418600,12.63041845703125,-0.06218719482421875,-1.9776893854141235,1.1458675861358643
1751620537751242200,12.6492421875,-0.004940986633300781,-2.23280930519104,0.7794303894042969
1751620537770065700,12.668065673828124,-0.014667510986328125,-1.2633929252624512,0.21212869882583618
1751620537788889300,12.686889404296876,0.15224933624267578,0.3035053610801697,-1.3682055473327637
1751620537807713000,12.705713134765626,0.04215526580810547,2.188324213027954,-3.247358798980713
1751620537826536700,12.72453662109375,-0.16802024841308594,2.3673453330993652,-4.244655609130859
1751620537845360400,12.7433603515625,0.1567983627319336,1.3585082292556763,-1.6200557947158813
1751620537864184000,12.76218408203125,-0.05815601348876953,2.0287959575653076,-3.3823559284210205
1751620537883007700,12.7810078125,0.1992940902709961,0.5929086804389954,-3.1957404613494873
1751620537901831400,12.79983154296875,0.12234020233154297,-0.685340940952301,-2.3610363006591797
1751620537920655000,12.818655029296876,0.12317085266113281,-1.3147332668304443,-1.6776881217956543
1751620537939478500,12.837478515625,0.2658214569091797,-2.6706340312957764,0.7787849307060242
1751620537958302200,12.85630224609375,0.09543514251708984,-3.0157649517059326,3.967451810836792
1751620537977126000,12.8751259765625,-0.3040151596069336,-1.5523051023483276,5.198259353637695
1751620537995949600,12.893949462890625,0.36076831817626953,0.07246507704257965,0.3644115626811981
1751620538014773200,12.912773193359374,0.08247947692871094,0.44886550307273865,1.9608663320541382
1751620538033597000,12.931596923828126,-0.09513568878173828,-0.10086487978696823,1.4316734075546265
1751620538052420600,12.950420654296876,0.1144256591796875,-1.411994457244873,0.5369168519973755
1751620538071244300,12.969244384765625,-0.1297607421875,-2.158552885055542,0.13616950809955597
1751620538090068000,12.98806787109375,0.04256439208984375,-2.416717290878296,0.5685171484947205
1751620538108891400,13.006891357421875,0.16658687591552734,-1.5248689651489258,-0.09464757144451141
1751620538127715000,13.025715087890624,0.10400390625,0.3881513178348541,-1.3615533113479614
1751620538146538800,13.044538818359374,-0.3543281555175781,2.2575833797454834,-2.795964002609253
1751620538165362400,13.063362548828126,0.023199081420898438,2.2901132106781006,-2.2730743885040283
1751620538184186000,13.08218603515625,-0.09164142608642578,1.5322195291519165,-2.0602848529815674
1751620538203009800,13.101009765625,0.09957122802734375,2.1174278259277344,-4.165334224700928
1751620538221833500,13.11983349609375,0.17586803436279297,1.5825566053390503,-3.5747671127319336
1751620538240657200,13.1386572265625,-0.25775909423828125,0.47257065773010254,-2.2807178497314453
1751620538259480800,13.157480712890624,0.6413469314575195,-1.1928755044937134,-0.734854519367218
1751620538278304300,13.17630419921875,-0.14477825164794922,-2.905146598815918,1.7226476669311523
1751620538297128000,13.1951279296875,-0.3245124816894531,-3.7906010150909424,4.863039493560791
1751620538315951600,13.21395166015625,0.21242904663085938,-2.8066306114196777,2.8682382106781006
1751620538334775300,13.232775390625,0.12540245056152344,-0.7495462894439697,1.702638030052185
1751620538353599000,13.251598876953125,0.095977783203125,-2.07401704788208,2.630551815032959
1751620538372422700,13.270422607421875,0.143341064453125,-2.0644943714141846,2.4697017669677734
1751620538391246300,13.289246337890624,-0.04341316223144531,-1.4399757385253906,-0.2797812521457672
1751620538410070000,13.308070068359376,0.19488143920898438,-0.49642568826675415,-2.082954168319702
1751620538428893400,13.3268935546875,-0.08233833312988281,0.14148399233818054,-2.315915822982788
1751620538447717000,13.345717041015625,0.05154132843017578,0.7564776539802551,-1.670751929283142
1751620538466540800,13.364540771484375,0.1273946762084961,1.98183274269104,-2.523960828781128
1751620538485364500,13.383364501953125,-0.579493522644043,0.8903752565383911,-0.5627549886703491
1751620538504188200,13.402188232421874,0.046764373779296875,1.1692906618118286,-1.3823162317276
1751620538523011800,13.42101171875,-0.034572601318359375,1.3912897109985352,-2.3764662742614746
1751620538541835500,13.43983544921875,0.07492828369140625,0.7826987504959106,-3.15621018409729
1751620538560659200,13.4586591796875,0.07522296905517578,-0.054521363228559494,-3.494966506958008
1751620538579483000,13.47748291015625,-0.0925893783569336,-0.9679035544395447,-3.4344701766967773
1751620538598306300,13.496306396484375,0.017401695251464844,-3.0348634719848633,-1.498808741569519
1751620538617130000,13.5151298828125,-0.06823253631591797,-4.189964294433594,3.2002344131469727
1751620538635953700,13.53395361328125,-0.12457466125488281,-2.7895584106445312,6.1676025390625
1751620538654777300,13.55277734375,-0.22416305541992188,-0.6885821223258972,5.490658760070801
1751620538673601000,13.57160107421875,-0.24279117584228516,-1.4398295879364014,3.6828179359436035
1751620538692424700,13.5904248046875,-0.31351757049560547,-1.7699791193008423,3.018397808074951
1751620538711248400,13.609248291015625,0.49308109283447266,-1.053967833518982,0.382441908121109
1751620538730072000,13.628072021484375,-0.1344766616821289,-1.0145409107208252,-1.5641154050827026
1751620538748895700,13.646895751953124,0.047110557556152344,-0.5637753009796143,-2.4526026248931885
1751620538767719200,13.66571923828125,-0.02460193634033203,0.02909988909959793,-1.9987640380859375
1751620538786542800,13.68454296875,0.056690216064453125,0.3704352080821991,-0.9874006509780884
1751620538805366500,13.703366455078125,0.22339916229248047,1.211828351020813,-2.2272987365722656
1751620538824190200,13.722190185546875,0.07113838195800781,2.096299648284912,-2.395098924636841
1751620538843014000,13.741013916015625,0.11393165588378906,1.0018984079360962,-1.2568906545639038
1751620538861837600,13.759837646484375,0.05168914794921875,1.8249791860580444,-2.160783052444458
1751620538880661200,13.7786611328125,-0.015032768249511719,1.7522163391113281,-2.393498420715332
1751620538899485000,13.79748486328125,0.009294509887695312,1.0269180536270142,-2.090205669403076
1751620538918308600,13.81630859375,0.6197948455810547,-0.6399131417274475,-1.7451435327529907
1751620538937132000,13.835132080078125,-0.5609254837036133,-2.581113576889038,0.5661680698394775
1751620538955955700,13.853955810546875,-0.14844989776611328,-3.820598840713501,3.706658124923706
1751620538974779400,13.872779296875,-0.32482337951660156,-2.5820059776306152,4.736319065093994
1751620538993603000,13.89160302734375,-0.17604923248291016,-0.711125910282135,1.557773470878601
1751620539012426800,13.9104267578125,0.09761524200439453,-1.7860846519470215,2.647324800491333
1751620539031250400,13.92925048828125,0.6316928863525391,-1.895345687866211,2.140580654144287
1751620539050074000,13.94807421875,-0.1672534942626953,-1.1118347644805908,0.8219937086105347
1751620539068897800,13.966897705078125,0.3004932403564453,-0.16978326439857483,-1.018880844116211
1751620539087721500,13.985721435546875,-0.2016277313232422,-0.07511448115110397,-2.100313663482666
1751620539106545000,14.004544921875,-0.038582801818847656,-0.16494636237621307,-1.3922429084777832
1751620539125368600,14.02336865234375,0.09997272491455078,0.3932650685310364,-1.3340836763381958
1751620539144192300,14.042192138671876,0.09459209442138672,2.0184786319732666,-3.0722012519836426
1751620539163016000,14.061015869140626,-0.0059108734130859375,0.648021936416626,-0.7019150257110596
1751620539181839600,14.079839599609375,-0.039276123046875,1.9179940223693848,-2.2659504413604736
1751620539200663300,14.098663330078125,0.041919708251953125,1.8426096439361572,-2.86106014251709
1751620539219487000,14.117487060546875,-0.12501049041748047,0.6661689877510071,-2.383481025695801
1751620539238310700,14.136310546875,0.514491081237793,-0.6727083921432495,-1.897485613822937
1751620539257134300,14.15513427734375,-1.526662826538086,-1.2000906467437744,-0.41683822870254517
1751620539275957800,14.173957763671876,-0.0677499771118164,-1.8171429634094238,0.8261196613311768
1751620539294781400,14.192781494140625,-0.09152698516845703,-1.2513576745986938,1.482251763343811
1751620539313605000,14.211605224609375,-0.19147396087646484,-2.230747699737549,3.4883604049682617
1751620539332428800,14.2304287109375,0.028962135314941406,-2.05859112739563,1.5559487342834473
1751620539351252500,14.24925244140625,-0.2616863250732422,-2.0104687213897705,3.0114383697509766
1751620539370076200,14.268076171875,0.08863544464111328,-1.7083358764648438,2.145448684692383
1751620539388899800,14.28689990234375,0.09097671508789062,-0.9509822726249695,0.0939577966928482
1751620539407723500,14.3057236328125,0.09074974060058594,-0.6033637523651123,-1.089862585067749
1751620539426547200,14.324547119140625,-0.024532318115234375,-0.737902820110321,-1.350563883781433
1751620539445370600,14.34337060546875,0.013667106628417969,-0.06905624270439148,-1.7307521104812622
1751620539464194300,14.3621943359375,0.03233623504638672,1.1133416891098022,-2.2064225673675537
1751620539483018000,14.38101806640625,0.02742290496826172,2.271890163421631,-2.393602132797241
1751620539501841700,14.399841552734374,-0.1204519271850586,0.5659568309783936,0.38498255610466003
1751620539520665300,14.418665283203126,0.04710865020751953,0.7957544326782227,-0.8521842956542969
1751620539539489000,14.437489013671875,0.018575668334960938,1.5280957221984863,-1.9460970163345337
1751620539558312700,14.456312744140625,-0.043079376220703125,1.7453227043151855,-2.6518826484680176
1751620539577136400,14.475136474609375,0.05317497253417969,0.8816670179367065,-2.77309513092041
1751620539595960000,14.4939599609375,0.2962827682495117,-1.0630238056182861,-1.8582160472869873
1751620539614783500,14.512783447265624,0.14188003540039062,-1.9160451889038086,0.32694894075393677
1751620539633607200,14.531607177734376,-0.14498329162597656,-1.7044919729232788,1.9439514875411987
1751620539652430800,14.550430908203126,0.10498523712158203,-3.016118288040161,4.461451053619385
1751620539671254500,14.569254638671875,0.024109840393066406,-2.1630725860595703,2.345304250717163
1751620539690078200,14.588078125,-0.3288135528564453,-2.00752329826355,3.596778631210327
1751620539708902000,14.60690185546875,0.2273712158203125,-2.0701239109039307,1.4092755317687988
1751620539727725600,14.6257255859375,0.005204200744628906,-0.9690107703208923,-1.2284363508224487
1751620539746549000,14.644549072265624,0.1812610626220703,0.07127615809440613,-1.3822983503341675
1751620539765372700,14.66337255859375,-0.062462806701660156,-0.23090477287769318,-0.14132583141326904
1751620539784196400,14.6821962890625,0.10009002685546875,0.4009402096271515,-0.11914746463298798
1751620539803020000,14.70102001953125,0.056812286376953125,1.7645174264907837,-1.872207760810852
1751620539821843700,14.71984375,-0.08637809753417969,2.2050318717956543,-3.144645929336548
1751620539840667400,14.73866748046875,0.057404518127441406,0.4123867452144623,-1.7829045057296753
1751620539859491000,14.757490966796874,0.11926937103271484,0.2445204257965088,-0.8106022477149963
1751620539878314800,14.776314697265626,0.02793121337890625,0.4235038459300995,-1.469450831413269
1751620539897138400,14.795138427734376,-0.05340862274169922,0.544076144695282,-2.303347110748291
1751620539915961900,14.8139619140625,0.6133232116699219,0.23219487071037292,-3.2014920711517334
1751620539934785500,14.83278564453125,1.036574363708496,-0.7415782809257507,-1.6971853971481323
1751620539953609200,14.851609130859375,-0.024825096130371094,-1.314444899559021,0.02737489901483059
1751620539972433000,14.870432861328124,-0.12970733642578125,-1.1097270250320435,3.077230215072632
1751620539991256600,14.889256591796874,0.23421382904052734,-1.4595834016799927,3.674851655960083
1751620540010080300,14.908080322265626,-0.08575057983398438,-0.8665973544120789,0.6549612879753113
1751620540028904000,14.926904052734375,-0.06624603271484375,-0.4149876832962036,0.5387599468231201
1751620540047727600,14.9457275390625,0.16391468048095703,-1.527797818183899,0.9933990240097046
1751620540066551300,14.96455126953125,0.23408031463623047,-3.1911780834198,2.3885726928710938
1751620540085374700,14.983374755859375,-0.17307567596435547,-3.1117641925811768,3.777496576309204
1751620540104198400,15.002198486328124,-0.1198110580444336,-1.7466728687286377,2.0361437797546387
1751620540123022000,15.02102197265625,0.08051013946533203,1.0902161598205566,-2.1054599285125732
1751620540141845800,15.039845703125,-0.0628509521484375,3.255465507507324,-4.5327372550964355
1751620540160669400,15.05866943359375,-0.010087013244628906,4.1236443519592285,-5.325536727905273
1751620540179493000,15.0774931640625,0.05684185028076172,0.7820050120353699,-1.1974680423736572
1751620540198316800,15.09631689453125,0.07572460174560547,1.45689058303833,-1.8768587112426758
1751620540217140500,15.115140380859375,0.06573104858398438,1.4873019456863403,-2.583034038543701
1751620540235964000,15.1339638671875,0.013546943664550781,0.9993898272514343,-2.456965923309326
1751620540254787600,15.15278759765625,0.4349784851074219,-0.41214197874069214,-2.0514626502990723
1751620540273611300,15.171611328125,0.38477611541748047,-1.5192601680755615,-1.248820185661316
1751620540292435000,15.19043505859375,-1.3631858825683594,-1.5602409839630127,0.09939144551753998
1751620540311258600,15.209258544921875,0.41214847564697266,-2.5378527641296387,2.4958109855651855
1751620540330082300,15.228082275390625,-0.2427349090576172,-1.8737223148345947,3.7016007900238037
1751620540348906000,15.246906005859374,0.08768177032470703,-1.8577607870101929,1.5660648345947266
1751620540367729700,15.265729736328124,0.015664100646972656,0.17871403694152832,0.5072824358940125
1751620540386553300,15.28455322265625,0.14787769317626953,-0.5158306956291199,0.8374855518341064
1751620540405376800,15.303376708984375,-0.2152576446533203,-2.1510002613067627,1.4214938879013062
1751620540424200400,15.322200439453125,-0.028563499450683594,-3.4912660121917725,1.4056049585342407
1751620540443024100,15.341024169921875,0.27704715728759766,-2.8265833854675293,0.4616853594779968
1751620540461847800,15.359847900390625,0.04129219055175781,-1.343174695968628,-0.4664185643196106
1751620540480671500,15.37867138671875,-0.12027645111083984,0.4727923274040222,-0.9053590893745422
1751620540499495200,15.3974951171875,0.20441913604736328,2.884383201599121,-3.077345848083496
1751620540518318800,15.41631884765625,-0.07279777526855469,4.1591477394104,-4.178106784820557
1751620540537142500,15.435142578125,-0.005614280700683594,1.160202980041504,-0.3698900640010834
1751620540555966200,15.45396630859375,-0.02930164337158203,1.3633019924163818,-1.0912326574325562
1751620540574789600,15.47278955078125,-0.03896808624267578,1.2287534475326538,-1.6619774103164673
1751620540593613300,15.49161328125,-0.27730560302734375,1.0680378675460815,-2.530667543411255
1751620540612437000,15.51043701171875,0.014225006103515625,0.535643458366394,-3.0655007362365723
1751620540631260700,15.5292607421875,0.18608951568603516,-0.6535263061523438,-2.1285500526428223
1751620540650084400,15.54808447265625,0.1414947509765625,-1.5985482931137085,-0.5476400852203369
1751620540668908000,15.566907958984375,-0.1216287612915039,-1.6264714002609253,0.997329592704773
1751620540687731700,15.585731689453125,0.2292308807373047,-2.440056324005127,3.4754679203033447
1751620540706555100,15.60455517578125,-0.20525264739990234,-3.6706020832061768,5.054172515869141
1751620540725378800,15.62337890625,-0.02214527130126953,-2.264453172683716,3.710130214691162
1751620540744202500,15.642202392578126,0.23615074157714844,-2.8364510536193848,2.595440626144409
1751620540763026200,15.661026123046875,-0.07116222381591797,-2.136512279510498,0.5040438771247864
1751620540781849900,15.679849853515625,0.1334686279296875,-1.832330584526062,-1.9710949659347534
1751620540800673500,15.698673583984375,-0.04901313781738281,-0.5602216720581055,-2.4832425117492676
1751620540819497200,15.717497314453125,-0.02492046356201172,0.9132289290428162,-2.7777466773986816
1751620540838321000,15.73632080078125,-0.01085662841796875,2.3671467304229736,-2.523420572280884
1751620540857144600,15.75514453125,-0.15877914428710938,3.3363828659057617,-1.774124026298523
1751620540875968000,15.773968017578126,-0.005269050598144531,1.1641690731048584,-0.9567621946334839
1751620540894791700,15.792791748046875,-0.08621692657470703,1.7178288698196411,-1.6161302328109741
1751620540913615400,15.811615478515625,-0.12467479705810547,1.598313331604004,-1.6397788524627686
1751620540932439000,15.83043896484375,0.062282562255859375,0.6276347637176514,-1.6401830911636353
1751620540951262700,15.8492626953125,0.10071086883544922,-1.3992195129394531,-1.1288566589355469
1751620540970086400,15.86808642578125,0.44833850860595703,-3.153984308242798,0.054036952555179596
1751620540988910000,15.88691015625,-0.2604522705078125,-2.098078966140747,1.0460489988327026
1751620541007733800,15.905733642578125,0.012637138366699219,-0.43874213099479675,2.001807689666748
1751620541026557200,15.92455712890625,-0.23301410675048828,-0.24082517623901367,3.3603014945983887
1751620541045380900,15.943380859375,-0.032238006591796875,0.0217476487159729,0.9246456623077393
1751620541064204500,15.96220458984375,0.11057376861572266,-0.6186472177505493,1.3512611389160156
1751620541083028200,15.9810283203125,0.1485309600830078,-2.832191228866577,1.3475812673568726
1751620541101852000,15.999851806640624,-0.15317058563232422,-3.819021701812744,0.5482322573661804
1751620541120675600,16.018675537109374,0.07991790771484375,-2.747654914855957,0.03216126933693886
1751620541139499300,16.037499267578124,-0.27843189239501953,-2.0001111030578613,0.8119447231292725
1751620541158322700,16.05632275390625,0.05545234680175781,0.42907848954200745,-1.2460541725158691
1751620541177146400,16.075146484375,-0.11648273468017578,3.661546230316162,-4.970113277435303
1751620541195970000,16.093969970703125,0.05117607116699219,5.121534824371338,-4.319151401519775
1751620541214793700,16.112793701171874,0.05121040344238281,1.524621844291687,-0.6098194718360901
1751620541233617400,16.131617431640624,0.03703117370605469,1.567868947982788,-1.2742072343826294
1751620541252441000,16.150441162109374,0.027352333068847656,0.974697470664978,-1.9982635974884033
1751620541271264800,16.1692646484375,-0.07271671295166016,0.6516417264938354,-2.4180455207824707
1751620541290088400,16.18808837890625,0.13652706146240234,0.584065854549408,-3.020784378051758
1751620541308911900,16.206911865234375,0.2116565704345703,-0.5499279499053955,-2.236671209335327
1751620541327735600,16.225735595703124,-0.17905426025390625,-1.9466886520385742,-0.5475243330001831
1751620541346559200,16.244559326171874,-0.08302021026611328,-2.907637119293213,1.5606334209442139
1751620541365383000,16.2633828125,-0.11106109619140625,-3.0163443088531494,4.00752067565918
1751620541384206600,16.28220654296875,-0.2056894302368164,-1.849682092666626,3.5210726261138916
1751620541403030300,16.3010302734375,0.23547840118408203,-0.2021326720714569,-0.565707802772522
1751620541421854000,16.31985400390625,0.23410320281982422,-0.58766770362854,0.7737683653831482
1751620541440677600,16.338677734375,-0.04330921173095703,-1.5247809886932373,1.7018126249313354
1751620541459501300,16.357501220703124,0.05261421203613281,-1.586808681488037,0.9763339161872864
1751620541478324700,16.37632470703125,0.15714073181152344,-1.2560843229293823,0.5017198324203491
1751620541497148400,16.3951484375,0.04646873474121094,-1.4607288837432861,0.6519384384155273
1751620541515972000,16.41397216796875,-0.23575401306152344,-0.04843619465827942,0.2716551423072815
1751620541534795800,16.432795654296875,0.046517372131347656,1.6510428190231323,-0.9705435037612915
1751620541553619500,16.451619384765625,-0.08236980438232422,2.727461338043213,-1.952215313911438
1751620541572443100,16.470443115234374,-0.04881763458251953,2.4939677715301514,-3.1054561138153076
1751620541591266800,16.489266845703124,-0.03923988342285156,0.8795658946037292,-0.7810382843017578
1751620541610090200,16.50809033203125,-0.020094871520996094,1.0095993280410767,-0.9215182662010193
1751620541628914000,16.526913818359375,0.13239765167236328,0.47892099618911743,-1.4952925443649292
1751620541647737600,16.545737548828125,0.1599588394165039,0.5157970190048218,-2.4636120796203613
1751620541666561300,16.564561279296875,0.283447265625,-0.35644209384918213,-4.185620307922363
1751620541685385000,16.583385009765625,-0.02425098419189453,-1.2978742122650146,-3.6417386531829834
1751620541704208600,16.602208740234374,0.7826519012451172,-2.729975700378418,0.6462628245353699
1751620541723032300,16.6210322265625,0.024840354919433594,-2.989886999130249,5.868673324584961
1751620541741856000,16.63985595703125,0.35302066802978516,-1.8919342756271362,6.827419757843018
1751620541760679400,16.658679443359375,-0.014429092407226562,-0.8719216585159302,2.6571462154388428
1751620541779503000,16.677503173828125,-0.31979846954345703,-1.3290495872497559,1.378908634185791
1751620541798326800,16.696326904296875,0.20670318603515625,-1.308816909790039,-0.3937188386917114
1751620541817150500,16.715150390625,-0.4642810821533203,-0.8815402388572693,-1.5702896118164062
1751620541835974100,16.73397412109375,0.0036497116088867188,-0.3717605769634247,-1.5513149499893188
1751620541854797800,16.7527978515625,-0.0017671585083007812,0.6379844546318054,0.254883348941803
1751620541873621500,16.77162158203125,0.0986948013305664,0.5079028606414795,0.8998000025749207
1751620541892445000,16.79044482421875,-0.06426715850830078,1.0634725093841553,-0.8338980078697205
1751620541911268600,16.8092685546875,-0.006539344787597656,1.4146229028701782,-1.7471758127212524
1751620541930092300,16.82809228515625,-0.07297897338867188,0.5336506962776184,-0.9698236584663391
1751620541948916000,16.846916015625,0.09915447235107422,0.5245678424835205,-0.2141275405883789
1751620541967739600,16.86573974609375,-0.025338172912597656,0.3761078715324402,0.011760037392377853
1751620541986563300,16.884563232421876,0.041461944580078125,0.5003289580345154,-0.5089004039764404
1751620542005387000,16.903386962890625,0.0843191146850586,1.2099426984786987,-1.4816741943359375
1751620542024210700,16.922210693359375,-0.10756587982177734,0.9110265374183655,-4.006331443786621
1751620542043034000,16.9410341796875,-0.043834686279296875,0.4259546995162964,-3.0409185886383057
1751620542061857800,16.95985791015625,0.3435678482055664,-0.7603667378425598,-0.04872775822877884
1751620542080681500,16.978681396484376,0.035353660583496094,-2.5735678672790527,2.9291324615478516
1751620542099505200,16.997505126953126,-0.5034894943237305,-3.346108913421631,5.15562629699707
1751620542118328800,17.016328857421875,0.09015369415283203,-1.9277743101119995,2.7101588249206543
1751620542137152500,17.035152587890625,-0.15764999389648438,-2.567735433578491,3.0734527111053467
1751620542155976200,17.05397607421875,0.5828266143798828,-2.1671671867370605,1.007165551185608
1751620542174799600,17.072799560546876,0.11348724365234375,-0.8547181487083435,-1.1263461112976074
1751620542193623300,17.091623291015626,0.1316814422607422,0.00658474862575531,-1.5234967470169067
1751620542212447000,17.110447021484376,-0.14527225494384766,0.16074493527412415,-1.0974433422088623
1751620542231270700,17.129270751953126,-0.09771060943603516,1.0441811084747314,-0.9665769338607788
1751620542250094300,17.14809423828125,0.02684307098388672,1.684283971786499,-1.9000394344329834
1751620542268918000,17.16691796875,-0.17873668670654297,2.3914079666137695,-3.7446978092193604
1751620542287741400,17.185741455078126,0.06037616729736328,0.8849747180938721,-0.8264169692993164
1751620542306565000,17.204565185546876,0.07954597473144531,1.5213372707366943,-1.8827182054519653
1751620542325388800,17.223388916015626,-0.0445709228515625,1.224408745765686,-2.2411062717437744
1751620542344212500,17.24221240234375,0.11757850646972656,0.5206472277641296,-2.524606704711914
1751620542363036200,17.2610361328125,0.38317203521728516,-0.4531204104423523,-1.922560691833496
1751620542381859800,17.27985986328125,-1.5179119110107422,-1.068138837814331,-0.17702849209308624
1751620542400683500,17.29868359375,-0.5710983276367188,-1.0479382276535034,1.209317922592163
1751620542419507200,17.317507080078126,-0.20271778106689453,-0.8898217678070068,1.8093050718307495
1751620542438330600,17.33633056640625,-0.24526023864746094,-1.7349486351013184,2.911161422729492
1751620542457154300,17.355154296875,-0.11588287353515625,-1.2209943532943726,1.0245277881622314
1751620542475978000,17.37397802734375,0.03687000274658203,-0.3786197304725647,0.3091140389442444
1751620542494801700,17.3928017578125,-0.06360530853271484,-1.4098069667816162,1.373931884765625
1751620542513625300,17.411625244140627,-0.039760589599609375,-2.8572444915771484,2.712531089782715
1751620542532449000,17.430448974609376,-0.2829151153564453,-4.006869316101074,2.4340128898620605
1751620542551272700,17.449272705078126,0.3291912078857422,-3.485722064971924,0.2930925786495209
1751620542570096000,17.46809619140625,0.0835561752319336,-0.7634047269821167,-1.5930473804473877
1751620542588919800,17.486919921875,-0.2269725799560547,2.001910924911499,-3.035200595855713
1751620542607743500,17.505743408203124,0.08884525299072266,3.992626190185547,-3.661531448364258
1751620542626567200,17.524567138671873,0.026594161987304688,3.619140863418579,-3.2870521545410156
1751620542645390800,17.543390869140627,0.041037559509277344,0.061244554817676544,0.039452388882637024
1751620542664214500,17.562214599609376,0.012280464172363281,-0.23908820748329163,0.008646219968795776
1751620542683038200,17.5810380859375,0.007527351379394531,0.014590054750442505,0.06379366666078568
1751620542701862000,17.59986181640625,-0.049683570861816406,0.274423211812973,0.5259524583816528
1751620542720685300,17.618685302734374,-0.020836830139160156,1.3597137928009033,-1.1766993999481201
1751620542739509000,17.637509033203123,0.003208160400390625,1.9579589366912842,-2.6402249336242676
1751620542758332700,17.656332763671877,0.022249221801757812,1.7011477947235107,-3.303722858428955
1751620542777156400,17.67515625,0.24619770050048828,0.736121654510498,-2.8480467796325684
1751620542795980000,17.69397998046875,0.549443244934082,-0.87431800365448,-1.271573543548584
1751620542814803700,17.7128037109375,1.0452404022216797,-2.71722674369812,1.6060270071029663
1751620542833627100,17.731627197265624,0.12268447875976562,-2.29895281791687,3.7627289295196533
1751620542852450800,17.750450927734374,0.33817291259765625,-1.4773752689361572,2.0216987133026123
1751620542871274500,17.7692744140625,0.13246440887451172,-0.9879254102706909,0.2103034108877182
1751620542890098200,17.78809814453125,0.008106231689453125,-1.3005125522613525,-0.13880649209022522
1751620542908921900,17.806921875,0.003093719482421875,-0.047553837299346924,0.18563750386238098
1751620542927745500,17.82574560546875,-0.11177444458007812,-2.037905693054199,0.5871930718421936
1751620542946569200,17.8445693359375,-0.2263317108154297,-4.125277042388916,2.6357855796813965
1751620542965392600,17.863392578125,-0.08737659454345703,-3.377847194671631,3.5703492164611816
1751620542984216300,17.88221630859375,-0.08603191375732422,-1.49284827709198,1.479979395866394
1751620543003040000,17.9010400390625,0.2900419235229492,0.47782832384109497,-1.5133723020553589
1751620543031275500,17.929275634765624,0.01736736297607422,2.468275785446167,-2.505474328994751
1751620543050099200,17.94809912109375,-0.04932689666748047,3.493058681488037,-2.7783150672912598
1751620543068923000,17.9669228515625,-0.011138916015625,3.5308265686035156,-3.923616647720337
1751620543087746300,17.985746337890625,-0.08281898498535156,1.742832064628601,-1.9959557056427002
1751620543106570000,18.004570068359374,-0.08253097534179688,1.5714489221572876,-2.051940441131592
1751620543125393700,18.0233935546875,0.05117034912109375,0.9634476900100708,-2.9200518131256104
1751620543144217300,18.04221728515625,0.07912445068359375,-0.08241785317659378,-3.2749061584472656
1751620543163041000,18.061041015625,0.15908336639404297,-1.6126474142074585,-3.019177198410034
1751620543181864700,18.07986474609375,-0.6190299987792969,-2.145418167114258,-1.959887981414795
1751620543200688400,18.0986884765625,-0.010315895080566406,-2.0028417110443115,-0.13404181599617004
1751620543219511800,18.11751171875,0.25633716583251953,-2.807427406311035,2.1739604473114014
1751620543238335500,18.13633544921875,-0.7706336975097656,-2.715710401535034,4.033715724945068
1751620543257159200,18.1551591796875,-0.04804229736328125,-3.3945608139038086,4.834126949310303
1751620543275982800,18.17398291015625,0.07655143737792969,-1.5142319202423096,0.7637465596199036
1751620543294806500,18.192806640625,-0.07672691345214844,-1.405626654624939,1.8652046918869019
1751620543313630200,18.211630126953125,-0.061890602111816406,-1.0025966167449951,0.724654495716095
1751620543332454000,18.230453857421875,0.12042522430419922,-0.7061826586723328,-0.5745512843132019
1751620543351277300,18.24927734375,0.07567882537841797,-1.3289506435394287,-0.0732697993516922
1751620543370101000,18.26810107421875,-0.16316986083984375,-2.2965469360351562,2.072202682495117
1751620543388924700,18.286924560546876,-0.010664939880371094,-0.8260223269462585,0.7689541578292847
1751620543407748400,18.305748291015625,-0.0301513671875,1.1615594625473022,-1.1239691972732544
1751620543426572000,18.324572021484375,0.03172779083251953,1.4433836936950684,-1.1747671365737915
1751620543445395700,18.343395751953125,-0.04475879669189453,1.4908291101455688,-1.0483237504959106
1751620543464219400,18.362219482421875,-0.0015201568603515625,1.842201590538025,-0.8195369839668274
1751620543483042800,18.381042724609376,0.022577285766601562,1.6298123598098755,-1.3827712535858154
1751620543501866500,18.399866455078126,0.05600261688232422,0.47153085470199585,-1.5079827308654785
1751620543520690200,18.418690185546875,0.031945228576660156,-0.16126063466072083,-1.297682523727417
1751620543539513900,18.437513916015625,-0.07319259643554688,0.9405178427696228,-2.220977306365967
1751620543558337500,18.456337646484375,0.0034465789794921875,1.8415319919586182,-3.534987688064575
1751620543577161200,18.4751611328125,0.2891101837158203,1.3689162731170654,-3.601653575897217
1751620543595984600,18.493984619140626,-0.595545768737793,-0.0788123682141304,-2.1665143966674805
1751620543614808300,18.512808349609376,0.07564544677734375,-1.9299755096435547,1.6798391342163086
1751620543633632000,18.531632080078126,-0.07744407653808594,-3.475822687149048,4.650959014892578
1751620543652455700,18.55045556640625,-0.26247692108154297,-2.464235544204712,2.3146564960479736
1751620543671279400,18.569279296875,0.2867317199707031,-0.0940723642706871,-0.5309492945671082
1751620543690103000,18.58810302734375,0.08066272735595703,-0.15794065594673157,-0.5524993538856506
1751620543708926700,18.6069267578125,0.05664634704589844,-1.1047585010528564,0.5306621193885803
1751620543727750100,18.625750244140626,0.04189300537109375,-0.6859638690948486,0.21401044726371765
1751620543746573800,18.64457373046875,-0.0632944107055664,-3.1538894176483154,3.5363311767578125
1751620543765397500,18.6633974609375,0.022965431213378906,-2.63417387008667,2.9169998168945312
1751620543784221200,18.68222119140625,0.06524658203125,-1.1092617511749268,-0.019326984882354736
1751620543803044900,18.701044921875,-0.03553962707519531,0.250328004360199,-2.2379939556121826
1751620543821868500,18.71986865234375,-0.04534339904785156,0.9255687594413757,-2.5172336101531982
1751620543840692000,18.73869189453125,-0.040680885314941406,0.7133246064186096,-0.5810462236404419
1751620543859515600,18.757515625,-0.04069995880126953,0.6234918832778931,1.0466920137405396
1751620543878339300,18.77633935546875,-0.007180213928222656,1.887988805770874,-1.4457634687423706
1751620543897163000,18.7951630859375,0.0024309158325195312,1.9726598262786865,-2.980074167251587
1751620543915986700,18.813986572265627,0.01683807373046875,1.152479887008667,-0.5179518461227417
1751620543934810400,18.832810302734377,0.07424640655517578,1.8091821670532227,-2.118459463119507
1751620543953633800,18.8516337890625,0.10278034210205078,1.5310282707214355,-3.0434999465942383
1751620543972457500,18.87045751953125,0.27864933013916016,0.33024582266807556,-3.271343946456909
1751620543991281200,18.88928125,-0.3373889923095703,-0.21531932055950165,-3.1287479400634766
1751620544010104800,18.908104736328124,0.06929969787597656,-0.9379886388778687,-1.7328459024429321
1751620544028928500,18.926928466796873,-0.1701822280883789,-2.480609655380249,1.960995078086853
1751620544047752200,18.945752197265627,-0.1738290786743164,-3.780944585800171,4.734098434448242
1751620544066576000,18.964575927734376,-0.029611587524414062,-2.8934857845306396,3.3047492504119873
1751620544085399300,18.9833994140625,-0.16337299346923828,-1.420919418334961,1.8997607231140137
1751620544104223000,19.002222900390624,0.1811504364013672,-0.5950397253036499,0.7929561138153076
1751620544123046700,19.021046630859374,-0.029767990112304688,0.6916777491569519,-2.2144060134887695
1751620544141870300,19.039870361328123,0.18509864807128906,1.3506265878677368,-3.1689181327819824
1751620544160694000,19.058694091796873,0.06557083129882812,-0.34037941694259644,-0.24071520566940308
1751620544179517700,19.077517578125,0.05109691619873047,-0.5356235504150391,1.1348059177398682
1751620544198341400,19.09634130859375,0.0032052993774414062,-0.7479259967803955,1.6446967124938965
1751620544217164800,19.115164794921874,0.012749671936035156,-0.9570540189743042,2.02327299118042
1751620544235988500,19.133988525390624,0.01738262176513672,-0.1111408919095993,0.4614991545677185
1751620544254812200,19.152812255859374,0.03155994415283203,-0.17765989899635315,-0.35307782888412476
1751620544273635800,19.1716357421875,-0.030731201171875,-0.7197793126106262,0.5339992642402649
1751620544292459500,19.19045947265625,-0.0690908432006836,-0.15192808210849762,0.4474487602710724
1751620544311283200,19.209283203125,-0.021364212036132812,0.7903054356575012,-0.5935900211334229
1751620544330106600,19.228106689453124,-0.021402359008789062,1.0308257341384888,-1.0854288339614868
1751620544348930300,19.246930419921874,-0.021432876586914062,1.0358725786209106,-1.2767341136932373
1751620544367754000,19.26575390625,0.002384185791015625,0.7920334339141846,-1.082541823387146
1751620544386577700,19.28457763671875,0.011986732482910156,0.17171409726142883,-0.3362371325492859
1751620544405401300,19.3034013671875,0.040584564208984375,0.04039441794157028,-0.11281514912843704
1751620544424224800,19.322224853515625,0.04049873352050781,0.04713388532400131,-1.087047815322876
1751620544443048400,19.34104833984375,0.002162933349609375,0.15411388874053955,0.15692666172981262
1751620544471284000,19.369283935546875,0.04522895812988281,0.033404238522052765,0.04047079011797905
1751620544490107600,19.388107666015625,0.026030540466308594,0.09922683984041214,0.3542802035808563
1751620544508931300,19.406931396484374,0.03557014465332031,0.24902120232582092,-0.4680267870426178
1751620544527755000,19.425755126953124,0.05945777893066406,1.1575185060501099,-2.870316982269287
1751620544546578400,19.444578369140626,0.0070247650146484375,1.8171977996826172,-3.1550099849700928
1751620544565402000,19.463402099609375,0.007468223571777344,1.1557255983352661,-2.6093802452087402
1751620544584225800,19.482225830078125,0.026403427124023438,0.10856087505817413,-1.7658131122589111
1751620544603049500,19.501049560546875,-0.07361125946044922,-0.587245762348175,-0.12013609707355499
1751620544621873200,19.519873046875,0.09401988983154297,-1.7166337966918945,2.5105576515197754
1751620544640696800,19.53869677734375,0.11218452453613281,-2.4566454887390137,3.784468412399292
1751620544659520500,19.5575205078125,-0.6509971618652344,-1.8921515941619873,2.3334031105041504
1751620544678344000,19.576343994140625,0.3345479965209961,-1.0389939546585083,-0.40894365310668945
1751620544697167600,19.595167724609375,-0.01485443115234375,-0.30767303705215454,-0.3589528501033783
1751620544715991300,19.6139912109375,0.06121063232421875,-0.5968506336212158,0.296733021736145
1751620544734815000,19.63281494140625,-0.1919384002685547,-1.9751754999160767,2.5233092308044434
1751620544753638700,19.651638671875,0.06079292297363281,-2.9676170349121094,3.2856028079986572
1751620544772462300,19.67046240234375,0.1414661407470703,-3.0736570358276367,1.4231672286987305
1751620544791285800,19.68928564453125,0.2169933319091797,-1.8468838930130005,-0.4138892590999603
1751620544810109400,19.708109375,-0.027039527893066406,-0.6485552191734314,-1.5338536500930786
1751620544828933000,19.72693310546875,0.10671424865722656,1.2600135803222656,-2.6355879306793213
1751620544847756800,19.7457568359375,0.06390571594238281,3.4416449069976807,-4.240816593170166
1751620544866580500,19.76458056640625,0.02081298828125,2.3619186878204346,-3.1738388538360596
1751620544885404200,19.783404052734376,-0.012497901916503906,2.017519474029541,-1.4154045581817627
1751620544904227600,19.8022275390625,0.016219139099121094,1.4658905267715454,-1.5399006605148315
1751620544923051300,19.82105126953125,0.04995250701904297,0.8524999618530273,-1.8370009660720825
1751620544941875000,19.839875,0.0590972900390625,0.18549780547618866,-2.432431221008301
1751620544960698600,19.85869873046875,0.12015151977539062,-0.42143774032592773,-2.3903968334198
1751620544979522300,19.877522216796876,0.024259567260742188,-1.171694278717041,-1.123643159866333
1751620544998346000,19.896345947265626,-0.2028818130493164,-1.5883926153182983,1.2477062940597534
1751620545017169400,19.91516943359375,0.24103736877441406,-3.0352108478546143,3.903444766998291
1751620545035993000,19.9339931640625,-0.5172080993652344,-3.308373212814331,3.7482283115386963
1751620545054816800,19.952816650390623,0.210723876953125,-0.32535022497177124,0.9677562117576599
1751620545073640400,19.971640380859377,-0.18280029296875,0.20562905073165894,-0.1789267659187317
1751620545092464000,19.990464111328127,-0.05889892578125,-0.37415096163749695,-0.9948236346244812
1751620545111287800,20.009287841796876,-0.006619453430175781,-0.9240649938583374,-0.8775175213813782
1751620545130111200,20.028111328125,0.11260318756103516,-1.8492870330810547,0.631571352481842
1751620545148935000,20.046934814453124,0.07851696014404297,-2.902508020401001,2.684739351272583
1751620545167758600,20.065758544921874,0.025504112243652344,-2.5004160404205322,2.63289737701416
1751620545186582300,20.084582275390623,-0.031693458557128906,-0.20109103620052338,-0.4240754246711731
1751620545205406000,20.103406005859377,0.00176239013671875,2.8813180923461914,-3.072544574737549
1751620545224229600,20.122229736328126,-0.06975555419921875,3.7711586952209473,-3.170447587966919
1751620545243053000,20.141052978515624,0.002197265625,0.5493448972702026,-0.5818046927452087
1751620545261876700,20.159876708984374,0.040465354919433594,0.28894078731536865,-0.19289174675941467
1751620545280700400,20.178700439453124,0.0164794921875,0.3218647837638855,-0.10063973814249039
1751620545299524000,20.197524169921873,-0.0026645660400390625,0.42114490270614624,-0.14977124333381653
1751620545318347800,20.21634765625,-0.026543617248535156,0.11426091194152832,-0.1893332153558731
1751620545337171500,20.23517138671875,-0.021698951721191406,-0.23470813035964966,0.4403315484523773
1751620545355995000,20.253994873046874,-0.012170791625976562,0.007746085524559021,0.3201729655265808
1751620545374818600,20.272818603515624,0.006606101989746094,0.40230849385261536,-0.6827341318130493
1751620545393642200,20.291642333984374,0.03983306884765625,1.0202988386154175,-2.4529354572296143
1751620545412466000,20.3104658203125,-0.05437278747558594,1.255944848060608,-3.009666681289673
1751620545431289600,20.32928955078125,0.17918872833251953,0.8045235872268677,-2.2094337940216064
1751620545450113300,20.34811328125,-0.03201484680175781,-0.22289195656776428,0.3641605079174042
1751620545468936700,20.366936767578125,-0.14052963256835938,-1.4505716562271118,2.448270559310913
1751620545487760400,20.385760498046874,-0.015072822570800781,-2.2796528339385986,3.2761523723602295
1751620545506584000,20.404583984375,0.01902294158935547,-1.3185210227966309,1.0274666547775269
1751620545525407700,20.42340771484375,-0.1586751937866211,-0.8450413942337036,0.2759512662887573
1751620545544231400,20.4422314453125,-0.06827640533447266,-1.4512660503387451,0.6805506944656372
1751620545563055000,20.46105517578125,0.0029125213623046875,-2.730619430541992,2.0158350467681885
1751620545581878500,20.47987841796875,0.021808624267578125,-2.9356019496917725,1.6712685823440552
1751620545600702200,20.4987021484375,0.1218118667602539,-2.971766710281372,0.9576009511947632
1751620545619526000,20.51752587890625,0.03964424133300781,-1.84995436668396,-0.1975376307964325
1751620545638349600,20.536349609375,-0.055924415588378906,0.2731824517250061,-2.0590708255767822
1751620545657173200,20.55517333984375,-0.008119583129882812,2.088127374649048,-3.0270841121673584
1751620545675997000,20.573996826171875,0.0348968505859375,2.978452682495117,-3.7230823040008545
1751620545694820400,20.5928203125,0.015793800354003906,2.945444345474243,-1.774070143699646
1751620545713644000,20.61164404296875,0.011117935180664062,0.30545783042907715,0.7859658598899841
1751620545732467700,20.6304677734375,0.006524085998535156,0.32749834656715393,0.7493870258331299
1751620545751291400,20.64929150390625,0.0017862319946289062,0.39096498489379883,0.055660467594861984
1751620545770115000,20.668114990234375,0.02086353302001953,0.09417583048343658,-0.42721161246299744
1751620545788938800,20.686938720703125,-0.02687549591064453,0.9647765159606934,-1.0873546600341797
1751620545807762200,20.70576220703125,-0.0029153823852539062,1.5554392337799072,-3.1331329345703125
1751620545826585900,20.7245859375,-0.0648508071899414,1.2065352201461792,-3.72977614402771
1751620545845409500,20.743409423828126,-0.0023670196533203125,0.6092775464057922,-3.32165789604187
1751620545864233200,20.762233154296876,0.021684646606445312,0.22956950962543488,-1.9470949172973633
1751620545883057000,20.781056884765626,-0.011895179748535156,-0.3208550214767456,-0.4722111225128174
1751620545901880600,20.799880615234375,-0.025447845458984375,-1.8789124488830566,2.3670897483825684
1751620545920704000,20.8187041015625,-0.005808830261230469,-3.9131884574890137,5.6047139167785645
1751620545939527700,20.837527587890627,-0.34014225006103516,-4.0849199295043945,3.780815601348877
1751620545958351400,20.856351318359376,0.2812786102294922,-2.7998929023742676,3.155273914337158
1751620545977175000,20.875175048828126,0.16094970703125,-2.3484513759613037,1.2626639604568481
1751620545995998700,20.893998779296876,0.04576873779296875,-1.332524299621582,-1.1620237827301025
1751620546014822400,20.912822509765626,0.03093719482421875,0.058160871267318726,-2.8479690551757812
1751620546033645800,20.931645751953123,0.025788307189941406,0.9163143634796143,-2.0001120567321777
1751620546052469500,20.950469482421877,-0.06991100311279297,1.388661503791809,-1.65724515914917
1751620546071293200,20.969293212890626,-0.02695178985595703,1.7679409980773926,-2.7280025482177734
1751620546090116900,20.988116943359376,-0.055907249450683594,0.15785565972328186,0.4994930326938629
1751620546108940500,21.0069404296875,-0.02209758758544922,0.06921946257352829,-0.02013498544692993
1751620546127764200,21.02576416015625,0.025774002075195312,0.4575290381908417,0.1353900134563446
1751620546146587600,21.044587646484374,0.011399269104003906,0.7285781502723694,0.07858113944530487
1751620546165411300,21.063411376953123,0.0019102096557617188,1.108976125717163,-0.9440191984176636
1751620546184235000,21.082235107421877,-0.0694570541381836,1.2033125162124634,-3.091453790664673
1751620546203058700,21.10105859375,0.040744781494140625,1.014195442199707,-4.154140472412109
1751620546221882400,21.11988232421875,0.19881153106689453,0.8215340375900269,-2.994797945022583
1751620546240706000,21.1387060546875,0.2462177276611328,0.2518615126609802,-0.1914878785610199
1751620546259529500,21.157529541015624,0.043758392333984375,-1.1171021461486816,3.1354000568389893
1751620546278353200,21.176353271484373,-0.9058561325073242,-3.772529363632202,5.691285610198975
1751620546297176800,21.1951767578125,-0.034030914306640625,-4.136649131774902,4.588957786560059
1751620546316000500,21.21400048828125,0.02777576446533203,-4.157970428466797,3.10252046585083
1751620546334824200,21.23282421875,0.4142570495605469,-2.961808443069458,-0.07600265741348267
1751620546353647900,21.25164794921875,0.11238765716552734,-0.7432898879051208,-2.4788718223571777
1751620546372471300,21.27047119140625,0.08322906494140625,0.46538245677948,-3.2981719970703125
1751620546391295000,21.289294921875,0.03002643585205078,0.8928172588348389,-2.035344123840332
1751620546410118700,21.30811865234375,-0.05582237243652344,1.348740816116333,-1.1764088869094849
1751620546428942300,21.3269423828125,-0.012760162353515625,1.7565314769744873,-1.3045567274093628
1751620546447766000,21.34576611328125,0.03471565246582031,0.22799155116081238,0.2869729995727539
1751620546466589700,21.364589599609374,-0.03209877014160156,0.03768381476402283,0.03146282956004143
1751620546485413000,21.3834130859375,0.0014886856079101562,0.3407447338104248,0.2776292562484741
1751620546504236800,21.40223681640625,-0.14172935485839844,0.6832295656204224,-0.5281767845153809
1751620546523060500,21.421060546875,0.34045982360839844,0.3991044759750366,-1.8241596221923828
1751620546541884200,21.43988427734375,-0.38055992126464844,0.9971743822097778,-3.499748706817627
1751620546560707800,21.458707763671875,-0.06387138366699219,0.7644717693328857,-2.59867262840271
1751620546579531500,21.477531494140624,0.5311059951782227,-0.17468027770519257,-0.7713284492492676
1751620546598355000,21.49635498046875,-2.3355860710144043,-0.17595314979553223,2.734433889389038
1751620546617178600,21.5151787109375,-0.284576416015625,-1.4625436067581177,4.302906036376953
1751620546636002300,21.534002197265625,-0.0786895751953125,-2.371452808380127,2.6366162300109863
1751620546654826000,21.552825927734375,-0.33136463165283203,-2.493459463119507,2.164266586303711
1751620546673649700,21.571649658203125,-0.12044906616210938,-2.348639488220215,0.6992559432983398
1751620546692473300,21.590473388671874,0.4858255386352539,-2.288012742996216,-0.8334043025970459
1751620546711296800,21.609296875,0.1022186279296875,-2.3789827823638916,-0.6886371374130249
1751620546730120400,21.628120361328126,-0.15163230895996094,-1.4819446802139282,-0.194383904337883
1751620546748944100,21.646944091796875,-0.07066822052001953,0.47215113043785095,-0.8944278359413147
1751620546767767800,21.665767822265625,-0.11846637725830078,1.5836867094039917,-1.464074730873108
1751620546786591500,21.684591552734375,-0.05141448974609375,2.3389205932617188,-2.056278944015503
1751620546805415000,21.703414794921876,-0.07985401153564453,2.633824586868286,-2.229588031768799
1751620546824238600,21.722238525390626,-0.027260780334472656,0.5386186242103577,0.3520345389842987
1751620546843062300,21.741062255859376,0.00624847412109375,-0.16447898745536804,0.19308748841285706
1751620546861886000,21.759885986328126,0.011080741882324219,0.2345806062221527,0.49263879656791687
1751620546880709600,21.778709716796875,0.03028106689453125,0.9582889676094055,-0.6570435762405396
1751620546899533000,21.797532958984377,0.00180816650390625,1.1775349378585815,-1.2527494430541992
1751620546918356700,21.816356689453126,0.040200233459472656,0.62272709608078,-2.34953236579895
1751620546937180400,21.835180419921876,-0.05974578857421875,0.1209316998720169,-3.6399006843566895
1751620546956004000,21.854004150390626,0.05042743682861328,0.004921659827232361,-2.9082727432250977
1751620546974827800,21.872827880859376,-0.1260528564453125,-0.8241303563117981,-0.22052708268165588
1751620546993651500,21.8916513671875,0.16114234924316406,-1.8004212379455566,3.2700862884521484
1751620547012475000,21.910474853515623,-0.14523601531982422,-2.107927083969116,4.230108261108398
1751620547031298600,21.929298583984377,-0.1391458511352539,-1.2821884155273438,2.5121355056762695
1751620547050122200,21.948122314453126,-0.15911293029785156,-2.374882698059082,2.5785133838653564
1751620547068946000,21.96694580078125,0.14650440216064453,-3.3563170433044434,1.8951445817947388
1751620547087769600,21.98576953125,0.1459217071533203,-2.502255439758301,-0.7758978009223938
1751620547106593300,22.00459326171875,0.15483474731445312,-1.0590639114379883,-2.284972906112671
1751620547125416700,22.023416748046873,0.06829071044921875,0.22004489600658417,-1.952523112297058
1751620547144240400,22.042240478515627,0.02048206329345703,0.36376556754112244,0.006089635193347931
1751620547163064000,22.06106396484375,0.020395278930664062,1.1385501623153687,-1.1426069736480713
1751620547181887700,22.0798876953125,-0.008229255676269531,2.476776599884033,-2.4293079376220703
1751620547200711400,22.09871142578125,-0.017673492431640625,1.7225699424743652,-0.3983478248119354
1751620547219535000,22.11753515625,-0.050960540771484375,0.7339961528778076,0.201259583234787
1751620547238358500,22.136358642578124,-0.06997299194335938,1.813169240951538,-1.7054288387298584
1751620547257182200,22.15518212890625,-0.04113197326660156,2.043635845184326,-2.7225167751312256
1751620547276006000,22.174005859375,-0.07882976531982422,1.5028070211410522,-3.1950037479400635
1751620547294829600,22.19282958984375,0.2642631530761719,0.36003243923187256,-2.8485195636749268
1751620547313653200,22.2116533203125,-0.2274770736694336,-0.9272575378417969,-1.4978656768798828
1751620547332477000,22.230476806640624,0.09317779541015625,-1.9031838178634644,1.3749237060546875
1751620547351300400,22.24930029296875,-0.22579288482666016,-2.066418170928955,3.4494175910949707
1751620547370124000,22.2681240234375,0.10941886901855469,-2.0281543731689453,2.5795114040374756
1751620547388947700,22.28694775390625,0.1850299835205078,-1.7823703289031982,1.4099713563919067
1751620547407771400,22.305771484375,0.012411117553710938,-3.193958044052124,2.193223237991333
1751620547426595000,22.324594970703124,-0.1978912353515625,-4.160736083984375,2.800396680831909
1751620547445418500,22.34341845703125,0.5950870513916016,-3.9087233543395996,0.26181572675704956
1751620547464242200,22.3622421875,0.0010995864868164062,-2.4099161624908447,-0.9327753186225891
1751620547483065900,22.38106591796875,-0.027704238891601562,-0.6152307391166687,-1.492984652519226
1751620547501889500,22.3998896484375,-0.00397491455078125,1.7832008600234985,-2.5736582279205322
1751620547520713200,22.418713134765625,-0.04199504852294922,3.9624600410461426,-3.6245806217193604
1751620547539537000,22.437536865234375,-0.0322265625,4.266026020050049,-2.9119694232940674
1751620547558360300,22.4563603515625,0.030081748962402344,0.819438099861145,-0.02727060765028
1751620547577184000,22.47518408203125,0.015787124633789062,0.5260897874832153,0.313142865896225
1751620547596007700,22.494007568359375,0.03979778289794922,0.43681076169013977,0.032061461359262466
1751620547614831400,22.512831298828125,0.044737815856933594,1.1255499124526978,-1.4549704790115356
1751620547633655000,22.531655029296875,0.08789730072021484,1.3342255353927612,-3.0458929538726807
1751620547652478700,22.550478759765625,0.10280036926269531,1.3084827661514282,-4.1291632652282715
1751620547671302100,22.56930224609375,0.060181617736816406,0.9450579881668091,-3.2889602184295654
1751620547690125800,22.588125732421876,-0.006247520446777344,0.29407578706741333,-1.841902732849121
1751620547708949500,22.606949462890626,0.04178333282470703,-1.6931283473968506,0.7251590490341187
1751620547727773200,22.625773193359375,0.17456340789794922,-4.2905659675598145,4.652983665466309
1751620547746596900,22.644596923828125,-0.3868246078491211,-4.125473499298096,4.698612689971924
1751620547774832000,22.67283203125,-0.0393829345703125,-2.1724905967712402,1.7664692401885986
1751620547793655800,22.69165576171875,-0.20711135864257812,-2.4009554386138916,2.126704454421997
1751620547812479500,22.7104794921875,-0.06905746459960938,-2.112464666366577,-0.12649723887443542
1751620547831303200,22.72930322265625,-0.026666641235351562,-0.9793425798416138,-1.2743101119995117
1751620547850126800,22.748126953125,0.006192207336425781,-0.48575615882873535,-0.8288599252700806
1751620547868950300,22.7669501953125,0.006239891052246094,-0.2832462191581726,-0.2533891797065735
1751620547887774000,22.78577392578125,-0.013079643249511719,0.6126148104667664,-0.10421663522720337
1751620547906597600,22.80459765625,-0.06077384948730469,1.419497013092041,-1.3205487728118896
1751620547925421300,22.82342138671875,0.06347370147705078,1.5589072704315186,-2.045682430267334
1751620547944245000,22.842244873046877,0.04894828796386719,1.1110599040985107,-2.381688356399536
1751620547963068400,22.861068359375,0.015590667724609375,0.1754433810710907,0.057822830975055695
1751620547981892000,22.87989208984375,0.04433727264404297,0.09765675663948059,-0.017252221703529358
1751620548000715800,22.8987158203125,0.030065536499023438,0.03422704339027405,0.02416166290640831
1751620548019539500,22.91753955078125,0.010928153991699219,0.04280904680490494,0.24562212824821472
1751620548038363100,22.936363037109373,-0.022436141967773438,0.7363892793655396,-0.2786891460418701
1751620548057186800,22.955186767578127,-0.012823104858398438,1.4397404193878174,-1.765741229057312
1751620548076010200,22.97401025390625,-0.0652008056640625,1.4175745248794556,-3.4766411781311035
1751620548094834000,22.992833984375,0.035668373107910156,1.0612406730651855,-4.3140058517456055
1751620548113657600,23.01165771484375,0.021605491638183594,0.17252033948898315,-2.9016029834747314
1751620548132481300,23.030481201171874,0.06998729705810547,-1.323414921760559,-0.41568315029144287
1751620548151305000,23.049304931640624,-0.015943527221679688,-4.040463924407959,4.427318572998047
1751620548170128600,23.068128662109373,-0.04424571990966797,-4.506100177764893,7.1796088218688965
1751620548188952000,23.0869521484375,0.12294292449951172,-1.1663950681686401,1.9800043106079102
1751620548207775700,23.105775634765624,-0.016284942626953125,-1.237366795539856,1.0201605558395386
1751620548226599400,23.124599365234374,0.09330558776855469,-1.7193987369537354,0.24780909717082977
1751620548245423000,23.143423095703124,0.14534568786621094,-2.4019997119903564,0.0260540172457695
1751620548264246800,23.162246826171874,0.039234161376953125,-3.6196465492248535,1.5919790267944336
1751620548283070500,23.181070556640623,0.0723733901977539,-3.062009811401367,1.3646118640899658
1751620548301894000,23.199893798828125,-0.0715799331665039,-0.28340598940849304,-2.068655014038086
1751620548320717600,23.218717529296875,-0.10471725463867188,2.1425817012786865,-4.254642009735107
1751620548339541200,23.237541259765624,-0.028441429138183594,3.4102256298065186,-3.512460470199585
1751620548358365000,23.256364990234374,-0.023476600646972656,4.319261074066162,-3.5947113037109375
1751620548377188600,23.275188720703124,-0.01861095428466797,1.0386940240859985,-0.4586711525917053
1751620548396012000,23.294011962890625,0.0006256103515625,1.219459891319275,-1.234180212020874
1751620548414835700,23.312835693359375,0.03895378112792969,1.2751505374908447,-1.7597788572311401
1751620548433659400,23.331659423828125,0.07253551483154297,1.2569758892059326,-2.510450601577759
