time,seconds_elapsed,z,y,x
1751620525242941400,0.14094140625,9.80555534362793,0.11565860360860825,-0.09003742784261703
1751620525280588500,0.178588623046875,9.804647445678711,0.16709446907043457,-0.10658752173185349
1751620525337059300,0.235059326171875,9.805532455444336,0.11311860382556915,-0.09552180022001266
1751620525374706700,0.272706787109375,9.805295944213867,0.14460749924182892,-0.07517217099666595
1751620525402942000,0.30094189453125,9.805265426635742,0.1369207799434662,-0.0918029323220253
1751620525421765600,0.319765625,9.805113792419434,0.139584019780159,-0.10310661792755127
1751620525440589000,0.338589111328125,9.804754257202148,0.16045333445072174,-0.10703029483556747
1751620525459412700,0.357412841796875,9.804412841796875,0.1771859973669052,-0.11174838244915009
1751620525478236400,0.376236328125,9.80438232421875,0.17444033920764923,-0.11854805052280426
1751620525497059800,0.395059814453125,9.80449104309082,0.16598866879940033,-0.12163058668375015
1751620525515883500,0.413883544921875,9.804555892944336,0.16495318710803986,-0.11773618310689926
1751620525534707200,0.432707275390625,9.804597854614258,0.16741503775119781,-0.11056861281394958
1751620525553531000,0.45153076171875,9.804744720458984,0.16190814971923828,-0.10559698939323425
1751620525572354300,0.470354248046875,9.804916381835938,0.15244783461093903,-0.10369841754436493
1751620525591178000,0.489177978515625,9.804990768432617,0.14818497002124786,-0.10290811955928802
1751620525610001700,0.508001708984375,9.804900169372559,0.15448416769504547,-0.10230706632137299
1751620525628825000,0.5268251953125,9.804797172546387,0.16043581068515778,-0.10300542414188385
1751620525647648800,0.545648681640625,9.804759979248047,0.16050836443901062,-0.10634292662143707
1751620525666472400,0.564472412109375,9.804731369018555,0.15998384356498718,-0.10970604419708252
1751620525685296000,0.583296142578125,9.804652214050293,0.16388259828090668,-0.11102267354726791
1751620525704119600,0.60211962890625,9.80457878112793,0.16830262541770935,-0.11083518713712692
1751620525722943200,0.620943115234375,9.804571151733398,0.16827534139156342,-0.11161382496356964
1751620525741767000,0.639766845703125,9.804652214050293,0.16347955167293549,-0.11160264909267426
1751620525760590600,0.658590576171875,9.804779052734375,0.1581006795167923,-0.10814516246318817
1751620525779414000,0.6774140625,9.804800987243652,0.1597631722688675,-0.10360828042030334
1751620525798237700,0.69623779296875,9.804807662963867,0.16067765653133392,-0.10151995718479156
1751620525817061400,0.715061279296875,9.80487060546875,0.1558193415403366,-0.10306738317012787
1751620525835885000,0.733885009765625,9.804908752441406,0.15230391919612885,-0.10461313277482986
1751620525854708500,0.75270849609375,9.804887771606445,0.1545066088438034,-0.10340659320354462
1751620525873532200,0.7715322265625,9.804780960083008,0.1617889404296875,-0.10234624147415161
1751620525892355800,0.79035595703125,9.804689407348633,0.16556772589683533,-0.1050315871834755
1751620525911179300,0.80917919921875,9.804658889770508,0.16389629244804382,-0.11047247797250748
1751620525930003000,0.8280029296875,9.80459213256836,0.16552655398845673,-0.11382139474153519
1751620525948826600,0.84682666015625,9.804505348205566,0.17094096541404724,-0.11332491785287857
1751620525967650300,0.865650390625,9.804539680480957,0.17071667313575745,-0.11069033294916153
1751620525986473700,0.8844736328125,9.80467700958252,0.16443470120429993,-0.10796862840652466
1751620526005297400,0.90329736328125,9.804798126220703,0.1588641107082367,-0.10527276992797852
1751620526024121000,0.92212109375,9.80484676361084,0.15742819011211395,-0.10289723426103592
1751620526042944800,0.94094482421875,9.80487060546875,0.15746556222438812,-0.10055094957351685
1751620526061768400,0.9597685546875,9.804902076721191,0.15607959032058716,-0.09969346225261688
1751620526080592000,0.978591796875,9.804916381835938,0.15505211055278778,-0.09985809773206711
1751620526099415600,0.99741552734375,9.804878234863281,0.15660859644412994,-0.1011400893330574
1751620526118239200,1.0162392578125,9.80480670928955,0.16026607155799866,-0.10229707509279251
1751620526137063000,1.03506298828125,9.804705619812012,0.16468431055545807,-0.10488583892583847
1751620526155886300,1.05388623046875,9.804542541503906,0.17060868442058563,-0.11050665378570557
1751620526174710000,1.0727099609375,9.804397583007812,0.17485502362251282,-0.11659121513366699
1751620526193533700,1.09153369140625,9.804266929626465,0.17926476895809174,-0.12090816348791122
1751620526212357400,1.110357421875,9.804192543029785,0.18272438645362854,-0.1216772273182869
1751620526231180800,1.129180908203125,9.804214477539062,0.18262483179569244,-0.12006790190935135
1751620526250004500,1.14800439453125,9.804330825805664,0.1778961569070816,-0.11765550822019577
1751620526268828200,1.166828125,9.804500579833984,0.1705418974161148,-0.11440320312976837
1751620526287651800,1.18565185546875,9.804666519165039,0.16399870812892914,-0.10962807387113571
1751620526306475300,1.204475341796875,9.804805755615234,0.15891648828983307,-0.10458919405937195
1751620526325299000,1.223298828125,9.804903030395508,0.1549520641565323,-0.10125922411680222
1751620526344122600,1.24212255859375,9.804943084716797,0.15291254222393036,-0.10043206810951233
1751620526362946300,1.2609462890625,9.804922103881836,0.15344128012657166,-0.10166502743959427
1751620526381769700,1.279769775390625,9.804851531982422,0.15646550059318542,-0.10386774688959122
1751620526400593400,1.298593505859375,9.804759979248047,0.16037490963935852,-0.10650487244129181
1751620526419417000,1.3174169921875,9.804668426513672,0.16423439979553223,-0.10912350565195084
1751620526438240800,1.33624072265625,9.804594993591309,0.1671186238527298,-0.11125326156616211
1751620526457064400,1.355064453125,9.80455207824707,0.16902385652065277,-0.11213219910860062
1751620526475887900,1.373887939453125,9.804532051086426,0.1697321981191635,-0.11278659105300903
1751620526494711600,1.392711669921875,9.804545402526855,0.16939525306224823,-0.11213169991970062
1751620526513535200,1.41153515625,9.804595947265625,0.1672738790512085,-0.11095298826694489
1751620526532359000,1.43035888671875,9.804656028747559,0.16471903026103973,-0.10938302427530289
1751620526551182300,1.449182373046875,9.804692268371582,0.16352325677871704,-0.10799715667963028
1751620526570006000,1.468006103515625,9.804698944091797,0.16326464712619781,-0.10770824551582336
1751620526588829700,1.48682958984375,9.804696083068848,0.16331952810287476,-0.10796799510717392
1751620526607653400,1.5056533203125,9.8046875,0.16329361498355865,-0.10876912623643875
1751620526626477000,1.52447705078125,9.804680824279785,0.16349588334560394,-0.10903660953044891
1751620526645300500,1.543300537109375,9.804688453674316,0.16327115893363953,-0.10870519280433655
1751620526664124200,1.562124267578125,9.80469799041748,0.16290393471717834,-0.10843421518802643
1751620526682947800,1.58094775390625,9.804704666137695,0.16262486577033997,-0.10809314250946045
1751620526701771500,1.599771484375,9.804712295532227,0.16215947270393372,-0.108184814453125
1751620526720595200,1.61859521484375,9.804718017578125,0.16201989352703094,-0.10796420276165009
1751620526739418600,1.637418701171875,9.804708480834961,0.1624419093132019,-0.10814497619867325
1751620526758242300,1.6562421875,9.804695129394531,0.16291721165180206,-0.1085977554321289
1751620526777066000,1.67506591796875,9.804686546325684,0.16299304366111755,-0.10927185416221619
1751620526795889700,1.6938896484375,9.804681777954102,0.16302670538425446,-0.10963843017816544
1751620526814713300,1.71271337890625,9.804675102233887,0.16348890960216522,-0.1095358356833458
1751620526833536800,1.731536865234375,9.804681777954102,0.16365963220596313,-0.10873657464981079
1751620526852360400,1.7503603515625,9.80469799041748,0.16308242082595825,-0.10810432583093643
1751620526871184100,1.76918408203125,9.804725646972656,0.1619594693183899,-0.10730108618736267
1751620526890007800,1.7880078125,9.804734230041504,0.16166655719280243,-0.10692372918128967
1751620526908831200,1.806831298828125,9.80473518371582,0.16164852678775787,-0.10694340616464615
1751620526927655000,1.825655029296875,9.804729461669922,0.16168087720870972,-0.10738728195428848
1751620526946478600,1.844478515625,9.804712295532227,0.1622612178325653,-0.10801998525857925
1751620526965302300,1.86330224609375,9.804682731628418,0.16344785690307617,-0.10902561247348785
1751620526984126000,1.8821259765625,9.804658889770508,0.1643678843975067,-0.10976039618253708
1751620527002949400,1.900949462890625,9.804645538330078,0.16478708386421204,-0.1102304458618164
1751620527021773000,1.91977294921875,9.804656028747559,0.1642972230911255,-0.11013787239789963
1751620527040596700,1.9385966796875,9.804673194885254,0.1638278216123581,-0.10923589020967484
1751620527059420400,1.95742041015625,9.804701805114746,0.16278880834579468,-0.1082119345664978
1751620527078243800,1.976243896484375,9.804733276367188,0.16164787113666534,-0.10710038244724274
1751620527097067500,1.995067626953125,9.804758071899414,0.1605844795703888,-0.10644902288913727
1751620527115891200,2.01389111328125,9.804778099060059,0.1599351167678833,-0.10562581568956375
1751620527134715000,2.03271484375,9.804780006408691,0.1599099040031433,-0.10541683435440063
1751620527153538600,2.05153857421875,9.804766654968262,0.16057568788528442,-0.10568378865718842
1751620527172362200,2.0703623046875,9.804744720458984,0.1613466590642929,-0.10649021714925766
1751620527191185700,2.089185546875,9.804719924926758,0.16256487369537354,-0.10691847652196884
1751620527210009300,2.10800927734375,9.80469799041748,0.16342481970787048,-0.10761091858148575
1751620527228833000,2.1268330078125,9.804671287536621,0.16454608738422394,-0.10834813863039017
1751620527247656700,2.14565673828125,9.804664611816406,0.16493003070354462,-0.10831714421510696
1751620527266480400,2.16448046875,9.804675102233887,0.16462214291095734,-0.10789892822504044
1751620527294715600,2.192715576171875,9.804695129394531,0.16380628943443298,-0.10728473216295242
1751620527313539300,2.211539306640625,9.80471134185791,0.16322217881679535,-0.1067768931388855
1751620527332363000,2.230363037109375,9.804722785949707,0.1627860963344574,-0.10625897347927094
1751620527351186700,2.249186767578125,9.804733276367188,0.16227875649929047,-0.10607288032770157
1751620527370010000,2.268010009765625,9.80474853515625,0.161553293466568,-0.10581652075052261
1751620527388833800,2.286833740234375,9.804747581481934,0.1616676300764084,-0.10567919164896011
1751620527407657500,2.305657470703125,9.804739952087402,0.1620081663131714,-0.10590312629938126
1751620527426481200,2.324481201171875,9.804722785949707,0.16280511021614075,-0.10623028129339218
1751620527445304800,2.343304931640625,9.804712295532227,0.1631547510623932,-0.10674826800823212
1751620527464128300,2.362128173828125,9.804692268371582,0.16407890617847443,-0.10712035000324249
1751620527482952000,2.380951904296875,9.80467700958252,0.16472795605659485,-0.10756166279315948
1751620527501775600,2.399775634765625,9.804670333862305,0.16501398384571075,-0.10768623650074005
1751620527520599300,2.418599365234375,9.804669380187988,0.1651419699192047,-0.10757394134998322
1751620527539423000,2.437423095703125,9.804659843444824,0.16560369729995728,-0.10775309801101685
1751620527558246400,2.456246337890625,9.804652214050293,0.1659819632768631,-0.10793672502040863
1751620527577070000,2.475070068359375,9.804648399353027,0.16608509421348572,-0.10803592205047607
1751620527595893800,2.493893798828125,9.804658889770508,0.16570618748664856,-0.10762525349855423
1751620527614717400,2.512717529296875,9.804683685302734,0.1647186577320099,-0.10699975490570068
1751620527633540900,2.531540771484375,9.804713249206543,0.1635275036096573,-0.10603764653205872
1751620527652364500,2.550364501953125,9.804733276367188,0.16283433139324188,-0.1052611693739891
1751620527671188200,2.569188232421875,9.804753303527832,0.16179776191711426,-0.104979008436203
1751620527690012000,2.588011962890625,9.804760932922363,0.1615074872970581,-0.10467471182346344
1751620527708835600,2.606835693359375,9.804767608642578,0.16129916906356812,-0.10445865988731384
1751620527727659300,2.6256591796875,9.804759979248047,0.16172431409358978,-0.10448822379112244
1751620527746482700,2.644482666015625,9.804734230041504,0.16292595863342285,-0.10498179495334625
1751620527765306400,2.663306396484375,9.804697036743164,0.16448016464710236,-0.10607849061489105
1751620527784130000,2.682130126953125,9.804649353027344,0.16614682972431183,-0.10781336575746536
1751620527802953700,2.70095361328125,9.804620742797852,0.16736307740211487,-0.10861984640359879
1751620527821777400,2.71977734375,9.804627418518066,0.16701917350292206,-0.10846555978059769
1751620527840600800,2.738600830078125,9.80465316772461,0.16594544053077698,-0.107810840010643
1751620527859424500,2.757424560546875,9.804694175720215,0.16420157253742218,-0.10679543763399124
1751620527878248200,2.776248291015625,9.804733276367188,0.1628977656364441,-0.10522766411304474
1751620527897071900,2.79507177734375,9.804747581481934,0.16234251856803894,-0.10468689352273941
1751620527915895600,2.8138955078125,9.804750442504883,0.16218914091587067,-0.10463014245033264
1751620527934719000,2.832718994140625,9.8047513961792,0.16180047392845154,-0.10511370003223419
1751620527953542700,2.851542724609375,9.80473804473877,0.16237029433250427,-0.10558830946683884
1751620527972366300,2.870366455078125,9.804718971252441,0.16328223049640656,-0.1058138906955719
1751620527991190000,2.88918994140625,9.804710388183594,0.163809671998024,-0.10590287297964096
1751620528010013700,2.908013671875,9.804705619812012,0.1636890470981598,-0.10645809024572372
1751620528028837000,2.926837158203125,9.804704666137695,0.1633879691362381,-0.10707239806652069
1751620528047660800,2.945660888671875,9.804692268371582,0.16375942528247833,-0.10759402066469193
1751620528066484500,2.964484375,9.804681777954102,0.16415636241436005,-0.10790274292230606
1751620528085308200,2.98330810546875,9.804699897766113,0.1634046882390976,-0.10745655000209808
1751620528104131800,3.0021318359375,9.804716110229492,0.16274842619895935,-0.10702306032180786
1751620528122955300,3.020955322265625,9.804732322692871,0.1621139794588089,-0.10644934326410294
1751620528141779000,3.039779052734375,9.804734230041504,0.16221119463443756,-0.10605688393115997
1751620528160602600,3.0586025390625,9.804728507995605,0.16269783675670624,-0.10591544955968857
1751620528179426300,3.07742626953125,9.804713249206543,0.1632365882396698,-0.10647562146186829
1751620528198250000,3.09625,9.804701805114746,0.1632804274559021,-0.10752490907907486
1751620528217073700,3.11507373046875,9.80468463897705,0.1639181673526764,-0.10802588611841202
1751620528235897000,3.13389697265625,9.804666519165039,0.1647343635559082,-0.10851110517978668
1751620528254720800,3.152720703125,9.804665565490723,0.16462861001491547,-0.1086694747209549
1751620528273544400,3.17154443359375,9.804678916931152,0.16390840709209442,-0.10852684080600739
1751620528292368100,3.1903681640625,9.804677963256836,0.1638355404138565,-0.10873308032751083
1751620528311191600,3.209191650390625,9.804686546325684,0.16364215314388275,-0.10825985670089722
1751620528330015200,3.22801513671875,9.804699897766113,0.1633758246898651,-0.10745533555746078
1751620528348839000,3.2468388671875,9.804719924926758,0.16246309876441956,-0.10707449913024902
1751620528367662600,3.26566259765625,9.804718971252441,0.16261465847492218,-0.10690291970968246
1751620528386486300,3.284486328125,9.80470085144043,0.163556769490242,-0.10716172307729721
1751620528405310000,3.30331005859375,9.804677963256836,0.16438475251197815,-0.10798881202936172
1751620528424133400,3.32213330078125,9.804664611816406,0.16478733718395233,-0.1085495874285698
1751620528442957000,3.34095703125,9.804658889770508,0.16498883068561554,-0.10877606272697449
1751620528461780700,3.35978076171875,9.804656028747559,0.16526223719120026,-0.10865547508001328
1751620528480604400,3.3786044921875,9.804658889770508,0.16509364545345306,-0.10865151882171631
1751620528499428000,3.397427978515625,9.804671287536621,0.16428181529045105,-0.1087261512875557
1751620528518251500,3.41625146484375,9.804680824279785,0.16372933983802795,-0.10868888348340988
1751620528537075200,3.4350751953125,9.804683685302734,0.1636616289615631,-0.10860474407672882
1751620528555899000,3.45389892578125,9.804678916931152,0.16374661028385162,-0.10888098180294037
1751620528574722600,3.47272265625,9.804676055908203,0.16367921233177185,-0.10923495143651962
1751620528593546200,3.491546142578125,9.80467700958252,0.16379928588867188,-0.10902325063943863
1751620528612369700,3.51036962890625,9.80467414855957,0.16398511826992035,-0.1088947281241417
1751620528631193300,3.529193359375,9.804683685302734,0.16378246247768402,-0.10842844098806381
1751620528650017000,3.54801708984375,9.804688453674316,0.16366012394428253,-0.10804116725921631
1751620528668840700,3.5668408203125,9.804681777954102,0.16385039687156677,-0.10844701528549194
1751620528687664400,3.585664306640625,9.804676055908203,0.16402219235897064,-0.1087326928973198
1751620528706487800,3.60448779296875,9.804673194885254,0.16404958069324493,-0.10895645618438721
1751620528725311500,3.6233115234375,9.804669380187988,0.16420206427574158,-0.1090330258011818
1751620528744135200,3.64213525390625,9.804672241210938,0.16407246887683868,-0.10893861204385757
1751620528762958800,3.660958740234375,9.804676055908203,0.16387628018856049,-0.10889686644077301
1751620528781782500,3.679782470703125,9.80467700958252,0.163837730884552,-0.10893221199512482
1751620528800606200,3.698606201171875,9.804676055908203,0.1636870950460434,-0.10912588983774185
1751620528819429600,3.7174296875,9.804679870605469,0.16338787972927094,-0.10934434831142426
1751620528838253300,3.73625341796875,9.804680824279785,0.16312749683856964,-0.10955304652452469
1751620528857077000,3.755076904296875,9.804678916931152,0.16341450810432434,-0.10925295203924179
1751620528875900700,3.773900634765625,9.804682731628418,0.1634645015001297,-0.10899379104375839
1751620528894724000,3.79272412109375,9.804666519165039,0.16414040327072144,-0.10936957597732544
1751620528913547800,3.8115478515625,9.804665565490723,0.16447608172893524,-0.10899116098880768
1751620528932371500,3.830371337890625,9.804665565490723,0.16429755091667175,-0.10925412178039551
1751620528951195100,3.849195068359375,9.804665565490723,0.16440114378929138,-0.10907261818647385
1751620528970018800,3.868018798828125,9.80467700958252,0.16402998566627502,-0.10862892866134644
1751620528988842500,3.886842529296875,9.804678916931152,0.16390739381313324,-0.1086253970861435
1751620529007666000,3.905666015625,9.804681777954102,0.16378767788410187,-0.10851206630468369
1751620529026489600,3.924489501953125,9.804677963256836,0.16403263807296753,-0.10851901769638062
1751620529045313300,3.943313232421875,9.804679870605469,0.16364170610904694,-0.10895884782075882
1751620529064137000,3.962136962890625,9.804682731628418,0.16352537274360657,-0.10883744060993195
1751620529082960600,3.980960693359375,9.80469036102295,0.16326308250427246,-0.10863883048295975
1751620529101784000,3.9997841796875,9.80469036102295,0.16334567964076996,-0.10841003805398941
1751620529120607700,4.018607666015625,9.804686546325684,0.1632428765296936,-0.10880443453788757
1751620529139431400,4.037431396484375,9.8046875,0.16314730048179626,-0.10903028398752213
1751620529158255000,4.056255126953125,9.80468463897705,0.1633954793214798,-0.10882513970136642
1751620529177078800,4.075078857421875,9.804686546325684,0.16341166198253632,-0.10870564728975296
1751620529195902500,4.09390234375,9.804691314697266,0.1631230115890503,-0.10870044678449631
1751620529214726000,4.112725830078125,9.804688453674316,0.1630251258611679,-0.10900804400444031
1751620529233549600,4.131549560546875,9.80468463897705,0.1631380021572113,-0.10914692282676697
1751620529252373200,4.150373291015625,9.804699897766113,0.16246670484542847,-0.10889878123998642
1751620529271197000,4.169197021484375,9.80470085144043,0.1624375283718109,-0.10877691209316254
1751620529290020400,4.188020263671875,9.804706573486328,0.1620943546295166,-0.10876914113759995
1751620529308844000,4.206843994140625,9.804697036743164,0.16235338151454926,-0.10923568904399872
1751620529327667700,4.225667724609375,9.804703712463379,0.16216996312141418,-0.10898838192224503
1751620529346491400,4.244491455078125,9.804708480834961,0.16195115447044373,-0.10886140912771225
1751620529365315000,4.263315185546875,9.804718017578125,0.16153310239315033,-0.1086568534374237
1751620529384138500,4.282138427734375,9.804720878601074,0.16124600172042847,-0.10872211307287216
1751620529402962200,4.300962158203125,9.804713249206543,0.1615748405456543,-0.10892166942358017
1751620529421785900,4.319785888671875,9.804709434509277,0.1617325097322464,-0.109066903591156
1751620529440609500,4.338609619140625,9.804702758789062,0.1620706468820572,-0.10920422524213791
1751620529459433200,4.35743310546875,9.804708480834961,0.16177773475646973,-0.10904018580913544
1751620529478257000,4.3762568359375,9.804717063903809,0.1612280160188675,-0.10911457240581512
1751620529497080300,4.395080322265625,9.804728507995605,0.1607244908809662,-0.10886328667402267
1751620529515904000,4.413904052734375,9.804730415344238,0.16083551943302155,-0.10858840495347977
1751620529534727700,4.432727783203125,9.804734230041504,0.16058306396007538,-0.1085529625415802
1751620529553551400,4.45155126953125,9.804733276367188,0.1605704426765442,-0.108680360019207
1751620529572374800,4.470374755859375,9.804727554321289,0.16094693541526794,-0.10861033201217651
1751620529591198500,4.489198486328125,9.804716110229492,0.16146720945835114,-0.10884170979261398
1751620529610022100,4.508022216796875,9.804706573486328,0.1619996726512909,-0.10902862250804901
1751620529628845800,4.526845703125,9.804704666137695,0.1619385927915573,-0.10921064019203186
1751620529647669500,4.54566943359375,9.804708480834961,0.16185304522514343,-0.1090734601020813
1751620529666493000,4.564492919921875,9.804716110229492,0.16148218512535095,-0.10889159888029099
1751620529685316600,4.583316650390625,9.80472183227539,0.16128632426261902,-0.1086132600903511
1751620529704140300,4.602140380859375,9.804727554321289,0.16110335290431976,-0.10839296877384186
1751620529722964000,4.6209638671875,9.804722785949707,0.16154268383979797,-0.10817918181419373
1751620529741787600,4.63978759765625,9.804716110229492,0.16181762516498566,-0.10831742733716965
1751620529760611000,4.658611083984375,9.804703712463379,0.16197122633457184,-0.10930927097797394
1751620529779434800,4.677434814453125,9.804705619812012,0.16207025945186615,-0.10901761800050735
1751620529798258400,4.696258544921875,9.804706573486328,0.16200590133666992,-0.10900188982486725
1751620529817082000,4.71508203125,9.804712295532227,0.16186493635177612,-0.10867367684841156
1751620529835905800,4.73390576171875,9.804718971252441,0.16180869936943054,-0.10820174217224121
1751620529854729200,4.752729248046875,9.804715156555176,0.16206789016723633,-0.10813264548778534
1751620529873553000,4.771552978515625,9.804703712463379,0.16243915259838104,-0.10857491195201874
1751620529892376600,4.79037646484375,9.804697036743164,0.16259503364562988,-0.108962781727314
1751620529911200300,4.8092001953125,9.804703712463379,0.16243216395378113,-0.10856828838586807
1751620529930023700,4.828023681640625,9.804710388183594,0.16236397624015808,-0.108024001121521
1751620529948847400,4.846847412109375,9.804720878601074,0.16206155717372894,-0.10754319280385971
1751620529967671000,4.865671142578125,9.80472469329834,0.1616607904434204,-0.10781066864728928
1751620529986494700,4.88449462890625,9.804725646972656,0.16153912246227264,-0.10787968337535858
1751620530005318400,4.903318359375,9.804718017578125,0.1619982272386551,-0.10798105597496033
1751620530024141800,4.922141845703125,9.80471420288086,0.16217012703418732,-0.10800096392631531
1751620530042965500,4.940965576171875,9.804716110229492,0.1620703637599945,-0.1080639660358429
1751620530061789200,4.9597890625,9.804710388183594,0.16212737560272217,-0.10840176790952682
1751620530080612900,4.97861279296875,9.804695129394531,0.16277509927749634,-0.10876727104187012
1751620530099436500,4.9974365234375,9.804685592651367,0.16315573453903198,-0.10911404341459274
1751620530118260200,5.01626025390625,9.804692268371582,0.16278983652591705,-0.10905858874320984
1751620530137083600,5.035083740234375,9.804703712463379,0.1621503084897995,-0.10892751812934875
1751620530155907300,5.0539072265625,9.80471420288086,0.1617317497730255,-0.10872959345579147
1751620530174731000,5.07273095703125,9.804719924926758,0.1616891473531723,-0.10819380730390549
1751620530193554700,5.0915546875,9.804719924926758,0.16180022060871124,-0.1079891249537468
1751620530221790000,5.1197900390625,9.80472183227539,0.16155627369880676,-0.10827770829200745
1751620530240613600,5.138613525390625,9.804723739624023,0.16136184334754944,-0.10841181129217148
1751620530259437300,5.157437255859375,9.804730415344238,0.16116364300251007,-0.10807052254676819
1751620530278261000,5.176260986328125,9.804718017578125,0.16183318197727203,-0.10823855549097061
1751620530297084400,5.19508447265625,9.804708480834961,0.16213902831077576,-0.10860417783260345
1751620530315908000,5.213908203125,9.80470085144043,0.16254520416259766,-0.1086811050772667
1751620530334731800,5.232731689453125,9.804704666137695,0.1623130738735199,-0.10864701867103577
1751620530353555500,5.251555419921875,9.804703712463379,0.1625228375196457,-0.10842496901750565
1751620530372379100,5.270379150390625,9.804705619812012,0.1627625972032547,-0.1079287901520729
1751620530391202600,5.28920263671875,9.804707527160645,0.16264835000038147,-0.10791908949613571
1751620530410026200,5.308026123046875,9.804712295532227,0.16240982711315155,-0.10779684036970139
1751620530428850000,5.326849853515625,9.804718971252441,0.16214574873447418,-0.1075565293431282
1751620530447673600,5.345673583984375,9.804715156555176,0.16246357560157776,-0.10747698694467545
1751620530466497000,5.3644970703125,9.804707527160645,0.1626654863357544,-0.10778377950191498
1751620530485320700,5.38332080078125,9.80469799041748,0.16301816701889038,-0.10816480219364166
1751620530504144400,5.402144287109375,9.804697036743164,0.16309262812137604,-0.1081891804933548
1751620530522968000,5.420968017578125,9.80469799041748,0.1629045605659485,-0.10837074369192123
1751620530541791500,5.43979150390625,9.804704666137695,0.162605419754982,-0.10827533900737762
1751620530560615200,5.458615234375,9.804722785949707,0.1618974655866623,-0.10765517503023148
1751620530579438800,5.47743896484375,9.80475902557373,0.1604238748550415,-0.106513112783432
1751620530598262500,5.496262451171875,9.804827690124512,0.15767432749271393,-0.10436651855707169
1751620530617086200,5.515086181640625,9.80490493774414,0.15425780415534973,-0.10221786797046661
1751620530635909600,5.53390966796875,9.804944038391113,0.15238824486732483,-0.10118619352579117
1751620530654733300,5.5527333984375,9.804938316345215,0.1532236486673355,-0.10040419548749924
1751620530673557000,5.571556884765625,9.804903984069824,0.15538723766803741,-0.10057113319635391
1751620530692380700,5.590380615234375,9.80487060546875,0.1564747393131256,-0.10198396444320679
1751620530711204000,5.6092041015625,9.804789543151855,0.16022662818431854,-0.10400731861591339
1751620530730027800,5.62802783203125,9.804703712463379,0.1639973372220993,-0.10623405873775482
1751620530748851500,5.6468515625,9.804659843444824,0.1651652753353119,-0.10837531834840775
1751620530767675100,5.665675048828125,9.804652214050293,0.16494512557983398,-0.10951278358697891
1751620530786498800,5.684498779296875,9.804658889770508,0.16473126411437988,-0.10909838229417801
1751620530805322200,5.703322265625,9.804691314697266,0.16389968991279602,-0.10755699872970581
1751620530824146000,5.72214599609375,9.804740905761719,0.1619039624929428,-0.10599559545516968
1751620530842969600,5.740969482421875,9.804802894592285,0.1591508835554123,-0.10448505729436874
1751620530861793300,5.759793212890625,9.804844856262207,0.15746241807937622,-0.1029992625117302
1751620530880616700,5.77861669921875,9.80484676361084,0.1576274037361145,-0.10256534069776535
1751620530899440400,5.7974404296875,9.804832458496094,0.15809649229049683,-0.10315908491611481
1751620530918264000,5.81626416015625,9.80480670928955,0.15886075794696808,-0.10447505861520767
1751620530937087700,5.835087646484375,9.804770469665527,0.1600353866815567,-0.10605766624212265
1751620530955911400,5.853911376953125,9.804734230041504,0.16150009632110596,-0.10720095783472061
1751620530974734800,5.87273486328125,9.804704666137695,0.16276130080223083,-0.10799255967140198
1751620530993558500,5.89155859375,9.80472183227539,0.162094384431839,-0.10742200911045074
1751620531012382200,5.91038232421875,9.80477523803711,0.16018232703208923,-0.10543274134397507
1751620531031206000,5.929205810546875,9.804903030395508,0.15704704821109772,-0.09799061715602875
1751620531050029300,5.948029296875,9.80494213104248,0.15587566792964935,-0.095969557762146
1751620531068853000,5.96685302734375,9.804852485656738,0.15699855983257294,-0.1030566468834877
1751620531087676700,5.9856767578125,9.804854393005371,0.15646958351135254,-0.10360132902860641
1751620531106500400,6.004500244140625,9.804844856262207,0.15670187771320343,-0.10412799566984177
1751620531125324000,6.023323974609375,9.804795265197754,0.1590394377708435,-0.10529262572526932
1751620531144147500,6.0421474609375,9.80474853515625,0.1608760803937912,-0.10691381245851517
1751620531162971100,6.06097119140625,9.804706573486328,0.16233187913894653,-0.10844901949167252
1751620531181794800,6.079794921875,9.804694175720215,0.1625351905822754,-0.1092943474650383
1751620531200618500,6.098618408203125,9.80471420288086,0.16188378632068634,-0.10851110517978668
1751620531219442000,6.11744189453125,9.804750442504883,0.16054508090019226,-0.10714583098888397
1751620531238265600,6.136265625,9.804805755615234,0.15839479863643646,-0.10528568178415298
1751620531257089300,6.15508935546875,9.804842948913574,0.1566539704799652,-0.10442697256803513
1751620531275913000,6.173912841796875,9.804848670959473,0.1565345823764801,-0.10407166928052902
1751620531294736400,6.192736328125,9.80483627319336,0.1572469025850296,-0.10416068136692047
1751620531313560000,6.21156005859375,9.80480670928955,0.15864308178424835,-0.10484069585800171
1751620531332383700,6.2303837890625,9.804779052734375,0.159433975815773,-0.10618210583925247
1751620531351207400,6.24920751953125,9.804746627807617,0.16060636937618256,-0.1073683649301529
1751620531370031000,6.268031005859375,9.804728507995605,0.16154512763023376,-0.10772563517093658
1751620531388854500,6.2868544921875,9.804747581481934,0.16109322011470795,-0.1066373735666275
1751620531407678200,6.30567822265625,9.804892539978027,0.15759167075157166,-0.09809976816177368
1751620531426502000,6.324501953125,9.804957389831543,0.15560035407543182,-0.0948377326130867
1751620531445325600,6.34332568359375,9.804792404174805,0.15890443325042725,-0.10570340603590012
1751620531464149000,6.36214892578125,9.804811477661133,0.15853765606880188,-0.10459494590759277
1751620531482972700,6.38097265625,9.804719924926758,0.1639469414949417,-0.1047525405883789
1751620531501796400,6.39979638671875,9.804021835327148,0.18672063946723938,-0.12918967008590698
1751620531520620000,6.4186201171875,9.803535461425781,0.19360016286373138,-0.15361063182353973
1751620531539443500,6.437443359375,9.803038597106934,0.1940634697675705,-0.18212249875068665
1751620531558267100,6.45626708984375,9.802153587341309,0.20336560904979706,-0.21636313199996948
1751620531577090800,6.4750908203125,9.801283836364746,0.21092791855335236,-0.24641557037830353
1751620531595914500,6.49391455078125,9.801898002624512,0.19753046333789825,-0.2327350229024887
1751620531614738000,6.512738037109375,9.803559303283691,0.17466852068901062,-0.17353713512420654
1751620531633561600,6.5315615234375,9.8037691116333,0.17387467622756958,-0.1620708703994751
1751620531652385300,6.55038525390625,9.804008483886719,0.17014241218566895,-0.15118536353111267
1751620531671209000,6.569208984375,9.804238319396973,0.16237103939056396,-0.1446821242570877
1751620531690032400,6.588032470703125,9.804563522338867,0.14995919167995453,-0.13580431044101715
1751620531708856000,6.60685595703125,9.804952621459961,0.13423751294612885,-0.12351593375205994
1751620531727679700,6.6256796875,9.805163383483887,0.12258203327655792,-0.11885522305965424
1751620531746503400,6.64450341796875,9.805280685424805,0.11255477368831635,-0.11920266598463058
1751620531765327000,6.6633271484375,9.805342674255371,0.10512489825487137,-0.12078103423118591
1751620531784150500,6.682150634765625,9.805320739746094,0.10250111669301987,-0.12472984939813614
1751620531802974200,6.70097412109375,9.805279731750488,0.1030263751745224,-0.12753276526927948
1751620531821798000,6.7197978515625,9.805257797241211,0.10455124825239182,-0.1279824674129486
1751620531840621300,6.738621337890625,9.805252075195312,0.10595271736383438,-0.12728065252304077
1751620531859445000,6.757445068359375,9.805182456970215,0.10833921283483505,-0.13055503368377686
1751620531878268700,6.7762685546875,9.80489444732666,0.11684691905975342,-0.14416852593421936
1751620531897092400,6.79509228515625,9.804409980773926,0.13393601775169373,-0.16124680638313293
1751620531915915800,6.813915771484375,9.80378532409668,0.15524829924106598,-0.17909203469753265
1751620531934739500,6.832739501953125,9.80314826965332,0.17742806673049927,-0.19289684295654297
1751620531953563100,6.851563232421875,9.802693367004395,0.19583721458911896,-0.19810828566551208
1751620531972386800,6.87038671875,9.802404403686523,0.20978881418704987,-0.19809077680110931
1751620531991210200,6.889210205078125,9.802351951599121,0.2167750597000122,-0.19309334456920624
1751620532010034000,6.908033935546875,9.802626609802246,0.21512705087661743,-0.1805882751941681
1751620532028857600,6.926857666015625,9.803022384643555,0.20953990519046783,-0.1650335192680359
1751620532047681300,6.945681396484375,9.803536415100098,0.1992189884185791,-0.1462201625108719
1751620532066504700,6.964504638671875,9.804290771484375,0.17501436173915863,-0.12499067187309265
1751620532085328400,6.983328369140625,9.804740905761719,0.151990607380867,-0.1197146475315094
1751620532104152000,7.002152099609375,9.805277824401855,0.12787926197052002,-0.10275154560804367
1751620532122975700,7.020975830078125,9.805601119995117,0.10912568867206573,-0.0931951105594635
1751620532141799200,7.039799072265625,9.805574417114258,0.09975893795490265,-0.10556311905384064
1751620532160622800,7.058622802734375,9.805610656738281,0.0937911793589592,-0.10762057453393936
1751620532179446500,7.077446533203125,9.805481910705566,0.09584395587444305,-0.117148756980896
1751620532198270200,7.096270263671875,9.805229187011719,0.10315822064876556,-0.1312229484319687
1751620532217093600,7.11509375,9.805044174194336,0.10812655091285706,-0.14073003828525543
1751620532235917300,7.133917236328125,9.804823875427246,0.11622210592031479,-0.14937444031238556
1751620532254741000,7.152740966796875,9.804464340209961,0.12994734942913055,-0.1611754596233368
1751620532273564700,7.171564697265625,9.804089546203613,0.14359718561172485,-0.17204803228378296
1751620532292388000,7.19038818359375,9.803665161132812,0.15841355919837952,-0.18281900882720947
1751620532311211800,7.209211669921875,9.80313491821289,0.1761644184589386,-0.19471599161624908
1751620532330035500,7.228035400390625,9.802607536315918,0.19491171836853027,-0.20320677757263184
1751620532348859100,7.246859130859375,9.802324295043945,0.20979595184326172,-0.2020324468612671
1751620532367682600,7.2656826171875,9.802559852600098,0.21466273069381714,-0.18472887575626373
1751620532386506200,7.28450634765625,9.80308723449707,0.20790593326091766,-0.16325268149375916
1751620532405330000,7.303329833984375,9.803488731384277,0.19824910163879395,-0.15059755742549896
1751620532424153600,7.322153564453125,9.804293632507324,0.1766403615474701,-0.12248176336288452
1751620532442977000,7.34097705078125,9.805044174194336,0.15099802613258362,-0.0932711809873581
1751620532461800700,7.35980078125,9.805562019348145,0.1269305795431137,-0.07229654490947723
1751620532480624400,7.378624267578125,9.805917739868164,0.1032910943031311,-0.06070252135396004
1751620532499448000,7.397447998046875,9.805915832519531,0.09012718498706818,-0.07931515574455261
1751620532518271500,7.416271484375,9.805991172790527,0.07797005772590637,-0.08271440863609314
1751620532537095200,7.43509521484375,9.806047439575195,0.07177644968032837,-0.08168195188045502
1751620532555918800,7.4539189453125,9.805978775024414,0.07479570806026459,-0.08700072020292282
1751620532574742300,7.4727421875,9.805648803710938,0.08774881809949875,-0.10926491767168045
1751620532593566000,7.49156591796875,9.805244445800781,0.10137183219194412,-0.13153520226478577
1751620532612389600,7.5103896484375,9.804840087890625,0.11622913181781769,-0.14826953411102295
1751620532631213300,7.52921337890625,9.804339408874512,0.13421045243740082,-0.165238618850708
1751620532650037000,7.548037109375,9.803800582885742,0.15366078913211823,-0.1796341985464096
1751620532668860400,7.5668603515625,9.803322792053223,0.17100566625595093,-0.18974612653255463
1751620532687684000,7.58568408203125,9.802794456481934,0.18852323293685913,-0.2001667320728302
1751620532706507800,7.6045078125,9.80267333984375,0.2001744657754898,-0.1947183459997177
1751620532725331200,7.623331298828125,9.802762985229492,0.20581941306591034,-0.1840478628873825
1751620532744155000,7.64215478515625,9.80337142944336,0.19909557700157166,-0.15704993903636932
1751620532762978600,7.660978515625,9.803877830505371,0.18837463855743408,-0.1373787820339203
1751620532781802200,7.67980224609375,9.80452823638916,0.1672874093055725,-0.11675795167684555
1751620532800625700,7.698625732421875,9.80516242980957,0.13884995877742767,-0.09944130480289459
1751620532819449300,7.717449462890625,9.80567741394043,0.10785583406686783,-0.08624058961868286
1751620532838273000,7.73627294921875,9.806039810180664,0.07988500595092773,-0.07481309026479721
1751620532857096700,7.7550966796875,9.806195259094238,0.06273186206817627,-0.0706145167350769
1751620532875920100,7.773920166015625,9.806158065795898,0.05958782136440277,-0.07805519551038742
1751620532894743800,7.792743896484375,9.806035041809082,0.06439230591058731,-0.08897598087787628
1751620532913567500,7.8115673828125,9.805809020996094,0.0743277445435524,-0.104688361287117
1751620532932391200,7.83039111328125,9.805673599243164,0.0803336501121521,-0.11276508122682571
1751620532951214600,7.849214599609375,9.80541706085205,0.09302980452775955,-0.12465615570545197
1751620532970038300,7.868038330078125,9.805008888244629,0.11039862781763077,-0.14141935110092163
1751620532988862000,7.886862060546875,9.80447769165039,0.13001397252082825,-0.16034971177577972
1751620533007685600,7.905685546875,9.803903579711914,0.15008392930030823,-0.17702175676822662
1751620533026509000,7.924509033203125,9.803291320800781,0.17035959661006927,-0.19196626543998718
1751620533045332700,7.943332763671875,9.802751541137695,0.19029761850833893,-0.20063453912734985
1751620533064156400,7.962156494140625,9.802672386169434,0.20139993727207184,-0.1934673935174942
1751620533082979800,7.980979736328125,9.802834510803223,0.20475450158119202,-0.18138371407985687
1751620533101803500,7.999803466796875,9.803202629089355,0.20077037811279297,-0.16520482301712036
1751620533120627200,8.018627197265625,9.80367660522461,0.19268301129341125,-0.14554882049560547
1751620533139451000,8.037450927734374,9.80424690246582,0.17886973917484283,-0.12298129498958588
1751620533158274300,8.0562744140625,9.805069923400879,0.1525208204984665,-0.08791211992502213
1751620533177098000,8.075097900390626,9.805887222290039,0.1162974089384079,-0.037727415561676025
1751620533195921700,8.093921630859375,9.806230545043945,0.08843766152858734,-0.02010141685605049
1751620533214745300,8.112745361328125,9.80647087097168,0.05904318392276764,0.004859380889683962
1751620533233569000,8.131569091796875,9.806544303894043,0.03525115177035332,0.028763512149453163
1751620533252392400,8.150392333984374,9.8065824508667,0.036349955946207047,-0.0028469713870435953
1751620533271216000,8.169216064453124,9.806407928466797,0.04945037513971329,-0.04796459898352623
1751620533290039800,8.188039794921876,9.806209564208984,0.060659345239400864,-0.07054693251848221
1751620533308863200,8.20686328125,9.806079864501953,0.06905414909124374,-0.08000792562961578
1751620533327687000,8.22568701171875,9.805864334106445,0.08095929026603699,-0.09414162486791611
1751620533346510600,8.244510498046875,9.805621147155762,0.09583286195993423,-0.10484017431735992
1751620533365334300,8.263334228515625,9.805346488952637,0.11088158190250397,-0.11525239050388336
1751620533384157700,8.28215771484375,9.804529190063477,0.13549236953258514,-0.15247070789337158
1751620533402981400,8.3009814453125,9.804007530212402,0.15640193223953247,-0.16539889574050903
1751620533421805000,8.31980517578125,9.803413391113281,0.17983192205429077,-0.17642925679683685
1751620533440628700,8.338628662109375,9.802943229675293,0.20107993483543396,-0.17956030368804932
1751620533459452400,8.357452392578125,9.803011894226074,0.20988057553768158,-0.1652011126279831
1751620533478275800,8.37627587890625,9.80412483215332,0.1958421915769577,-0.10567797720432281
1751620533497099500,8.395099609375,9.804061889648438,0.19920387864112854,-0.10532069206237793
1751620533515923200,8.413923095703124,9.804154396057129,0.19660158455371857,-0.10150483250617981
1751620533534746600,8.43274658203125,9.80513858795166,0.17061474919319153,-0.023073136806488037
1751620533553570300,8.4515703125,9.805516242980957,0.1482771933078766,0.015490325167775154
1751620533572394000,8.47039404296875,9.805808067321777,0.1250694841146469,0.029736965894699097
1751620533591217700,8.4892177734375,9.80601692199707,0.1013069599866867,0.04650695621967316
1751620533610041300,8.508041259765625,9.806146621704102,0.07904896885156631,0.060209061950445175
1751620533628864800,8.52686474609375,9.806227684020996,0.05925483629107475,0.06906916946172714
1751620533647688400,8.5456884765625,9.806280136108398,0.04724571481347084,0.07083340734243393
1751620533666512100,8.56451220703125,9.806333541870117,0.04266972094774246,0.06621991097927094
1751620533685335600,8.58333544921875,9.806394577026367,0.041668668389320374,0.057208627462387085
1751620533704159200,8.6021591796875,9.80643367767334,0.04383837431669235,0.04823702946305275
1751620533722983000,8.62098291015625,9.806419372558594,0.05039743706583977,0.04451693594455719
1751620533741806600,8.639806640625,9.80640697479248,0.055277738720178604,0.041327666491270065
1751620533760630300,8.65863037109375,9.806366920471191,0.07072115689516068,0.02362050488591194
1751620533779453700,8.67745361328125,9.806076049804688,0.10278134793043137,-0.026216993108391762
1751620533798277400,8.69627734375,9.805377960205078,0.13787774741649628,-0.07708287984132767
1751620533817101000,8.71510107421875,9.8056058883667,0.13978314399719238,-0.030646827071905136
1751620533835924700,8.7339248046875,9.805237770080566,0.1612061858177185,-0.04149270057678223
1751620533854748200,8.752748046875,9.804956436157227,0.17615224421024323,-0.046720005571842194
1751620533873571800,8.77157177734375,9.80465030670166,0.18785278499126434,-0.0626772791147232
1751620533892395500,8.7903955078125,9.804760932922363,0.18399962782859802,-0.056319158524274826
1751620533911219200,8.80921923828125,9.805134773254395,0.16905608773231506,-0.03391895815730095
1751620533930043000,8.82804296875,9.805496215820312,0.14950363337993622,-0.016916094347834587
1751620533948866300,8.8468662109375,9.805961608886719,0.10977065563201904,0.03814283385872841
1751620533967690000,8.86568994140625,9.806169509887695,0.07988687604665756,0.05515114963054657
1751620533986513700,8.884513671875,9.80624771118164,0.05170111730694771,0.07225599139928818
1751620534005337300,8.90333740234375,9.806241035461426,0.03128848969936371,0.08394297957420349
1751620534024161000,8.9221611328125,9.806222915649414,0.019311467185616493,0.08942268043756485
1751620534042984400,8.940984375,9.806291580200195,0.02046786993741989,0.08128197491168976
1751620534061808000,8.95980810546875,9.806431770324707,0.034516219049692154,0.05568852648139
1751620534080631800,8.9786318359375,9.80648422241211,0.05629953369498253,0.009327620267868042
1751620534099455500,8.99745556640625,9.806397438049316,0.07040837407112122,0.00026490766322240233
1751620534118279200,9.016279052734374,9.80616569519043,0.09357192367315292,-0.027126604691147804
1751620534137102600,9.0351025390625,9.805930137634277,0.11293525993824005,-0.0369756817817688
1751620534155926300,9.05392626953125,9.805691719055176,0.13115957379341125,-0.039945393800735474
1751620534174750000,9.07275,9.80512523651123,0.15974317491054535,-0.06625620275735855
1751620534193573600,9.09157373046875,9.802945137023926,0.21333633363246918,-0.16477085649967194
1751620534212397300,9.110397216796875,9.803053855895996,0.21678505837917328,-0.15341514348983765
1751620534231220700,9.129220703125,9.803436279296875,0.207545205950737,-0.1411685049533844
1751620534250044400,9.14804443359375,9.804351806640625,0.18621622025966644,-0.10197997838258743
1751620534268868000,9.1668681640625,9.805434226989746,0.14816270768642426,-0.043576858937740326
1751620534287691800,9.18569189453125,9.806123733520508,0.09392990916967392,0.038871731609106064
1751620534306515200,9.20451513671875,9.80626392364502,0.05286538228392601,0.06904063373804092
1751620534325339000,9.2233388671875,9.806265830993652,0.023808971047401428,0.08347813785076141
1751620534344162600,9.24216259765625,9.806242942810059,0.009703245013952255,0.08887124061584473
1751620534362986200,9.260986328125,9.806329727172852,0.011088196188211441,0.07853034138679504
1751620534381810000,9.279809814453126,9.806434631347656,0.024557342752814293,0.060244977474212646
1751620534400633600,9.298633544921875,9.806473731994629,0.03964311629533768,0.04356544837355614
1751620534419457000,9.31745703125,9.80645751953125,0.05664154887199402,0.023918665945529938
1751620534438280700,9.33628076171875,9.80633544921875,0.0784350261092186,-0.004629615228623152
1751620534457104400,9.3551044921875,9.805830955505371,0.11117824167013168,-0.06086835637688637
1751620534475928000,9.373927978515624,9.805338859558105,0.13444747030735016,-0.08740213513374329
1751620534494751500,9.39275146484375,9.804722785949707,0.1582542508840561,-0.11295964568853378
1751620534513575200,9.4115751953125,9.80281925201416,0.20251581072807312,-0.1846916675567627
1751620534532398800,9.43039892578125,9.802705764770508,0.21896477043628693,-0.1714508831501007
1751620534551222500,9.449222412109375,9.803264617919922,0.21716462075710297,-0.13864947855472565
1751620534570046200,9.468046142578125,9.803797721862793,0.20458745956420898,-0.11864219605922699
1751620534588870000,9.486869873046874,9.80420207977295,0.19166015088558197,-0.10621416568756104
1751620534607693300,9.505693359375,9.804732322692871,0.1737898886203766,-0.08606622368097305
1751620534626517000,9.52451708984375,9.805657386779785,0.13700295984745026,-0.026510784402489662
1751620534645340700,9.543340576171875,9.806123733520508,0.08277378231287003,0.05879532918334007
1751620534664164400,9.562164306640625,9.806319236755371,0.061721090227365494,0.0518159419298172
1751620534682988000,9.580988037109375,9.806337356567383,0.03591528907418251,0.0695447325706482
1751620534701811700,9.599811767578124,9.806361198425293,0.027200255542993546,0.07005579024553299
1751620534720635100,9.61863525390625,9.806397438049316,0.02684512734413147,0.06511366367340088
1751620534739458800,9.637458740234376,9.806428909301758,0.032631102949380875,0.05729833245277405
1751620534758282500,9.656282470703125,9.806407928466797,0.037210848182439804,0.05795077607035637
1751620534777106200,9.675106201171875,9.806408882141113,0.046819884330034256,0.050511423498392105
1751620534795929900,9.693929931640625,9.806376457214355,0.07077689468860626,0.01888960227370262
1751620534814753300,9.712753173828125,9.806024551391602,0.1061280146241188,-0.031537823379039764
1751620534833577000,9.731576904296874,9.805423736572266,0.13917584717273712,-0.06848873943090439
1751620534852400600,9.750400634765626,9.805122375488281,0.15922489762306213,-0.06787562370300293
1751620534871224300,9.769224365234376,9.805148124694824,0.16748668253421783,-0.03742702305316925
1751620534890048000,9.788048095703125,9.80512809753418,0.17105068266391754,-0.02444959431886673
1751620534908871700,9.80687158203125,9.805204391479492,0.16658882796764374,-0.02453579194843769
1751620534927695000,9.825695068359375,9.80490779876709,0.17317217588424683,-0.0646863803267479
1751620534946518800,9.844518798828124,9.805044174194336,0.16510902345180511,-0.06496879458427429
1751620534965342500,9.863342529296874,9.805750846862793,0.13198824226856232,-0.014855971559882164
1751620534984166100,9.882166259765626,9.806112289428711,0.0859297513961792,0.05632779374718666
1751620535002989800,9.90098974609375,9.80623722076416,0.0594024620950222,0.06755813211202621
1751620535021813500,9.9198134765625,9.80622386932373,0.03303030878305435,0.08523477613925934
1751620535040637200,9.93863720703125,9.806204795837402,0.016600320115685463,0.09202650189399719
1751620535059460600,9.957460693359375,9.806212425231934,0.010977229103446007,0.09201127290725708
1751620535078284300,9.9762841796875,9.806365966796875,0.021119272336363792,0.07165644317865372
1751620535097108000,9.99510791015625,9.806523323059082,0.04103023558855057,0.028323249891400337
1751620535115931600,10.013931640625,9.806489944458008,0.055054936558008194,0.011099756695330143
1751620535134755300,10.03275537109375,9.806340217590332,0.07697784155607224,-0.012661997228860855
1751620535153579000,10.0515791015625,9.806012153625488,0.10325919836759567,-0.0430307574570179
1751620535172402400,10.07040234375,9.80577564239502,0.12099218368530273,-0.05013420432806015
1751620535191226000,10.08922607421875,9.805877685546875,0.12272308766841888,-0.00938931480050087
1751620535210049800,10.1080498046875,9.805522918701172,0.14618897438049316,-0.027267010882496834
1751620535228873500,10.12687353515625,9.805033683776855,0.17088951170444489,-0.04982505366206169
1751620535247697200,10.145697265625,9.804449081420898,0.19264784455299377,-0.07772059738636017
1751620535266520800,10.164520751953125,9.804625511169434,0.19006066024303436,-0.05975444242358208
1751620535285344300,10.18334423828125,9.804698944091797,0.1856391876935959,-0.06160768121480942
1751620535304168000,10.20216796875,9.804641723632812,0.18580669164657593,-0.06972759962081909
1751620535322991600,10.22099169921875,9.805209159851074,0.16520331799983978,-0.031303130090236664
1751620535341815300,10.239815185546876,9.805784225463867,0.1278657615184784,0.025424102321267128
1751620535360639000,10.258638916015625,9.806098937988281,0.09947582334280014,0.030557721853256226
1751620535379462700,10.277462646484375,9.806340217590332,0.06799742579460144,0.038179662078619
1751620535398286000,10.2962861328125,9.806262969970703,0.038113657385110855,0.07823333889245987
1751620535417109800,10.31510986328125,9.806243896484375,0.03126638010144234,0.08365128189325333
1751620535435933400,10.333933349609374,9.806374549865723,0.04532081261277199,0.05781486630439758
1751620535454757000,10.352757080078124,9.806346893310547,0.07698149979114532,-0.005866613704711199
1751620535473580800,10.371580810546876,9.806050300598145,0.10164569318294525,-0.03763365000486374
1751620535492404500,10.390404541015625,9.805657386779785,0.1272060126066208,-0.057341691106557846
1751620535511228200,10.409228271484375,9.80553913116455,0.1406009942293167,-0.04485262557864189
1751620535530051800,10.4280517578125,9.80539321899414,0.15462726354599,-0.027086567133665085
1751620535548875300,10.446875244140625,9.805187225341797,0.16744938492774963,-0.0254945270717144
1751620535567699000,10.465698974609374,9.805059432983398,0.1748105138540268,-0.025120340287685394
1751620535586522600,10.484522705078126,9.804717063903809,0.18727803230285645,-0.05319402366876602
1751620535605346300,10.50334619140625,9.804106712341309,0.19989103078842163,-0.09953147172927856
1751620535624170000,10.522169921875,9.804582595825195,0.18209536373615265,-0.08601920306682587
1751620535642993700,10.54099365234375,9.805020332336426,0.16093657910823822,-0.0778864175081253
1751620535661817000,10.559817138671875,9.805920600891113,0.11942997574806213,-0.006857047788798809
1751620535680640800,10.578640869140624,9.806252479553223,0.08044517785310745,0.03639540821313858
1751620535699464400,10.59746435546875,9.806321144104004,0.05088851600885391,0.062222108244895935
1751620535718288100,10.6162880859375,9.806304931640625,0.034862495958805084,0.07451193034648895
1751620535737111800,10.63511181640625,9.806323051452637,0.03002750314772129,0.07424792647361755
1751620535755935500,10.653935546875,9.806360244750977,0.03735441714525223,0.06548149883747101
1751620535774759200,10.67275927734375,9.806342124938965,0.046807583421468735,0.06203607842326164
1751620535793582600,10.69158251953125,9.806341171264648,0.06473741680383682,0.043353475630283356
1751620535812406300,10.71040625,9.806166648864746,0.09726602584123611,0.0037740992847830057
1751620535831230000,10.72922998046875,9.805597305297852,0.13554935157299042,-0.04784492030739784
1751620535850053600,10.7480537109375,9.805093765258789,0.16079798340797424,-0.06839419156312943
1751620535868877300,10.766877197265625,9.805362701416016,0.1576472818851471,-0.01996903494000435
1751620535887701000,10.785700927734375,9.805157661437988,0.16932986676692963,-0.024627694860100746
1751620535906524700,10.804524658203125,9.804577827453613,0.19046415388584137,-0.06607554852962494
1751620535925348400,10.823348388671874,9.8041410446167,0.19972176849842072,-0.09652961790561676
1751620535944171800,10.842171875,9.804733276367188,0.18364720046520233,-0.06218208372592926
1751620535962995500,10.860995361328126,9.805103302001953,0.167690709233284,-0.047090861946344376
1751620535981819100,10.879819091796875,9.805522918701172,0.14525935053825378,-0.031730398535728455
1751620536000642800,10.898642822265625,9.806075096130371,0.09993790835142136,0.036121916025877
1751620536019466500,10.917466552734375,9.806228637695312,0.06220821663737297,0.06629694253206253
1751620536038290200,10.936290283203125,9.806258201599121,0.034982241690158844,0.08041980117559433
1751620536057113900,10.95511376953125,9.806305885314941,0.020258797332644463,0.0795721486210823
1751620536075937300,10.973937255859376,9.806516647338867,0.030281370505690575,0.04144149273633957
1751620536094761000,10.992760986328125,9.80643081665039,0.06095442920923233,-0.02426113933324814
1751620536113584600,11.011584716796875,9.806278228759766,0.07658229768276215,-0.038038261234760284
1751620536132408300,11.030408203125,9.806081771850586,0.09526797384023666,-0.04557254910469055
1751620536151232000,11.04923193359375,9.805588722229004,0.12477019429206848,-0.0725214034318924
1751620536170055700,11.0680556640625,9.804783821105957,0.15804992616176605,-0.10778544098138809
1751620536188879400,11.08687939453125,9.805472373962402,0.14875619113445282,-0.030857328325510025
1751620536207703000,11.105703125,9.805399894714355,0.15547893941402435,-0.018757103011012077
1751620536226526500,11.1245263671875,9.8052396774292,0.16411244869232178,-0.0267880167812109
1751620536245350100,11.14335009765625,9.804709434509277,0.18258199095726013,-0.06874030083417892
1751620536264173800,11.162173828125,9.804351806640625,0.18923835456371307,-0.09623053669929504
1751620536282997500,11.18099755859375,9.80415153503418,0.19230353832244873,-0.10963836312294006
1751620536301821200,11.1998212890625,9.804564476013184,0.1814451813697815,-0.0893576368689537
1751620536320644900,11.218644775390626,9.805045127868652,0.16128972172737122,-0.07391244918107986
1751620536339468500,11.237468505859376,9.805828094482422,0.12276926636695862,-0.032542865723371506
1751620536358292000,11.2562919921875,9.806233406066895,0.08900270611047745,-0.016170023009181023
1751620536377115600,11.27511572265625,9.806449890136719,0.06248774006962776,-0.0035736984573304653
1751620536395939300,11.293939208984375,9.806489944458008,0.05287815257906914,-0.018566934391856194
1751620536414763000,11.312762939453124,9.806530952453613,0.04729735478758812,-0.010274318978190422
1751620536433586700,11.331586669921874,9.80644702911377,0.060610394924879074,-0.017669450491666794
1751620536452410400,11.350410400390626,9.806270599365234,0.0750395655632019,-0.04244394972920418
1751620536471234000,11.369234130859375,9.806024551391602,0.09214100241661072,-0.06165997311472893
1751620536490057700,11.3880576171875,9.8054780960083,0.11746635288000107,-0.09585919231176376
1751620536508881200,11.406881103515625,9.804762840270996,0.14483080804347992,-0.1266014277935028
1751620536527704800,11.425704833984375,9.8047456741333,0.15681177377700806,-0.1129579097032547
1751620536546528500,11.444528564453124,9.805051803588867,0.15872761607170105,-0.07841004431247711
1751620536565352200,11.463352294921876,9.80345344543457,0.19911997020244598,-0.1517951935529709
1751620536584175900,11.48217578125,9.803893089294434,0.2005224972963333,-0.11773631721735
1751620536602999600,11.50099951171875,9.803984642028809,0.20106612145900726,-0.1087774932384491
1751620536621823200,11.5198232421875,9.804239273071289,0.19460202753543854,-0.09704720228910446
1751620536640647000,11.53864697265625,9.80432415008545,0.19065164029598236,-0.09630970656871796
1751620536659470600,11.557470703125,9.804892539978027,0.1705208122730255,-0.0733562484383583
1751620536678294000,11.5762939453125,9.805380821228027,0.14614887535572052,-0.05940571054816246
1751620536697117700,11.59511767578125,9.80588150024414,0.11630311608314514,-0.03942841663956642
1751620536715941400,11.61394140625,9.806282997131348,0.08469833433628082,-0.0036120989825576544
1751620536734765000,11.63276513671875,9.80640697479248,0.06900257617235184,0.001353284576907754
1751620536753588700,11.651588623046875,9.806459426879883,0.06067972257733345,0.007108760066330433
1751620536772412400,11.670412353515625,9.80643081665039,0.06508216261863708,0.008278820663690567
1751620536791236000,11.689236083984374,9.80630874633789,0.07988101243972778,-0.01797642558813095
1751620536810059500,11.7080595703125,9.806073188781738,0.09767211973667145,-0.04199111461639404
1751620536828883200,11.72688330078125,9.805708885192871,0.11907070130109787,-0.06547756493091583
1751620536847707000,11.745706787109375,9.804810523986816,0.15176257491111755,-0.11428193747997284
1751620536866530600,11.764530517578125,9.804906845092773,0.16168467700481415,-0.08967740088701248
1751620536885354200,11.783354248046875,9.805477142333984,0.15098203718662262,-0.014293413609266281
1751620536904178000,11.802177978515624,9.80527114868164,0.16354210674762726,-0.01756080985069275
1751620536923001600,11.821001708984374,9.805159568786621,0.17026479542255402,-0.015603739768266678
1751620536941825300,11.8398251953125,9.805150032043457,0.17107069492340088,-0.012238509021699429
1751620536960649000,11.85864892578125,9.805068969726562,0.17343977093696594,-0.030360564589500427
1751620536979472400,11.877472412109375,9.804913520812988,0.17619502544403076,-0.05486500635743141
1751620536998296000,11.896296142578125,9.805066108703613,0.16554796695709229,-0.060579534620046616
1751620537017119700,11.91511962890625,9.805136680603027,0.1521366387605667,-0.08087439835071564
1751620537035943400,11.933943359375,9.805989265441895,0.11045695096254349,-0.027534151449799538
1751620537054767000,11.95276708984375,9.806334495544434,0.07863602042198181,0.001775027601979673
1751620537073590800,11.9715908203125,9.806431770324707,0.04863939806818962,0.043646592646837234
1751620537092414500,11.99041455078125,9.806351661682129,0.03237352892756462,0.06934069097042084
1751620537111238100,12.009238037109375,9.806344032287598,0.03459106758236885,0.06933291256427765
1751620537130061600,12.0280615234375,9.8064546585083,0.053867291659116745,0.030622947961091995
1751620537148885200,12.04688525390625,9.806388854980469,0.07159946858882904,-0.0011827884009107947
1751620537167709000,12.065708984375,9.806234359741211,0.08904676139354706,-0.01459615770727396
1751620537186532600,12.08453271484375,9.806038856506348,0.10736535489559174,-0.02141338214278221
1751620537205356300,12.103356201171875,9.805888175964355,0.1212591901421547,-0.015279232524335384
1751620537224180000,12.122179931640625,9.805709838867188,0.13491970300674438,-0.015313053503632545
1751620537243003600,12.141003662109375,9.805509567260742,0.14865727722644806,-0.016597116366028786
1751620537261827300,12.159827392578125,9.805315971374512,0.1610301285982132,-0.01537048164755106
1751620537280651000,12.178651123046874,9.804488182067871,0.19132626056671143,-0.07621652632951736
1751620537299474400,12.197474365234376,9.804619789123535,0.18875528872013092,-0.06457065045833588
1751620537318298000,12.216298095703126,9.804852485656738,0.18112340569496155,-0.049430858343839645
1751620537337121800,12.235121826171875,9.804946899414062,0.17459774017333984,-0.05391693487763405
1751620537355945500,12.253945556640625,9.8053560256958,0.1540796309709549,-0.04066137969493866
1751620537374769200,12.27276904296875,9.805838584899902,0.12546499073505402,-0.012208785861730576
1751620537393592800,12.2915927734375,9.806139945983887,0.10005845874547958,-0.00018466694746166468
1751620537412416500,12.31041650390625,9.806365966796875,0.06908103823661804,0.028119917958974838
1751620537431240000,12.329239990234376,9.806373596191406,0.04041814059019089,0.061496809124946594
1751620537450064000,12.34806396484375,9.80639362335205,0.03138904273509979,0.06356295943260193
1751620537468887300,12.36688720703125,9.80643367767334,0.03880047798156738,0.05237983167171478
1751620537487711000,12.3857109375,9.80646800994873,0.0587124228477478,0.01076221652328968
1751620537506534700,12.40453466796875,9.806390762329102,0.0705031305551529,-0.01073277648538351
1751620537525358300,12.4233583984375,9.806333541870117,0.07842083275318146,-0.007233276031911373
1751620537544182000,12.44218212890625,9.806270599365234,0.08610067516565323,0.005093161482363939
1751620537563005700,12.461005615234376,9.8059720993042,0.11114262044429779,-0.03061024658381939
1751620537581829400,12.479829345703125,9.805444717407227,0.14048853516578674,-0.062485627830028534
1751620537600652800,12.49865283203125,9.805137634277344,0.1604778915643692,-0.062432192265987396
1751620537619476500,12.5174765625,9.804954528808594,0.17341388761997223,-0.05640532448887825
1751620537638300200,12.536300048828124,9.804800033569336,0.17957837879657745,-0.06359601765871048
1751620537657123800,12.555123779296874,9.804319381713867,0.18765749037265778,-0.10249513387680054
1751620537675947500,12.573947509765626,9.804500579833984,0.18198952078819275,-0.09509473294019699
1751620537694771200,12.592771240234375,9.804869651794434,0.1703334003686905,-0.0767984613776207
1751620537713595000,12.611594970703125,9.80546760559082,0.1460796743631363,-0.04304783046245575
1751620537732418600,12.63041845703125,9.80591869354248,0.11772320419549942,-0.022184578701853752
1751620537751242200,12.6492421875,9.806218147277832,0.09079783409833908,-0.01475565042346716
1751620537770065700,12.668065673828124,9.806403160095215,0.0691855400800705,-0.0074575189501047134
1751620537788889300,12.686889404296876,9.806504249572754,0.05301768705248833,0.007796836085617542
1751620537807713000,12.705713134765626,9.806514739990234,0.049003005027770996,0.015672560781240463
1751620537826536700,12.72453662109375,9.806456565856934,0.06126965209841728,-0.006123758852481842
1751620537845360400,12.7433603515625,9.80638599395752,0.0698050782084465,-0.0176291074603796
1751620537864184000,12.76218408203125,9.806105613708496,0.09316913783550262,-0.044849008321762085
1751620537883007700,12.7810078125,9.80595874786377,0.10754287242889404,-0.044819436967372894
1751620537901831400,12.79983154296875,9.805892944335938,0.11747625470161438,-0.032604411244392395
1751620537920655000,12.818655029296876,9.805560111999512,0.13885052502155304,-0.04581092298030853
1751620537939478500,12.837478515625,9.805547714233398,0.14511306583881378,-0.023574700579047203
1751620537958302200,12.85630224609375,9.805390357971191,0.15515926480293274,-0.02498975396156311
1751620537977126000,12.8751259765625,9.804848670959473,0.17505678534507751,-0.06847189366817474
1751620537995949600,12.893949462890625,9.804347038269043,0.18682686984539032,-0.10124646127223969
1751620538014773200,12.912773193359374,9.804646492004395,0.17900246381759644,-0.08511840552091599
1751620538033597000,12.931596923828126,9.805230140686035,0.15946470201015472,-0.04925643280148506
1751620538052420600,12.950420654296876,9.805835723876953,0.12620224058628082,-0.006828538607805967
1751620538071244300,12.969244384765625,9.806220054626465,0.08835049718618393,0.02505984716117382
1751620538090068000,12.98806787109375,9.806413650512695,0.05970467999577522,0.03290281072258949
1751620538108891400,13.006891357421875,9.806463241577148,0.034346070140600204,0.04981096461415291
1751620538127715000,13.025715087890624,9.806220054626465,0.011911354959011078,0.09111368656158447
1751620538146538800,13.044538818359374,9.806183815002441,0.013648152351379395,0.09458652138710022
1751620538165362400,13.063362548828126,9.806288719177246,0.02880079858005047,0.07914765924215317
1751620538184186000,13.08218603515625,9.806347846984863,0.044737838208675385,0.06275735795497894
1751620538203009800,13.101009765625,9.806341171264648,0.07651292532682419,0.014814200811088085
1751620538221833500,13.11983349609375,9.805952072143555,0.11324889957904816,-0.02967878244817257
1751620538240657200,13.1386572265625,9.804852485656738,0.16029231250286102,-0.0978255420923233
1751620538259480800,13.157480712890624,9.80386734008789,0.19342315196990967,-0.13102401793003082
1751620538278304300,13.17630419921875,9.804553985595703,0.18770287930965424,-0.07668789476156235
1751620538297128000,13.1951279296875,9.80457878112793,0.18785203993320465,-0.07297011464834213
1751620538315951600,13.21395166015625,9.804283142089844,0.18971572816371918,-0.10216972976922989
1751620538334775300,13.232775390625,9.804521560668945,0.18097534775733948,-0.09477337449789047
1751620538353599000,13.251598876953125,9.805185317993164,0.1561771184206009,-0.06588831543922424
1751620538372422700,13.270422607421875,9.805830955505371,0.12310672551393509,-0.02987785078585148
1751620538391246300,13.289246337890624,9.806211471557617,0.09236208349466324,-0.008457474410533905
1751620538410070000,13.308070068359376,9.806418418884277,0.06319757550954819,0.02365863509476185
1751620538428893400,13.3268935546875,9.806497573852539,0.047602877020835876,0.026873547583818436
1751620538447717000,13.345717041015625,9.806527137756348,0.04046732932329178,0.027761396020650864
1751620538466540800,13.364540771484375,9.806405067443848,0.03077453188598156,0.0622251071035862
1751620538485364500,13.383364501953125,9.80634880065918,0.03583696484565735,0.06786386668682098
1751620538504188200,13.402188232421874,9.806370735168457,0.043964993208646774,0.05959879979491234
1751620538523011800,13.42101171875,9.806381225585938,0.061052512377500534,0.0394231341779232
1751620538541835500,13.43983544921875,9.806296348571777,0.0807775929570198,0.020183531567454338
1751620538560659200,13.4586591796875,9.806035041809082,0.10889998823404312,-0.013947268016636372
1751620538579483000,13.47748291015625,9.805648803710938,0.13660874962806702,-0.03117203898727894
1751620538598306300,13.496306396484375,9.805253982543945,0.1598212867975235,-0.04286642745137215
1751620538617130000,13.5151298828125,9.805102348327637,0.17102915048599243,-0.032951485365629196
1751620538635953700,13.53395361328125,9.805122375488281,0.17281538248062134,-0.009563603438436985
1751620538654777300,13.55277734375,9.805196762084961,0.16802379488945007,0.016237756237387657
1751620538673601000,13.57160107421875,9.805357933044434,0.1584734171628952,0.015118186362087727
1751620538692424700,13.5904248046875,9.805404663085938,0.15369921922683716,-0.02824934758245945
1751620538711248400,13.609248291015625,9.805807113647461,0.12709613144397736,-0.019704820588231087
1751620538730072000,13.628072021484375,9.806218147277832,0.08811115473508835,0.026425350457429886
1751620538748895700,13.646895751953124,9.806329727172852,0.05881575495004654,0.0531902015209198
1751620538767719200,13.66571923828125,9.806361198425293,0.040428582578897476,0.06344261020421982
1751620538786542800,13.68454296875,9.80634593963623,0.0294281505048275,0.07133093476295471
1751620538805366500,13.703366455078125,9.806209564208984,0.020833536982536316,0.09066015481948853
1751620538824190200,13.722190185546875,9.80630111694336,0.031161878257989883,0.07677330821752548
1751620538843014000,13.741013916015625,9.80633544921875,0.039129793643951416,0.06807515770196915
1751620538861837600,13.759837646484375,9.806357383728027,0.05810534209012985,0.04856116324663162
1751620538880661200,13.7786611328125,9.80625057220459,0.08746296167373657,0.013679750263690948
1751620538899485000,13.79748486328125,9.805828094482422,0.12321916222572327,-0.03068089298903942
1751620538918308600,13.81630859375,9.805729866027832,0.13406358659267426,-0.007511438336223364
1751620538937132000,13.835132080078125,9.80555534362793,0.1465209573507309,-0.0026280544698238373
1751620538955955700,13.853955810546875,9.805553436279297,0.14653752744197845,0.005740539636462927
1751620538974779400,13.872779296875,9.80566120147705,0.13796497881412506,0.019197935238480568
1751620538993603000,13.89160302734375,9.805603981018066,0.1430058628320694,-0.00832639541476965
1751620539012426800,13.9104267578125,9.805254936218262,0.15068694949150085,-0.06828921288251877
1751620539031250400,13.92925048828125,9.805685043334961,0.12620683014392853,-0.05461231246590614
1751620539050074000,13.94807421875,9.806093215942383,0.09914353489875793,-0.03318201005458832
1751620539068897800,13.966897705078125,9.80638599395752,0.07145766168832779,0.007823796942830086
1751620539087721500,13.985721435546875,9.806462287902832,0.04883478954434395,0.036092378199100494
1751620539106545000,14.004544921875,9.80653190612793,0.043021827936172485,0.022100865840911865
1751620539125368600,14.02336865234375,9.806561470031738,0.03997903689742088,0.011913605034351349
1751620539144192300,14.042192138671876,9.80654239654541,0.037129126489162445,0.02702498808503151
1751620539163016000,14.061015869140626,9.806510925292969,0.03887127712368965,0.035111941397190094
1751620539181839600,14.079839599609375,9.80647087097168,0.05131031200289726,0.02951986901462078
1751620539200663300,14.098663330078125,9.806368827819824,0.07379341870546341,0.007532752119004726
1751620539219487000,14.117487060546875,9.806096076965332,0.10136602073907852,-0.024613572284579277
1751620539238310700,14.136310546875,9.806035995483398,0.10971801728010178,-0.0035703827161341906
1751620539257134300,14.15513427734375,9.805854797363281,0.12488719075918198,-0.0007012857240624726
1751620539275957800,14.173957763671876,9.805667877197266,0.13877713680267334,-0.004137522540986538
1751620539294781400,14.192781494140625,9.805545806884766,0.14717304706573486,0.00010064477100968361
1751620539313605000,14.211605224609375,9.805561065673828,0.14553284645080566,0.013382216915488243
1751620539332428800,14.2304287109375,9.805689811706543,0.13620096445083618,0.017136916518211365
1751620539351252500,14.24925244140625,9.805692672729492,0.1359555423259735,-0.01663355715572834
1751620539370076200,14.268076171875,9.8052978515625,0.1400659680366516,-0.08310063928365707
1751620539388899800,14.28689990234375,9.805892944335938,0.11044155061244965,-0.05149674788117409
1751620539407723500,14.3057236328125,9.806167602539062,0.08849737048149109,-0.04028739780187607
1751620539426547200,14.324547119140625,9.806413650512695,0.06537223607301712,-0.01910908706486225
1751620539445370600,14.34337060546875,9.806495666503906,0.0523081012070179,-0.01701078563928604
1751620539464194300,14.3621943359375,9.806558609008789,0.04250340908765793,-0.0009457360138185322
1751620539483018000,14.38101806640625,9.806550025939941,0.04208492487668991,0.013781986199319363
1751620539501841700,14.399841552734374,9.806514739990234,0.04903698340058327,0.015636716037988663
1751620539520665300,14.418665283203126,9.806474685668945,0.058414723724126816,0.0038843262009322643
1751620539539489000,14.437489013671875,9.80632209777832,0.07720550149679184,-0.02175140380859375
1751620539558312700,14.456312744140625,9.805822372436523,0.10847585648298264,-0.06679854542016983
1751620539577136400,14.475136474609375,9.804893493652344,0.14380614459514618,-0.11728877574205399
1751620539595960000,14.4939599609375,9.804695129394531,0.15968124568462372,-0.11335531622171402
1751620539614783500,14.512783447265624,9.805227279663086,0.1561020314693451,-0.05945723503828049
1751620539633607200,14.531607177734376,9.80549430847168,0.15040628612041473,-0.0068819173611700535
1751620539652430800,14.550430908203126,9.80555534362793,0.146047905087471,0.011795930564403534
1751620539671254500,14.569254638671875,9.805743217468262,0.13067539036273956,0.02687315084040165
1751620539690078200,14.588078125,9.805870056152344,0.12357894331216812,0.005553408991545439
1751620539708902000,14.60690185546875,9.805522918701172,0.12870341539382935,-0.07444417476654053
1751620539727725600,14.6257255859375,9.805882453918457,0.1046120673418045,-0.06415578722953796
1751620539746549000,14.644549072265624,9.806190490722656,0.08389683812856674,-0.0445115864276886
1751620539765372700,14.66337255859375,9.806344985961914,0.07038319110870361,-0.03179215267300606
1751620539784196400,14.6821962890625,9.806439399719238,0.06078094244003296,-0.02059820666909218
1751620539803020000,14.70102001953125,9.806487083435059,0.05637621134519577,-0.004905713722109795
1751620539821843700,14.71984375,9.806410789489746,0.06560912728309631,-0.019638821482658386
1751620539840667400,14.73866748046875,9.806184768676758,0.0778549313545227,-0.05535029619932175
1751620539859491000,14.757490966796874,9.806078910827637,0.08294757455587387,-0.06561818718910217
1751620539878314800,14.776314697265626,9.806105613708496,0.08578290790319443,-0.05770544707775116
1751620539897138400,14.795138427734376,9.80603313446045,0.09432464838027954,-0.0565243624150753
1751620539915961900,14.8139619140625,9.806316375732422,0.07618128508329391,0.027094198390841484
1751620539934785500,14.83278564453125,9.806163787841797,0.09738103300333023,0.006580236367881298
1751620539953609200,14.851609130859375,9.8059720993042,0.11491971462965012,-0.009321712888777256
1751620539972433000,14.870432861328124,9.805841445922852,0.12543848156929016,-0.010705474764108658
1751620539991256600,14.889256591796874,9.805839538574219,0.1259397715330124,-0.0053964052349328995
1751620540010080300,14.908080322265626,9.805891036987305,0.12164610624313354,-0.009982235729694366
1751620540028904000,14.926904052734375,9.805768966674805,0.12464182078838348,-0.04177583381533623
1751620540047727600,14.9457275390625,9.805377006530762,0.12715454399585724,-0.09383127093315125
1751620540066551300,14.96455126953125,9.805903434753418,0.09674984961748123,-0.07268548011779785
1751620540085374700,14.983374755859375,9.806475639343262,0.05608715862035751,-0.016981905326247215
1751620540104198400,15.002198486328124,9.806580543518066,0.03599447011947632,-0.008134678937494755
1751620540123022000,15.02102197265625,9.806608200073242,0.022784585133194923,0.01752215251326561
1751620540141845800,15.039845703125,9.806598663330078,0.03013470768928528,0.009003380313515663
1751620540160669400,15.05866943359375,9.806479454040527,0.05183922499418259,-0.025718018412590027
1751620540179493000,15.0774931640625,9.806336402893066,0.06254583597183228,-0.04745455086231232
1751620540198316800,15.09631689453125,9.806246757507324,0.07189828902482986,-0.052353329956531525
1751620540217140500,15.115140380859375,9.806136131286621,0.08440995961427689,-0.05442697927355766
1751620540235964000,15.1339638671875,9.805769920349121,0.10784585028886795,-0.07497525215148926
1751620540254787600,15.15278759765625,9.805124282836914,0.1359977275133133,-0.10682836920022964
1751620540273611300,15.171611328125,9.805752754211426,0.12812888622283936,-0.03452499955892563
1751620540292435000,15.19043505859375,9.805392265319824,0.14976318180561066,-0.04740649834275246
1751620540311258600,15.209258544921875,9.80469036102295,0.17473219335079193,-0.08881016820669174
1751620540330082300,15.228082275390625,9.804588317871094,0.18053755164146423,-0.08862511068582535
1751620540348906000,15.246906005859374,9.804537773132324,0.17895399034023285,-0.09696467965841293
1751620540367729700,15.265729736328124,9.804547309875488,0.17640326917171478,-0.10055245459079742
1751620540386553300,15.28455322265625,9.805306434631348,0.15334823727607727,-0.05322374030947685
1751620540405376800,15.303376708984375,9.805768013000488,0.1282016485929489,-0.02972867712378502
1751620540424200400,15.322200439453125,9.806083679199219,0.10009719431400299,-0.03294675424695015
1751620540443024100,15.341024169921875,9.806316375732422,0.07221882790327072,-0.036542512476444244
1751620540461847800,15.359847900390625,9.806577682495117,0.034501928836107254,0.01519661396741867
1751620540480671500,15.37867138671875,9.806607246398926,0.027591608464717865,0.0091427993029356
1751620540499495200,15.3974951171875,9.80659294128418,0.027959609404206276,0.01791677623987198
1751620540518318800,15.41631884765625,9.80654525756836,0.04512392729520798,0.0037845114711672068
1751620540537142500,15.435142578125,9.80647087097168,0.05768318474292755,-0.013998107984662056
1751620540555966200,15.45396630859375,9.806290626525879,0.07453175634145737,-0.03893161192536354
1751620540574789600,15.47278955078125,9.806105613708496,0.08926845341920853,-0.051886189728975296
1751620540593613300,15.49161328125,9.805535316467285,0.11568792909383774,-0.09201281517744064
1751620540612437000,15.51043701171875,9.804891586303711,0.14050577580928802,-0.12153607606887817
1751620540631260700,15.5292607421875,9.80465316772461,0.156992107629776,-0.12050403654575348
1751620540650084400,15.54808447265625,9.80524730682373,0.1544710099697113,-0.06062547490000725
1751620540668908000,15.566907958984375,9.805438041687012,0.15369367599487305,-0.012536965310573578
1751620540687731700,15.585731689453125,9.80528450012207,0.16320185363292694,-0.011722296476364136
1751620540706555100,15.60455517578125,9.805435180664062,0.15438537299633026,-0.0017083570128306746
1751620540725378800,15.62337890625,9.805317878723145,0.15522420406341553,-0.04501486197113991
1751620540744202500,15.642202392578126,9.805285453796387,0.14350348711013794,-0.0785013809800148
1751620540763026200,15.661026123046875,9.805777549743652,0.11388325691223145,-0.06423220038414001
1751620540781849900,15.679849853515625,9.806178092956543,0.08282936364412308,-0.049083057790994644
1751620540800673500,15.698673583984375,9.806472778320312,0.055300820618867874,-0.02061026357114315
1751620540819497200,15.717497314453125,9.806514739990234,0.0463610477745533,-0.02279171533882618
1751620540838321000,15.73632080078125,9.8065185546875,0.04726770520210266,-0.01873874105513096
1751620540857144600,15.75514453125,9.806394577026367,0.06368802487850189,-0.030907273292541504
1751620540875968000,15.773968017578126,9.806199073791504,0.07742041349411011,-0.053593531250953674
1751620540894791700,15.792791748046875,9.805768966674805,0.09780506789684296,-0.08775389194488525
1751620540913615400,15.811615478515625,9.805424690246582,0.11660124361515045,-0.10221987217664719
1751620540932439000,15.83043896484375,9.804856300354004,0.139456108212471,-0.1254737824201584
1751620540951262700,15.8492626953125,9.804488182067871,0.1561439335346222,-0.1342039853334427
1751620540970086400,15.86808642578125,9.805113792419434,0.14984706044197083,-0.08771262317895889
1751620540988910000,15.88691015625,9.805649757385254,0.13735802471637726,-0.02758212201297283
1751620541007733800,15.905733642578125,9.803956031799316,0.18599514663219452,-0.1350780427455902
1751620541026557200,15.92455712890625,9.80409049987793,0.18901334702968597,-0.1202414408326149
1751620541045380900,15.943380859375,9.80422306060791,0.1849106103181839,-0.11574389785528183
1751620541064204500,15.96220458984375,9.804694175720215,0.16983963549137115,-0.09750014543533325
1751620541083028200,15.9810283203125,9.805188179016113,0.14400042593479156,-0.08913208544254303
1751620541101852000,15.999851806640624,9.805742263793945,0.10712902992963791,-0.07952757924795151
1751620541120675600,16.018675537109374,9.806320190429688,0.06514979898929596,-0.04717215150594711
1751620541139499300,16.037499267578124,9.806475639343262,0.04052453488111496,-0.042170487344264984
1751620541158322700,16.05632275390625,9.806631088256836,0.018761394545435905,-0.004147795028984547
1751620541177146400,16.075146484375,9.806607246398926,0.02609170787036419,-0.012792805209755898
1751620541195970000,16.093969970703125,9.80636978149414,0.05411643907427788,-0.05075567960739136
1751620541214793700,16.112793701171874,9.80623722076416,0.06643886864185333,-0.06066909059882164
1751620541233617400,16.131617431640624,9.806063652038574,0.08045824617147446,-0.07093925029039383
1751620541252441000,16.150441162109374,9.805876731872559,0.09440331906080246,-0.07899145036935806
1751620541271264800,16.1692646484375,9.805464744567871,0.11571753770112991,-0.09925534576177597
1751620541290088400,16.18808837890625,9.805550575256348,0.12573426961898804,-0.0758400559425354
1751620541308911900,16.206911865234375,9.805902481079102,0.12078884989023209,-0.008888456970453262
1751620541327735600,16.225735595703124,9.805654525756836,0.1390889585018158,-0.0134363928809762
1751620541346559200,16.244559326171874,9.805532455444336,0.14759798347949982,-0.011151213198900223
1751620541365383000,16.2633828125,9.805559158325195,0.1462613344192505,0.0016349594807252288
1751620541384206600,16.28220654296875,9.80553913116455,0.14730066061019897,-0.009496987797319889
1751620541403030300,16.3010302734375,9.804931640625,0.1649586409330368,-0.08063185214996338
1751620541421854000,16.31985400390625,9.805006980895996,0.15812771022319794,-0.0848536565899849
1751620541440677600,16.338677734375,9.805282592773438,0.14307737350463867,-0.07975922524929047
1751620541468913000,16.366912841796875,9.805487632751465,0.11978118866682053,-0.09195670485496521
1751620541487736600,16.385736572265625,9.805875778198242,0.09749521315097809,-0.07536957412958145
1751620541506560300,16.404560302734374,9.806289672851562,0.0730360746383667,-0.04165422171354294
1751620541525384000,16.423384033203124,9.806304931640625,0.06884823739528656,-0.04504125192761421
1751620541544207600,16.44220751953125,9.806256294250488,0.07286054641008377,-0.049193959683179855
1751620541563031300,16.46103125,9.806042671203613,0.08588913083076477,-0.06742105633020401
1751620541581855000,16.47985498046875,9.805838584899902,0.09529314935207367,-0.08275951445102692
1751620541600678700,16.4986787109375,9.805720329284668,0.10287096351385117,-0.08739648014307022
1751620541619502000,16.517502197265625,9.805656433105469,0.11064112931489944,-0.08515540510416031
1751620541638325800,16.53632568359375,9.80587387084961,0.11019297689199448,-0.05543229356408119
1751620541657149400,16.5551494140625,9.806084632873535,0.10525662451982498,-0.00350534007884562
1751620541675973000,16.57397314453125,9.805647850036621,0.13314403593540192,-0.043889086693525314
1751620541694796800,16.592796875,9.804215431213379,0.17919960618019104,-0.12504757940769196
1751620541713620500,16.611620361328125,9.805191993713379,0.16516374051570892,-0.03633671998977661
1751620541732444200,16.630444091796875,9.805299758911133,0.1626945436000824,-0.002131978515535593
1751620541751267600,16.649267578125,9.805425643920898,0.1536439061164856,0.020306508988142014
1751620541770091300,16.66809130859375,9.805545806884766,0.14706765115261078,0.005568618420511484
1751620541788915000,16.6869150390625,9.805224418640137,0.15222205221652985,-0.06922245770692825
1751620541807738600,16.705738525390625,9.805398941040039,0.1341693103313446,-0.08079416304826736
1751620541826562300,16.724562255859375,9.805488586425781,0.11870697885751724,-0.09314903616905212
1751620541845386000,16.743385986328125,9.80578327178955,0.10234314948320389,-0.08066559582948685
1751620541864209700,16.762209716796875,9.806010246276855,0.09287628531455994,-0.06275501847267151
1751620541883033300,16.781033447265624,9.806279182434082,0.08041106909513474,-0.028250355273485184
1751620541901856800,16.799856689453126,9.806323051452637,0.07828923314809799,-0.017325319349765778
1751620541920680400,16.818680419921876,9.80624008178711,0.08460491895675659,-0.02992350608110428
1751620541939504000,16.837504150390625,9.806010246276855,0.09577915817499161,-0.058246366679668427
1751620541958327800,16.856327880859375,9.805910110473633,0.10174886882305145,-0.06449216604232788
1751620541977151500,16.8751513671875,9.805869102478027,0.10642218589782715,-0.06324353069067001
1751620541995975200,16.89397509765625,9.805804252624512,0.11403906345367432,-0.05982809513807297
1751620542014798800,16.912798828125,9.805891990661621,0.1172095313668251,-0.03370407223701477
1751620542033622300,16.931622314453126,9.805445671081543,0.13999345898628235,-0.06350741535425186
1751620542052446000,16.950446044921875,9.804350852966309,0.17628063261508942,-0.11839529126882553
1751620542071269600,16.96926953125,9.804765701293945,0.17563001811504364,-0.07814571261405945
1751620542090093300,16.98809326171875,9.805461883544922,0.15244251489639282,-0.0068091657012701035
1751620542108917000,17.0069169921875,9.805603981018066,0.1431441754102707,-0.005199902690947056
1751620542127740700,17.02574072265625,9.80567741394043,0.13573943078517914,-0.025851676240563393
1751620542146564400,17.044564453125,9.805526733398438,0.1288263201713562,-0.07366397976875305
1751620542165388000,17.063387939453126,9.805834770202637,0.10564351081848145,-0.0695682018995285
1751620542184211500,17.08221142578125,9.806148529052734,0.08428414165973663,-0.05233579874038696
1751620542203035100,17.10103515625,9.806386947631836,0.06552528589963913,-0.02961123175919056
1751620542221858800,17.11985888671875,9.806458473205566,0.05639678239822388,-0.024226607754826546
1751620542240682500,17.1386826171875,9.806468963623047,0.05502023175358772,-0.022910160943865776
1751620542259506200,17.157506103515626,9.806456565856934,0.05787123367190361,-0.0207167137414217
1751620542278329900,17.176329833984376,9.806279182434082,0.07009590417146683,-0.04866962507367134
1751620542297153300,17.1951533203125,9.806089401245117,0.08139616996049881,-0.06616196781396866
1751620542315977000,17.21397705078125,9.805787086486816,0.09754133969545364,-0.0860719308257103
1751620542334800600,17.232800537109377,9.805397987365723,0.11657582968473434,-0.10473280400037766
1751620542353624300,17.251624267578126,9.805713653564453,0.11890467256307602,-0.0650368183851242
1751620542372448000,17.270447998046876,9.806049346923828,0.10825731605291367,0.008651803247630596
1751620542391271700,17.289271728515626,9.80583667755127,0.12631112337112427,0.0014497344382107258
1751620542410095400,17.308095458984376,9.805639266967773,0.1407085806131363,0.004302929155528545
1751620542428918800,17.326918701171873,9.805573463439941,0.14464221894741058,0.014602922834455967
1751620542447742500,17.345742431640623,9.805636405944824,0.13851216435432434,0.026115771383047104
1751620542466566100,17.364566162109377,9.805695533752441,0.13412359356880188,0.027414139360189438
1751620542485389800,17.383389892578126,9.805780410766602,0.12669555842876434,0.03195485100150108
1751620542504213500,17.402213623046876,9.805962562561035,0.10779079794883728,0.04310402646660805
1751620542523037200,17.421037109375,9.806187629699707,0.07931045442819595,0.05266052111983299
1751620542541860900,17.43986083984375,9.806431770324707,0.06527256220579147,0.004569259937852621
1751620542560684500,17.4586845703125,9.806547164916992,0.044226791709661484,-0.00722929323092103
1751620542579508000,17.477508056640627,9.806602478027344,0.02965320460498333,0.005868185311555862
1751620542598331600,17.49633154296875,9.806510925292969,0.04371527209877968,-0.02877228334546089
1751620542617155300,17.5151552734375,9.806289672851562,0.06391598284244537,-0.054573044180870056
1751620542635979000,17.53397900390625,9.806150436401367,0.07486467808485031,-0.06466595828533173
1751620542654802700,17.552802734375,9.806174278259277,0.07423906773328781,-0.061837173998355865
1751620542673626400,17.57162646484375,9.806173324584961,0.07320123165845871,-0.06324733793735504
1751620542692450000,17.590449951171873,9.806148529052734,0.07478756457567215,-0.06520392000675201
1751620542711273500,17.6092734375,9.806059837341309,0.08110327273607254,-0.07071652263402939
1751620542730097200,17.62809716796875,9.805789947509766,0.09616073966026306,-0.08733431249856949
1751620542748920800,17.6469208984375,9.805394172668457,0.11747381091117859,-0.10404668003320694
1751620542767744500,17.66574462890625,9.805058479309082,0.13884902000427246,-0.10928190499544144
1751620542786568200,17.684568115234374,9.80571174621582,0.1320822834968567,-0.03095908835530281
1751620542805392000,17.703391845703123,9.805638313293457,0.14077579975128174,-0.004518972709774971
1751620542824215300,17.72221533203125,9.805551528930664,0.14665111899375916,0.005157832056283951
1751620542843039000,17.7410390625,9.805541038513184,0.1466899961233139,0.015359924174845219
1751620542861862700,17.759862548828124,9.805612564086914,0.14101846516132355,0.02142181247472763
1751620542880686300,17.778686279296874,9.805715560913086,0.1333446055650711,0.02333044819533825
1751620542899510000,17.797510009765624,9.805806159973145,0.12686219811439514,0.021941062062978745
1751620542918333700,17.816333740234374,9.805852890014648,0.12235213071107864,0.026110293343663216
1751620542937157400,17.835157470703123,9.806025505065918,0.10548355430364609,0.033544957637786865
1751620542955981000,17.85398095703125,9.806233406066895,0.07874225080013275,0.04446334019303322
1751620542974804500,17.872804443359374,9.806407928466797,0.06828293204307556,0.00997193343937397
1751620542993628200,17.891628173828124,9.806241989135742,0.07324688881635666,-0.05144420638680458
1751620543012451800,17.910451904296874,9.806405067443848,0.05982281267642975,-0.03510968014597893
1751620543031275500,17.929275634765624,9.806375503540039,0.060834672302007675,-0.0412103533744812
1751620543050099200,17.94809912109375,9.80627155303955,0.06965068727731705,-0.05061529576778412
1751620543068923000,17.9669228515625,9.806082725524902,0.08435343950986862,-0.06329210102558136
1751620543087746300,17.985746337890625,9.805874824523926,0.09672975540161133,-0.07654106616973877
1751620543106570000,18.004570068359374,9.805500030517578,0.11476296186447144,-0.09689084440469742
1751620543125393700,18.0233935546875,9.80512809753418,0.1338994950056076,-0.1091887354850769
1751620543144217300,18.04221728515625,9.8051118850708,0.14591430127620697,-0.09428102523088455
1751620543163041000,18.061041015625,9.805501937866211,0.1447363793849945,-0.03957907110452652
1751620543181864700,18.07986474609375,9.805190086364746,0.16522857546806335,-0.03649771213531494
1751620543200688400,18.0986884765625,9.804359436035156,0.19932609796524048,-0.0720987394452095
1751620543219511800,18.11751171875,9.804450988769531,0.20462127029895782,-0.03555537387728691
1751620543238335500,18.13633544921875,9.804410934448242,0.20861046016216278,-0.019529737532138824
1751620543257159200,18.1551591796875,9.804641723632812,0.1984497308731079,-0.0018006667960435152
1751620543275982800,18.17398291015625,9.804719924926758,0.19414831697940826,-0.013441844843327999
1751620543294806500,18.192806640625,9.804962158203125,0.18140476942062378,-0.01419300027191639
1751620543313630200,18.211630126953125,9.804991722106934,0.1756584644317627,-0.04103349149227142
1751620543332454000,18.230453857421875,9.804606437683105,0.17595237493515015,-0.09554150700569153
1751620543351277300,18.24927734375,9.805130004882812,0.15290434658527374,-0.08014030754566193
1751620543370101000,18.26810107421875,9.805484771728516,0.13014569878578186,-0.07690148800611496
1751620543388924700,18.286924560546876,9.805779457092285,0.10990042984485626,-0.07063262164592743
1751620543407748400,18.305748291015625,9.805914878845215,0.09891469776630402,-0.06806723028421402
1751620543426572000,18.324572021484375,9.806078910827637,0.0899737998843193,-0.05569634586572647
1751620543445395700,18.343395751953125,9.806157112121582,0.08565070480108261,-0.048228636384010315
1751620543464219400,18.362219482421875,9.806113243103027,0.08838555216789246,-0.052046824246644974
1751620543483042800,18.381042724609376,9.80601692199707,0.09491738677024841,-0.058233458548784256
1751620543501866500,18.399866455078126,9.805913925170898,0.0998002216219902,-0.06691858917474747
1751620543520690200,18.418690185546875,9.805785179138184,0.1056024506688118,-0.07611354440450668
1751620543539513900,18.437513916015625,9.805512428283691,0.11872592568397522,-0.09063633531332016
1751620543558337500,18.456337646484375,9.805000305175781,0.14107614755630493,-0.11157340556383133
1751620543577161200,18.4751611328125,9.805195808410645,0.14936840534210205,-0.07877828180789948
1751620543595984600,18.493984619140626,9.805171966552734,0.16127434372901917,-0.054583627730607986
1751620543614808300,18.512808349609376,9.804582595825195,0.18406593799591064,-0.08168034255504608
1751620543633632000,18.531632080078126,9.804781913757324,0.1794225573539734,-0.06673258543014526
1751620543652455700,18.55045556640625,9.804588317871094,0.17765261232852936,-0.09423399716615677
1751620543671279400,18.569279296875,9.804444313049316,0.17637549340724945,-0.11024602502584457
1751620543690103000,18.58810302734375,9.804472923278809,0.1732761263847351,-0.11259407550096512
1751620543708926700,18.6069267578125,9.804603576660156,0.16781465709209442,-0.10945103317499161
1751620543727750100,18.625750244140626,9.804878234863281,0.16066662967205048,-0.09446784108877182
1751620543746573800,18.64457373046875,9.805347442626953,0.14030157029628754,-0.07662013918161392
1751620543765397500,18.6633974609375,9.805648803710938,0.11854981631040573,-0.07466296851634979
1751620543784221200,18.68222119140625,9.805943489074707,0.09657842665910721,-0.0672331228852272
1751620543803044900,18.701044921875,9.806096076965332,0.08192355930805206,-0.06435228884220123
1751620543821868500,18.71986865234375,9.806185722351074,0.0720013976097107,-0.0626983791589737
1751620543840692000,18.73869189453125,9.806281089782715,0.0641961395740509,-0.055991459637880325
1751620543859515600,18.757515625,9.806385040283203,0.05838390812277794,-0.042411282658576965
1751620543878339300,18.77633935546875,9.806378364562988,0.06204081326723099,-0.03853622078895569
1751620543897163000,18.7951630859375,9.80622673034668,0.07295528799295425,-0.05458783730864525
1751620543915986700,18.813986572265627,9.806063652038574,0.08422934263944626,-0.06632303446531296
1751620543934810400,18.832810302734377,9.805766105651855,0.10209225118160248,-0.08316517621278763
1751620543953633800,18.8516337890625,9.805471420288086,0.12158842384815216,-0.09122733771800995
1751620543972457500,18.87045751953125,9.805659294128418,0.12589608132839203,-0.059954170137643814
1751620543991281200,18.88928125,9.805341720581055,0.14483143389225006,-0.06845885515213013
1751620544010104800,18.908104736328124,9.804865837097168,0.1685096174478531,-0.08115579932928085
1751620544028928500,18.926928466796873,9.804925918579102,0.17486140131950378,-0.05683558061718941
1751620544047752200,18.945752197265627,9.805012702941895,0.1735379993915558,-0.044840432703495026
1751620544066576000,18.964575927734376,9.805123329162598,0.16673023998737335,-0.04638456925749779
1751620544085399300,18.9833994140625,9.805089950561523,0.16339898109436035,-0.06254716962575912
1751620544104223000,19.002222900390624,9.80496597290039,0.16067883372306824,-0.08489526808261871
1751620544123046700,19.021046630859374,9.804919242858887,0.1565556824207306,-0.0971301794052124
1751620544141870300,19.039870361328123,9.804715156555176,0.1579979807138443,-0.11390123516321182
1751620544160694000,19.058694091796873,9.804715156555176,0.15492326021194458,-0.11802792549133301
1751620544179517700,19.077517578125,9.80483627319336,0.14923669397830963,-0.1153147965669632
1751620544198341400,19.09634130859375,9.80502986907959,0.1414920836687088,-0.10843785107135773
1751620544217164800,19.115164794921874,9.805275917053223,0.1306101530790329,-0.0994834452867508
1751620544235988500,19.133988525390624,9.805445671081543,0.12228196114301682,-0.09311863034963608
1751620544254812200,19.152812255859374,9.805519104003906,0.11707556247711182,-0.09211201220750809
1751620544273635800,19.1716357421875,9.80564022064209,0.10894084721803665,-0.0890946090221405
1751620544292459500,19.19045947265625,9.805769920349121,0.10110189020633698,-0.08396022021770477
1751620544311283200,19.209283203125,9.80583381652832,0.09690294414758682,-0.08143533766269684
1751620544330106600,19.228106689453124,9.80583667755127,0.09567894041538239,-0.08250527083873749
1751620544348930300,19.246930419921874,9.805837631225586,0.09542043507099152,-0.08262407034635544
1751620544367754000,19.26575390625,9.805856704711914,0.09519331157207489,-0.08062741905450821
1751620544386577700,19.28457763671875,9.805876731872559,0.09340019524097443,-0.08037479221820831
1751620544405401300,19.3034013671875,9.805912971496582,0.09075190126895905,-0.07888814061880112
1751620544424224800,19.322224853515625,9.805913925170898,0.08881981670856476,-0.08090299367904663
1751620544443048400,19.34104833984375,9.805931091308594,0.08714327216148376,-0.08061277121305466
1751620544471284000,19.369283935546875,9.80593490600586,0.0881994441151619,-0.07903080433607101
1751620544490107600,19.388107666015625,9.805940628051758,0.08936187624931335,-0.07701078802347183
1751620544508931300,19.406931396484374,9.805903434753418,0.09266893565654755,-0.07782474160194397
1751620544527755000,19.425755126953124,9.80567741394043,0.10289336740970612,-0.09211613982915878
1751620544546578400,19.444578369140626,9.805227279663086,0.12254264950752258,-0.11345209926366806
1751620544565402000,19.463402099609375,9.804584503173828,0.14723163843154907,-0.13716548681259155
1751620544584225800,19.482225830078125,9.804346084594727,0.1652630865573883,-0.1337077021598816
1751620544603049500,19.501049560546875,9.804043769836426,0.18605202436447144,-0.12840202450752258
1751620544621873200,19.519873046875,9.803956985473633,0.20021884143352509,-0.11281813681125641
1751620544640696800,19.53869677734375,9.804713249206543,0.1890118271112442,-0.04751573130488396
1751620544659520500,19.5575205078125,9.804571151733398,0.1939982771873474,-0.055985622107982635
1751620544678344000,19.576343994140625,9.804119110107422,0.20214694738388062,-0.09365669637918472
1751620544697167600,19.595167724609375,9.80393123626709,0.20301467180252075,-0.10995577275753021
1751620544715991300,19.6139912109375,9.8041353225708,0.19556313753128052,-0.10527393221855164
1751620544734815000,19.63281494140625,9.804393768310547,0.18144415318965912,-0.1065187156200409
1751620544753638700,19.651638671875,9.805140495300293,0.1501186043024063,-0.08422380685806274
1751620544772462300,19.67046240234375,9.8057861328125,0.11302008479833603,-0.06449078023433685
1751620544791285800,19.68928564453125,9.806267738342285,0.07827217131853104,-0.03672882542014122
1751620544810109400,19.708109375,9.80644416809082,0.05745639652013779,-0.02714664116501808
1751620544828933000,19.72693310546875,9.80650520324707,0.048887789249420166,-0.021391674876213074
1751620544847756800,19.7457568359375,9.806398391723633,0.05896515026688576,-0.03829989582300186
1751620544866580500,19.76458056640625,9.806160926818848,0.07607661932706833,-0.06173258647322655
1751620544885404200,19.783404052734376,9.805962562561035,0.09010208398103714,-0.07327104359865189
1751620544904227600,19.8022275390625,9.805734634399414,0.1055559292435646,-0.08266142010688782
1751620544923051300,19.82105126953125,9.805327415466309,0.1252930462360382,-0.10119487345218658
1751620544941875000,19.839875,9.805289268493652,0.13652361929416656,-0.08974336832761765
1751620544960698600,19.85869873046875,9.805513381958008,0.14040876924991608,-0.0508747398853302
1751620544979522300,19.877522216796876,9.80550765991211,0.14878800511360168,-0.01634250208735466
1751620544998346000,19.896345947265626,9.804929733276367,0.17754313349723816,-0.0471544973552227
1751620545017169400,19.91516943359375,9.805082321166992,0.17433063685894012,-0.01847931556403637
1751620545035993000,19.9339931640625,9.805010795593262,0.17475244402885437,-0.04008764773607254
1751620545054816800,19.952816650390623,9.804332733154297,0.1873946189880371,-0.10157840698957443
1751620545073640400,19.971640380859377,9.804535865783691,0.17814119160175323,-0.09868896007537842
1751620545092464000,19.990464111328127,9.804794311523438,0.16465367376804352,-0.09637613594532013
1751620545111287800,20.009287841796876,9.805004119873047,0.1500297635793686,-0.0987970158457756
1751620545130111200,20.028111328125,9.8052396774292,0.13267982006072998,-0.10038723051548004
1751620545148935000,20.046934814453124,9.805790901184082,0.10467212647199631,-0.0768599584698677
1751620545167758600,20.065758544921874,9.806253433227539,0.07619427889585495,-0.04453938826918602
1751620545186582300,20.084582275390623,9.806352615356445,0.06454616785049438,-0.04085253179073334
1751620545205406000,20.103406005859377,9.806203842163086,0.07355723530054092,-0.057789310812950134
1751620545224229600,20.122229736328126,9.805891036987305,0.09276468306779861,-0.0792761966586113
1751620545243053000,20.141052978515624,9.8056640625,0.10328694432973862,-0.09308017790317535
1751620545261876700,20.159876708984374,9.805631637573242,0.10524287819862366,-0.09434057772159576
1751620545280700400,20.178700439453124,9.805657386779785,0.10581143945455551,-0.0909193754196167
1751620545299524000,20.197524169921873,9.805656433105469,0.10701578110456467,-0.08965902775526047
1751620545318347800,20.21634765625,9.80566120147705,0.10761205106973648,-0.08839744329452515
1751620545337171500,20.23517138671875,9.805683135986328,0.10723429173231125,-0.08638133853673935
1751620545355995000,20.253994873046874,9.805709838867188,0.10882919281721115,-0.08113932609558105
1751620545374818600,20.272818603515624,9.805774688720703,0.11144139617681503,-0.06900046765804291
1751620545393642200,20.291642333984374,9.805699348449707,0.12026295065879822,-0.06474992632865906
1751620545412466000,20.3104658203125,9.804845809936523,0.15224741399288177,-0.11048005521297455
1751620545431289600,20.32928955078125,9.804548263549805,0.17269988358020782,-0.10675451159477234
1751620545450113300,20.34811328125,9.8047513961792,0.18067094683647156,-0.06784282624721527
1751620545468936700,20.366936767578125,9.80453872680664,0.19268085062503815,-0.06544902175664902
1751620545487760400,20.385760498046874,9.804315567016602,0.19857802987098694,-0.07961174845695496
1751620545506584000,20.404583984375,9.804022789001465,0.19935818016529083,-0.10855966806411743
1751620545525407700,20.42340771484375,9.804206848144531,0.1901838183403015,-0.10838762670755386
1751620545544231400,20.4422314453125,9.804573059082031,0.17445507645606995,-0.10150021314620972
1751620545563055000,20.46105517578125,9.805190086364746,0.14764027297496796,-0.08266683667898178
1751620545581878500,20.47987841796875,9.80566120147705,0.11846912652254105,-0.07320750504732132
1751620545600702200,20.4987021484375,9.806053161621094,0.08798875659704208,-0.06314621865749359
1751620545619526000,20.51752587890625,9.806407928466797,0.05765427649021149,-0.0377144031226635
1751620545638349600,20.536349609375,9.806473731994629,0.04513436183333397,-0.0377972237765789
1751620545657173200,20.55517333984375,9.806466102600098,0.043962445110082626,-0.04122931882739067
1751620545675997000,20.573996826171875,9.806361198425293,0.05322931706905365,-0.05336413532495499
1751620545694820400,20.5928203125,9.806211471557617,0.06693390756845474,-0.06406410783529282
1751620545713644000,20.61164404296875,9.806192398071289,0.06999483704566956,-0.06378380954265594
1751620545732467700,20.6304677734375,9.806199073791504,0.07186216861009598,-0.060741327702999115
1751620545751291400,20.64929150390625,9.806171417236328,0.07535392045974731,-0.06093119457364082
1751620545770115000,20.668114990234375,9.806099891662598,0.08016148209571838,-0.06613330543041229
1751620545788938800,20.686938720703125,9.80594253540039,0.0900040715932846,-0.0758664608001709
1751620545807762200,20.70576220703125,9.805630683898926,0.10691753029823303,-0.09250439703464508
1751620545826585900,20.7245859375,9.80508041381836,0.13012202084064484,-0.11769624054431915
1751620545845409500,20.743409423828126,9.804347038269043,0.15755777060985565,-0.14266258478164673
1751620545864233200,20.762233154296876,9.803893089294434,0.1828237920999527,-0.14372800290584564
1751620545883057000,20.781056884765626,9.803768157958984,0.20181278884410858,-0.1257009506225586
1751620545901880600,20.799880615234375,9.803505897521973,0.2187041938304901,-0.11764505505561829
1751620545920704000,20.8187041015625,9.803832054138184,0.2143646627664566,-0.0965021625161171
1751620545939527700,20.837527587890627,9.804288864135742,0.19492019712924957,-0.09122158586978912
1751620545958351400,20.856351318359376,9.80467700958252,0.1735459864139557,-0.09258054196834564
1751620545977175000,20.875175048828126,9.805303573608398,0.1435888409614563,-0.07613423466682434
1751620545995998700,20.893998779296876,9.80566120147705,0.1185818538069725,-0.0730195939540863
1751620546014822400,20.912822509765626,9.805827140808105,0.10157161206007004,-0.07636585831642151
1751620546033645800,20.931645751953123,9.805963516235352,0.09060318768024445,-0.07242223620414734
1751620546052469500,20.950469482421877,9.80600643157959,0.08728864789009094,-0.07074262946844101
1751620546071293200,20.969293212890626,9.805930137634277,0.0908176600933075,-0.07668443769216537
1751620546090116900,20.988116943359376,9.806042671203613,0.08817040920257568,-0.06444080919027328
1751620546108940500,21.0069404296875,9.805973052978516,0.09063829481601715,-0.07115685194730759
1751620546127764200,21.02576416015625,9.80588150024414,0.0947033017873764,-0.07824336737394333
1751620546146587600,21.044587646484374,9.805811882019043,0.10114534199237823,-0.07885438948869705
1751620546165411300,21.063411376953123,9.80562973022461,0.11303003877401352,-0.08509381115436554
1751620546184235000,21.082235107421877,9.80517864227295,0.13331104815006256,-0.10531920939683914
1751620546203058700,21.10105859375,9.80444622039795,0.15940037369728088,-0.13342174887657166
1751620546221882400,21.11988232421875,9.803699493408203,0.1889892965555191,-0.14880478382110596
1751620546240706000,21.1387060546875,9.803657531738281,0.2080760896205902,-0.1240849420428276
1751620546259529500,21.157529541015624,9.804570198059082,0.1988724321126938,-0.035079244524240494
1751620546278353200,21.176353271484373,9.80491828918457,0.18414342403411865,0.00713852746412158
1751620546297176800,21.1951767578125,9.805055618286133,0.17510519921779633,-0.024367213249206543
1751620546316000500,21.21400048828125,9.805342674255371,0.15360234677791595,-0.04516822099685669
1751620546334824200,21.23282421875,9.805550575256348,0.13018131256103516,-0.06797151267528534
1751620546353647900,21.25164794921875,9.805784225463867,0.10852469503879547,-0.07223139703273773
1751620546372471300,21.27047119140625,9.8058443069458,0.09640125185251236,-0.0807453989982605
1751620546391295000,21.289294921875,9.806023597717285,0.08544251322746277,-0.07070641219615936
1751620546410118700,21.30811865234375,9.806017875671387,0.08417266607284546,-0.07298626750707626
1751620546428942300,21.3269423828125,9.805977821350098,0.08790329098701477,-0.07403828203678131
1751620546447766000,21.34576611328125,9.806111335754395,0.08506783097982407,-0.05778021365404129
1751620546466589700,21.364589599609374,9.806157112121582,0.08396469801664352,-0.05120198801159859
1751620546485413000,21.3834130859375,9.806117057800293,0.08714822679758072,-0.05327647179365158
1751620546504236800,21.40223681640625,9.805933952331543,0.09866790473461151,-0.06567171961069107
1751620546523060500,21.421060546875,9.805947303771973,0.10513756424188614,-0.05239099636673927
1751620546541884200,21.43988427734375,9.805329322814941,0.1336638331413269,-0.08963216096162796
1751620546560707800,21.458707763671875,9.804122924804688,0.17445608973503113,-0.13828817009925842
1751620546579531500,21.477531494140624,9.804852485656738,0.17556408047676086,-0.06655709445476532
1751620546598355000,21.49635498046875,9.805051803588867,0.17690911889076233,-0.00772389629855752
1751620546617178600,21.5151787109375,9.8050537109375,0.17613345384597778,0.01713453233242035
1751620546636002300,21.534002197265625,9.805280685424805,0.161588653922081,0.02747107669711113
1751620546654826000,21.552825927734375,9.805505752563477,0.14975391328334808,0.0024063915479928255
1751620546673649700,21.571649658203125,9.805421829223633,0.14379043877124786,-0.05850151926279068
1751620546692473300,21.590473388671874,9.805562019348145,0.12168686836957932,-0.0809064507484436
1751620546711296800,21.609296875,9.805900573730469,0.09334227442741394,-0.07735677063465118
1751620546730120400,21.628120361328126,9.806235313415527,0.06759415566921234,-0.05975282937288284
1751620546748944100,21.646944091796875,9.806340217590332,0.056597281247377396,-0.05369676277041435
1751620546767767800,21.665767822265625,9.806346893310547,0.05534636229276657,-0.053543779999017715
1751620546786591500,21.684591552734375,9.806281089782715,0.06096411496400833,-0.05947573482990265
1751620546805415000,21.703414794921876,9.80611515045166,0.07221046090126038,-0.07265292853116989
1751620546824238600,21.722238525390626,9.806070327758789,0.07604387402534485,-0.07478713244199753
1751620546843062300,21.741062255859376,9.80608081817627,0.07565633207559586,-0.07377835363149643
1751620546861886000,21.759885986328126,9.806072235107422,0.07855726033449173,-0.07185681164264679
1751620546880709600,21.778709716796875,9.805974006652832,0.08695396780967712,-0.07547223567962646
1751620546899533000,21.797532958984377,9.805729866027832,0.10202790796756744,-0.08740334212779999
1751620546918356700,21.816356689453126,9.805390357971191,0.12062256783246994,-0.10073156654834747
1751620546937180400,21.835180419921876,9.804788589477539,0.14358308911323547,-0.12611700594425201
1751620546956004000,21.854004150390626,9.803987503051758,0.17309236526489258,-0.14918747544288635
1751620546974827800,21.872827880859376,9.803472518920898,0.19786454737186432,-0.15215231478214264
1751620546993651500,21.8916513671875,9.803425788879395,0.21207313239574432,-0.13508959114551544
1751620547012475000,21.910474853515623,9.804067611694336,0.20383526384830475,-0.09538538008928299
1751620547031298600,21.929298583984377,9.804022789001465,0.2012832909822464,-0.10493248701095581
1751620547050122200,21.948122314453126,9.804598808288574,0.17917467653751373,-0.09012416750192642
1751620547068946000,21.96694580078125,9.805254936218262,0.14643387496471405,-0.0768997073173523
1751620547087769600,21.98576953125,9.805668830871582,0.11585760116577148,-0.0762537270784378
1751620547106593300,22.00459326171875,9.805992126464844,0.08952131122350693,-0.0699426606297493
1751620547125416700,22.023416748046873,9.80613899230957,0.07400257140398026,-0.06742469221353531
1751620547144240400,22.042240478515627,9.806230545043945,0.06439363211393356,-0.06396453082561493
1751620547163064000,22.06106396484375,9.80628776550293,0.0601474866271019,-0.05909399688243866
1751620547181887700,22.0798876953125,9.806212425231934,0.06661158800125122,-0.06445468962192535
1751620547200711400,22.09871142578125,9.806075096130371,0.07889946550130844,-0.0710098072886467
1751620547219535000,22.11753515625,9.806002616882324,0.08632995188236237,-0.07239636033773422
1751620547238358500,22.136358642578124,9.805745124816895,0.10287457704544067,-0.08460768312215805
1751620547257182200,22.15518212890625,9.805323600769043,0.1257750391960144,-0.101023830473423
1751620547276006000,22.174005859375,9.8046293258667,0.15420423448085785,-0.12594960629940033
1751620547294829600,22.19282958984375,9.804717063903809,0.16738781332969666,-0.09945088624954224
1751620547313653200,22.2116533203125,9.804412841796875,0.18627358973026276,-0.09581895917654037
1751620547332477000,22.230476806640624,9.80417251586914,0.20011718571186066,-0.09247283637523651
1751620547351300400,22.24930029296875,9.80389404296875,0.210122212767601,-0.09949890524148941
1751620547370124000,22.2681240234375,9.803781509399414,0.2101454883813858,-0.11002971231937408
1751620547388947700,22.28694775390625,9.804276466369629,0.19424909353256226,-0.094012551009655
1751620547407771400,22.305771484375,9.804974555969238,0.16569846868515015,-0.07351953536272049
1751620547426595000,22.324594970703124,9.805481910705566,0.13267339766025543,-0.07292865961790085
1751620547445418500,22.34341845703125,9.805885314941406,0.09642546623945236,-0.07548754662275314
1751620547464242200,22.3622421875,9.806358337402344,0.05769329145550728,-0.04890492185950279
1751620547483065900,22.38106591796875,9.806475639343262,0.038705021142959595,-0.04388926923274994
1751620547501889500,22.3998896484375,9.806512832641602,0.033160533756017685,-0.04003038629889488
1751620547520713200,22.418713134765625,9.80640983581543,0.0455816388130188,-0.05138915032148361
1751620547539537000,22.437536865234375,9.806171417236328,0.06718600541353226,-0.06986474245786667
1751620547558360300,22.4563603515625,9.806103706359863,0.07282903045415878,-0.07356192171573639
1751620547577184000,22.47518408203125,9.806051254272461,0.07896680384874344,-0.07418731600046158
1751620547596007700,22.494007568359375,9.805975914001465,0.08679812401533127,-0.075444296002388
1751620547614831400,22.512831298828125,9.805747032165527,0.1013772115111351,-0.08619260042905807
1751620547633655000,22.531655029296875,9.805347442626953,0.12216471135616302,-0.10304605960845947
1751620547652478700,22.550478759765625,9.804478645324707,0.15233318507671356,-0.13918691873550415
1751620547671302100,22.56930224609375,9.803584098815918,0.18515272438526154,-0.160782590508461
1751620547690125800,22.588125732421876,9.802708625793457,0.21838600933551788,-0.172007754445076
1751620547708949500,22.606949462890626,9.802449226379395,0.23844952881336212,-0.15975090861320496
1751620547727773200,22.625773193359375,9.803631782531738,0.22310680150985718,-0.09709180146455765
1751620547746596900,22.644596923828125,9.803327560424805,0.22082123160362244,-0.12803520262241364
1751620547774832000,22.67283203125,9.804238319396973,0.18725192546844482,-0.11054122447967529
1751620547793655800,22.69165576171875,9.804896354675293,0.1576443612575531,-0.0976513996720314
1751620547812479500,22.7104794921875,9.805411338806152,0.12792183458805084,-0.08901557326316833
1751620547831303200,22.72930322265625,9.805715560913086,0.10532870888710022,-0.08501527458429337
1751620547850126800,22.748126953125,9.806050300598145,0.08574758470058441,-0.06647281348705292
1751620547868950300,22.7669501953125,9.80616283416748,0.07479311525821686,-0.06292305141687393
1751620547887774000,22.78577392578125,9.806256294250488,0.06912783533334732,-0.05427016317844391
1751620547906597600,22.80459765625,9.806221008300781,0.0709986537694931,-0.05823187157511711
1751620547925421300,22.82342138671875,9.806145668029785,0.0751078650355339,-0.06521842628717422
1751620547944245000,22.842244873046877,9.806098937988281,0.07785617560148239,-0.06894803047180176
1751620547963068400,22.861068359375,9.806053161621094,0.0802445337176323,-0.0725245401263237
1751620547981892000,22.87989208984375,9.80603313446045,0.08144684135913849,-0.07400254905223846
1751620548000715800,22.8987158203125,9.805998802185059,0.08264946937561035,-0.07709535956382751
1751620548019539500,22.91753955078125,9.80597972869873,0.08362715691328049,-0.07840069383382797
1751620548038363100,22.936363037109373,9.80591869354248,0.08869234472513199,-0.08048652857542038
1751620548057186800,22.955186767578127,9.805685043334961,0.10301802307367325,-0.09121377021074295
1751620548076010200,22.97401025390625,9.805209159851074,0.12492379546165466,-0.11246542632579803
1751620548094834000,22.992833984375,9.804264068603516,0.15546482801437378,-0.15041816234588623
1751620548113657600,23.01165771484375,9.803390502929688,0.18716825544834137,-0.16995659470558167
1751620548132481300,23.030481201171874,9.802728652954102,0.21359312534332275,-0.17682777345180511
1751620548151305000,23.049304931640624,9.80305004119873,0.21715058386325836,-0.15311841666698456
1751620548170128600,23.068128662109373,9.803816795349121,0.19966809451580048,-0.1252937912940979
1751620548188952000,23.0869521484375,9.804171562194824,0.18614603579044342,-0.1181986853480339
1751620548207775700,23.105775634765624,9.80466365814209,0.16642281413078308,-0.10605577379465103
1751620548226599400,23.124599365234374,9.805124282836914,0.1414685994386673,-0.09948436170816422
1751620548245423000,23.143423095703124,9.805575370788574,0.11135940253734589,-0.0931561142206192
1751620548264246800,23.162246826171874,9.806174278259277,0.07085564732551575,-0.06578100472688675
1751620548283070500,23.181070556640623,9.806506156921387,0.035272374749183655,-0.03971729800105095
1751620548301894000,23.199893798828125,9.806631088256836,0.013456622138619423,-0.014130504801869392
1751620548320717600,23.218717529296875,9.806609153747559,0.013787697069346905,-0.02463138848543167
1751620548339541200,23.237541259765624,9.806560516357422,0.023792507126927376,-0.034492552280426025
1751620548358365000,23.256364990234374,9.806415557861328,0.042946528643369675,-0.052527859807014465
1751620548377188600,23.275188720703124,9.806346893310547,0.050048746168613434,-0.05868339166045189
1751620548396012000,23.294011962890625,9.806227684020996,0.06058443710207939,-0.06791116297245026
1751620548414835700,23.312835693359375,9.806000709533691,0.07648942619562149,-0.08291210234165192
1751620548433659400,23.331659423828125,9.805612564086914,0.09917879849672318,-0.1024947315454483
1751620548452483000,23.350483154296874,9.805006980895996,0.12676697969436646,-0.12716522812843323
1751620548471306800,23.369306640625,9.804449081420898,0.15370264649391174,-0.13974080979824066
1751620548490129700,23.388129638671874,9.803866386413574,0.18262681365013123,-0.14575710892677307
1751620548508953300,23.406953369140624,9.80309772491455,0.211946502327919,-0.15724700689315796
1751620548527777000,23.425777099609373,9.80270004272461,0.22904008626937866,-0.1581030637025833
1751620548546600400,23.444600341796875,9.802696228027344,0.23511259257793427,-0.14919689297676086
1751620548565424000,23.463424072265624,9.80310344696045,0.22641026973724365,-0.1352359503507614
1751620548584247800,23.482247802734374,9.803945541381836,0.20211675763130188,-0.11039718985557556
1751620548603071500,23.501071533203124,9.804713249206543,0.17048729956150055,-0.09445605427026749
1751620548621895200,23.519895263671874,9.805429458618164,0.13384591042995453,-0.07755996286869049
1751620548640718600,23.538718505859375,9.806144714355469,0.09166175127029419,-0.03878440707921982
1751620548659542300,23.557542236328125,9.80648136138916,0.05748576670885086,-0.0003710408927872777
1751620548678366000,23.576365966796875,9.806564331054688,0.040744807571172714,0.004222788382321596
1751620548697189600,23.595189697265624,9.806587219238281,0.03493872284889221,0.005247494205832481
1751620548716013300,23.614013427734374,9.806544303894043,0.04333460330963135,-0.01357332244515419
1751620548734836700,23.632836669921875,9.806327819824219,0.06274297833442688,-0.048734139651060104
1751620548753660400,23.651660400390625,9.806205749511719,0.07312453538179398,-0.058018267154693604
1751620548781896000,23.67989599609375,9.805978775024414,0.08832498639822006,-0.07318040728569031
1751620548800719600,23.6987197265625,9.805710792541504,0.10337945818901062,-0.08785076439380646
1751620548819543300,23.717543212890625,9.80506706237793,0.12881408631801605,-0.12026284635066986
1751620548838367000,23.736366943359375,9.804330825805664,0.1535879671573639,-0.14793576300144196
1751620548857190400,23.7551904296875,9.803718566894531,0.17385457456111908,-0.1650693118572235
