time,seconds_elapsed,z,y,x
1751620525374706700,0.272706787109375,-0.0054977829568088055,0.004734201822429895,0.005650499369949102
1751620525402942000,0.30094189453125,-0.010384701192378998,0.002290742937475443,0.004428769461810589
1751620525421765600,0.319765625,-0.011606430634856224,0.0010690133785828948,0.0032070400193333626
1751620525440589000,0.338589111328125,-0.0054977829568088055,0.002290742937475443,0.0032070400193333626
1751620525459412700,0.357412841796875,0.001832594396546483,0.002290742937475443,0.0032070400193333626
1751620525478236400,0.376236328125,0.000610864779446274,0.002290742937475443,0.0019853105768561363
1751620525497059800,0.395059814453125,-0.0030543238390237093,0.002290742937475443,0.0019853105768561363
1751620525515883500,0.413883544921875,-0.001832594396546483,0.002290742937475443,0.0032070400193333626
1751620525534707200,0.432707275390625,0.000610864779446274,0.003512472379952669,0.004428769461810589
1751620525553531000,0.45153076171875,-0.0030543238390237093,0.002290742937475443,0.004428769461810589
1751620525572354300,0.470354248046875,-0.010384701192378998,0.002290742937475443,0.004428769461810589
1751620525591178000,0.489177978515625,-0.010384701192378998,0.002290742937475443,0.0032070400193333626
1751620525610001700,0.508001708984375,-0.006719512399286032,0.002290742937475443,0.004428769461810589
1751620525628825000,0.5268251953125,-0.0030543238390237093,0.002290742937475443,0.0032070400193333626
1751620525647648800,0.545648681640625,-0.004276053514331579,0.002290742937475443,0.0032070400193333626
1751620525666472400,0.564472412109375,-0.006719512399286032,0.002290742937475443,0.0032070400193333626
1751620525685296000,0.583296142578125,-0.0030543238390237093,0.002290742937475443,0.0032070400193333626
1751620525704119600,0.60211962890625,0.000610864779446274,0.003512472379952669,0.0032070400193333626
1751620525722943200,0.620943115234375,-0.000610864779446274,0.009621120058000088,0.009315688163042068
1751620525741767000,0.639766845703125,-0.004276053514331579,-0.0001527161948615685,-0.00045814859913662076
1751620525760590600,0.658590576171875,-0.009162971749901772,0.002290742937475443,0.004428769461810589
1751620525779414000,0.6774140625,-0.0054977829568088055,0.002290742937475443,0.004428769461810589
1751620525798237700,0.69623779296875,-0.004276053514331579,0.003512472379952669,0.004428769461810589
1751620525817061400,0.715061279296875,-0.010384701192378998,0.002290742937475443,0.004428769461810589
1751620525835885000,0.733885009765625,-0.014049889519810677,0.0010690133785828948,0.004428769461810589
1751620525854708500,0.75270849609375,-0.01282816007733345,0.002290742937475443,0.004428769461810589
1751620525873532200,0.7715322265625,-0.004276053514331579,0.002290742937475443,0.004428769461810589
1751620525892355800,0.79035595703125,-0.001832594396546483,0.002290742937475443,0.0032070400193333626
1751620525911179300,0.80917919921875,-0.004276053514331579,0.0010690133785828948,0.0019853105768561363
1751620525930003000,0.8280029296875,-0.001832594396546483,0.0010690133785828948,0.0032070400193333626
1751620525948826600,0.84682666015625,0.0030543238390237093,0.003512472379952669,0.004428769461810589
1751620525967650300,0.865650390625,0.001832594396546483,0.002290742937475443,0.0032070400193333626
1751620525986473700,0.8844736328125,-0.004276053514331579,0.002290742937475443,0.0032070400193333626
1751620526005297400,0.90329736328125,-0.009162971749901772,0.002290742937475443,0.0032070400193333626
1751620526024121000,0.92212109375,-0.006719512399286032,0.003512472379952669,0.005650499369949102
1751620526042944800,0.94094482421875,-0.006719512399286032,0.003512472379952669,0.005650499369949102
1751620526061768400,0.9597685546875,-0.010384701192378998,0.003512472379952669,0.005650499369949102
1751620526080592000,0.978591796875,-0.01282816007733345,0.002290742937475443,0.005650499369949102
1751620526099415600,0.99741552734375,-0.011606430634856224,0.002290742937475443,0.004428769461810589
1751620526118239200,1.0162392578125,-0.007941242307424545,0.003512472379952669,0.005650499369949102
1751620526137063000,1.03506298828125,-0.001832594396546483,0.003512472379952669,0.004428769461810589
1751620526155886300,1.05388623046875,0.0030543238390237093,0.003512472379952669,0.004428769461810589
1751620526174710000,1.0727099609375,0.0030543238390237093,0.003512472379952669,0.0032070400193333626
1751620526193533700,1.09153369140625,0.006719512399286032,0.003512472379952669,0.0032070400193333626
1751620526212357400,1.110357421875,0.009162971749901772,0.002290742937475443,0.0019853105768561363
1751620526231180800,1.129180908203125,0.010384701192378998,0.002290742937475443,0.0019853105768561363
1751620526250004500,1.14800439453125,0.006719512399286032,0.002290742937475443,0.0019853105768561363
1751620526268828200,1.166828125,0.0030543238390237093,0.002290742937475443,0.0032070400193333626
1751620526287651800,1.18565185546875,-0.001832594396546483,0.002290742937475443,0.0032070400193333626
1751620526306475300,1.204475341796875,-0.006719512399286032,0.003512472379952669,0.0032070400193333626
1751620526325299000,1.223298828125,-0.011606430634856224,0.003512472379952669,0.005650499369949102
1751620526344122600,1.24212255859375,-0.01282816007733345,0.002290742937475443,0.004428769461810589
1751620526362946300,1.2609462890625,-0.011606430634856224,0.002290742937475443,0.004428769461810589
1751620526381769700,1.279769775390625,-0.009162971749901772,0.003512472379952669,0.004428769461810589
1751620526400593400,1.298593505859375,-0.006719512399286032,0.002290742937475443,0.004428769461810589
1751620526419417000,1.3174169921875,-0.0054977829568088055,0.002290742937475443,0.004428769461810589
1751620526438240800,1.33624072265625,-0.0030543238390237093,0.002290742937475443,0.0032070400193333626
1751620526457064400,1.355064453125,-0.000610864779446274,0.002290742937475443,0.0032070400193333626
1751620526475887900,1.373887939453125,0.000610864779446274,0.003512472379952669,0.004428769461810589
1751620526494711600,1.392711669921875,0.000610864779446274,0.002290742937475443,0.0032070400193333626
1751620526513535200,1.41153515625,-0.000610864779446274,0.002290742937475443,0.0032070400193333626
1751620526532359000,1.43035888671875,-0.0030543238390237093,0.002290742937475443,0.0019853105768561363
1751620526551182300,1.449182373046875,-0.004276053514331579,0.002290742937475443,0.0032070400193333626
1751620526570006000,1.468006103515625,-0.004276053514331579,0.002290742937475443,0.0032070400193333626
1751620526588829700,1.48682958984375,-0.004276053514331579,0.002290742937475443,0.0032070400193333626
1751620526607653400,1.5056533203125,-0.004276053514331579,0.002290742937475443,0.0032070400193333626
1751620526626477000,1.52447705078125,-0.0030543238390237093,0.002290742937475443,0.0032070400193333626
1751620526645300500,1.543300537109375,-0.0054977829568088055,0.003512472379952669,0.0032070400193333626
1751620526664124200,1.562124267578125,-0.0054977829568088055,0.002290742937475443,0.0032070400193333626
1751620526682947800,1.58094775390625,-0.004276053514331579,0.002290742937475443,0.0032070400193333626
1751620526701771500,1.599771484375,-0.0030543238390237093,0.003512472379952669,0.004428769461810589
1751620526720595200,1.61859521484375,-0.004276053514331579,0.003512472379952669,0.004428769461810589
1751620526739418600,1.637418701171875,-0.004276053514331579,0.003512472379952669,0.004428769461810589
1751620526758242300,1.6562421875,-0.004276053514331579,0.002290742937475443,0.004428769461810589
1751620526777066000,1.67506591796875,-0.004276053514331579,0.002290742937475443,0.004428769461810589
1751620526795889700,1.6938896484375,-0.004276053514331579,0.002290742937475443,0.0032070400193333626
1751620526814713300,1.71271337890625,-0.004276053514331579,0.0010690133785828948,0.0032070400193333626
1751620526833536800,1.731536865234375,-0.004276053514331579,0.0010690133785828948,0.0019853105768561363
1751620526852360400,1.7503603515625,-0.004276053514331579,0.002290742937475443,0.0032070400193333626
1751620526871184100,1.76918408203125,-0.0054977829568088055,0.002290742937475443,0.0032070400193333626
1751620526890007800,1.7880078125,-0.0054977829568088055,0.002290742937475443,0.004428769461810589
1751620526908831200,1.806831298828125,-0.004276053514331579,0.002290742937475443,0.004428769461810589
1751620526927655000,1.825655029296875,-0.0054977829568088055,0.003512472379952669,0.004428769461810589
1751620526946478600,1.844478515625,-0.004276053514331579,0.002290742937475443,0.004428769461810589
1751620526965302300,1.86330224609375,-0.004276053514331579,0.003512472379952669,0.004428769461810589
1751620526984126000,1.8821259765625,-0.0030543238390237093,0.002290742937475443,0.004428769461810589
1751620527002949400,1.900949462890625,-0.0030543238390237093,0.002290742937475443,0.004428769461810589
1751620527021773000,1.91977294921875,-0.001832594396546483,0.002290742937475443,0.0032070400193333626
1751620527040596700,1.9385966796875,-0.0030543238390237093,0.0010690133785828948,0.0032070400193333626
1751620527059420400,1.95742041015625,-0.004276053514331579,0.0010690133785828948,0.0019853105768561363
1751620527078243800,1.976243896484375,-0.0054977829568088055,0.002290742937475443,0.0019853105768561363
1751620527097067500,1.995067626953125,-0.006719512399286032,0.002290742937475443,0.0032070400193333626
1751620527115891200,2.01389111328125,-0.006719512399286032,0.002290742937475443,0.0032070400193333626
1751620527134715000,2.03271484375,-0.0054977829568088055,0.003512472379952669,0.0032070400193333626
1751620527153538600,2.05153857421875,-0.006719512399286032,0.003512472379952669,0.004428769461810589
1751620527172362200,2.0703623046875,-0.0054977829568088055,0.003512472379952669,0.004428769461810589
1751620527191185700,2.089185546875,-0.004276053514331579,0.002290742937475443,0.004428769461810589
1751620527210009300,2.10800927734375,-0.004276053514331579,0.002290742937475443,0.004428769461810589
1751620527228833000,2.1268330078125,-0.0030543238390237093,0.003512472379952669,0.0032070400193333626
1751620527247656700,2.14565673828125,-0.001832594396546483,0.002290742937475443,0.0032070400193333626
1751620527266480400,2.16448046875,-0.0030543238390237093,0.002290742937475443,0.0032070400193333626
1751620527285303800,2.1833037109375,-0.0030543238390237093,0.0010690133785828948,0.0032070400193333626
1751620527304127500,2.20212744140625,-0.004276053514331579,0.002290742937475443,0.0032070400193333626
1751620527322951200,2.220951171875,-0.004276053514331579,0.002290742937475443,0.0019853105768561363
1751620527341774800,2.23977490234375,-0.0054977829568088055,0.002290742937475443,0.0032070400193333626
1751620527360598300,2.258598388671875,-0.0054977829568088055,0.002290742937475443,0.0032070400193333626
1751620527379422000,2.277421875,-0.0054977829568088055,0.003512472379952669,0.004428769461810589
1751620527398245600,2.29624560546875,-0.0054977829568088055,0.002290742937475443,0.004428769461810589
1751620527417069300,2.3150693359375,-0.0054977829568088055,0.003512472379952669,0.004428769461810589
1751620527435893000,2.33389306640625,-0.0054977829568088055,0.002290742937475443,0.004428769461810589
1751620527454716400,2.35271630859375,-0.004276053514331579,0.003512472379952669,0.004428769461810589
1751620527473540000,2.3715400390625,-0.004276053514331579,0.002290742937475443,0.004428769461810589
1751620527492363800,2.39036376953125,-0.004276053514331579,0.0010690133785828948,0.0032070400193333626
1751620527511187500,2.4091875,-0.004276053514331579,0.0010690133785828948,0.0032070400193333626
1751620527530011100,2.42801123046875,-0.0030543238390237093,0.002290742937475443,0.0032070400193333626
1751620527548834600,2.44683447265625,-0.0030543238390237093,0.002290742937475443,0.0032070400193333626
1751620527567658200,2.465658203125,-0.0030543238390237093,0.002290742937475443,0.0019853105768561363
1751620527586482000,2.48448193359375,-0.0030543238390237093,0.002290742937475443,0.0032070400193333626
1751620527605305600,2.5033056640625,-0.0030543238390237093,0.002290742937475443,0.0032070400193333626
1751620527624129300,2.52212939453125,-0.004276053514331579,0.003512472379952669,0.0032070400193333626
1751620527642952700,2.54095263671875,-0.004276053514331579,0.003512472379952669,0.0032070400193333626
1751620527661776400,2.5597763671875,-0.0054977829568088055,0.003512472379952669,0.004428769461810589
1751620527680600000,2.57860009765625,-0.0054977829568088055,0.003512472379952669,0.004428769461810589
1751620527699423700,2.597423828125,-0.0054977829568088055,0.002290742937475443,0.004428769461810589
1751620527718247400,2.616247314453125,-0.006719512399286032,0.002290742937475443,0.004428769461810589
1751620527737071000,2.635071044921875,-0.0054977829568088055,0.002290742937475443,0.0032070400193333626
1751620527755894500,2.65389453125,-0.004276053514331579,0.002290742937475443,0.0032070400193333626
1751620527774718200,2.67271826171875,-0.0030543238390237093,0.0010690133785828948,0.0032070400193333626
1751620527793542000,2.6915419921875,-0.001832594396546483,0.0010690133785828948,0.0032070400193333626
1751620527812365600,2.710365478515625,-0.001832594396546483,0.0010690133785828948,0.0032070400193333626
1751620527831189000,2.72918896484375,-0.001832594396546483,0.002290742937475443,0.0032070400193333626
1751620527850012700,2.7480126953125,-0.004276053514331579,0.002290742937475443,0.004428769461810589
1751620527868836400,2.76683642578125,-0.004276053514331579,0.002290742937475443,0.004428769461810589
1751620527887660000,2.785659912109375,-0.0054977829568088055,0.003512472379952669,0.004428769461810589
1751620527906483700,2.804483642578125,-0.0054977829568088055,0.002290742937475443,0.004428769461810589
1751620527925307400,2.823307373046875,-0.0054977829568088055,0.002290742937475443,0.004428769461810589
1751620527944130800,2.842130859375,-0.0054977829568088055,0.002290742937475443,0.004428769461810589
1751620527962954500,2.86095458984375,-0.0054977829568088055,0.002290742937475443,0.0032070400193333626
1751620527981778200,2.879778076171875,-0.004276053514331579,0.002290742937475443,0.0032070400193333626
1751620528000601900,2.898601806640625,-0.004276053514331579,0.002290742937475443,0.0032070400193333626
1751620528019425500,2.917425537109375,-0.004276053514331579,0.002290742937475443,0.0032070400193333626
1751620528038249000,2.9362490234375,-0.004276053514331579,0.002290742937475443,0.0032070400193333626
1751620528057072600,2.95507275390625,-0.004276053514331579,0.002290742937475443,0.0032070400193333626
1751620528075896300,2.973896240234375,-0.004276053514331579,0.003512472379952669,0.0032070400193333626
1751620528094720000,2.992719970703125,-0.004276053514331579,0.003512472379952669,0.004428769461810589
1751620528113543700,3.011543701171875,-0.004276053514331579,0.003512472379952669,0.004428769461810589
1751620528132367000,3.0303671875,-0.0054977829568088055,0.003512472379952669,0.004428769461810589
1751620528151190800,3.049190673828125,-0.0054977829568088055,0.003512472379952669,0.004428769461810589
1751620528170014500,3.068014404296875,-0.0054977829568088055,0.003512472379952669,0.004428769461810589
1751620528188838100,3.086838134765625,-0.0054977829568088055,0.002290742937475443,0.004428769461810589
1751620528207661800,3.105661865234375,-0.004276053514331579,0.002290742937475443,0.004428769461810589
1751620528226485200,3.1244853515625,-0.004276053514331579,0.002290742937475443,0.0032070400193333626
1751620528245309000,3.143308837890625,-0.004276053514331579,0.002290742937475443,0.0032070400193333626
1751620528264132600,3.162132568359375,-0.004276053514331579,0.0010690133785828948,0.0019853105768561363
1751620528282956300,3.180956298828125,-0.0054977829568088055,0.002290742937475443,0.0032070400193333626
1751620528301780000,3.199780029296875,-0.004276053514331579,0.002290742937475443,0.0032070400193333626
1751620528320603400,3.218603271484375,-0.0030543238390237093,0.002290742937475443,0.004428769461810589
1751620528339427000,3.237427001953125,-0.004276053514331579,0.002290742937475443,0.0032070400193333626
1751620528358250800,3.256250732421875,-0.006719512399286032,0.002290742937475443,0.004428769461810589
1751620528377074400,3.275074462890625,-0.0054977829568088055,0.003512472379952669,0.004428769461810589
1751620528395898000,3.293898193359375,-0.004276053514331579,0.003512472379952669,0.004428769461810589
1751620528414721800,3.3127216796875,-0.004276053514331579,0.003512472379952669,0.004428769461810589
1751620528433545200,3.331545166015625,-0.0054977829568088055,0.003512472379952669,0.0032070400193333626
1751620528452369000,3.350368896484375,-0.004276053514331579,0.002290742937475443,0.0032070400193333626
1751620528471192600,3.369192626953125,-0.004276053514331579,0.002290742937475443,0.0032070400193333626
1751620528490016300,3.388016357421875,-0.004276053514331579,0.002290742937475443,0.0019853105768561363
1751620528508839700,3.406839599609375,-0.004276053514331579,0.0010690133785828948,0.0019853105768561363
1751620528527663400,3.425663330078125,-0.004276053514331579,0.002290742937475443,0.0019853105768561363
1751620528546487000,3.444487060546875,-0.004276053514331579,0.002290742937475443,0.0032070400193333626
1751620528565310700,3.463310791015625,-0.0054977829568088055,0.002290742937475443,0.0032070400193333626
1751620528584134400,3.482134521484375,-0.004276053514331579,0.002290742937475443,0.004428769461810589
1751620528602958000,3.5009580078125,-0.0054977829568088055,0.003512472379952669,0.004428769461810589
1751620528621781500,3.519781494140625,-0.004276053514331579,0.002290742937475443,0.004428769461810589
1751620528640605200,3.538605224609375,-0.004276053514331579,0.003512472379952669,0.004428769461810589
1751620528659428900,3.557428955078125,-0.0054977829568088055,0.003512472379952669,0.004428769461810589
1751620528678252500,3.57625244140625,-0.004276053514331579,0.002290742937475443,0.0032070400193333626
1751620528697076000,3.595075927734375,-0.004276053514331579,0.002290742937475443,0.0032070400193333626
1751620528715899600,3.613899658203125,-0.004276053514331579,0.0010690133785828948,0.0019853105768561363
1751620528734723300,3.632723388671875,-0.004276053514331579,0.002290742937475443,0.0032070400193333626
1751620528753547000,3.651547119140625,-0.004276053514331579,0.0010690133785828948,0.0032070400193333626
1751620528772370700,3.67037060546875,-0.004276053514331579,0.002290742937475443,0.0032070400193333626
1751620528791194400,3.6891943359375,-0.004276053514331579,0.002290742937475443,0.0032070400193333626
1751620528810017800,3.708017822265625,-0.0054977829568088055,0.003512472379952669,0.0032070400193333626
1751620528828841500,3.726841552734375,-0.004276053514331579,0.003512472379952669,0.004428769461810589
1751620528847665200,3.7456650390625,-0.0054977829568088055,0.003512472379952669,0.004428769461810589
1751620528866488800,3.76448876953125,-0.004276053514331579,0.003512472379952669,0.004428769461810589
1751620528885312500,3.7833125,-0.004276053514331579,0.003512472379952669,0.004428769461810589
1751620528904136000,3.802135986328125,-0.004276053514331579,0.002290742937475443,0.004428769461810589
1751620528922959600,3.820959716796875,-0.004276053514331579,0.002290742937475443,0.0032070400193333626
1751620528941783300,3.839783203125,-0.0030543238390237093,0.002290742937475443,0.0032070400193333626
1751620528960607000,3.85860693359375,-0.004276053514331579,0.0010690133785828948,0.0032070400193333626
1751620528979430700,3.8774306640625,-0.004276053514331579,0.002290742937475443,0.0032070400193333626
1751620528998254300,3.89625439453125,-0.004276053514331579,0.002290742937475443,0.0032070400193333626
1751620529017077800,3.915077880859375,-0.004276053514331579,0.002290742937475443,0.0032070400193333626
1751620529035901400,3.9339013671875,-0.004276053514331579,0.002290742937475443,0.0032070400193333626
1751620529054725000,3.95272509765625,-0.004276053514331579,0.002290742937475443,0.004428769461810589
1751620529073548800,3.971548828125,-0.004276053514331579,0.003512472379952669,0.004428769461810589
1751620529092372200,3.990372314453125,-0.004276053514331579,0.002290742937475443,0.005650499369949102
1751620529111196000,4.00919580078125,-0.004276053514331579,0.003512472379952669,0.004428769461810589
1751620529130019600,4.02801953125,-0.004276053514331579,0.003512472379952669,0.004428769461810589
1751620529148843300,4.04684326171875,-0.004276053514331579,0.002290742937475443,0.004428769461810589
1751620529167667000,4.0656669921875,-0.004276053514331579,0.002290742937475443,0.0032070400193333626
1751620529186490600,4.08449072265625,-0.004276053514331579,0.002290742937475443,0.0019853105768561363
1751620529205314000,4.10331396484375,-0.004276053514331579,0.002290742937475443,0.0032070400193333626
1751620529224137700,4.1221376953125,-0.004276053514331579,0.002290742937475443,0.0019853105768561363
1751620529242961400,4.14096142578125,-0.004276053514331579,0.002290742937475443,0.0032070400193333626
1751620529261785000,4.15978515625,-0.004276053514331579,0.002290742937475443,0.0032070400193333626
1751620529280608800,4.17860888671875,-0.0054977829568088055,0.003512472379952669,0.0032070400193333626
1751620529299432200,4.19743212890625,-0.0054977829568088055,0.003512472379952669,0.004428769461810589
1751620529318255900,4.216255859375,-0.004276053514331579,0.002290742937475443,0.004428769461810589
1751620529337079600,4.23507958984375,-0.004276053514331579,0.003512472379952669,0.004428769461810589
1751620529355903200,4.2539033203125,-0.0054977829568088055,0.003512472379952669,0.004428769461810589
1751620529374726700,4.2727265625,-0.004276053514331579,0.003512472379952669,0.004428769461810589
1751620529393550300,4.29155029296875,-0.004276053514331579,0.002290742937475443,0.0032070400193333626
1751620529412374000,4.3103740234375,-0.004276053514331579,0.002290742937475443,0.0032070400193333626
1751620529431197700,4.32919775390625,-0.004276053514331579,0.002290742937475443,0.0032070400193333626
1751620529450021400,4.348021484375,-0.004276053514331579,0.0010690133785828948,0.0032070400193333626
1751620529468845000,4.366844970703125,-0.004276053514331579,0.0010690133785828948,0.0019853105768561363
1751620529487668500,4.38566845703125,-0.0054977829568088055,0.002290742937475443,0.0032070400193333626
1751620529506492200,4.4044921875,-0.004276053514331579,0.002290742937475443,0.0032070400193333626
1751620529525315800,4.42331591796875,-0.0030543238390237093,0.002290742937475443,0.004428769461810589
1751620529544139500,4.442139404296875,-0.004276053514331579,0.003512472379952669,0.004428769461810589
1751620529562963200,4.460963134765625,-0.004276053514331579,0.002290742937475443,0.004428769461810589
1751620529581786600,4.47978662109375,-0.004276053514331579,0.003512472379952669,0.004428769461810589
1751620529600610300,4.4986103515625,-0.004276053514331579,0.002290742937475443,0.004428769461810589
1751620529619434000,4.51743408203125,-0.004276053514331579,0.002290742937475443,0.004428769461810589
1751620529638257700,4.536257568359375,-0.004276053514331579,0.002290742937475443,0.0032070400193333626
1751620529657081300,4.555081298828125,-0.004276053514331579,0.002290742937475443,0.0032070400193333626
1751620529675904800,4.57390478515625,-0.004276053514331579,0.0010690133785828948,0.0032070400193333626
1751620529694728400,4.592728515625,-0.004276053514331579,0.0010690133785828948,0.0032070400193333626
1751620529713552100,4.61155224609375,-0.0054977829568088055,0.0010690133785828948,0.0032070400193333626
1751620529732375800,4.630375732421875,-0.004276053514331579,0.002290742937475443,0.0032070400193333626
1751620529751199500,4.649199462890625,-0.004276053514331579,0.002290742937475443,0.0032070400193333626
1751620529770023000,4.66802294921875,-0.004276053514331579,0.002290742937475443,0.004428769461810589
1751620529788846600,4.6868466796875,-0.0054977829568088055,0.003512472379952669,0.004428769461810589
1751620529807670300,4.705670166015625,-0.0054977829568088055,0.003512472379952669,0.004428769461810589
1751620529826494000,4.724493896484375,-0.004276053514331579,0.003512472379952669,0.004428769461810589
1751620529845317400,4.7433173828125,-0.004276053514331579,0.003512472379952669,0.004428769461810589
1751620529864141000,4.76214111328125,-0.004276053514331579,0.002290742937475443,0.0032070400193333626
1751620529882964700,4.78096484375,-0.004276053514331579,0.002290742937475443,0.0032070400193333626
1751620529901788400,4.799788330078125,-0.004276053514331579,0.0010690133785828948,0.0032070400193333626
1751620529920612000,4.818612060546875,-0.0054977829568088055,0.002290742937475443,0.0032070400193333626
1751620529939435500,4.837435546875,-0.004276053514331579,0.0010690133785828948,0.0032070400193333626
1751620529958259200,4.85625927734375,-0.004276053514331579,0.002290742937475443,0.0032070400193333626
1751620529977083000,4.875082763671875,-0.0030543238390237093,0.002290742937475443,0.0032070400193333626
1751620529995906600,4.893906494140625,-0.004276053514331579,0.003512472379952669,0.004428769461810589
1751620530014730200,4.912730224609375,-0.0054977829568088055,0.003512472379952669,0.004428769461810589
1751620530033553700,4.9315537109375,-0.004276053514331579,0.002290742937475443,0.004428769461810589
1751620530052377300,4.95037744140625,-0.004276053514331579,0.002290742937475443,0.004428769461810589
1751620530071201000,4.969200927734375,-0.004276053514331579,0.002290742937475443,0.004428769461810589
1751620530090024700,4.988024658203125,-0.004276053514331579,0.002290742937475443,0.004428769461810589
1751620530108848400,5.006848388671875,-0.004276053514331579,0.002290742937475443,0.0032070400193333626
1751620530127671800,5.025671875,-0.004276053514331579,0.002290742937475443,0.0032070400193333626
1751620530146495500,5.04449560546875,-0.0054977829568088055,0.0010690133785828948,0.0019853105768561363
1751620530165319200,5.063319091796875,-0.004276053514331579,0.0010690133785828948,0.0032070400193333626
1751620530184142800,5.082142822265625,-0.004276053514331579,0.0010690133785828948,0.0032070400193333626
1751620530202966500,5.100966552734375,-0.004276053514331579,0.002290742937475443,0.0032070400193333626
1751620530221790000,5.1197900390625,-0.004276053514331579,0.002290742937475443,0.0032070400193333626
1751620530240613600,5.138613525390625,-0.004276053514331579,0.002290742937475443,0.004428769461810589
1751620530259437300,5.157437255859375,-0.004276053514331579,0.002290742937475443,0.004428769461810589
1751620530278261000,5.176260986328125,-0.004276053514331579,0.003512472379952669,0.004428769461810589
1751620530297084400,5.19508447265625,-0.004276053514331579,0.003512472379952669,0.004428769461810589
1751620530315908000,5.213908203125,-0.004276053514331579,0.003512472379952669,0.004428769461810589
1751620530334731800,5.232731689453125,-0.004276053514331579,0.002290742937475443,0.004428769461810589
1751620530353555500,5.251555419921875,-0.0054977829568088055,0.002290742937475443,0.0032070400193333626
1751620530372379100,5.270379150390625,-0.004276053514331579,0.002290742937475443,0.0032070400193333626
1751620530391202600,5.28920263671875,-0.004276053514331579,0.0010690133785828948,0.0019853105768561363
1751620530410026200,5.308026123046875,-0.004276053514331579,0.0010690133785828948,0.0032070400193333626
1751620530428850000,5.326849853515625,-0.004276053514331579,0.002290742937475443,0.0019853105768561363
1751620530447673600,5.345673583984375,-0.0054977829568088055,0.002290742937475443,0.0032070400193333626
1751620530466497000,5.3644970703125,-0.004276053514331579,0.002290742937475443,0.0032070400193333626
1751620530485320700,5.38332080078125,-0.004276053514331579,0.002290742937475443,0.0032070400193333626
1751620530504144400,5.402144287109375,-0.004276053514331579,0.002290742937475443,0.0032070400193333626
1751620530522968000,5.420968017578125,-0.004276053514331579,0.002290742937475443,0.0032070400193333626
1751620530541791500,5.43979150390625,-0.004276053514331579,0.0010690133785828948,0.0019853105768561363
1751620530560615200,5.458615234375,-0.0054977829568088055,-0.0001527161948615685,0.0019853105768561363
1751620530579438800,5.47743896484375,-0.006719512399286032,-0.0001527161948615685,0.0007635809597559273
1751620530598262500,5.496262451171875,-0.007941242307424545,-0.0013744457392022014,0.0007635809597559273
1751620530617086200,5.515086181640625,-0.010384701192378998,-0.0013744457392022014,0.0007635809597559273
1751620530635909600,5.53390966796875,-0.01282816007733345,0.0010690133785828948,0.0032070400193333626
1751620530654733300,5.5527333984375,-0.010384701192378998,0.002290742937475443,0.004428769461810589
1751620530673557000,5.571556884765625,-0.010384701192378998,0.003512472379952669,0.005650499369949102
1751620530692380700,5.590380615234375,-0.009162971749901772,0.002290742937475443,0.0032070400193333626
1751620530711204000,5.6092041015625,-0.006719512399286032,0.003512472379952669,0.004428769461810589
1751620530730027800,5.62802783203125,-0.0030543238390237093,0.002290742937475443,0.0032070400193333626
1751620530748851500,5.6468515625,-0.000610864779446274,0.002290742937475443,0.0032070400193333626
1751620530767675100,5.665675048828125,-0.0030543238390237093,0.002290742937475443,0.0032070400193333626
1751620530786498800,5.684498779296875,-0.001832594396546483,0.002290742937475443,0.0032070400193333626
1751620530805322200,5.703322265625,-0.001832594396546483,0.002290742937475443,0.0032070400193333626
1751620530824146000,5.72214599609375,-0.0030543238390237093,0.002290742937475443,0.004428769461810589
1751620530842969600,5.740969482421875,-0.0054977829568088055,0.002290742937475443,0.0032070400193333626
1751620530861793300,5.759793212890625,-0.006719512399286032,0.0010690133785828948,0.0032070400193333626
1751620530880616700,5.77861669921875,-0.006719512399286032,0.002290742937475443,0.0032070400193333626
1751620530899440400,5.7974404296875,-0.0054977829568088055,0.002290742937475443,0.0032070400193333626
1751620530918264000,5.81626416015625,-0.0054977829568088055,0.002290742937475443,0.0032070400193333626
1751620530937087700,5.835087646484375,-0.004276053514331579,0.002290742937475443,0.0032070400193333626
1751620530955911400,5.853911376953125,-0.0030543238390237093,0.002290742937475443,0.0032070400193333626
1751620530974734800,5.87273486328125,-0.0030543238390237093,0.002290742937475443,0.0032070400193333626
1751620530993558500,5.89155859375,-0.0030543238390237093,0.002290742937475443,0.0032070400193333626
1751620531012382200,5.91038232421875,-0.0030543238390237093,-0.011148282326757908,-0.00045814859913662076
1751620531031206000,5.929205810546875,-0.0030543238390237093,-0.03436114266514778,-0.007788525894284248
1751620531050029300,5.948029296875,-0.0054977829568088055,0.01206457894295454,0.006872228812426329
1751620531068853000,5.96685302734375,-0.006719512399286032,0.048563748598098755,0.017867794260382652
1751620531087676700,5.9856767578125,-0.006719512399286032,0.008399390615522861,0.005650499369949102
1751620531106500400,6.004500244140625,-0.006719512399286032,0.002290742937475443,0.004428769461810589
1751620531125324000,6.023323974609375,-0.004276053514331579,0.002290742937475443,0.0032070400193333626
1751620531144147500,6.0421474609375,-0.0030543238390237093,0.003512472379952669,0.0032070400193333626
1751620531162971100,6.06097119140625,-0.004276053514331579,0.002290742937475443,0.0032070400193333626
1751620531181794800,6.079794921875,-0.001832594396546483,0.003512472379952669,0.0032070400193333626
1751620531200618500,6.098618408203125,-0.0030543238390237093,0.003512472379952669,0.0032070400193333626
1751620531219442000,6.11744189453125,-0.004276053514331579,0.002290742937475443,0.0032070400193333626
1751620531238265600,6.136265625,-0.0054977829568088055,0.002290742937475443,0.0032070400193333626
1751620531257089300,6.15508935546875,-0.006719512399286032,0.002290742937475443,0.004428769461810589
1751620531275913000,6.173912841796875,-0.006719512399286032,0.002290742937475443,0.004428769461810589
1751620531294736400,6.192736328125,-0.006719512399286032,0.0010690133785828948,0.0032070400193333626
1751620531313560000,6.21156005859375,-0.0054977829568088055,0.0010690133785828948,0.0032070400193333626
1751620531332383700,6.2303837890625,-0.0054977829568088055,0.002290742937475443,0.0032070400193333626
1751620531351207400,6.24920751953125,-0.004276053514331579,0.0010690133785828948,0.0032070400193333626
1751620531370031000,6.268031005859375,-0.001832594396546483,0.0010690133785828948,0.0019853105768561363
1751620531388854500,6.2868544921875,-0.001832594396546483,-0.0062613640911877155,0.0007635809597559273
1751620531407678200,6.30567822265625,-0.001832594396546483,-0.058795735239982605,-0.016340631991624832
1751620531426502000,6.324501953125,-0.0054977829568088055,0.03145953640341759,0.012980876490473747
1751620531445325600,6.34332568359375,-0.004276053514331579,0.02779434807598591,0.012980876490473747
1751620531464149000,6.36214892578125,0.03481929376721382,0.005955931730568409,0.005650499369949102
1751620531482972700,6.38097265625,0.2156352698802948,0.005955931730568409,0.006872228812426329
1751620531501796400,6.39979638671875,0.6078104376792908,0.008399390615522861,0.008093958720564842
1751620531520620000,6.4186201171875,0.9181297421455383,0.018173227086663246,0.011759147047996521
1751620531539443500,6.437443359375,1.1869102716445923,0.024281874299049377,0.012980876490473747
1751620531558267100,6.45626708984375,1.4935643672943115,0.032681263983249664,0.016646064817905426
1751620531577090800,6.4750908203125,1.6792672872543335,0.03390299528837204,0.01908952370285988
1751620531595914500,6.49391455078125,1.453247308731079,0.030390523374080658,0.016646064817905426
1751620531614738000,6.512738037109375,0.9560033679008484,0.0206166859716177,0.011759147047996521
1751620531633561600,6.5315615234375,0.3646862804889679,0.008399390615522861,0.006872228812426329
1751620531652385300,6.55038525390625,-0.22663083672523499,-0.033139415085315704,-0.007788525894284248
1751620531671209000,6.569208984375,-0.6994401812553406,0.015729768201708794,0.004428769461810589
1751620531690032400,6.588032470703125,-1.4617993831634521,-0.027030766010284424,-0.0102319847792387
1751620531708856000,6.60685595703125,-2.330449104309082,-0.03802633285522461,-0.016340631991624832
1751620531727679700,6.6256796875,-2.858236312866211,-0.03191768378019333,-0.01511890348047018
1751620531746503400,6.64450341796875,-2.9486443996429443,-0.05024362727999687,-0.022296564653515816
1751620531765327000,6.6633271484375,-2.486830472946167,-0.05024362727999687,-0.019853105768561363
1751620531784150500,6.682150634765625,-1.5790854692459106,-0.04657844081521034,-0.013744457624852657
1751620531802974200,6.70097412109375,-0.618806004524231,-0.05757400393486023,-0.01511890348047018
1751620531821798000,6.7197978515625,-0.08857539296150208,-0.02214384824037552,-0.004123337101191282
1751620531840621300,6.738621337890625,-0.004276053514331579,0.005955931730568409,0.005650499369949102
1751620531859445000,6.757445068359375,0.185092031955719,0.03756818547844887,0.0154243353754282
1751620531878268700,6.7762685546875,0.8594867587089539,0.07055488228797913,0.02153298258781433
1751620531897092400,6.79509228515625,2.0555598735809326,0.05345066636800766,0.022754713892936707
1751620531915915800,6.813915771484375,3.2785112857818604,0.07544180005788803,0.03375028073787689
1751620531934739500,6.832739501953125,4.105622291564941,0.0766635313630104,0.039858926087617874
1751620531953563100,6.851563232421875,4.181369304656982,0.07788526266813278,0.0386371985077858
1751620531972386800,6.87038671875,3.5778350830078125,0.08155044913291931,0.04108065739274025
1751620531991210200,6.889210205078125,2.428187608718872,0.07544180005788803,0.03497200831770897
1751620532010034000,6.908033935546875,0.8888082504272461,0.0461202897131443,0.01908952370285988
1751620532028857600,6.926857666015625,-0.09590577334165573,-0.016035201027989388,-0.001679878099821508
1751620532047681300,6.945681396484375,-0.6407971382141113,-0.09911280870437622,-0.031001387163996696
1751620532066504700,6.964504638671875,-1.9761475324630737,-0.09789107739925385,-0.03817904740571976
1751620532085328400,6.983328369140625,-3.3518149852752686,0.038789913058280945,0.004428769461810589
1751620532104152000,7.002152099609375,-4.065305233001709,-0.16508620977401733,-0.06261363625526428
1751620532122975700,7.020975830078125,-4.018879413604736,-0.0539088174700737,-0.03222311660647392
1751620532141799200,7.039799072265625,-3.4324491024017334,-0.04780016839504242,-0.028405211865901947
1751620532160622800,7.058622802734375,-2.6224424839019775,-0.052687086164951324,-0.019853105768561363
1751620532179446500,7.077446533203125,-1.6071852445602417,-0.027030766010284424,-0.0102319847792387
1751620532198270200,7.096270263671875,-0.44898560643196106,-0.0038179049734026194,-0.00045814859913662076
1751620532217093600,7.11509375,0.017715077847242355,0.021838415414094925,0.008093958720564842
1751620532235917300,7.133917236328125,0.5968148708343506,0.013286309316754341,0.009315688163042068
1751620532254741000,7.152740966796875,1.6377284526824951,0.03527744114398956,0.01908952370285988
1751620532273564700,7.171564697265625,2.66275954246521,0.054672397673130035,0.02764163166284561
1751620532292388000,7.19038818359375,3.442223072052002,0.08032871782779694,0.03741546720266342
1751620532311211800,7.209211669921875,3.8246243000030518,0.07910698652267456,0.036193739622831345
1751620532330035500,7.228035400390625,3.7965245246887207,0.11209368705749512,0.04108065739274025
1751620532348859100,7.246859130859375,3.213759660720825,0.08155044913291931,0.030085090547800064
1751620532367682600,7.2656826171875,1.9077306985855103,0.03634645417332649,0.017867794260382652
1751620532386506200,7.28450634765625,0.20952661335468292,-0.0013744457392022014,0.004428769461810589
1751620532405330000,7.303329833984375,-0.6872228980064392,-0.06001746281981468,-0.013744457624852657
1751620532424153600,7.322153564453125,-1.8551963567733765,-0.1003345400094986,-0.03451386094093323
1751620532442977000,7.34097705078125,-3.107469081878662,-0.17852523922920227,-0.06994401663541794
1751620532461800700,7.35980078125,-4.073857307434082,-0.08078686892986298,-0.04550942778587341
1751620532480624400,7.378624267578125,-4.607752799987793,-0.03436114266514778,-0.03817904740571976
1751620532499448000,7.397447998046875,-4.3463029861450195,0.02306014485657215,-0.012675444595515728
1751620532518271500,7.416271484375,-3.5753915309906006,-0.06979130208492279,-0.029626941308379173
1751620532537095200,7.43509521484375,-2.578460216522217,-0.13332124054431915,-0.04550942778587341
1751620532555918800,7.4539189453125,-1.3066397905349731,-0.06246092543005943,-0.022296564653515816
1751620532574742300,7.4727421875,0.08979712426662445,0.05711585655808449,0.022754713892936707
1751620532593566000,7.49156591796875,0.7984002828598022,0.04245510324835777,0.017867794260382652
1751620532612389600,7.5103896484375,1.9297218322753906,0.05833758786320686,0.022754713892936707
1751620532631213300,7.52921337890625,3.1783294677734375,0.06933315098285675,0.03375028073787689
1751620532650037000,7.548037109375,4.132500171661377,0.0766635313630104,0.04230238497257233
1751620532668860400,7.5668603515625,4.484358310699463,0.13164135813713074,0.05696314200758934
1751620532687684000,7.58568408203125,4.209469318389893,0.09376774728298187,0.045967575162649155
1751620532706507800,7.6045078125,3.4886486530303955,0.054672397673130035,0.028863361105322838
1751620532725331200,7.623331298828125,2.148411512374878,0.060781046748161316,0.028863361105322838
1751620532744155000,7.64215478515625,0.18875721096992493,0.008399390615522861,0.006872228812426329
1751620532762978600,7.660978515625,-0.9291253089904785,-0.0746782198548317,-0.022296564653515816
1751620532781802200,7.67980224609375,-2.4269657135009766,-0.06368265300989151,-0.024740023538470268
1751620532800625700,7.698625732421875,-3.973675489425659,-0.07589995115995407,-0.03451386094093323
1751620532819449300,7.717449462890625,-5.166083335876465,-0.10277800261974335,-0.047952886670827866
1751620532838273000,7.73627294921875,-5.613236427307129,-0.05757400393486023,-0.04062250629067421
1751620532857096700,7.7550966796875,-5.0585713386535645,-0.11377356201410294,-0.04428769648075104
1751620532875920100,7.773920166015625,-3.5802783966064453,-0.08200860023498535,-0.029626941308379173
1751620532894743800,7.792743896484375,-1.7269147634506226,-0.06612611562013626,-0.01740964688360691
1751620532913567500,7.8115673828125,-0.049480047076940536,-0.0062613640911877155,0.0032070400193333626
1751620532932391200,7.83039111328125,0.4783071279525757,0.026572618633508682,0.011759147047996521
1751620532951214600,7.849214599609375,1.582750678062439,0.015729768201708794,0.011759147047996521
1751620532970038300,7.868038330078125,2.8997750282287598,0.0717766135931015,0.03130681812763214
1751620532988862000,7.886862060546875,3.9516842365264893,0.08888082206249237,0.039858926087617874
1751620533007685600,7.905685546875,4.411054611206055,0.09498947113752365,0.04841103404760361
1751620533026509000,7.924509033203125,4.473362922668457,0.15729768574237823,0.061850059777498245
1751620533045332700,7.943332763671875,4.218021392822266,0.0668896958231926,0.039858926087617874
1751620533064156400,7.962156494140625,3.4739880561828613,0.05100720748305321,0.030085090547800064
1751620533082979800,7.980979736328125,2.2986841201782227,0.0412333719432354,0.022754713892936707
1751620533101803500,7.999803466796875,0.8949168920516968,0.013286309316754341,0.010537417605519295
1751620533120627200,8.018627197265625,-0.3243691921234131,-0.0001527161948615685,0.0019853105768561363
1751620533139451000,8.037450927734374,-1.2980875968933105,-0.09666935354471207,-0.03329212963581085
1751620533158274300,8.0562744140625,-2.769050121307373,-0.1418733447790146,-0.057726722210645676
1751620533177098000,8.075097900390626,-4.133721828460693,-0.18952079117298126,-0.09315688163042068
1751620533195921700,8.093921630859375,-4.925402641296387,-0.08567378669977188,-0.06872228533029556
1751620533214745300,8.112745361328125,-5.179522514343262,-0.20173808932304382,-0.11759147047996521
1751620533233569000,8.131569091796875,-4.777573585510254,-0.191964253783226,-0.1127045527100563
1751620533252392400,8.150392333984374,-3.674351692199707,0.1902843713760376,0.030085090547800064
1751620533271216000,8.169216064453124,-2.039677381515503,0.038789913058280945,0.0019853105768561363
1751620533290039800,8.188039794921876,-0.29993459582328796,-0.0025961752980947495,0.0007635809597559273
1751620533308863200,8.20686328125,0.40378162264823914,0.04978547990322113,0.02153298258781433
1751620533327687000,8.22568701171875,1.2895355224609375,0.0461202897131443,0.022754713892936707
1751620533346510600,8.244510498046875,2.400087833404541,0.038789913058280945,0.023976443335413933
1751620533365334300,8.263334228515625,3.21864652633667,0.0925460159778595,0.045967575162649155
1751620533384157700,8.28215771484375,3.7598726749420166,0.16096286475658417,0.06551524996757507
1751620533402981400,8.3009814453125,4.112952709197998,0.08521563559770584,0.04474584385752678
1751620533421805000,8.31980517578125,4.174038887023926,0.09987638890743256,0.04718930274248123
1751620533440628700,8.338628662109375,4.042092323303223,0.07299833744764328,0.04108065739274025
1751620533459452400,8.357452392578125,3.735438108444214,-0.0539088174700737,-0.00045814859913662076
1751620533478275800,8.37627587890625,3.2308638095855713,-0.2945895493030548,-0.06872228533029556
1751620533497099500,8.395099609375,2.341444730758667,0.2684750556945801,0.12415826320648193
1751620533515923200,8.413923095703124,0.7104357481002808,-0.14920371770858765,-0.041844237595796585
1751620533534746600,8.43274658203125,-0.66645348072052,-0.20051635801792145,-0.07605266571044922
1751620533553570300,8.4515703125,-1.852752923965454,-0.24572035670280457,-0.11759147047996521
1751620533572394000,8.47039404296875,-3.012174129486084,-0.08567378669977188,-0.0870482325553894
1751620533591217700,8.4892177734375,-3.895484685897827,-0.09056070446968079,-0.10415244847536087
1751620533610041300,8.508041259765625,-4.249786376953125,-0.08200860023498535,-0.10659590363502502
1751620533628864800,8.52686474609375,-4.13494348526001,-0.08078686892986298,-0.11026109009981155
1751620533647688400,8.5456884765625,-3.581500291824341,-0.04780016839504242,-0.08826996386051178
1751620533666512100,8.56451220703125,-2.6334381103515625,-0.03558287397027016,-0.05894844979047775
1751620533685335600,8.58333544921875,-1.5705333948135376,-0.023365577682852745,-0.03451386094093323
1751620533704159200,8.6021591796875,-0.5772672295570374,-0.005039634648710489,-0.009010255336761475
1751620533722983000,8.62098291015625,0.12522727251052856,0.01206457894295454,0.010537417605519295
1751620533741806600,8.639806640625,0.7641918659210205,0.02306014485657215,0.02519817277789116
1751620533760630300,8.65863037109375,2.048229694366455,0.05955931544303894,0.06307178735733032
1751620533779453700,8.67745361328125,3.524078845977783,0.31490078568458557,0.17058399319648743
1751620533798277400,8.69627734375,4.650513648986816,0.08643736690282822,0.09361502528190613
1751620533817101000,8.71510107421875,5.009702205657959,-0.20906847715377808,0.016646064817905426
1751620533835924700,8.7339248046875,4.579653263092041,0.018173227086663246,0.09117157012224197
1751620533854748200,8.752748046875,3.448331594467163,0.1340848207473755,0.1156061589717865
1751620533873571800,8.77157177734375,1.8796309232711792,0.250149130821228,0.12171480804681778
1751620533892395500,8.7903955078125,0.1740964651107788,-0.011148282326757908,0.004428769461810589
1751620533911219200,8.80921923828125,-1.0610721111297607,-0.03436114266514778,-0.023518294095993042
1751620533930043000,8.82804296875,-2.5112650394439697,-0.08567378669977188,-0.061391908675432205
1751620533948866300,8.8468662109375,-3.822180986404419,-0.29336780309677124,-0.1750127524137497
1751620533967690000,8.86568994140625,-4.758025646209717,-0.09666935354471207,-0.1285870373249054
1751620533986513700,8.884513671875,-5.262599945068359,-0.09666935354471207,-0.1311832070350647
1751620534005337300,8.90333740234375,-5.062236309051514,-0.08200860023498535,-0.11881320178508759
1751620534024161000,8.9221611328125,-4.18503475189209,-0.06246092543005943,-0.1029307171702385
1751620534042984400,8.940984375,-2.758054494857788,-0.033139415085315704,-0.061391908675432205
1751620534061808000,8.95980810546875,-0.8863648176193237,0.07422006875276566,0.010537417605519295
1751620534080631800,8.9786318359375,0.5760455131530762,0.1536324918270111,0.06551524996757507
1751620534099455500,8.99745556640625,1.8576397895812988,-0.0062613640911877155,0.03130681812763214
1751620534118279200,9.016279052734374,3.372584342956543,0.1438586562871933,0.10216713696718216
1751620534137102600,9.0351025390625,4.657844066619873,-0.03558287397027016,0.05940660089254379
1751620534155926300,9.05392626953125,5.4751811027526855,0.018173227086663246,0.09972367435693741
1751620534174750000,9.07275,5.615679740905762,0.28435754776000977,0.1974620372056961
1751620534193573600,9.09157373046875,4.944950580596924,0.6508764028549194,0.2646571695804596
1751620534212397300,9.110397216796875,2.9266531467437744,-0.025809036567807198,0.005650499369949102
1751620534231220700,9.129220703125,0.08124501258134842,0.10109812021255493,0.036193739622831345
1751620534250044400,9.14804443359375,-1.737910270690918,-0.1980729103088379,-0.06750056147575378
1751620534268868000,9.1668681640625,-3.51552677154541,-0.34345871210098267,-0.14217877388000488
1751620534287691800,9.18569189453125,-5.062236309051514,-0.4815141558647156,-0.23976442217826843
1751620534306515200,9.20451513671875,-5.956542491912842,-0.1101083755493164,-0.1444695144891739
1751620534325339000,9.2233388671875,-5.85636043548584,-0.1052214577794075,-0.1432477980852127
1751620534344162600,9.24216259765625,-4.789790630340576,-0.0795651376247406,-0.11636973917484283
1751620534362986200,9.260986328125,-3.0976953506469727,-0.02458730712532997,-0.06627883017063141
1751620534381810000,9.279809814453126,-1.0060943365097046,-0.005039634648710489,-0.016340631991624832
1751620534400633600,9.298633544921875,0.4929678738117218,0.06933315098285675,0.036193739622831345
1751620534419457000,9.31745703125,1.6731586456298828,0.05833758786320686,0.05451968312263489
1751620534438280700,9.33628076171875,3.031721830368042,0.16829325258731842,0.1107192412018776
1751620534457104400,9.3551044921875,4.309650897979736,0.31123560667037964,0.162031888961792
1751620534475928000,9.373927978515624,5.3187994956970215,0.08399390429258347,0.08261945843696594
1751620534494751500,9.39275146484375,5.658440589904785,0.2525925934314728,0.13759729266166687
1751620534513575200,9.4115751953125,5.367668628692627,0.4517345130443573,0.16569706797599792
1751620534532398800,9.43039892578125,4.568657875061035,0.13164135813713074,0.05085449293255806
1751620534551222500,9.449222412109375,2.8203625679016113,-0.025809036567807198,0.005650499369949102
1751620534570046200,9.468046142578125,0.014049889519810677,0.030390523374080658,0.014202605932950974
1751620534588870000,9.486869873046874,-2.0775511264801025,0.01206457894295454,0.004428769461810589
1751620534607693300,9.505693359375,-3.693899393081665,-0.11743875592947006,-0.04428769648075104
1751620534626517000,9.52451708984375,-4.7348127365112305,-0.4326449930667877,-0.17867794632911682
1751620534645340700,9.543340576171875,-5.3126912117004395,-0.5279398560523987,-0.2715294063091278
1751620534664164400,9.562164306640625,-5.456855297088623,-0.005039634648710489,-0.08949168771505356
1751620534682988000,9.580988037109375,-4.893637657165527,-0.1663079410791397,-0.15057817101478577
1751620534701811700,9.599811767578124,-3.687790632247925,-0.08689551800489426,-0.09682206809520721
1751620534720635100,9.61863525390625,-2.076329469680786,-0.05024362727999687,-0.057726722210645676
1751620534739458800,9.637458740234376,-0.5369501113891602,-0.016035201027989388,-0.01511890348047018
1751620534758282500,9.656282470703125,0.28527384996414185,0.0206166859716177,0.017867794260382652
1751620534777106200,9.675106201171875,1.2748748064041138,0.05100720748305321,0.045967575162649155
1751620534795929900,9.693929931640625,2.860679864883423,0.19150610268115997,0.11927134543657303
1751620534814753300,9.712753173828125,4.451371669769287,0.28069236874580383,0.162031888961792
1751620534833577000,9.731576904296874,5.568032264709473,0.09498947113752365,0.09117157012224197
1751620534852400600,9.750400634765626,5.883238792419434,0.007177661173045635,0.07651081681251526
1751620534871224300,9.769224365234376,5.26504373550415,-0.12232567369937897,0.04718930274248123
1751620534890048000,9.788048095703125,3.495979070663452,0.1487455666065216,0.1253799945116043
1751620534908871700,9.80687158203125,0.555276095867157,0.24770566821098328,0.09972367435693741
1751620534927695000,9.825695068359375,-1.4007129669189453,0.23548837006092072,0.07162389904260635
1751620534946518800,9.844518798828124,-2.938870429992676,-0.03802633285522461,-0.02611446939408779
1751620534965342500,9.863342529296874,-4.296212196350098,-0.3617846667766571,-0.16646064817905426
1751620534984166100,9.882166259765626,-5.189296245574951,-0.42164942622184753,-0.22754712402820587
1751620535002989800,9.90098974609375,-5.570476055145264,-0.06856957077980042,-0.11881320178508759
1751620535021813500,9.9198134765625,-5.387216567993164,-0.10277800261974335,-0.1334739476442337
1751620535040637200,9.93863720703125,-4.77879524230957,-0.08689551800489426,-0.12492185086011887
1751620535059460600,9.957460693359375,-3.581500291824341,-0.05024362727999687,-0.08093958348035812
1751620535078284300,9.9762841796875,-1.543655276298523,0.0925460159778595,0.006872228812426329
1751620535097108000,9.99510791015625,0.462424635887146,0.17684535682201385,0.06795870512723923
1751620535115931600,10.013931640625,1.950491189956665,0.03390299528837204,0.03741546720266342
1751620535134755300,10.03275537109375,3.637699842453003,0.1328630894422531,0.09605848789215088
1751620535153579000,10.0515791015625,4.996263027191162,0.16340632736682892,0.12904518842697144
1751620535172402400,10.07040234375,5.675544738769531,-0.039248060435056686,0.055741410702466965
1751620535191226000,10.08922607421875,5.7574005126953125,-0.13209950923919678,0.055741410702466965
1751620535210049800,10.1080498046875,5.216174125671387,0.05711585655808449,0.10705405473709106
1751620535228873500,10.12687353515625,4.16304349899292,0.3124573230743408,0.18280129134655
1751620535247697200,10.145697265625,2.7482805252075195,0.2098320573568344,0.10583232343196869
1751620535266520800,10.164520751953125,1.1184934377670288,0.009621120058000088,0.02153298258781433
1751620535285344300,10.18334423828125,-0.18875721096992493,0.09132428467273712,0.03375028073787689
1751620535304168000,10.20216796875,-0.8008437156677246,0.008399390615522861,-0.002901607658714056
1751620535322991600,10.22099169921875,-1.8002184629440308,-0.31413722038269043,-0.12247838824987411
1751620535341815300,10.239815185546876,-3.1844379901885986,-0.26648977398872375,-0.14691297709941864
1751620535360639000,10.258638916015625,-4.709156513214111,-0.0062613640911877155,-0.07971785217523575
1751620535379462700,10.277462646484375,-5.539932727813721,-0.14798198640346527,-0.13469567894935608
1751620535398286000,10.2962861328125,-5.1428704261779785,-0.12476912885904312,-0.13225223124027252
1751620535417109800,10.31510986328125,-3.7281076908111572,-0.1357647031545639,-0.1127045527100563
1751620535435933400,10.333933349609374,-1.5326597690582275,0.10109812021255493,0.004428769461810589
1751620535454757000,10.352757080078124,0.6823359727859497,0.281914085149765,0.10949750989675522
1751620535473580800,10.371580810546876,2.4856088161468506,0.06933315098285675,0.05329795181751251
1751620535492404500,10.390404541015625,4.285216331481934,0.10109812021255493,0.0850629210472107
1751620535511228200,10.409228271484375,5.467850685119629,-0.20173808932304382,0.004428769461810589
1751620535530051800,10.4280517578125,5.9418816566467285,0.22693626582622528,0.20723587274551392
1751620535548875300,10.446875244140625,5.477624416351318,0.11209368705749512,0.1461493968963623
1751620535567699000,10.465698974609374,3.847837209701538,0.11942406743764877,0.11927134543657303
1751620535586522600,10.484522705078126,1.1404845714569092,0.3686569035053253,0.14859285950660706
1751620535605346300,10.50334619140625,-0.9474512934684753,0.291687935590744,0.0899498388171196
1751620535624170000,10.522169921875,-2.816697597503662,-0.07223475724458694,-0.035735588520765305
1751620535642993700,10.54099365234375,-4.485579967498779,-0.1614210158586502,-0.06750056147575378
1751620535661817000,10.559817138671875,-5.250382900238037,-0.4289797842502594,-0.19211697578430176
1751620535680640800,10.578640869140624,-5.361560344696045,-0.2835939824581146,-0.1750127524137497
1751620535699464400,10.59746435546875,-4.847211837768555,-0.17486004531383514,-0.13469567894935608
1751620535718288100,10.6162880859375,-3.7476553916931152,-0.1308777779340744,-0.11026109009981155
1751620535737111800,10.63511181640625,-2.2864668369293213,-0.05757400393486023,-0.06383536756038666
1751620535755935500,10.653935546875,-0.5528326034545898,-0.005039634648710489,-0.007788525894284248
1751620535774759200,10.67275927734375,0.5430588126182556,0.01695149764418602,0.01908952370285988
1751620535793582600,10.69158251953125,2.026238441467285,0.09621120244264603,0.07773254066705704
1751620535812406300,10.71040625,3.8515024185180664,0.15241076052188873,0.11927134543657303
1751620535831230000,10.72922998046875,5.2039570808410645,0.31490078568458557,0.17791436612606049
1751620535850053600,10.7480537109375,5.747626781463623,0.002290742937475443,0.07406735420227051
1751620535868877300,10.766877197265625,5.390881538391113,0.01695149764418602,0.10461059212684631
1751620535887701000,10.785700927734375,4.057974815368652,0.0974329337477684,0.10827577859163284
1751620535906524700,10.804524658203125,2.095877170562744,0.45051276683807373,0.18402300775051117
1751620535925348400,10.823348388671874,0.13133592903614044,0.14752385020256042,0.04841103404760361
1751620535944171800,10.842171875,-0.9169080257415771,-0.21517711877822876,-0.07360920310020447
1751620535962995500,10.860995361328126,-2.4599523544311523,0.014508038759231567,-0.01740964688360691
1751620535981819100,10.879819091796875,-4.110508918762207,-0.16386447846889496,-0.0870482325553894
1751620536000642800,10.898642822265625,-5.320021152496338,-0.4754055142402649,-0.2263254076242447
1751620536019466500,10.917466552734375,-5.9027862548828125,-0.0795651376247406,-0.13591741025447845
1751620536038290200,10.936290283203125,-5.674323081970215,-0.14798198640346527,-0.14813470840454102
1751620536057113900,10.95511376953125,-4.584540367126465,-0.017256930470466614,-0.09437860548496246
1751620536075937300,10.973937255859376,-2.6664247512817383,0.1805105358362198,0.02153298258781433
1751620536094761000,10.992760986328125,-0.2254091054201126,0.2782489061355591,0.0899498388171196
1751620536113584600,11.011584716796875,1.5204424858093262,-0.014813470654189587,0.008093958720564842
1751620536132408300,11.030408203125,3.355480194091797,0.06444623321294785,0.06307178735733032
1751620536151232000,11.04923193359375,4.787347316741943,0.1585194170475006,0.09605848789215088
1751620536170055700,11.0680556640625,5.530158996582031,0.19272783398628235,0.10338886082172394
1751620536188879400,11.08687939453125,5.516719818115234,-0.5670352578163147,-0.12370011955499649
1751620536207703000,11.105703125,4.634631156921387,0.28557929396629333,0.19379685819149017
1751620536226526500,11.1245263671875,2.9804091453552246,0.24892739951610565,0.141262486577034
1751620536245350100,11.14335009765625,1.1673625707626343,0.2733619809150696,0.10949750989675522
1751620536264173800,11.162173828125,-0.01282816007733345,0.19639302790164948,0.06673697382211685
1751620536282997500,11.18099755859375,-0.5821541547775269,-0.0013744457392022014,0.0007635809597559273
1751620536301821200,11.1998212890625,-1.748905897140503,-0.07834340631961823,-0.03222311660647392
1751620536320644900,11.218644775390626,-3.339597702026367,-0.14798198640346527,-0.06627883017063141
1751620536339468500,11.237468505859376,-4.777573585510254,-0.2176205813884735,-0.11026109009981155
1751620536358292000,11.2562919921875,-5.7183051109313965,-0.1516471803188324,-0.11759147047996521
1751620536377115600,11.27511572265625,-5.9113383293151855,-0.06490438431501389,-0.0772743970155716
1751620536395939300,11.293939208984375,-5.098888397216797,0.04505127668380737,-0.02718348242342472
1751620536414763000,11.312762939453124,-3.118464708328247,-0.16875138878822327,-0.07116574794054031
1751620536433586700,11.331586669921874,-0.2559523284435272,0.004734201822429895,0.0032070400193333626
1751620536452410400,11.350410400390626,1.3530654907226562,0.08155044913291931,0.03741546720266342
1751620536471234000,11.369234130859375,2.8423538208007812,0.1182023361325264,0.06673697382211685
1751620536490057700,11.3880576171875,4.214355945587158,0.1744018942117691,0.08261945843696594
1751620536508881200,11.406881103515625,5.2906999588012695,0.19639302790164948,0.09239330142736435
1751620536527704800,11.425704833984375,5.674323081970215,-0.13332124054431915,-0.001679878099821508
1751620536546528500,11.444528564453124,5.219839572906494,-0.03802633285522461,0.0435241162776947
1751620536565352200,11.463352294921876,4.224130153656006,0.5836812853813171,0.2182314395904541
1751620536584175900,11.48217578125,2.8716752529144287,-0.16752967238426208,-0.03817904740571976
1751620536602999600,11.50099951171875,0.9743293523788452,0.0206166859716177,0.016646064817905426
1751620536621823200,11.5198232421875,-0.3964512348175049,0.08155044913291931,0.026419902220368385
1751620536640647000,11.53864697265625,-1.0903936624526978,-0.10888664424419403,-0.03695731982588768
1751620536659470600,11.557470703125,-2.478278398513794,-0.1052214577794075,-0.05283980444073677
1751620536678294000,11.5762939453125,-4.0836310386657715,-0.03802633285522461,-0.041844237595796585
1751620536697117700,11.59511767578125,-5.007258415222168,-0.2530507445335388,-0.12125665694475174
1751620536715941400,11.61394140625,-5.1844096183776855,-0.16752967238426208,-0.11148282140493393
1751620536734765000,11.63276513671875,-4.582096576690674,-0.07223475724458694,-0.07116574794054031
1751620536753588700,11.651588623046875,-3.1416776180267334,-0.11133010685443878,-0.06505709886550903
1751620536772412400,11.670412353515625,-1.0195332765579224,-0.05146535858511925,-0.02611446939408779
1751620536791236000,11.689236083984374,0.6200277805328369,0.1182023361325264,0.049632761627435684
1751620536810059500,11.7080595703125,1.9370522499084473,0.09865466505289078,0.052076224237680435
1751620536828883200,11.72688330078125,3.4361143112182617,0.16218459606170654,0.08750637620687485
1751620536847707000,11.745706787109375,4.75069522857666,0.33200499415397644,0.13881902396678925
1751620536866530600,11.764530517578125,5.561923980712891,-0.33001968264579773,-0.07116574794054031
1751620536885354200,11.783354248046875,5.387216567993164,-0.24572035670280457,0.006872228812426329
1751620536904178000,11.802177978515624,4.0836310386657715,0.03145953640341759,0.08384118974208832
1751620536923001600,11.821001708984374,2.104429244995117,0.11453714966773987,0.08384118974208832
1751620536941825300,11.8398251953125,0.07269290834665298,0.06444623321294785,0.030085090547800064
1751620536960649000,11.85864892578125,-0.7018836140632629,0.14019346237182617,0.039858926087617874
1751620536979472400,11.877472412109375,-1.8258748054504395,0.08765909820795059,0.014202605932950974
1751620536998296000,11.896296142578125,-3.3298239707946777,0.03634645417332649,-0.01511890348047018
1751620537017119700,11.91511962890625,-4.5613274574279785,0.04245510324835777,-0.012675444595515728
1751620537035943400,11.933943359375,-5.156309604644775,-0.3556760251522064,-0.16523891687393188
1751620537054767000,11.95276708984375,-5.261378288269043,-0.17852523922920227,-0.1127045527100563
1751620537073590800,11.9715908203125,-4.8130035400390625,-0.25671592354774475,-0.14691297709941864
1751620537092414500,11.99041455078125,-3.665799617767334,-0.1418733447790146,-0.10659590363502502
1751620537111238100,12.009238037109375,-1.7537927627563477,-0.027030766010284424,-0.03817904740571976
1751620537130061600,12.0280615234375,0.2412915825843811,0.16829325258731842,0.06307178735733032
1751620537148885200,12.04688525390625,1.2577705383300781,0.11209368705749512,0.055741410702466965
1751620537167709000,12.065708984375,2.5967862606048584,0.026572618633508682,0.04718930274248123
1751620537186532600,12.08453271484375,4.258338451385498,-0.0013744457392022014,0.05940660089254379
1751620537205356300,12.103356201171875,5.663327217102051,-0.025809036567807198,0.07895427197217941
1751620537224180000,12.122179931640625,6.239983558654785,0.14019346237182617,0.17913609743118286
1751620537243003600,12.141003662109375,5.483733177185059,0.10476330667734146,0.141262486577034
1751620537261827300,12.159827392578125,3.691455841064453,0.1389717310667038,0.11804962158203125
1751620537280651000,12.178651123046874,1.5790854692459106,0.5458076596260071,0.20967933535575867
1751620537299474400,12.197474365234376,0.027488915249705315,-0.1406516134738922,-0.04550942778587341
1751620537318298000,12.216298095703126,-0.5723803043365479,-0.02214384824037552,-0.011453714221715927
1751620537337121800,12.235121826171875,-1.8747440576553345,0.008399390615522861,-0.013744457624852657
1751620537355945500,12.253945556640625,-3.6022696495056152,-0.07101303339004517,-0.05528326332569122
1751620537374769200,12.27276904296875,-4.815446853637695,-0.1980729103088379,-0.12003492563962936
1751620537393592800,12.2915927734375,-5.4580769538879395,-0.0795651376247406,-0.09437860548496246
1751620537412416500,12.31041650390625,-5.5448198318481445,-0.23716825246810913,-0.14080433547496796
1751620537431240000,12.329239990234376,-4.8044514656066895,-0.18829907476902008,-0.1285870373249054
1751620537450064000,12.34806396484375,-3.366475820541382,-0.04046979174017906,-0.06383536756038666
1751620537468887300,12.36688720703125,-1.4556907415390015,0.01206457894295454,-0.01740964688360691
1751620537487711000,12.3857109375,0.28038692474365234,0.1646280586719513,0.061850059777498245
1751620537506534700,12.40453466796875,1.3115266561508179,0.054672397673130035,0.03375028073787689
1751620537525358300,12.4233583984375,2.832580089569092,-0.0746782198548317,0.01908952370285988
1751620537544182000,12.44218212890625,4.2400126457214355,-0.05757400393486023,0.05085449293255806
1751620537563005700,12.461005615234376,5.2125091552734375,0.25381430983543396,0.16447533667087555
1751620537581829400,12.479829345703125,5.443416118621826,0.14263692498207092,0.12293653935194016
1751620537600652800,12.49865283203125,4.814225196838379,0.06933315098285675,0.08750637620687485
1751620537619476500,12.5174765625,3.38602352142334,0.12186752259731293,0.0899498388171196
1751620537638300200,12.536300048828124,1.3420698642730713,0.1853974610567093,0.07773254066705704
1751620537657123800,12.555123779296874,-0.2608392536640167,0.30146175622940063,0.09972367435693741
1751620537675947500,12.573947509765626,-1.2064579725265503,-0.13332124054431915,-0.04428769648075104
1751620537694771200,12.592771240234375,-2.4074180126190186,-0.12476912885904312,-0.04917461425065994
1751620537713595000,12.611594970703125,-3.6193737983703613,-0.18096868693828583,-0.08826996386051178
1751620537732418600,12.63041845703125,-4.6981611251831055,-0.12721258401870728,-0.08949168771505356
1751620537751242200,12.6492421875,-5.294364929199219,-0.05757400393486023,-0.06627883017063141
1751620537770065700,12.668065673828124,-5.195405006408691,-0.07834340631961823,-0.06627883017063141
1751620537788889300,12.686889404296876,-4.236347198486328,-0.16019928455352783,-0.08826996386051178
1751620537807713000,12.705713134765626,-2.3793182373046875,-0.13332124054431915,-0.06383536756038666
1751620537826536700,12.72453662109375,0.02260199747979641,0.08643736690282822,0.03252854943275452
1751620537845360400,12.7433603515625,1.57297682762146,0.0010690133785828948,0.017867794260382652
1751620537864184000,12.76218408203125,3.21864652633667,0.11698060482740402,0.08139773458242416
1751620537883007700,12.7810078125,4.639517784118652,-0.07834340631961823,0.03130681812763214
1751620537901831400,12.79983154296875,5.498394012451172,-0.049021899700164795,0.06307178735733032
1751620537920655000,12.818655029296876,5.789165496826172,0.08277218043804169,0.1253799945116043
1751620537939478500,12.837478515625,5.057349681854248,-0.0539088174700737,0.07284562289714813
1751620537958302200,12.85630224609375,3.1343472003936768,0.15241076052188873,0.11194097250699997
1751620537977126000,12.8751259765625,0.6701186895370483,0.45906487107276917,0.16814053058624268
1751620537995949600,12.893949462890625,-0.6701186895370483,0.09987638890743256,0.03252854943275452
1751620538014773200,12.912773193359374,-2.006690740585327,-0.1308777779340744,-0.05039634555578232
1751620538033597000,12.931596923828126,-3.4275622367858887,-0.1870773434638977,-0.08949168771505356
1751620538052420600,12.950420654296876,-4.699382781982422,-0.3092502951622009,-0.15302163362503052
1751620538071244300,12.969244384765625,-5.594910621643066,-0.17974695563316345,-0.1444695144891739
1751620538090068000,12.98806787109375,-5.819708824157715,-0.04169152304530144,-0.09315688163042068
1751620538108891400,13.006891357421875,-5.150200843811035,-0.16508620977401733,-0.11636973917484283
1751620538127715000,13.025715087890624,-3.5534005165100098,-0.27626359462738037,-0.14217877388000488
1751620538146538800,13.044538818359374,-1.007315993309021,0.014508038759231567,-0.006566796451807022
1751620538165362400,13.063362548828126,1.3225222826004028,0.021838415414094925,0.036193739622831345
1751620538184186000,13.08218603515625,3.0085089206695557,0.09010255336761475,0.08872810751199722
1751620538203009800,13.101009765625,4.60530948638916,0.19883649051189423,0.1510363221168518
1751620538221833500,13.11983349609375,5.674323081970215,0.17684535682201385,0.14737112820148468
1751620538240657200,13.1386572265625,6.017629146575928,0.5006036758422852,0.24144430458545685
1751620538259480800,13.157480712890624,5.653553485870361,0.04016435891389847,0.04230238497257233
1751620538278304300,13.17630419921875,4.305985927581787,-0.13454297184944153,0.004428769461810589
1751620538297128000,13.1951279296875,1.884517788887024,0.23915356397628784,0.10583232343196869
1751620538315951600,13.21395166015625,-0.3402516841888428,0.2110537886619568,0.07284562289714813
1751620538334775300,13.232775390625,-1.6242893934249878,-0.0746782198548317,-0.028405211865901947
1751620538353599000,13.251598876953125,-3.4666576385498047,-0.13942988216876984,-0.06627883017063141
1751620538372422700,13.270422607421875,-5.080562591552734,-0.22983787953853607,-0.11026109009981155
1751620538391246300,13.289246337890624,-5.614458084106445,-0.15531237423419952,-0.10537417232990265
1751620538410070000,13.308070068359376,-5.2797040939331055,-0.2738201320171356,-0.1444695144891739
1751620538428893400,13.3268935546875,-4.4660325050354,-0.05024362727999687,-0.0772743970155716
1751620538447717000,13.345717041015625,-3.14289927482605,-0.09544762223958969,-0.06627883017063141
1751620538466540800,13.364540771484375,-1.1209368705749512,-0.2848156988620758,-0.10415244847536087
1751620538485364500,13.383364501953125,0.4404335021972656,0.0412333719432354,0.026419902220368385
1751620538504188200,13.402188232421874,1.454469084739685,0.018173227086663246,0.03375028073787689
1751620538523011800,13.42101171875,2.875340461730957,0.08032871782779694,0.08139773458242416
1751620538541835500,13.43983544921875,4.4660325050354,0.08155044913291931,0.11927134543657303
1751620538560659200,13.4586591796875,6.016407012939453,0.14263692498207092,0.15470150113105774
1751620538579483000,13.47748291015625,7.13551139831543,0.14263692498207092,0.18890993297100067
1751620538598306300,13.496306396484375,7.029221057891846,0.10965022444725037,0.15958842635154724
1751620538617130000,13.5151298828125,5.211287498474121,0.10109812021255493,0.13881902396678925
1751620538635953700,13.53395361328125,2.257145404815674,0.060781046748161316,0.06673697382211685
1751620538654777300,13.55277734375,-0.7874047160148621,0.013286309316754341,-0.001679878099821508
1751620538673601000,13.57160107421875,-3.170999050140381,0.09987638890743256,-0.013744457624852657
1751620538692424700,13.5904248046875,-5.278482437133789,0.3185659945011139,0.05085449293255806
1751620538711248400,13.609248291015625,-6.2094407081604,-0.3153589367866516,-0.15057817101478577
1751620538730072000,13.628072021484375,-6.130028247833252,-0.2994764447212219,-0.17623448371887207
1751620538748895700,13.646895751953124,-5.5729193687438965,-0.23472478985786438,-0.16157373785972595
1751620538767719200,13.66571923828125,-4.783681869506836,-0.09789107739925385,-0.11148282140493393
1751620538786542800,13.68454296875,-3.6645777225494385,-0.10644318908452988,-0.09437860548496246
1751620538805366500,13.703366455078125,-1.748905897140503,-0.09789107739925385,-0.06017018109560013
1751620538824190200,13.722190185546875,0.38789913058280945,0.013286309316754341,0.0154243353754282
1751620538843014000,13.741013916015625,1.6169590950012207,0.03527744114398956,0.0435241162776947
1751620538861837600,13.759837646484375,3.0195045471191406,0.07788526266813278,0.08872810751199722
1751620538880661200,13.7786611328125,4.27055549621582,0.18173226714134216,0.14248420298099518
1751620538899485000,13.79748486328125,5.210065841674805,0.25992295145988464,0.17058399319648743
1751620538918308600,13.81630859375,5.592466831207275,-0.3019199073314667,-0.012675444595515728
1751620538937132000,13.835132080078125,4.9889326095581055,0.08399390429258347,0.1302669197320938
1751620538955955700,13.853955810546875,2.911992311477661,0.08521563559770584,0.08750637620687485
1751620538974779400,13.872779296875,0.2205221801996231,0.07544180005788803,0.0386371985077858
1751620538993603000,13.89160302734375,-1.258992314338684,0.25992295145988464,0.07162389904260635
1751620539012426800,13.9104267578125,-3.034165382385254,0.3442223072052002,0.09361502528190613
1751620539031250400,13.92925048828125,-4.770243167877197,-0.2994764447212219,-0.1127045527100563
1751620539050074000,13.94807421875,-5.666992664337158,-0.0795651376247406,-0.06383536756038666
1751620539068897800,13.966897705078125,-5.637670993804932,-0.36544984579086304,-0.1542433500289917
1751620539087721500,13.985721435546875,-5.102553367614746,-0.15409064292907715,-0.1078176349401474
1751620539106545000,14.004544921875,-4.291325092315674,0.05833758786320686,-0.018631376326084137
1751620539125368600,14.02336865234375,-2.9217662811279297,-0.027030766010284424,-0.031001387163996696
1751620539144192300,14.042192138671876,-0.638353705406189,-0.17486004531383514,-0.057726722210645676
1751620539163016000,14.061015869140626,1.1795798540115356,-0.08078686892986298,-0.004123337101191282
1751620539181839600,14.079839599609375,2.7165157794952393,0.019394956529140472,0.049632761627435684
1751620539200663300,14.098663330078125,4.221686363220215,0.08155044913291931,0.08872810751199722
1751620539219487000,14.117487060546875,5.3578948974609375,0.18173226714134216,0.13881902396678925
1751620539238310700,14.136310546875,5.781835079193115,-0.26648977398872375,-0.005345067009329796
1751620539257134300,14.15513427734375,5.364003658294678,0.1389717310667038,0.1571449637413025
1751620539275957800,14.173957763671876,4.2986555099487305,0.10598503798246384,0.11682789027690887
1751620539294781400,14.192781494140625,3.006065607070923,0.05222893878817558,0.07895427197217941
1751620539313605000,14.211605224609375,1.2663227319717407,0.03756818547844887,0.039858926087617874
1751620539332428800,14.2304287109375,-0.5784889459609985,0.0717766135931015,0.020311253145337105
1751620539351252500,14.24925244140625,-2.4233005046844482,0.3197877109050751,0.07895427197217941
1751620539370076200,14.268076171875,-4.279107570648193,0.30512696504592896,0.07528908550739288
1751620539388899800,14.28689990234375,-5.362782001495361,-0.21395538747310638,-0.09682206809520721
1751620539407723500,14.3057236328125,-5.557036876678467,-0.1870773434638977,-0.08460476994514465
1751620539426547200,14.324547119140625,-5.102553367614746,-0.16875138878822327,-0.08093958348035812
1751620539445370600,14.34337060546875,-4.031096458435059,-0.08078686892986298,-0.05039634555578232
1751620539464194300,14.3621943359375,-2.406196355819702,-0.1614210158586502,-0.06994401663541794
1751620539483018000,14.38101806640625,-0.5088503360748291,-0.13454297184944153,-0.04550942778587341
1751620539501841700,14.399841552734374,0.6053670048713684,0.018173227086663246,0.016646064817905426
1751620539520665300,14.418665283203126,1.6145156621932983,0.06322450190782547,0.04230238497257233
1751620539539489000,14.437489013671875,2.9181010723114014,0.12553271651268005,0.07284562289714813
1751620539558312700,14.456312744140625,4.275442600250244,0.25503605604171753,0.12171480804681778
1751620539577136400,14.475136474609375,5.379886150360107,0.2672533392906189,0.1156061589717865
1751620539595960000,14.4939599609375,5.703644275665283,-0.09911280870437622,0.006872228812426329
1751620539614783500,14.512783447265624,5.003593444824219,-0.23105959594249725,-0.019853105768561363
1751620539633607200,14.531607177734376,3.590052366256714,-0.14920371770858765,0.012980876490473747
1751620539652430800,14.550430908203126,1.2345577478408813,0.021838415414094925,0.03130681812763214
1751620539671254500,14.569254638671875,-1.2357794046401978,-0.005039634648710489,-0.018631376326084137
1751620539690078200,14.588078125,-3.5167484283447266,0.28557929396629333,0.04474584385752678
1751620539708902000,14.60690185546875,-5.034136772155762,0.3539961278438568,0.0899498388171196
1751620539727725600,14.6257255859375,-5.266265392303467,-0.04535670951008797,-0.03695731982588768
1751620539746549000,14.644549072265624,-4.7433648109436035,-0.27748534083366394,-0.10415244847536087
1751620539765372700,14.66337255859375,-4.056753158569336,-0.07223475724458694,-0.03695731982588768
1751620539784196400,14.6821962890625,-3.210094451904297,-0.09911280870437622,-0.047952886670827866
1751620539803020000,14.70102001953125,-2.081216335296631,-0.13209950923919678,-0.05283980444073677
1751620539821843700,14.71984375,-0.7971785664558411,0.054672397673130035,0.0154243353754282
1751620539840667400,14.73866748046875,0.16310089826583862,0.12553271651268005,0.0435241162776947
1751620539859491000,14.757490966796874,0.9743293523788452,-0.005039634648710489,0.008093958720564842
1751620539878314800,14.776314697265626,2.2669191360473633,-0.06246092543005943,-0.001679878099821508
1751620539897138400,14.795138427734376,3.778198719024658,-0.039248060435056686,0.0154243353754282
1751620539915961900,14.8139619140625,4.894859313964844,-0.6085740327835083,-0.13469567894935608
1751620539934785500,14.83278564453125,5.125766277313232,0.09987638890743256,0.1253799945116043
1751620539953609200,14.851609130859375,4.098291873931885,0.10231985151767731,0.1156061589717865
1751620539972433000,14.870432861328124,2.0946552753448486,0.14630211889743805,0.09117157012224197
1751620539991256600,14.889256591796874,0.01649334840476513,0.030390523374080658,0.016646064817905426
1751620540010080300,14.908080322265626,-1.204014539718628,0.10476330667734146,0.02519817277789116
1751620540028904000,14.926904052734375,-2.1166465282440186,0.2098320573568344,0.04718930274248123
1751620540047727600,14.9457275390625,-3.1086909770965576,0.2464839369058609,0.06551524996757507
1751620540066551300,14.96455126953125,-4.296212196350098,-0.2383899837732315,-0.09071341902017593
1751620540085374700,14.983374755859375,-5.517941474914551,-0.1724165827035904,-0.0870482325553894
1751620540104198400,15.002198486328124,-5.89056921005249,0.009621120058000088,-0.03222311660647392
1751620540123022000,15.02102197265625,-4.8826422691345215,-0.19440771639347076,-0.08582650125026703
1751620540141845800,15.039845703125,-2.9132142066955566,-0.02214384824037552,-0.021227551624178886
1751620540160669400,15.05866943359375,-0.5809323787689209,0.06444623321294785,0.020311253145337105
1751620540179493000,15.0774931640625,0.7861829996109009,0.04016435891389847,0.01908952370285988
1751620540198316800,15.09631689453125,2.1606287956237793,-0.011148282326757908,0.009315688163042068
1751620540217140500,15.115140380859375,3.7513206005096436,-0.011148282326757908,0.022754713892936707
1751620540235964000,15.1339638671875,5.197848320007324,0.13775001466274261,0.08872810751199722
1751620540254787600,15.15278759765625,6.150797367095947,0.10109812021255493,0.0642935186624527
1751620540273611300,15.171611328125,6.368265151977539,-0.448527455329895,-0.07238747924566269
1751620540292435000,15.19043505859375,5.685318470001221,0.5238165259361267,0.2805396616458893
1751620540311258600,15.209258544921875,3.9162540435791016,0.18295399844646454,0.10216713696718216
1751620540330082300,15.228082275390625,1.6413936614990234,0.1646280586719513,0.07284562289714813
1751620540348906000,15.246906005859374,-0.25961753726005554,0.06933315098285675,0.02519817277789116
1751620540367729700,15.265729736328124,-1.2479966878890991,-0.020922118797898293,-0.0102319847792387
1751620540386553300,15.28455322265625,-2.3964226245880127,-0.3214675784111023,-0.11759147047996521
1751620540405376800,15.303376708984375,-3.765981435775757,-0.08078686892986298,-0.0565049909055233
1751620540433612300,15.3316123046875,-5.802604675292969,0.08521563559770584,-0.007788525894284248
1751620540452436000,15.35043603515625,-6.163014888763428,-0.38011062145233154,-0.16157373785972595
1751620540471259600,15.369259765625,-5.394546985626221,-0.025809036567807198,-0.05283980444073677
1751620540490083300,15.388083251953125,-3.624260663986206,-0.08323032408952713,-0.05283980444073677
1751620540508907000,15.406906982421875,-1.1123847961425781,-0.09178243577480316,-0.03695731982588768
1751620540527730700,15.425730712890624,0.4734202027320862,0.0668896958231926,0.028863361105322838
1751620540546554400,15.444554443359374,1.2418880462646484,0.12186752259731293,0.052076224237680435
1751620540565377800,15.463377685546876,2.358548879623413,0.06200277432799339,0.0386371985077858
1751620540584201500,15.482201416015625,3.5362961292266846,0.11087195575237274,0.061850059777498245
1751620540603025200,15.501025146484375,4.739699840545654,0.16584978997707367,0.07040216773748398
1751620540621848800,15.519848876953125,5.675544738769531,0.129197895526886,0.05940660089254379
1751620540640672500,15.538672607421875,5.839256286621094,-0.22617268562316895,-0.024740023538470268
1751620540659496200,15.55749609375,5.255269527435303,-0.24816381931304932,-0.002901607658714056
1751620540678319900,15.57631982421875,3.917475938796997,0.17318016290664673,0.13271036744117737
1751620540697143600,15.5951435546875,1.3322961330413818,0.04734202101826668,0.0435241162776947
1751620540715967000,15.613967041015625,-1.3640609979629517,0.2660316228866577,0.07651081681251526
1751620540734790700,15.632790771484375,-3.8600544929504395,0.3087921440601349,0.07773254066705704
1751620540753614300,15.6516142578125,-5.759843826293945,-0.17852523922920227,-0.06750056147575378
1751620540772438000,15.67043798828125,-6.387813091278076,-0.11988221108913422,-0.0565049909055233
1751620540791261700,15.68926171875,-5.814821720123291,-0.295811265707016,-0.11514800786972046
1751620540810085400,15.70808544921875,-4.406167507171631,-0.09300415962934494,-0.06017018109560013
1751620540828909000,15.726908935546875,-2.4318525791168213,-0.10155627131462097,-0.04673115536570549
1751620540847732500,15.745732421875,-0.3426951467990875,-0.02825249545276165,-0.009010255336761475
1751620540866556400,15.764556396484375,0.5283980369567871,0.11331541836261749,0.04230238497257233
1751620540885379800,15.7833798828125,1.230892539024353,0.12675444781780243,0.04841103404760361
1751620540904203500,15.80220361328125,2.34999680519104,0.0668896958231926,0.03497200831770897
1751620540923027200,15.821027099609376,3.7794203758239746,0.14263692498207092,0.055741410702466965
1751620540941851000,15.839850830078126,5.158752918243408,0.11453714966773987,0.049632761627435684
1751620540960674600,15.858674560546875,5.693870544433594,-0.01359174121171236,0.022754713892936707
1751620540979498200,15.877498291015625,5.052462577819824,-0.4338667094707489,-0.09071341902017593
1751620540998322000,15.896322021484375,3.7122251987457275,0.7205150127410889,0.28787001967430115
1751620541017145300,15.915145263671874,1.638950228691101,-0.029474224895238876,-0.002901607658714056
1751620541035969000,15.933968994140624,-0.5076286196708679,-0.009926552884280682,-0.00045814859913662076
1751620541054792700,15.952792724609376,-2.1276419162750244,-0.0795651376247406,-0.02611446939408779
1751620541073616400,15.971616455078125,-3.8734936714172363,-0.0001527161948615685,-0.0102319847792387
1751620541092440000,15.990440185546875,-5.440972805023193,-0.22128576040267944,-0.08093958348035812
1751620541111263700,16.009263671875,-6.466003894805908,-0.17119485139846802,-0.07116574794054031
1751620541130087400,16.02808740234375,-6.852070331573486,-0.13454297184944153,-0.06994401663541794
1751620541148911000,16.0469111328125,-6.2094407081604,-0.18096868693828583,-0.07116574794054031
1751620541167734500,16.065734619140624,-4.16915225982666,-0.15409064292907715,-0.06505709886550903
1751620541186558200,16.08455810546875,-1.2064579725265503,0.09376774728298187,0.02764163166284561
1751620541205382000,16.1033818359375,0.5430588126182556,0.0412333719432354,0.0154243353754282
1751620541224205600,16.12220556640625,1.6597195863723755,0.048563748598098755,0.02153298258781433
1751620541243029200,16.141029296875,3.166112184524536,0.02306014485657215,0.020311253145337105
1751620541261853000,16.15985302734375,4.508792877197266,0.07422006875276566,0.045967575162649155
1751620541280676600,16.178676513671874,5.4275336265563965,-0.06734783947467804,0.008093958720564842
1751620541299500000,16.1975,5.950433731079102,-0.31780239939689636,-0.04550942778587341
1751620541318323700,16.21632373046875,5.790387153625488,0.05345066636800766,0.13393209874629974
1751620541337147400,16.2351474609375,4.926624298095703,0.0925460159778595,0.1302669197320938
1751620541355971000,16.25397119140625,3.135568857192993,0.07055488228797913,0.08750637620687485
1751620541374794800,16.272794677734375,0.7531962990760803,0.08888082206249237,0.049632761627435684
1751620541393618400,16.291618408203124,-0.6212494969367981,0.40897396206855774,0.1314886510372162
1751620541412442000,16.310442138671874,-1.4617993831634521,0.07422006875276566,0.016646064817905426
1751620541431265800,16.329265869140624,-2.525925874710083,-0.04780016839504242,-0.02718348242342472
1751620541450089500,16.34808935546875,-3.3542585372924805,0.05222893878817558,0.0019853105768561363
1751620541468913000,16.366912841796875,-3.791637659072876,-0.020922118797898293,-0.019853105768561363
1751620541487736600,16.385736572265625,-3.9321365356445312,-0.13454297184944153,-0.05283980444073677
1751620541506560300,16.404560302734374,-3.6706864833831787,-0.19929464161396027,-0.07849612087011337
1751620541525384000,16.423384033203124,-3.070817232131958,-0.0025961752980947495,-0.013744457624852657
1751620541544207600,16.44220751953125,-2.2339324951171875,-0.0013744457392022014,-0.009010255336761475
1751620541563031300,16.46103125,-0.9645555019378662,0.019394956529140472,0.0032070400193333626
1751620541581855000,16.47985498046875,0.21197007596492767,0.02306014485657215,0.010537417605519295
1751620541600678700,16.4986787109375,0.9853248596191406,0.009621120058000088,0.011759147047996521
1751620541619502000,16.517502197265625,2.0250167846679688,-0.03802633285522461,0.0032070400193333626
1751620541638325800,16.53632568359375,3.4410014152526855,-0.22006404399871826,-0.04550942778587341
1751620541657149400,16.5551494140625,5.0585713386535645,-0.3263545036315918,-0.03817904740571976
1751620541675973000,16.57397314453125,6.463560104370117,0.4456258714199066,0.2707658112049103
1751620541694796800,16.592796875,6.528311729431152,0.3845393657684326,0.19135339558124542
1751620541713620500,16.611620361328125,4.712821960449219,-0.5193877816200256,-0.11148282140493393
1751620541732444200,16.630444091796875,1.434921383857727,0.10842850059270859,0.07284562289714813
1751620541751267600,16.649267578125,-1.3946043252944946,0.05100720748305321,-0.001679878099821508
1751620541770091300,16.66809130859375,-3.3762495517730713,0.12675444781780243,-0.006566796451807022
1751620541788915000,16.6869150390625,-4.575988292694092,0.4199695289134979,0.10461059212684631
1751620541807738600,16.705738525390625,-4.693274021148682,-0.19562944769859314,-0.06872228533029556
1751620541826562300,16.724562255859375,-4.11906099319458,-0.06856957077980042,-0.029626941308379173
1751620541845386000,16.743385986328125,-3.4629924297332764,-0.16264274716377258,-0.05894844979047775
1751620541864209700,16.762209716796875,-2.953531265258789,-0.06123919412493706,-0.02718348242342472
1751620541883033300,16.781033447265624,-2.1508548259735107,-0.233503058552742,-0.0821613147854805
1751620541901856800,16.799856689453126,-1.0134246349334717,-0.06246092543005943,-0.024740023538470268
1751620541920680400,16.818680419921876,-0.09712749719619751,0.06933315098285675,0.023976443335413933
1751620541939504000,16.837504150390625,0.2156352698802948,0.13041962683200836,0.04718930274248123
1751620541958327800,16.856327880859375,0.6334667801856995,0.013286309316754341,0.011759147047996521
1751620541977151500,16.8751513671875,1.3738348484039307,-0.0025961752980947495,0.009315688163042068
1751620541995975200,16.89397509765625,2.472169876098633,-0.007483093533664942,0.012980876490473747
1751620542014798800,16.912798828125,3.654803991317749,-0.19685117900371552,-0.03695731982588768
1751620542033622300,16.931622314453126,4.646848201751709,0.22693626582622528,0.1314886510372162
1751620542052446000,16.950446044921875,4.711599826812744,0.3087921440601349,0.14248420298099518
1751620542071269600,16.96926953125,3.5668394565582275,-0.28237223625183105,-0.057726722210645676
1751620542090093300,16.98809326171875,1.2137882709503174,-0.1614210158586502,-0.031001387163996696
1751620542108917000,17.0069169921875,-1.01708984375,0.13530655205249786,0.039858926087617874
1751620542127740700,17.02574072265625,-3.07326078414917,0.19272783398628235,0.03252854943275452
1751620542146564400,17.044564453125,-4.739699840545654,0.25870123505592346,0.05818486958742142
1751620542165388000,17.063387939453126,-5.3212432861328125,-0.06246092543005943,-0.031001387163996696
1751620542184211500,17.08221142578125,-5.043910503387451,-0.22983787953853607,-0.08093958348035812
1751620542203035100,17.10103515625,-4.541779518127441,-0.09544762223958969,-0.05528326332569122
1751620542221858800,17.11985888671875,-3.915032386779785,-0.1418733447790146,-0.05894844979047775
1751620542240682500,17.1386826171875,-2.9132142066955566,-0.016035201027989388,-0.016340631991624832
1751620542259506200,17.157506103515626,-1.201570987701416,-0.07345648854970932,-0.02718348242342472
1751620542278329900,17.176329833984376,0.30604326725006104,0.08765909820795059,0.03252854943275452
1751620542297153300,17.1951533203125,1.2357794046401978,0.10109812021255493,0.03741546720266342
1751620542315977000,17.21397705078125,2.6383249759674072,0.0925460159778595,0.039858926087617874
1751620542334800600,17.232800537109377,4.246120929718018,0.04367683082818985,0.03375028073787689
1751620542353624300,17.251624267578126,5.393325328826904,-0.3520108163356781,-0.0772743970155716
1751620542372448000,17.270447998046876,5.580249786376953,-0.23961171507835388,0.008093958720564842
1751620542391271700,17.289271728515626,4.814225196838379,-0.0001527161948615685,0.0899498388171196
1751620542410095400,17.308095458984376,3.543626546859741,0.05222893878817558,0.08628465235233307
1751620542428918800,17.326918701171873,1.8637484312057495,0.024281874299049377,0.0435241162776947
1751620542447742500,17.345742431640623,0.18875721096992493,0.014508038759231567,0.012980876490473747
1751620542466566100,17.364566162109377,-0.545502245426178,-0.0025961752980947495,-0.006566796451807022
1751620542485389800,17.383389892578126,-1.388495683670044,-0.027030766010284424,-0.029626941308379173
1751620542504213500,17.402213623046876,-2.9804091453552246,-0.049021899700164795,-0.07238747924566269
1751620542523037200,17.421037109375,-4.797121047973633,0.026572618633508682,-0.07360920310020447
1751620542541860900,17.43986083984375,-5.812378406524658,0.3173442482948303,0.04474584385752678
1751620542560684500,17.4586845703125,-5.553371906280518,-0.09789107739925385,-0.06627883017063141
1751620542579508000,17.477508056640627,-4.305985927581787,-0.10644318908452988,-0.06261363625526428
1751620542598331600,17.49633154296875,-2.610225200653076,0.10842850059270859,0.02153298258781433
1751620542617155300,17.5151552734375,-0.8924734592437744,0.02306014485657215,0.0032070400193333626
1751620542635979000,17.53397900390625,0.010384701192378998,0.015729768201708794,0.006872228812426329
1751620542654802700,17.552802734375,0.000610864779446274,-0.019700389355421066,-0.001679878099821508
1751620542673626400,17.57162646484375,0.0030543238390237093,0.018173227086663246,0.008093958720564842
1751620542692450000,17.590449951171873,0.2412915825843811,0.024281874299049377,0.010537417605519295
1751620542711273500,17.6092734375,1.056185245513916,0.05100720748305321,0.020311253145337105
1751620542730097200,17.62809716796875,2.4599523544311523,0.08032871782779694,0.030085090547800064
1751620542748920800,17.6469208984375,4.027431488037109,0.03756818547844887,0.03130681812763214
1751620542767744500,17.66574462890625,5.2882561683654785,-0.0001527161948615685,0.02519817277789116
1751620542786568200,17.684568115234374,5.764730930328369,-0.5719221234321594,-0.12736530601978302
1751620542805392000,17.703391845703123,5.144092082977295,0.14996729791164398,0.16936226189136505
1751620542824215300,17.72221533203125,3.313941478729248,0.08399390429258347,0.10094540566205978
1751620542843039000,17.7410390625,1.074511170387268,0.06933315098285675,0.05085449293255806
1751620542861862700,17.759862548828124,-0.13988803327083588,0.002290742937475443,0.0019853105768561363
1751620542880686300,17.778686279296874,-0.5100721120834351,-0.005039634648710489,-0.007788525894284248
1751620542899510000,17.797510009765624,-0.45020735263824463,-0.0038179049734026194,-0.004123337101191282
1751620542918333700,17.816333740234374,-0.36835145950317383,-0.02825249545276165,-0.01740964688360691
1751620542937157400,17.835157470703123,-1.1172716617584229,-0.025809036567807198,-0.028405211865901947
1751620542955981000,17.85398095703125,-2.9608616828918457,0.004734201822429895,-0.05039634555578232
1751620542974804500,17.872804443359374,-4.651735305786133,0.37354379892349243,0.061850059777498245
1751620542993628200,17.891628173828124,-5.385994911193848,0.1805105358362198,0.036193739622831345
1751620543012451800,17.910451904296874,-5.257713317871094,-0.1663079410791397,-0.06994401663541794
1751620543031275500,17.929275634765624,-4.401280879974365,-0.06734783947467804,-0.035735588520765305
1751620543050099200,17.94809912109375,-2.771493434906006,-0.03802633285522461,-0.019853105768561363
1751620543068923000,17.9669228515625,-0.462424635887146,-0.04046979174017906,-0.009010255336761475
1751620543087746300,17.985746337890625,1.2137882709503174,0.04016435891389847,0.02153298258781433
1751620543106570000,18.004570068359374,2.819140911102295,0.10720676928758621,0.04230238497257233
1751620543125393700,18.0233935546875,4.573544502258301,0.024281874299049377,0.030085090547800064
1751620543144217300,18.04221728515625,6.106815338134766,-0.12354740500450134,-0.006566796451807022
1751620543163041000,18.061041015625,7.038994789123535,-0.27626359462738037,0.008093958720564842
1751620543181864700,18.07986474609375,7.151393890380859,0.19272783398628235,0.20479241013526917
1751620543200688400,18.0986884765625,6.445234298706055,0.29046618938446045,0.19135339558124542
1751620543219511800,18.11751171875,4.828886032104492,-0.15286891162395477,0.02519817277789116
1751620543238335500,18.13633544921875,2.623664140701294,0.1695149689912796,0.11316270381212234
1751620543257159200,18.1551591796875,0.2156352698802948,0.029016077518463135,0.017867794260382652
1751620543275982800,18.17398291015625,-0.8558215498924255,0.05589412897825241,0.009315688163042068
1751620543294806500,18.192806640625,-2.28035831451416,0.03527744114398956,-0.01740964688360691
1751620543313630200,18.211630126953125,-3.2895069122314453,0.1536324918270111,0.020311253145337105
1751620543332454000,18.230453857421875,-3.550956964492798,0.16218459606170654,0.036193739622831345
1751620543351277300,18.24927734375,-3.6987862586975098,-0.18585561215877533,-0.07238747924566269
1751620543370101000,18.26810107421875,-4.420828342437744,0.013286309316754341,-0.012675444595515728
1751620543388924700,18.286924560546876,-4.996263027191162,-0.04413498193025589,-0.031001387163996696
1751620543407748400,18.305748291015625,-4.925402641296387,-0.0844520553946495,-0.03940077871084213
1751620543426572000,18.324572021484375,-4.433045864105225,-0.15531237423419952,-0.057726722210645676
1751620543445395700,18.343395751953125,-3.7293295860290527,-0.07223475724458694,-0.029626941308379173
1751620543464219400,18.362219482421875,-2.615112066268921,-0.020922118797898293,-0.012675444595515728
1751620543483042800,18.381042724609376,-0.8216131329536438,-0.008704823441803455,-0.00045814859913662076
1751620543501866500,18.399866455078126,0.9694424271583557,0.02779434807598591,0.0154243353754282
1751620543520690200,18.418690185546875,2.3768749237060547,0.03527744114398956,0.022754713892936707
1751620543539513900,18.437513916015625,3.3713626861572266,0.10476330667734146,0.0435241162776947
1751620543558337500,18.456337646484375,4.283994674682617,0.054672397673130035,0.03130681812763214
1751620543577161200,18.4751611328125,5.020697593688965,-0.32391104102134705,-0.07605266571044922
1751620543595984600,18.493984619140626,5.126987934112549,0.0766635313630104,0.10705405473709106
1751620543614808300,18.512808349609376,3.8661632537841797,0.19639302790164948,0.10827577859163284
1751620543633632000,18.531632080078126,1.258992314338684,0.05711585655808449,0.036193739622831345
1751620543652455700,18.55045556640625,-0.6982184648513794,0.3124573230743408,0.10216713696718216
1751620543671279400,18.569279296875,-0.9853248596191406,-0.01847865991294384,-0.006566796451807022
1751620543690103000,18.58810302734375,-0.5198459029197693,-0.01847865991294384,-0.005345067009329796
1751620543708926700,18.6069267578125,-0.21685700118541718,-0.016035201027989388,0.0007635809597559273
1751620543727750100,18.625750244140626,-0.5161807537078857,-0.09789107739925385,-0.028405211865901947
1751620543746573800,18.64457373046875,-2.2253804206848145,-0.014813470654189587,-0.0102319847792387
1751620543765397500,18.6633974609375,-4.264447212219238,0.014508038759231567,-0.012675444595515728
1751620543784221200,18.68222119140625,-5.307804107666016,-0.09789107739925385,-0.04062250629067421
1751620543803044900,18.701044921875,-5.227169990539551,-0.11133010685443878,-0.04062250629067421
1751620543821868500,18.71986865234375,-4.709156513214111,-0.08689551800489426,-0.03695731982588768
1751620543840692000,18.73869189453125,-4.012770652770996,-0.09911280870437622,-0.035735588520765305
1751620543859515600,18.757515625,-2.8655667304992676,-0.058795735239982605,-0.023518294095993042
1751620543878339300,18.77633935546875,-0.8387173414230347,-0.027030766010284424,-0.007788525894284248
1751620543897163000,18.7951630859375,1.094058871269226,0.04016435891389847,0.016646064817905426
1751620543915986700,18.813986572265627,2.3292274475097656,0.06933315098285675,0.02764163166284561
1751620543934810400,18.832810302734377,3.4972009658813477,0.07788526266813278,0.03375028073787689
1751620543953633800,18.8516337890625,4.5894269943237305,-0.007483093533664942,0.02153298258781433
1751620543972457500,18.87045751953125,5.368890762329102,-0.264046311378479,-0.051618073135614395
1751620543991281200,18.88928125,5.806269645690918,0.1366809904575348,0.11316270381212234
1751620544010104800,18.908104736328124,5.794052600860596,0.08155044913291931,0.09605848789215088
1751620544028928500,18.926928466796873,4.618748664855957,-0.0062613640911877155,0.061850059777498245
1751620544047752200,18.945752197265627,2.199723958969116,0.12553271651268005,0.07773254066705704
1751620544066576000,18.964575927734376,-0.20830489695072174,0.09498947113752365,0.03375028073787689
1751620544085399300,18.9833994140625,-1.5118902921676636,0.15607595443725586,0.04230238497257233
1751620544104223000,19.002222900390624,-2.4795000553131104,0.060781046748161316,0.011759147047996521
1751620544123046700,19.021046630859374,-2.199723958969116,0.01695149764418602,-0.00045814859913662076
1751620544141870300,19.039870361328123,-1.2064579725265503,-0.05757400393486023,-0.01740964688360691
1751620544160694000,19.058694091796873,-0.8057306408882141,-0.0001527161948615685,0.0007635809597559273
1751620544179517700,19.077517578125,-0.9498947262763977,-0.0062613640911877155,-0.002901607658714056
1751620544198341400,19.09634130859375,-1.415373682975769,-0.014813470654189587,-0.007788525894284248
1751620544217164800,19.115164794921874,-1.9199479818344116,-0.019700389355421066,-0.0102319847792387
1751620544235988500,19.133988525390624,-1.8539745807647705,-0.033139415085315704,-0.011453714221715927
1751620544254812200,19.152812255859374,-1.5485422611236572,-0.030695954337716103,-0.006566796451807022
1751620544283047700,19.181047607421874,-1.9456043243408203,-0.030695954337716103,-0.0102319847792387
1751620544301871400,19.199871337890624,-2.2204935550689697,-0.039248060435056686,-0.01511890348047018
1751620544320694800,19.21869482421875,-2.0555598735809326,-0.039248060435056686,-0.01511890348047018
1751620544339518500,19.2375185546875,-1.7012584209442139,-0.04535670951008797,-0.011453714221715927
1751620544358342100,19.256342041015625,-1.268766164779663,-0.042913250625133514,-0.0102319847792387
1751620544377165800,19.275165771484374,-1.0097594261169434,-0.03436114266514778,-0.009010255336761475
1751620544395989500,19.293989501953124,-0.9938769936561584,-0.016035201027989388,-0.004123337101191282
1751620544414813200,19.312813232421874,-0.8216131329536438,-0.017256930470466614,-0.004123337101191282
1751620544433636600,19.33163671875,-0.4563159942626953,-0.012370011769235134,-0.00045814859913662076
1751620544452460300,19.350460205078125,-0.1692095398902893,-0.0038179049734026194,0.0019853105768561363
1751620544471284000,19.369283935546875,0.025045456364750862,0.005955931730568409,0.005650499369949102
1751620544490107600,19.388107666015625,0.35246896743774414,-0.0013744457392022014,0.005650499369949102
1751620544508931300,19.406931396484374,1.0134246349334717,0.021838415414094925,0.011759147047996521
1751620544527755000,19.425755126953124,2.171624183654785,0.032681263983249664,0.020311253145337105
1751620544546578400,19.444578369140626,3.425118923187256,0.08888082206249237,0.0386371985077858
1751620544565402000,19.463402099609375,4.502684116363525,0.13041962683200836,0.05329795181751251
1751620544584225800,19.482225830078125,5.276039123535156,-0.036804601550102234,0.008093958720564842
1751620544603049500,19.501049560546875,5.537489414215088,0.11698060482740402,0.07773254066705704
1751620544621873200,19.519873046875,4.764134407043457,0.01206457894295454,0.039858926087617874
1751620544640696800,19.53869677734375,3.0573782920837402,-0.23716825246810913,-0.04673115536570549
1751620544659520500,19.5575205078125,1.3506220579147339,0.33200499415397644,0.13515383005142212
1751620544678344000,19.576343994140625,0.21197007596492767,0.11331541836261749,0.0386371985077858
1751620544697167600,19.595167724609375,-0.3341430425643921,0.06566796451807022,0.020311253145337105
1751620544715991300,19.6139912109375,-1.2137882709503174,-0.07101303339004517,-0.023518294095993042
1751620544734815000,19.63281494140625,-2.958418130874634,0.06566796451807022,0.009315688163042068
1751620544753638700,19.651638671875,-5.217396259307861,-0.11743875592947006,-0.04917461425065994
1751620544772462300,19.67046240234375,-6.84473991394043,-0.15286891162395477,-0.06872228533029556
1751620544791285800,19.68928564453125,-7.152615547180176,-0.29214608669281006,-0.10903936624526978
1751620544810109400,19.708109375,-6.264418125152588,-0.033139415085315704,-0.035735588520765305
1751620544828933000,19.72693310546875,-4.393950462341309,-0.15409064292907715,-0.06017018109560013
1751620544847756800,19.7457568359375,-1.7550145387649536,-0.017256930470466614,-0.0102319847792387
1751620544866580500,19.76458056640625,0.4819723069667816,0.0206166859716177,0.010537417605519295
1751620544885404200,19.783404052734376,1.581528902053833,0.04367683082818985,0.02153298258781433
1751620544904227600,19.8022275390625,2.7983715534210205,0.038789913058280945,0.02519817277789116
1751620544923051300,19.82105126953125,4.132500171661377,0.08521563559770584,0.04474584385752678
1751620544941875000,19.839875,5.345677852630615,-0.08689551800489426,-0.004123337101191282
1751620544960698600,19.85869873046875,6.083602428436279,-0.20418155193328857,-0.001679878099821508
1751620544979522300,19.877522216796876,6.054280757904053,-0.08689551800489426,0.08384118974208832
1751620544998346000,19.896345947265626,4.9669413566589355,0.3246746361255646,0.1876882016658783
1751620545017169400,19.91516943359375,2.551582098007202,-0.10277800261974335,0.0032070400193333626
1751620545035993000,19.9339931640625,-0.29138249158859253,0.38331764936447144,0.13393209874629974
1751620545054816800,19.952816650390623,-1.8832961320877075,0.2306014597415924,0.06795870512723923
1751620545073640400,19.971640380859377,-2.797149896621704,-0.02214384824037552,-0.01511890348047018
1751620545092464000,19.990464111328127,-3.036608934402466,-0.07223475724458694,-0.031001387163996696
1751620545111287800,20.009287841796876,-2.9132142066955566,-0.07345648854970932,-0.029626941308379173
1751620545130111200,20.028111328125,-3.0158393383026123,-0.04780016839504242,-0.022296564653515816
1751620545148935000,20.046934814453124,-3.618152141571045,-0.11866047978401184,-0.04917461425065994
1751620545167758600,20.065758544921874,-3.8661632537841797,-0.1418733447790146,-0.057726722210645676
1751620545186582300,20.084582275390623,-2.984074354171753,-0.0013744457392022014,-0.011453714221715927
1751620545205406000,20.103406005859377,-1.3371829986572266,0.03145953640341759,0.009315688163042068
1751620545224229600,20.122229736328126,-0.05558869615197182,0.029016077518463135,0.008093958720564842
1751620545243053000,20.141052978515624,0.21197007596492767,0.03634645417332649,0.011759147047996521
1751620545261876700,20.159876708984374,-0.01893680728971958,-0.01359174121171236,0.0007635809597559273
1751620545280700400,20.178700439453124,-0.08613193035125732,-0.014813470654189587,-0.00045814859913662076
1751620545299524000,20.197524169921873,-0.11911863088607788,-0.0062613640911877155,0.0019853105768561363
1751620545318347800,20.21634765625,-0.006719512399286032,-0.009926552884280682,0.0019853105768561363
1751620545337171500,20.23517138671875,0.25350889563560486,0.002290742937475443,0.005650499369949102
1751620545355995000,20.253994873046874,1.0195332765579224,-0.011148282326757908,0.005650499369949102
1751620545374818600,20.272818603515624,2.310901403427124,-0.0539088174700737,-0.005345067009329796
1751620545393642200,20.291642333984374,3.743990182876587,0.008399390615522861,0.022754713892936707
1751620545412466000,20.3104658203125,4.799564361572266,0.23426663875579834,0.10216713696718216
1751620545431289600,20.32928955078125,5.157531261444092,-0.06368265300989151,0.010537417605519295
1751620545450113300,20.34811328125,4.544223308563232,-0.10766492038965225,0.0154243353754282
1751620545468936700,20.366936767578125,2.9022185802459717,0.16829325258731842,0.09117157012224197
1751620545487760400,20.385760498046874,0.7141009569168091,0.1792888194322586,0.07284562289714813
1751620545506584000,20.404583984375,-0.7470875978469849,0.17318016290664673,0.05329795181751251
1751620545525407700,20.42340771484375,-1.6352850198745728,0.01206457894295454,-0.001679878099821508
1751620545544231400,20.4422314453125,-2.4929392337799072,-0.05513054504990578,-0.021227551624178886
1751620545563055000,20.46105517578125,-3.7818639278411865,-0.11133010685443878,-0.04550942778587341
1751620545581878500,20.47987841796875,-5.189296245574951,-0.03436114266514778,-0.03222311660647392
1751620545600702200,20.4987021484375,-6.006633281707764,-0.13942988216876984,-0.05406153202056885
1751620545619526000,20.51752587890625,-6.021294116973877,-0.1773035079240799,-0.06872228533029556
1751620545638349600,20.536349609375,-5.150200843811035,-0.10277800261974335,-0.04428769648075104
1751620545657173200,20.55517333984375,-3.53140926361084,-0.058795735239982605,-0.028405211865901947
1751620545675997000,20.573996826171875,-1.4752384424209595,-0.029474224895238876,-0.0102319847792387
1751620545694820400,20.5928203125,-0.08002328872680664,0.0010690133785828948,0.0019853105768561363
1751620545713644000,20.61164404296875,-0.037262752652168274,0.010842849500477314,0.004428769461810589
1751620545732467700,20.6304677734375,0.10690133273601532,0.008399390615522861,0.005650499369949102
1751620545751291400,20.64929150390625,0.7446441650390625,0.01695149764418602,0.010537417605519295
1751620545770115000,20.668114990234375,1.6071852445602417,0.03390299528837204,0.017867794260382652
1751620545788938800,20.686938720703125,2.4660611152648926,0.05955931544303894,0.02519817277789116
1751620545807762200,20.70576220703125,3.6645777225494385,0.04978547990322113,0.028863361105322838
1751620545826585900,20.7245859375,4.935176372528076,0.1279761642217636,0.05696314200758934
1751620545845409500,20.743409423828126,5.8575825691223145,0.11575887352228165,0.055741410702466965
1751620545864233200,20.762233154296876,6.155684471130371,0.004734201822429895,0.028863361105322838
1751620545883057000,20.781056884765626,5.762287616729736,0.025503603741526604,0.04474584385752678
1751620545901880600,20.799880615234375,4.29254674911499,0.09621120244264603,0.06551524996757507
1751620545920704000,20.8187041015625,1.4715732336044312,0.05345066636800766,0.03375028073787689
1751620545939527700,20.837527587890627,-1.3848304748535156,0.18784092366695404,0.055741410702466965
1751620545958351400,20.856351318359376,-3.791637659072876,-0.05635227635502815,-0.029626941308379173
1751620545977175000,20.875175048828126,-5.393325328826904,-0.1467602699995041,-0.05406153202056885
1751620545995998700,20.893998779296876,-5.783056735992432,-0.09789107739925385,-0.04306596517562866
1751620546014822400,20.912822509765626,-5.201513767242432,-0.12232567369937897,-0.041844237595796585
1751620546033645800,20.931645751953123,-4.12516975402832,-0.14431680738925934,-0.04673115536570549
1751620546052469500,20.950469482421877,-2.612668752670288,-0.05757400393486023,-0.022296564653515816
1751620546080705000,20.978705078125,-0.2156352698802948,-0.09544762223958969,-0.02611446939408779
1751620546099528700,20.99752880859375,-0.000610864779446274,0.030390523374080658,0.012980876490473747
1751620546118352400,21.016352294921877,0.04459312930703163,0.05222893878817558,0.020311253145337105
1751620546137176000,21.035176025390626,0.5955931544303894,0.015729768201708794,0.011759147047996521
1751620546155999500,21.05399951171875,1.8784091472625732,0.03527744114398956,0.020311253145337105
1751620546174823200,21.0728232421875,3.53140926361084,0.05345066636800766,0.03130681812763214
1751620546193646800,21.091646728515624,5.06345796585083,0.12064579129219055,0.052076224237680435
1751620546212470500,21.110470458984373,5.938216686248779,0.14263692498207092,0.06673697382211685
1751620546231294200,21.129294189453127,5.831925868988037,0.05222893878817558,0.04230238497257233
1751620546250117600,21.14811767578125,4.545444965362549,-0.2945895493030548,-0.051618073135614395
1751620546268941300,21.16694140625,2.011577606201172,-0.23594652116298676,-0.04550942778587341
1751620546287765000,21.185764892578124,-1.0903936624526978,0.2831358313560486,0.08261945843696594
1751620546306588700,21.204588623046874,-3.7281076908111572,0.16584978997707367,0.023976443335413933
1751620546325412400,21.223412353515624,-5.351786136627197,0.15118902921676636,0.022754713892936707
1751620546344236000,21.242236083984373,-5.535045623779297,-0.09178243577480316,-0.03940077871084213
1751620546363059500,21.2610595703125,-4.827664375305176,-0.09056070446968079,-0.03817904740571976
1751620546381883100,21.279883056640625,-3.8796021938323975,-0.18952079117298126,-0.061391908675432205
1751620546400706800,21.298706787109374,-2.7739369869232178,-0.04413498193025589,-0.019853105768561363
1751620546419530500,21.317530517578124,-1.6169590950012207,-0.03436114266514778,-0.011453714221715927
1751620546438354200,21.336354248046874,-0.5015199780464172,-0.09911280870437622,-0.031001387163996696
1751620546457177900,21.355177734375,-0.031154103577136993,-0.05513054504990578,-0.013744457624852657
1751620546476001300,21.374001220703125,0.15210533142089844,0.02306014485657215,0.011759147047996521
1751620546494825000,21.392824951171875,1.2760965824127197,0.019394956529140472,0.016646064817905426
1751620546513648600,21.411648681640624,3.2565200328826904,0.026572618633508682,0.026419902220368385
1751620546532472300,21.430472412109374,5.266265392303467,0.06200277432799339,0.0642935186624527
1751620546551296000,21.4492958984375,6.36460018157959,0.33078327775001526,0.14248420298099518
1751620546570119700,21.46811962890625,6.176453590393066,-0.1101083755493164,-0.002901607658714056
1751620546588943000,21.486943115234375,4.677391529083252,-0.5389354228973389,-0.11026109009981155
1751620546607766800,21.505766845703125,2.0885467529296875,-0.017256930470466614,0.03130681812763214
1751620546626590500,21.524590576171875,-0.5821541547775269,0.003512472379952669,-0.005345067009329796
1751620546645414100,21.5434140625,-2.8374669551849365,0.09865466505289078,-0.0102319847792387
1751620546664237800,21.56223779296875,-4.662730693817139,0.23793183267116547,0.023976443335413933
1751620546683061500,21.5810615234375,-5.536267280578613,0.2208276242017746,0.05085449293255806
1751620546711296800,21.609296875,-5.216174125671387,-0.13209950923919678,-0.051618073135614395
1751620546730120400,21.628120361328126,-4.654178619384766,-0.06123919412493706,-0.03451386094093323
1751620546748944100,21.646944091796875,-3.761094331741333,-0.052687086164951324,-0.02718348242342472
1751620546767767800,21.665767822265625,-2.6981897354125977,-0.03802633285522461,-0.019853105768561363
1751620546786591500,21.684591552734375,-1.6780455112457275,-0.025809036567807198,-0.012675444595515728
1751620546805415000,21.703414794921876,-0.7092140316963196,0.015729768201708794,0.0019853105768561363
1751620546824238600,21.722238525390626,-0.09957095980644226,0.007177661173045635,0.0032070400193333626
1751620546843062300,21.741062255859376,0.268169641494751,0.004734201822429895,0.005650499369949102
1751620546861886000,21.759885986328126,0.8631519079208374,0.013286309316754341,0.009315688163042068
1751620546880709600,21.778709716796875,1.9113959074020386,0.032681263983249664,0.01908952370285988
1751620546899533000,21.797532958984377,3.36403226852417,0.07422006875276566,0.03497200831770897
1751620546918356700,21.816356689453126,4.819112300872803,0.07910698652267456,0.04474584385752678
1751620546937180400,21.835180419921876,6.076272010803223,0.16829325258731842,0.07162389904260635
1751620546956004000,21.854004150390626,6.672475814819336,0.12064579129219055,0.0642935186624527
1751620546974827800,21.872827880859376,6.090932846069336,0.16707152128219604,0.07895427197217941
1751620546993651500,21.8916513671875,4.026209831237793,-0.016035201027989388,0.020311253145337105
1751620547012475000,21.910474853515623,1.2284491062164307,-0.03191768378019333,-0.00045814859913662076
1751620547031298600,21.929298583984377,-1.3347395658493042,0.12431098520755768,0.03497200831770897
1751620547050122200,21.948122314453126,-3.5949392318725586,-0.033139415085315704,-0.023518294095993042
1751620547068946000,21.96694580078125,-5.313912868499756,-0.1357647031545639,-0.0565049909055233
1751620547087769600,21.98576953125,-5.819708824157715,-0.09666935354471207,-0.04550942778587341
1751620547106593300,22.00459326171875,-5.459298610687256,-0.1773035079240799,-0.06627883017063141
1751620547125416700,22.023416748046873,-4.827664375305176,-0.06734783947467804,-0.035735588520765305
1751620547144240400,22.042240478515627,-4.082409381866455,-0.06123919412493706,-0.028405211865901947
1751620547163064000,22.06106396484375,-2.8069236278533936,-0.05757400393486023,-0.019853105768561363
1751620547181887700,22.0798876953125,-0.924238383769989,-0.020922118797898293,-0.005345067009329796
1751620547200711400,22.09871142578125,0.6456840634346008,0.0010690133785828948,0.005650499369949102
1751620547219535000,22.11753515625,1.7024801969528198,0.05100720748305321,0.023976443335413933
1751620547238358500,22.136358642578124,3.036608934402466,0.06566796451807022,0.03130681812763214
1751620547257182200,22.15518212890625,4.357298374176025,0.06566796451807022,0.036193739622831345
1751620547276006000,22.174005859375,5.450746536254883,0.1340848207473755,0.05696314200758934
1751620547294829600,22.19282958984375,6.028624534606934,-0.20662501454353333,-0.029626941308379173
1751620547313653200,22.2116533203125,5.674323081970215,0.13530655205249786,0.09850194305181503
1751620547332477000,22.230476806640624,4.215578079223633,0.06444623321294785,0.0642935186624527
1751620547351300400,22.24930029296875,1.9859213829040527,0.22204934060573578,0.09605848789215088
1751620547370124000,22.2681240234375,-0.07147117704153061,0.1279761642217636,0.04474584385752678
1751620547388947700,22.28694775390625,-1.629176378250122,-0.12965604662895203,-0.04673115536570549
1751620547407771400,22.305771484375,-3.601047992706299,-0.11255183815956116,-0.05039634555578232
1751620547426595000,22.324594970703124,-5.743961334228516,0.08399390429258347,-0.00045814859913662076
1751620547445418500,22.34341845703125,-6.830079078674316,-0.1308777779340744,-0.05406153202056885
1751620547464242200,22.3622421875,-6.736005783081055,-0.20662501454353333,-0.08460476994514465
1751620547483065900,22.38106591796875,-5.69509220123291,-0.08689551800489426,-0.041844237595796585
1751620547501889500,22.3998896484375,-3.8551676273345947,-0.0746782198548317,-0.03329212963581085
1751620547520713200,22.418713134765625,-1.592524528503418,-0.03802633285522461,-0.013744457624852657
1751620547539537000,22.437536865234375,0.12400554865598679,0.019394956529140472,0.005650499369949102
1751620547558360300,22.4563603515625,0.5027416944503784,0.021838415414094925,0.010537417605519295
1751620547577184000,22.47518408203125,1.1600322723388672,0.019394956529140472,0.012980876490473747
1751620547596007700,22.494007568359375,2.215606451034546,0.03634645417332649,0.022754713892936707
1751620547614831400,22.512831298828125,3.4605488777160645,0.0717766135931015,0.03497200831770897
1751620547633655000,22.531655029296875,4.714043617248535,0.060781046748161316,0.036193739622831345
1751620547652478700,22.550478759765625,5.823373794555664,0.1536324918270111,0.06062832847237587
1751620547671302100,22.56930224609375,6.474555969238281,0.11087195575237274,0.055741410702466965
1751620547690125800,22.588125732421876,6.451343059539795,0.1366809904575348,0.06062832847237587
1751620547708949500,22.606949462890626,5.328573703765869,0.03390299528837204,0.036193739622831345
1751620547727773200,22.625773193359375,2.5466952323913574,-0.18585561215877533,-0.04306596517562866
1751620547746596900,22.644596923828125,-0.6652317643165588,0.4309650957584381,0.13881902396678925
1751620547765420500,22.663420654296875,-2.938870429992676,-0.16508620977401733,-0.051618073135614395
1751620547784244000,22.682243896484376,-4.683500289916992,-0.1357647031545639,-0.051618073135614395
1751620547803067600,22.701067626953126,-5.530158996582031,-0.11743875592947006,-0.04550942778587341
1751620547821891300,22.719891357421876,-5.228391647338867,-0.10888664424419403,-0.04306596517562866
1751620547840715000,22.738715087890625,-4.349967956542969,-0.1663079410791397,-0.05528326332569122
1751620547859538700,22.75753857421875,-3.313941478729248,-0.04535670951008797,-0.023518294095993042
1751620547878362000,22.776362060546877,-2.5295910835266113,-0.06123919412493706,-0.021227551624178886
1751620547897185800,22.795185791015626,-2.0127995014190674,-0.02825249545276165,-0.012675444595515728
1751620547916009500,22.814009521484376,-1.4776818752288818,-0.011148282326757908,-0.006566796451807022
1751620547934833200,22.832833251953126,-0.7238747477531433,-0.049021899700164795,-0.013744457624852657
1751620547953656800,22.85165673828125,-0.06780599057674408,-0.0013744457392022014,0.0032070400193333626
1751620547972480300,22.870480224609373,-0.000610864779446274,0.008399390615522861,0.006872228812426329
1751620547991304000,22.889303955078127,-0.000610864779446274,0.014508038759231567,0.006872228812426329
1751620548010127600,22.908127685546877,0.015271619893610477,0.018173227086663246,0.008093958720564842
1751620548028951300,22.926951416015626,0.4880809485912323,0.018173227086663246,0.009315688163042068
1751620548047775000,22.94577490234375,1.9089524745941162,0.04505127668380737,0.022754713892936707
1751620548066598700,22.9645986328125,3.719555616378784,0.06933315098285675,0.03741546720266342
1751620548085422000,22.983422119140624,5.3664469718933105,0.16218459606170654,0.0642935186624527
1751620548104245800,23.002245849609373,6.3804826736450195,0.14630211889743805,0.06307178735733032
1751620548123069400,23.0210693359375,6.468447208404541,0.14752385020256042,0.0642935186624527
1751620548141893000,23.03989306640625,4.981602191925049,0.06444623321294785,0.0435241162776947
1751620548160716800,23.058716796875,1.563202977180481,0.05345066636800766,0.026419902220368385
1751620548179540500,23.07754052734375,-1.3726131916046143,0.048563748598098755,0.011759147047996521
