time,seconds_elapsed,z,y,x
1751620525242941400,0.14094140625,-0.0030543238390237093,-0.002901607658714056,-0.001679878099821508
1751620525280588500,0.178588623046875,-0.001832594396546483,-0.004123337101191282,-0.004123337101191282
1751620525337059300,0.235059326171875,-0.014049889519810677,-0.002901607658714056,-0.001679878099821508
1751620525374706700,0.272706787109375,-0.001832594396546483,0.0019853105768561363,0.0019853105768561363
1751620525402942000,0.30094189453125,-0.006719512399286032,-0.00045814859913662076,0.0007635809597559273
1751620525421765600,0.319765625,-0.007941242307424545,-0.001679878099821508,-0.00045814859913662076
1751620525440589000,0.338589111328125,-0.001832594396546483,-0.00045814859913662076,-0.00045814859913662076
1751620525459412700,0.357412841796875,0.0054977829568088055,-0.00045814859913662076,-0.00045814859913662076
1751620525478236400,0.376236328125,0.004276053514331579,-0.00045814859913662076,-0.001679878099821508
1751620525497059800,0.395059814453125,0.000610864779446274,-0.00045814859913662076,-0.001679878099821508
1751620525515883500,0.413883544921875,0.001832594396546483,-0.00045814859913662076,-0.00045814859913662076
1751620525534707200,0.432707275390625,0.004276053514331579,0.0007635809597559273,0.0007635809597559273
1751620525553531000,0.45153076171875,0.000610864779446274,-0.00045814859913662076,0.0007635809597559273
1751620525572354300,0.470354248046875,-0.006719512399286032,-0.00045814859913662076,0.0007635809597559273
1751620525591178000,0.489177978515625,-0.006719512399286032,-0.00045814859913662076,-0.00045814859913662076
1751620525610001700,0.508001708984375,-0.0030543238390237093,-0.00045814859913662076,0.0007635809597559273
1751620525628825000,0.5268251953125,0.000610864779446274,-0.00045814859913662076,-0.00045814859913662076
1751620525647648800,0.545648681640625,-0.000610864779446274,-0.00045814859913662076,-0.00045814859913662076
1751620525666472400,0.564472412109375,-0.0030543238390237093,-0.00045814859913662076,-0.00045814859913662076
1751620525685296000,0.583296142578125,0.000610864779446274,-0.00045814859913662076,-0.00045814859913662076
1751620525704119600,0.60211962890625,0.004276053514331579,0.0007635809597559273,-0.00045814859913662076
1751620525722943200,0.620943115234375,0.0030543238390237093,0.006872228812426329,0.005650499369949102
1751620525741767000,0.639766845703125,-0.000610864779446274,-0.002901607658714056,-0.004123337101191282
1751620525760590600,0.658590576171875,-0.0054977829568088055,-0.00045814859913662076,0.0007635809597559273
1751620525779414000,0.6774140625,-0.001832594396546483,-0.00045814859913662076,0.0007635809597559273
1751620525798237700,0.69623779296875,-0.000610864779446274,0.0007635809597559273,0.0007635809597559273
1751620525817061400,0.715061279296875,-0.006719512399286032,-0.00045814859913662076,0.0007635809597559273
1751620525835885000,0.733885009765625,-0.010384701192378998,-0.001679878099821508,0.0007635809597559273
1751620525854708500,0.75270849609375,-0.009162971749901772,-0.00045814859913662076,0.0007635809597559273
1751620525873532200,0.7715322265625,-0.000610864779446274,-0.00045814859913662076,0.0007635809597559273
1751620525892355800,0.79035595703125,0.001832594396546483,-0.00045814859913662076,-0.00045814859913662076
1751620525911179300,0.80917919921875,-0.000610864779446274,-0.001679878099821508,-0.001679878099821508
1751620525930003000,0.8280029296875,0.001832594396546483,-0.001679878099821508,-0.00045814859913662076
1751620525948826600,0.84682666015625,0.006719512399286032,0.0007635809597559273,0.0007635809597559273
1751620525967650300,0.865650390625,0.0054977829568088055,-0.00045814859913662076,-0.00045814859913662076
1751620525986473700,0.8844736328125,-0.000610864779446274,-0.00045814859913662076,-0.00045814859913662076
1751620526005297400,0.90329736328125,-0.0054977829568088055,-0.00045814859913662076,-0.00045814859913662076
1751620526024121000,0.92212109375,-0.0030543238390237093,0.0007635809597559273,0.0019853105768561363
1751620526042944800,0.94094482421875,-0.0030543238390237093,0.0007635809597559273,0.0019853105768561363
1751620526061768400,0.9597685546875,-0.006719512399286032,0.0007635809597559273,0.0019853105768561363
1751620526080592000,0.978591796875,-0.009162971749901772,-0.00045814859913662076,0.0019853105768561363
1751620526099415600,0.99741552734375,-0.007941242307424545,-0.00045814859913662076,0.0007635809597559273
1751620526118239200,1.0162392578125,-0.004276053514331579,0.0007635809597559273,0.0019853105768561363
1751620526137063000,1.03506298828125,0.001832594396546483,0.0007635809597559273,0.0007635809597559273
1751620526155886300,1.05388623046875,0.006719512399286032,0.0007635809597559273,0.0007635809597559273
1751620526174710000,1.0727099609375,0.006719512399286032,0.0007635809597559273,-0.00045814859913662076
1751620526193533700,1.09153369140625,0.010384701192378998,0.0007635809597559273,-0.00045814859913662076
1751620526212357400,1.110357421875,0.01282816007733345,-0.00045814859913662076,-0.001679878099821508
1751620526231180800,1.129180908203125,0.014049889519810677,-0.00045814859913662076,-0.001679878099821508
1751620526250004500,1.14800439453125,0.010384701192378998,-0.00045814859913662076,-0.001679878099821508
1751620526268828200,1.166828125,0.006719512399286032,-0.00045814859913662076,-0.00045814859913662076
1751620526287651800,1.18565185546875,0.001832594396546483,-0.00045814859913662076,-0.00045814859913662076
1751620526306475300,1.204475341796875,-0.0030543238390237093,0.0007635809597559273,-0.00045814859913662076
1751620526325299000,1.223298828125,-0.007941242307424545,0.0007635809597559273,0.0019853105768561363
1751620526344122600,1.24212255859375,-0.009162971749901772,-0.00045814859913662076,0.0007635809597559273
1751620526362946300,1.2609462890625,-0.007941242307424545,-0.00045814859913662076,0.0007635809597559273
1751620526381769700,1.279769775390625,-0.0054977829568088055,0.0007635809597559273,0.0007635809597559273
1751620526400593400,1.298593505859375,-0.0030543238390237093,-0.00045814859913662076,0.0007635809597559273
1751620526419417000,1.3174169921875,-0.001832594396546483,-0.00045814859913662076,0.0007635809597559273
1751620526438240800,1.33624072265625,0.000610864779446274,-0.00045814859913662076,-0.00045814859913662076
1751620526457064400,1.355064453125,0.0030543238390237093,-0.00045814859913662076,-0.00045814859913662076
1751620526475887900,1.373887939453125,0.004276053514331579,0.0007635809597559273,0.0007635809597559273
1751620526494711600,1.392711669921875,0.004276053514331579,-0.00045814859913662076,-0.00045814859913662076
1751620526513535200,1.41153515625,0.0030543238390237093,-0.00045814859913662076,-0.00045814859913662076
1751620526532359000,1.43035888671875,0.000610864779446274,-0.00045814859913662076,-0.001679878099821508
1751620526551182300,1.449182373046875,-0.000610864779446274,-0.00045814859913662076,-0.00045814859913662076
1751620526570006000,1.468006103515625,-0.000610864779446274,-0.00045814859913662076,-0.00045814859913662076
1751620526588829700,1.48682958984375,-0.000610864779446274,-0.00045814859913662076,-0.00045814859913662076
1751620526607653400,1.5056533203125,-0.000610864779446274,-0.00045814859913662076,-0.00045814859913662076
1751620526626477000,1.52447705078125,0.000610864779446274,-0.00045814859913662076,-0.00045814859913662076
1751620526645300500,1.543300537109375,-0.001832594396546483,0.0007635809597559273,-0.00045814859913662076
1751620526664124200,1.562124267578125,-0.001832594396546483,-0.00045814859913662076,-0.00045814859913662076
1751620526682947800,1.58094775390625,-0.000610864779446274,-0.00045814859913662076,-0.00045814859913662076
1751620526701771500,1.599771484375,0.000610864779446274,0.0007635809597559273,0.0007635809597559273
1751620526720595200,1.61859521484375,-0.000610864779446274,0.0007635809597559273,0.0007635809597559273
1751620526739418600,1.637418701171875,-0.000610864779446274,0.0007635809597559273,0.0007635809597559273
1751620526758242300,1.6562421875,-0.000610864779446274,-0.00045814859913662076,0.0007635809597559273
1751620526777066000,1.67506591796875,-0.000610864779446274,-0.00045814859913662076,0.0007635809597559273
1751620526795889700,1.6938896484375,-0.000610864779446274,-0.00045814859913662076,-0.00045814859913662076
1751620526814713300,1.71271337890625,-0.000610864779446274,-0.001679878099821508,-0.00045814859913662076
1751620526833536800,1.731536865234375,-0.000610864779446274,-0.001679878099821508,-0.001679878099821508
1751620526852360400,1.7503603515625,-0.000610864779446274,-0.00045814859913662076,-0.00045814859913662076
1751620526871184100,1.76918408203125,-0.001832594396546483,-0.00045814859913662076,-0.00045814859913662076
1751620526890007800,1.7880078125,-0.001832594396546483,-0.00045814859913662076,0.0007635809597559273
1751620526908831200,1.806831298828125,-0.000610864779446274,-0.00045814859913662076,0.0007635809597559273
1751620526927655000,1.825655029296875,-0.001832594396546483,0.0007635809597559273,0.0007635809597559273
1751620526946478600,1.844478515625,-0.000610864779446274,-0.00045814859913662076,0.0007635809597559273
1751620526965302300,1.86330224609375,-0.000610864779446274,0.0007635809597559273,0.0007635809597559273
1751620526984126000,1.8821259765625,0.000610864779446274,-0.00045814859913662076,0.0007635809597559273
1751620527002949400,1.900949462890625,0.000610864779446274,-0.00045814859913662076,0.0007635809597559273
1751620527021773000,1.91977294921875,0.001832594396546483,-0.00045814859913662076,-0.00045814859913662076
1751620527040596700,1.9385966796875,0.000610864779446274,-0.001679878099821508,-0.00045814859913662076
1751620527059420400,1.95742041015625,-0.000610864779446274,-0.001679878099821508,-0.001679878099821508
1751620527078243800,1.976243896484375,-0.001832594396546483,-0.00045814859913662076,-0.001679878099821508
1751620527097067500,1.995067626953125,-0.0030543238390237093,-0.00045814859913662076,-0.00045814859913662076
1751620527115891200,2.01389111328125,-0.0030543238390237093,-0.00045814859913662076,-0.00045814859913662076
1751620527134715000,2.03271484375,-0.001832594396546483,0.0007635809597559273,-0.00045814859913662076
1751620527153538600,2.05153857421875,-0.0030543238390237093,0.0007635809597559273,0.0007635809597559273
1751620527172362200,2.0703623046875,-0.001832594396546483,0.0007635809597559273,0.0007635809597559273
1751620527191185700,2.089185546875,-0.000610864779446274,-0.00045814859913662076,0.0007635809597559273
1751620527210009300,2.10800927734375,-0.000610864779446274,-0.00045814859913662076,0.0007635809597559273
1751620527228833000,2.1268330078125,0.000610864779446274,0.0007635809597559273,-0.00045814859913662076
1751620527247656700,2.14565673828125,0.001832594396546483,-0.00045814859913662076,-0.00045814859913662076
1751620527266480400,2.16448046875,0.000610864779446274,-0.00045814859913662076,-0.00045814859913662076
1751620527285303800,2.1833037109375,0.000610864779446274,-0.001679878099821508,-0.00045814859913662076
1751620527304127500,2.20212744140625,-0.000610864779446274,-0.00045814859913662076,-0.00045814859913662076
1751620527322951200,2.220951171875,-0.000610864779446274,-0.00045814859913662076,-0.001679878099821508
1751620527341774800,2.23977490234375,-0.001832594396546483,-0.00045814859913662076,-0.00045814859913662076
1751620527360598300,2.258598388671875,-0.001832594396546483,-0.00045814859913662076,-0.00045814859913662076
1751620527379422000,2.277421875,-0.001832594396546483,0.0007635809597559273,0.0007635809597559273
1751620527398245600,2.29624560546875,-0.001832594396546483,-0.00045814859913662076,0.0007635809597559273
1751620527417069300,2.3150693359375,-0.001832594396546483,0.0007635809597559273,0.0007635809597559273
1751620527435893000,2.33389306640625,-0.001832594396546483,-0.00045814859913662076,0.0007635809597559273
1751620527454716400,2.35271630859375,-0.000610864779446274,0.0007635809597559273,0.0007635809597559273
1751620527473540000,2.3715400390625,-0.000610864779446274,-0.00045814859913662076,0.0007635809597559273
1751620527492363800,2.39036376953125,-0.000610864779446274,-0.001679878099821508,-0.00045814859913662076
1751620527511187500,2.4091875,-0.000610864779446274,-0.001679878099821508,-0.00045814859913662076
1751620527530011100,2.42801123046875,0.000610864779446274,-0.00045814859913662076,-0.00045814859913662076
1751620527548834600,2.44683447265625,0.000610864779446274,-0.00045814859913662076,-0.00045814859913662076
1751620527567658200,2.465658203125,0.000610864779446274,-0.00045814859913662076,-0.001679878099821508
1751620527586482000,2.48448193359375,0.000610864779446274,-0.00045814859913662076,-0.00045814859913662076
1751620527605305600,2.5033056640625,0.000610864779446274,-0.00045814859913662076,-0.00045814859913662076
1751620527624129300,2.52212939453125,-0.000610864779446274,0.0007635809597559273,-0.00045814859913662076
1751620527642952700,2.54095263671875,-0.000610864779446274,0.0007635809597559273,-0.00045814859913662076
1751620527661776400,2.5597763671875,-0.001832594396546483,0.0007635809597559273,0.0007635809597559273
1751620527680600000,2.57860009765625,-0.001832594396546483,0.0007635809597559273,0.0007635809597559273
1751620527699423700,2.597423828125,-0.001832594396546483,-0.00045814859913662076,0.0007635809597559273
1751620527718247400,2.616247314453125,-0.0030543238390237093,-0.00045814859913662076,0.0007635809597559273
1751620527737071000,2.635071044921875,-0.001832594396546483,-0.00045814859913662076,-0.00045814859913662076
1751620527755894500,2.65389453125,-0.000610864779446274,-0.00045814859913662076,-0.00045814859913662076
1751620527774718200,2.67271826171875,0.000610864779446274,-0.001679878099821508,-0.00045814859913662076
1751620527793542000,2.6915419921875,0.001832594396546483,-0.001679878099821508,-0.00045814859913662076
1751620527812365600,2.710365478515625,0.001832594396546483,-0.001679878099821508,-0.00045814859913662076
1751620527831189000,2.72918896484375,0.001832594396546483,-0.00045814859913662076,-0.00045814859913662076
1751620527850012700,2.7480126953125,-0.000610864779446274,-0.00045814859913662076,0.0007635809597559273
1751620527868836400,2.76683642578125,-0.000610864779446274,-0.00045814859913662076,0.0007635809597559273
1751620527887660000,2.785659912109375,-0.001832594396546483,0.0007635809597559273,0.0007635809597559273
1751620527906483700,2.804483642578125,-0.001832594396546483,-0.00045814859913662076,0.0007635809597559273
1751620527925307400,2.823307373046875,-0.001832594396546483,-0.00045814859913662076,0.0007635809597559273
1751620527944130800,2.842130859375,-0.001832594396546483,-0.00045814859913662076,0.0007635809597559273
1751620527962954500,2.86095458984375,-0.001832594396546483,-0.00045814859913662076,-0.00045814859913662076
1751620527981778200,2.879778076171875,-0.000610864779446274,-0.00045814859913662076,-0.00045814859913662076
1751620528000601900,2.898601806640625,-0.000610864779446274,-0.00045814859913662076,-0.00045814859913662076
1751620528019425500,2.917425537109375,-0.000610864779446274,-0.00045814859913662076,-0.00045814859913662076
1751620528038249000,2.9362490234375,-0.000610864779446274,-0.00045814859913662076,-0.00045814859913662076
1751620528057072600,2.95507275390625,-0.000610864779446274,-0.00045814859913662076,-0.00045814859913662076
1751620528075896300,2.973896240234375,-0.000610864779446274,0.0007635809597559273,-0.00045814859913662076
1751620528113543700,3.011543701171875,-0.000610864779446274,0.0007635809597559273,0.0007635809597559273
1751620528132367000,3.0303671875,-0.001832594396546483,0.0007635809597559273,0.0007635809597559273
1751620528151190800,3.049190673828125,-0.001832594396546483,0.0007635809597559273,0.0007635809597559273
1751620528170014500,3.068014404296875,-0.001832594396546483,0.0007635809597559273,0.0007635809597559273
1751620528188838100,3.086838134765625,-0.001832594396546483,-0.00045814859913662076,0.0007635809597559273
1751620528207661800,3.105661865234375,-0.000610864779446274,-0.00045814859913662076,0.0007635809597559273
1751620528226485200,3.1244853515625,-0.000610864779446274,-0.00045814859913662076,-0.00045814859913662076
1751620528245309000,3.143308837890625,-0.000610864779446274,-0.00045814859913662076,-0.00045814859913662076
1751620528264132600,3.162132568359375,-0.000610864779446274,-0.001679878099821508,-0.001679878099821508
1751620528282956300,3.180956298828125,-0.001832594396546483,-0.00045814859913662076,-0.00045814859913662076
1751620528301780000,3.199780029296875,-0.000610864779446274,-0.00045814859913662076,-0.00045814859913662076
1751620528320603400,3.218603271484375,0.000610864779446274,-0.00045814859913662076,0.0007635809597559273
1751620528339427000,3.237427001953125,-0.000610864779446274,-0.00045814859913662076,-0.00045814859913662076
1751620528358250800,3.256250732421875,-0.0030543238390237093,-0.00045814859913662076,0.0007635809597559273
1751620528377074400,3.275074462890625,-0.001832594396546483,0.0007635809597559273,0.0007635809597559273
1751620528395898000,3.293898193359375,-0.000610864779446274,0.0007635809597559273,0.0007635809597559273
1751620528414721800,3.3127216796875,-0.000610864779446274,0.0007635809597559273,0.0007635809597559273
1751620528433545200,3.331545166015625,-0.001832594396546483,0.0007635809597559273,-0.00045814859913662076
1751620528452369000,3.350368896484375,-0.000610864779446274,-0.00045814859913662076,-0.00045814859913662076
1751620528471192600,3.369192626953125,-0.000610864779446274,-0.00045814859913662076,-0.00045814859913662076
1751620528490016300,3.388016357421875,-0.000610864779446274,-0.00045814859913662076,-0.001679878099821508
1751620528508839700,3.406839599609375,-0.000610864779446274,-0.001679878099821508,-0.001679878099821508
1751620528527663400,3.425663330078125,-0.000610864779446274,-0.00045814859913662076,-0.001679878099821508
1751620528546487000,3.444487060546875,-0.000610864779446274,-0.00045814859913662076,-0.00045814859913662076
1751620528565310700,3.463310791015625,-0.001832594396546483,-0.00045814859913662076,-0.00045814859913662076
1751620528584134400,3.482134521484375,-0.000610864779446274,-0.00045814859913662076,0.0007635809597559273
1751620528602958000,3.5009580078125,-0.001832594396546483,0.0007635809597559273,0.0007635809597559273
1751620528621781500,3.519781494140625,-0.000610864779446274,-0.00045814859913662076,0.0007635809597559273
1751620528640605200,3.538605224609375,-0.000610864779446274,0.0007635809597559273,0.0007635809597559273
1751620528659428900,3.557428955078125,-0.001832594396546483,0.0007635809597559273,0.0007635809597559273
1751620528678252500,3.57625244140625,-0.000610864779446274,-0.00045814859913662076,-0.00045814859913662076
1751620528697076000,3.595075927734375,-0.000610864779446274,-0.00045814859913662076,-0.00045814859913662076
1751620528715899600,3.613899658203125,-0.000610864779446274,-0.001679878099821508,-0.001679878099821508
1751620528734723300,3.632723388671875,-0.000610864779446274,-0.00045814859913662076,-0.00045814859913662076
1751620528753547000,3.651547119140625,-0.000610864779446274,-0.001679878099821508,-0.00045814859913662076
1751620528772370700,3.67037060546875,-0.000610864779446274,-0.00045814859913662076,-0.00045814859913662076
1751620528791194400,3.6891943359375,-0.000610864779446274,-0.00045814859913662076,-0.00045814859913662076
1751620528810017800,3.708017822265625,-0.001832594396546483,0.0007635809597559273,-0.00045814859913662076
1751620528828841500,3.726841552734375,-0.000610864779446274,0.0007635809597559273,0.0007635809597559273
1751620528847665200,3.7456650390625,-0.001832594396546483,0.0007635809597559273,0.0007635809597559273
1751620528866488800,3.76448876953125,-0.000610864779446274,0.0007635809597559273,0.0007635809597559273
1751620528885312500,3.7833125,-0.000610864779446274,0.0007635809597559273,0.0007635809597559273
1751620528904136000,3.802135986328125,-0.000610864779446274,-0.00045814859913662076,0.0007635809597559273
1751620528922959600,3.820959716796875,-0.000610864779446274,-0.00045814859913662076,-0.00045814859913662076
1751620528941783300,3.839783203125,0.000610864779446274,-0.00045814859913662076,-0.00045814859913662076
1751620528960607000,3.85860693359375,-0.000610864779446274,-0.001679878099821508,-0.00045814859913662076
1751620528979430700,3.8774306640625,-0.000610864779446274,-0.00045814859913662076,-0.00045814859913662076
1751620528998254300,3.89625439453125,-0.000610864779446274,-0.00045814859913662076,-0.00045814859913662076
1751620529017077800,3.915077880859375,-0.000610864779446274,-0.00045814859913662076,-0.00045814859913662076
1751620529035901400,3.9339013671875,-0.000610864779446274,-0.00045814859913662076,-0.00045814859913662076
1751620529054725000,3.95272509765625,-0.000610864779446274,-0.00045814859913662076,0.0007635809597559273
1751620529073548800,3.971548828125,-0.000610864779446274,0.0007635809597559273,0.0007635809597559273
1751620529092372200,3.990372314453125,-0.000610864779446274,-0.00045814859913662076,0.0019853105768561363
1751620529111196000,4.00919580078125,-0.000610864779446274,0.0007635809597559273,0.0007635809597559273
1751620529130019600,4.02801953125,-0.000610864779446274,0.0007635809597559273,0.0007635809597559273
1751620529148843300,4.04684326171875,-0.000610864779446274,-0.00045814859913662076,0.0007635809597559273
1751620529167667000,4.0656669921875,-0.000610864779446274,-0.00045814859913662076,-0.00045814859913662076
1751620529186490600,4.08449072265625,-0.000610864779446274,-0.00045814859913662076,-0.001679878099821508
1751620529205314000,4.10331396484375,-0.000610864779446274,-0.00045814859913662076,-0.00045814859913662076
1751620529224137700,4.1221376953125,-0.000610864779446274,-0.00045814859913662076,-0.001679878099821508
1751620529242961400,4.14096142578125,-0.000610864779446274,-0.00045814859913662076,-0.00045814859913662076
1751620529261785000,4.15978515625,-0.000610864779446274,-0.00045814859913662076,-0.00045814859913662076
1751620529280608800,4.17860888671875,-0.001832594396546483,0.0007635809597559273,-0.00045814859913662076
1751620529299432200,4.19743212890625,-0.001832594396546483,0.0007635809597559273,0.0007635809597559273
1751620529318255900,4.216255859375,-0.000610864779446274,-0.00045814859913662076,0.0007635809597559273
1751620529337079600,4.23507958984375,-0.000610864779446274,0.0007635809597559273,0.0007635809597559273
1751620529355903200,4.2539033203125,-0.001832594396546483,0.0007635809597559273,0.0007635809597559273
1751620529374726700,4.2727265625,-0.000610864779446274,0.0007635809597559273,0.0007635809597559273
1751620529393550300,4.29155029296875,-0.000610864779446274,-0.00045814859913662076,-0.00045814859913662076
1751620529412374000,4.3103740234375,-0.000610864779446274,-0.00045814859913662076,-0.00045814859913662076
1751620529431197700,4.32919775390625,-0.000610864779446274,-0.00045814859913662076,-0.00045814859913662076
1751620529450021400,4.348021484375,-0.000610864779446274,-0.001679878099821508,-0.00045814859913662076
1751620529468845000,4.366844970703125,-0.000610864779446274,-0.001679878099821508,-0.001679878099821508
1751620529487668500,4.38566845703125,-0.001832594396546483,-0.00045814859913662076,-0.00045814859913662076
1751620529506492200,4.4044921875,-0.000610864779446274,-0.00045814859913662076,-0.00045814859913662076
1751620529525315800,4.42331591796875,0.000610864779446274,-0.00045814859913662076,0.0007635809597559273
1751620529544139500,4.442139404296875,-0.000610864779446274,0.0007635809597559273,0.0007635809597559273
1751620529562963200,4.460963134765625,-0.000610864779446274,-0.00045814859913662076,0.0007635809597559273
1751620529581786600,4.47978662109375,-0.000610864779446274,0.0007635809597559273,0.0007635809597559273
1751620529600610300,4.4986103515625,-0.000610864779446274,-0.00045814859913662076,0.0007635809597559273
1751620529619434000,4.51743408203125,-0.000610864779446274,-0.00045814859913662076,0.0007635809597559273
1751620529638257700,4.536257568359375,-0.000610864779446274,-0.00045814859913662076,-0.00045814859913662076
1751620529657081300,4.555081298828125,-0.000610864779446274,-0.00045814859913662076,-0.00045814859913662076
1751620529675904800,4.57390478515625,-0.000610864779446274,-0.001679878099821508,-0.00045814859913662076
1751620529694728400,4.592728515625,-0.000610864779446274,-0.001679878099821508,-0.00045814859913662076
1751620529713552100,4.61155224609375,-0.001832594396546483,-0.001679878099821508,-0.00045814859913662076
1751620529732375800,4.630375732421875,-0.000610864779446274,-0.00045814859913662076,-0.00045814859913662076
1751620529751199500,4.649199462890625,-0.000610864779446274,-0.00045814859913662076,-0.00045814859913662076
1751620529770023000,4.66802294921875,-0.000610864779446274,-0.00045814859913662076,0.0007635809597559273
1751620529788846600,4.6868466796875,-0.001832594396546483,0.0007635809597559273,0.0007635809597559273
1751620529807670300,4.705670166015625,-0.001832594396546483,0.0007635809597559273,0.0007635809597559273
1751620529826494000,4.724493896484375,-0.000610864779446274,0.0007635809597559273,0.0007635809597559273
1751620529845317400,4.7433173828125,-0.000610864779446274,0.0007635809597559273,0.0007635809597559273
1751620529864141000,4.76214111328125,-0.000610864779446274,-0.00045814859913662076,-0.00045814859913662076
1751620529882964700,4.78096484375,-0.000610864779446274,-0.00045814859913662076,-0.00045814859913662076
1751620529901788400,4.799788330078125,-0.000610864779446274,-0.001679878099821508,-0.00045814859913662076
1751620529920612000,4.818612060546875,-0.001832594396546483,-0.00045814859913662076,-0.00045814859913662076
1751620529939435500,4.837435546875,-0.000610864779446274,-0.001679878099821508,-0.00045814859913662076
1751620529958259200,4.85625927734375,-0.000610864779446274,-0.00045814859913662076,-0.00045814859913662076
1751620529977083000,4.875082763671875,0.000610864779446274,-0.00045814859913662076,-0.00045814859913662076
1751620529995906600,4.893906494140625,-0.000610864779446274,0.0007635809597559273,0.0007635809597559273
1751620530014730200,4.912730224609375,-0.001832594396546483,0.0007635809597559273,0.0007635809597559273
1751620530033553700,4.9315537109375,-0.000610864779446274,-0.00045814859913662076,0.0007635809597559273
1751620530052377300,4.95037744140625,-0.000610864779446274,-0.00045814859913662076,0.0007635809597559273
1751620530071201000,4.969200927734375,-0.000610864779446274,-0.00045814859913662076,0.0007635809597559273
1751620530090024700,4.988024658203125,-0.000610864779446274,-0.00045814859913662076,0.0007635809597559273
1751620530108848400,5.006848388671875,-0.000610864779446274,-0.00045814859913662076,-0.00045814859913662076
1751620530127671800,5.025671875,-0.000610864779446274,-0.00045814859913662076,-0.00045814859913662076
1751620530146495500,5.04449560546875,-0.001832594396546483,-0.001679878099821508,-0.001679878099821508
1751620530165319200,5.063319091796875,-0.000610864779446274,-0.001679878099821508,-0.00045814859913662076
1751620530184142800,5.082142822265625,-0.000610864779446274,-0.001679878099821508,-0.00045814859913662076
1751620530202966500,5.100966552734375,-0.000610864779446274,-0.00045814859913662076,-0.00045814859913662076
1751620530221790000,5.1197900390625,-0.000610864779446274,-0.00045814859913662076,-0.00045814859913662076
1751620530240613600,5.138613525390625,-0.000610864779446274,-0.00045814859913662076,0.0007635809597559273
1751620530259437300,5.157437255859375,-0.000610864779446274,-0.00045814859913662076,0.0007635809597559273
1751620530278261000,5.176260986328125,-0.000610864779446274,0.0007635809597559273,0.0007635809597559273
1751620530297084400,5.19508447265625,-0.000610864779446274,0.0007635809597559273,0.0007635809597559273
1751620530315908000,5.213908203125,-0.000610864779446274,0.0007635809597559273,0.0007635809597559273
1751620530334731800,5.232731689453125,-0.000610864779446274,-0.00045814859913662076,0.0007635809597559273
1751620530353555500,5.251555419921875,-0.001832594396546483,-0.00045814859913662076,-0.00045814859913662076
1751620530372379100,5.270379150390625,-0.000610864779446274,-0.00045814859913662076,-0.00045814859913662076
1751620530391202600,5.28920263671875,-0.000610864779446274,-0.001679878099821508,-0.001679878099821508
1751620530410026200,5.308026123046875,-0.000610864779446274,-0.001679878099821508,-0.00045814859913662076
1751620530428850000,5.326849853515625,-0.000610864779446274,-0.00045814859913662076,-0.001679878099821508
1751620530447673600,5.345673583984375,-0.001832594396546483,-0.00045814859913662076,-0.00045814859913662076
1751620530466497000,5.3644970703125,-0.000610864779446274,-0.00045814859913662076,-0.00045814859913662076
1751620530485320700,5.38332080078125,-0.000610864779446274,-0.00045814859913662076,-0.00045814859913662076
1751620530504144400,5.402144287109375,-0.000610864779446274,-0.00045814859913662076,-0.00045814859913662076
1751620530522968000,5.420968017578125,-0.000610864779446274,-0.00045814859913662076,-0.00045814859913662076
1751620530541791500,5.43979150390625,-0.000610864779446274,-0.001679878099821508,-0.001679878099821508
1751620530560615200,5.458615234375,-0.001832594396546483,-0.002901607658714056,-0.001679878099821508
1751620530579438800,5.47743896484375,-0.0030543238390237093,-0.002901607658714056,-0.002901607658714056
1751620530598262500,5.496262451171875,-0.004276053514331579,-0.004123337101191282,-0.002901607658714056
1751620530617086200,5.515086181640625,-0.006719512399286032,-0.004123337101191282,-0.002901607658714056
1751620530635909600,5.53390966796875,-0.009162971749901772,-0.001679878099821508,-0.00045814859913662076
1751620530654733300,5.5527333984375,-0.006719512399286032,-0.00045814859913662076,0.0007635809597559273
1751620530673557000,5.571556884765625,-0.006719512399286032,0.0007635809597559273,0.0019853105768561363
1751620530692380700,5.590380615234375,-0.0054977829568088055,-0.00045814859913662076,-0.00045814859913662076
1751620530711204000,5.6092041015625,-0.0030543238390237093,0.0007635809597559273,0.0007635809597559273
1751620530730027800,5.62802783203125,0.000610864779446274,-0.00045814859913662076,-0.00045814859913662076
1751620530748851500,5.6468515625,0.0030543238390237093,-0.00045814859913662076,-0.00045814859913662076
1751620530767675100,5.665675048828125,0.000610864779446274,-0.00045814859913662076,-0.00045814859913662076
1751620530786498800,5.684498779296875,0.001832594396546483,-0.00045814859913662076,-0.00045814859913662076
1751620530805322200,5.703322265625,0.001832594396546483,-0.00045814859913662076,-0.00045814859913662076
1751620530824146000,5.72214599609375,0.000610864779446274,-0.00045814859913662076,0.0007635809597559273
1751620530842969600,5.740969482421875,-0.001832594396546483,-0.00045814859913662076,-0.00045814859913662076
1751620530861793300,5.759793212890625,-0.0030543238390237093,-0.001679878099821508,-0.00045814859913662076
1751620530880616700,5.77861669921875,-0.0030543238390237093,-0.00045814859913662076,-0.00045814859913662076
1751620530899440400,5.7974404296875,-0.001832594396546483,-0.00045814859913662076,-0.00045814859913662076
1751620530918264000,5.81626416015625,-0.001832594396546483,-0.00045814859913662076,-0.00045814859913662076
1751620530937087700,5.835087646484375,-0.000610864779446274,-0.00045814859913662076,-0.00045814859913662076
1751620530955911400,5.853911376953125,0.000610864779446274,-0.00045814859913662076,-0.00045814859913662076
1751620530974734800,5.87273486328125,0.000610864779446274,-0.00045814859913662076,-0.00045814859913662076
1751620530993558500,5.89155859375,0.000610864779446274,-0.00045814859913662076,-0.00045814859913662076
1751620531012382200,5.91038232421875,0.000610864779446274,-0.013897174037992954,-0.004123337101191282
1751620531031206000,5.929205810546875,0.000610864779446274,-0.03711003437638283,-0.011300998739898205
1751620531050029300,5.948029296875,-0.001832594396546483,0.009315688163042068,0.0032070400193333626
1751620531068853000,5.96685302734375,-0.0030543238390237093,0.045967575162649155,0.014202605932950974
1751620531087676700,5.9856767578125,-0.0030543238390237093,0.005650499369949102,0.0019853105768561363
1751620531106500400,6.004500244140625,-0.0030543238390237093,-0.00045814859913662076,0.0007635809597559273
1751620531125324000,6.023323974609375,-0.000610864779446274,-0.00045814859913662076,-0.00045814859913662076
1751620531144147500,6.0421474609375,0.000610864779446274,0.0007635809597559273,-0.00045814859913662076
1751620531162971100,6.06097119140625,-0.000610864779446274,-0.00045814859913662076,-0.00045814859913662076
1751620531181794800,6.079794921875,0.001832594396546483,0.0007635809597559273,-0.00045814859913662076
1751620531200618500,6.098618408203125,0.000610864779446274,0.0007635809597559273,-0.00045814859913662076
1751620531219442000,6.11744189453125,-0.000610864779446274,-0.00045814859913662076,-0.00045814859913662076
1751620531238265600,6.136265625,-0.001832594396546483,-0.00045814859913662076,-0.00045814859913662076
1751620531257089300,6.15508935546875,-0.0030543238390237093,-0.00045814859913662076,0.0007635809597559273
1751620531275913000,6.173912841796875,-0.0030543238390237093,-0.00045814859913662076,0.0007635809597559273
1751620531294736400,6.192736328125,-0.0030543238390237093,-0.001679878099821508,-0.00045814859913662076
1751620531313560000,6.21156005859375,-0.001832594396546483,-0.001679878099821508,-0.00045814859913662076
1751620531332383700,6.2303837890625,-0.001832594396546483,-0.00045814859913662076,-0.00045814859913662076
1751620531351207400,6.24920751953125,-0.000610864779446274,-0.001679878099821508,-0.00045814859913662076
1751620531370031000,6.268031005859375,0.001832594396546483,-0.001679878099821508,-0.001679878099821508
1751620531388854500,6.2868544921875,0.001832594396546483,-0.009010255336761475,-0.002901607658714056
1751620531407678200,6.30567822265625,0.001832594396546483,-0.06154462695121765,-0.02000582218170166
1751620531426502000,6.324501953125,-0.001832594396546483,0.028863361105322838,0.009315688163042068
1751620531445325600,6.34332568359375,-0.000610864779446274,0.02519817277789116,0.009315688163042068
1751620531464149000,6.36214892578125,0.03848448023200035,0.0032070400193333626,0.0019853105768561363
1751620531482972700,6.38097265625,0.21930044889450073,0.0032070400193333626,0.0032070400193333626
1751620531501796400,6.39979638671875,0.6114756464958191,0.005650499369949102,0.004428769461810589
1751620531520620000,6.4186201171875,0.9217949509620667,0.0154243353754282,0.008093958720564842
1751620531539443500,6.437443359375,1.1905754804611206,0.02153298258781433,0.009315688163042068
1751620531558267100,6.45626708984375,1.4972295761108398,0.030085090547800064,0.012980876490473747
1751620531577090800,6.4750908203125,1.6829324960708618,0.03130681812763214,0.0154243353754282
1751620531595914500,6.49391455078125,1.4569125175476074,0.02764163166284561,0.012980876490473747
1751620531614738000,6.512738037109375,0.9596685767173767,0.017867794260382652,0.008093958720564842
1751620531633561600,6.5315615234375,0.36835145950317383,0.005650499369949102,0.0032070400193333626
1751620531652385300,6.55038525390625,-0.22296564280986786,-0.03588830679655075,-0.011300998739898205
1751620531671209000,6.569208984375,-0.6957749724388123,0.012980876490473747,0.0007635809597559273
1751620531690032400,6.588032470703125,-1.4581341743469238,-0.02977965772151947,-0.013744457624852657
1751620531708856000,6.60685595703125,-2.3267838954925537,-0.040775224566459656,-0.02000582218170166
1751620531727679700,6.6256796875,-2.8545711040496826,-0.034666575491428375,-0.018631376326084137
1751620531746503400,6.64450341796875,-2.944979190826416,-0.05299251899123192,-0.025961752980947495
1751620531765327000,6.6633271484375,-2.4831652641296387,-0.05299251899123192,-0.023518294095993042
1751620531784150500,6.682150634765625,-1.5754202604293823,-0.04932733252644539,-0.01740964688360691
1751620531802974200,6.70097412109375,-0.6151408553123474,-0.060322895646095276,-0.018631376326084137
1751620531821798000,6.7197978515625,-0.08491020649671555,-0.024892739951610565,-0.007635809946805239
1751620531840621300,6.738621337890625,-0.000610864779446274,0.0032070400193333626,0.0019853105768561363
1751620531859445000,6.757445068359375,0.18875721096992493,0.03497200831770897,0.011759147047996521
1751620531878268700,6.7762685546875,0.8631519079208374,0.06795870512723923,0.017867794260382652
1751620531897092400,6.79509228515625,2.059225082397461,0.05085449293255806,0.01908952370285988
1751620531915915800,6.813915771484375,3.2821764945983887,0.07284562289714813,0.030085090547800064
1751620531934739500,6.832739501953125,4.109287261962891,0.07406735420227051,0.036193739622831345
1751620531953563100,6.851563232421875,4.18503475189209,0.07528908550739288,0.03497200831770897
1751620531972386800,6.87038671875,3.581500291824341,0.07895427197217941,0.03741546720266342
1751620531991210200,6.889210205078125,2.4318525791168213,0.07284562289714813,0.03130681812763214
1751620532010034000,6.908033935546875,0.8924734592437744,0.0435241162776947,0.0154243353754282
1751620532028857600,6.926857666015625,-0.0922405794262886,-0.018784092739224434,-0.005345067009329796
1751620532047681300,6.945681396484375,-0.6371319890022278,-0.10186170041561127,-0.034666575491428375
1751620532066504700,6.964504638671875,-1.9724823236465454,-0.10063996911048889,-0.041844237595796585
1751620532085328400,6.983328369140625,-3.3481497764587402,0.036193739622831345,0.0007635809597559273
1751620532104152000,7.002152099609375,-4.061639785766602,-0.16783510148525238,-0.06627883017063141
1751620532122975700,7.020975830078125,-4.015213966369629,-0.056657709181308746,-0.035735588520765305
1751620532141799200,7.039799072265625,-3.428783893585205,-0.050549060106277466,-0.032070402055978775
1751620532160622800,7.058622802734375,-2.618777275085449,-0.05543597787618637,-0.023518294095993042
1751620532179446500,7.077446533203125,-1.6035200357437134,-0.02977965772151947,-0.013744457624852657
1751620532198270200,7.096270263671875,-0.4453204274177551,-0.006566796451807022,-0.004123337101191282
1751620532217093600,7.11509375,0.021380268037319183,0.01908952370285988,0.004428769461810589
1751620532235917300,7.133917236328125,0.6004800796508789,0.010537417605519295,0.005650499369949102
1751620532254741000,7.152740966796875,1.6413936614990234,0.03252854943275452,0.0154243353754282
1751620532273564700,7.171564697265625,2.6664247512817383,0.052076224237680435,0.023976443335413933
1751620532292388000,7.19038818359375,3.4458882808685303,0.07773254066705704,0.03375028073787689
1751620532311211800,7.209211669921875,3.82828950881958,0.07651081681251526,0.03252854943275452
1751620532330035500,7.228035400390625,3.800189733505249,0.10949750989675522,0.03741546720266342
1751620532348859100,7.246859130859375,3.2174248695373535,0.07895427197217941,0.026419902220368385
1751620532367682600,7.2656826171875,1.9113959074020386,0.03375028073787689,0.014202605932950974
1751620532386506200,7.28450634765625,0.21319180727005005,-0.004123337101191282,0.0007635809597559273
1751620532405330000,7.303329833984375,-0.6835576891899109,-0.06276635825634003,-0.01740964688360691
1751620532424153600,7.322153564453125,-1.8515311479568481,-0.10308343172073364,-0.03817904740571976
1751620532442977000,7.34097705078125,-3.103803873062134,-0.18127411603927612,-0.07360920310020447
1751620532461800700,7.35980078125,-4.070191860198975,-0.08353576064109802,-0.04917461425065994
1751620532480624400,7.378624267578125,-4.604087829589844,-0.03711003437638283,-0.041844237595796585
1751620532499448000,7.397447998046875,-4.342637538909912,0.020311253145337105,-0.016187917441129684
1751620532518271500,7.416271484375,-3.5717263221740723,-0.07254019379615784,-0.03329212963581085
1751620532537095200,7.43509521484375,-2.5747950077056885,-0.1360701322555542,-0.04917461425065994
1751620532555918800,7.4539189453125,-1.3029745817184448,-0.06520981341600418,-0.025961752980947495
1751620532574742300,7.4727421875,0.09346231073141098,0.05451968312263489,0.01908952370285988
1751620532593566000,7.49156591796875,0.8020654320716858,0.039858926087617874,0.014202605932950974
1751620532612389600,7.5103896484375,1.933387041091919,0.055741410702466965,0.01908952370285988
1751620532631213300,7.52921337890625,3.181994676589966,0.06673697382211685,0.030085090547800064
1751620532650037000,7.548037109375,4.136165618896484,0.07406735420227051,0.0386371985077858
1751620532668860400,7.5668603515625,4.48802375793457,0.12904518842697144,0.05329795181751251
1751620532687684000,7.58568408203125,4.213134288787842,0.09117157012224197,0.04230238497257233
1751620532706507800,7.6045078125,3.492313861846924,0.052076224237680435,0.02519817277789116
1751620532725331200,7.623331298828125,2.1520767211914062,0.05818486958742142,0.02519817277789116
1751620532744155000,7.64215478515625,0.19242240488529205,0.005650499369949102,0.0032070400193333626
1751620532762978600,7.660978515625,-0.925460159778595,-0.07742711156606674,-0.025961752980947495
1751620532781802200,7.67980224609375,-2.4233005046844482,-0.06643154472112656,-0.028405211865901947
1751620532800625700,7.698625732421875,-3.970010280609131,-0.07864884287118912,-0.03817904740571976
1751620532819449300,7.717449462890625,-5.162418365478516,-0.1055268943309784,-0.051618073135614395
1751620532838273000,7.73627294921875,-5.60957145690918,-0.060322895646095276,-0.04428769648075104
1751620532857096700,7.7550966796875,-5.054905891418457,-0.11652245372533798,-0.047952886670827866
1751620532875920100,7.773920166015625,-3.576613187789917,-0.0847574844956398,-0.03329212963581085
1751620532894743800,7.792743896484375,-1.7232495546340942,-0.06887500733137131,-0.02107483521103859
1751620532913567500,7.8115673828125,-0.04581485688686371,-0.009010255336761475,-0.00045814859913662076
1751620532932391200,7.83039111328125,0.4819723069667816,0.023976443335413933,0.008093958720564842
1751620532951214600,7.849214599609375,1.5864158868789673,0.012980876490473747,0.008093958720564842
1751620532970038300,7.868038330078125,2.903440237045288,0.0691804364323616,0.02764163166284561
1751620532988862000,7.886862060546875,3.9553494453430176,0.08628465235233307,0.036193739622831345
1751620533007685600,7.905685546875,4.414719581604004,0.09239330142736435,0.04474584385752678
1751620533026509000,7.924509033203125,4.477027893066406,0.15470150113105774,0.05818486958742142
1751620533045332700,7.943332763671875,4.221686363220215,0.0642935186624527,0.036193739622831345
1751620533064156400,7.962156494140625,3.4776532649993896,0.04841103404760361,0.026419902220368385
1751620533082979800,7.980979736328125,2.302349328994751,0.0386371985077858,0.01908952370285988
1751620533101803500,7.999803466796875,0.8985821008682251,0.010537417605519295,0.006872228812426329
1751620533120627200,8.018627197265625,-0.32070401310920715,-0.002901607658714056,-0.001679878099821508
1751620533139451000,8.037450927734374,-1.2944225072860718,-0.09941824525594711,-0.03695731982588768
1751620533158274300,8.0562744140625,-2.7653849124908447,-0.14462223649024963,-0.061391908675432205
1751620533177098000,8.075097900390626,-4.130056858062744,-0.1922696828842163,-0.09682206809520721
1751620533195921700,8.093921630859375,-4.9217376708984375,-0.08842267841100693,-0.07238747924566269
1751620533214745300,8.112745361328125,-5.175857067108154,-0.20448698103427887,-0.12125665694475174
1751620533233569000,8.131569091796875,-4.7739081382751465,-0.19471314549446106,-0.11636973917484283
1751620533252392400,8.150392333984374,-3.6706864833831787,0.1876882016658783,0.026419902220368385
1751620533271216000,8.169216064453124,-2.0360124111175537,0.036193739622831345,-0.001679878099821508
1751620533290039800,8.188039794921876,-0.29626941680908203,-0.005345067009329796,-0.002901607658714056
1751620533308863200,8.20686328125,0.40744680166244507,0.04718930274248123,0.017867794260382652
1751620533327687000,8.22568701171875,1.2932007312774658,0.0435241162776947,0.01908952370285988
1751620533346510600,8.244510498046875,2.4037528038024902,0.036193739622831345,0.020311253145337105
1751620533365334300,8.263334228515625,3.2223117351531982,0.0899498388171196,0.04230238497257233
1751620533384157700,8.28215771484375,3.763537883758545,0.15836669504642487,0.061850059777498245
1751620533402981400,8.3009814453125,4.116617679595947,0.08261945843696594,0.04108065739274025
1751620533421805000,8.31980517578125,4.177704334259033,0.09728021919727325,0.0435241162776947
1751620533440628700,8.338628662109375,4.045757293701172,0.07040216773748398,0.03741546720266342
1751620533459452400,8.357452392578125,3.739103317260742,-0.056657709181308746,-0.004123337101191282
1751620533478275800,8.37627587890625,3.2345290184020996,-0.29733842611312866,-0.07238747924566269
1751620533497099500,8.395099609375,2.3451099395751953,0.2658788859844208,0.1204930767416954
1751620533515923200,8.413923095703124,0.7141009569168091,-0.1519526094198227,-0.04550942778587341
1751620533534746600,8.43274658203125,-0.6627882719039917,-0.2032652497291565,-0.07971785217523575
1751620533553570300,8.4515703125,-1.8490877151489258,-0.2484692484140396,-0.12125665694475174
1751620533572394000,8.47039404296875,-3.0085089206695557,-0.08842267841100693,-0.09071341902017593
1751620533591217700,8.4892177734375,-3.891819477081299,-0.09330959618091583,-0.1078176349401474
1751620533610041300,8.508041259765625,-4.246120929718018,-0.0847574844956398,-0.11026109009981155
1751620533628864800,8.52686474609375,-4.1312785148620605,-0.08353576064109802,-0.11392628401517868
1751620533647688400,8.5456884765625,-3.5778350830078125,-0.050549060106277466,-0.09193515032529831
1751620533666512100,8.56451220703125,-2.629772901535034,-0.0383317656815052,-0.06261363625526428
1751620533685335600,8.58333544921875,-1.5668681859970093,-0.02611446939408779,-0.03817904740571976
1751620533704159200,8.6021591796875,-0.573602020740509,-0.007788525894284248,-0.012522728182375431
1751620533722983000,8.62098291015625,0.1288924664258957,0.009315688163042068,0.006872228812426329
1751620533741806600,8.639806640625,0.767857015132904,0.020311253145337105,0.02153298258781433
1751620533760630300,8.65863037109375,2.0518949031829834,0.05696314200758934,0.05940660089254379
1751620533779453700,8.67745361328125,3.5277440547943115,0.31230461597442627,0.1669187992811203
1751620533798277400,8.69627734375,4.654178619384766,0.08384118974208832,0.0899498388171196
1751620533817101000,8.71510107421875,5.013367176055908,-0.21181736886501312,0.012980876490473747
1751620533835924700,8.7339248046875,4.58331823348999,0.0154243353754282,0.08750637620687485
1751620533854748200,8.752748046875,3.4519968032836914,0.1314886510372162,0.11194097250699997
1751620533873571800,8.77157177734375,1.8832961320877075,0.24755294620990753,0.11804962158203125
1751620533892395500,8.7903955078125,0.17776164412498474,-0.013897174037992954,0.0007635809597559273
1751620533911219200,8.80921923828125,-1.0574069023132324,-0.03711003437638283,-0.02718348242342472
1751620533930043000,8.82804296875,-2.5075998306274414,-0.08842267841100693,-0.06505709886550903
1751620533948866300,8.8468662109375,-3.8185157775878906,-0.2961167097091675,-0.17867794632911682
1751620533967690000,8.86568994140625,-4.754360675811768,-0.09941824525594711,-0.13240493834018707
1751620533986513700,8.884513671875,-5.25893497467041,-0.09941824525594711,-0.13484840095043182
1751620534005337300,8.90333740234375,-5.0585713386535645,-0.0847574844956398,-0.12247838824987411
1751620534024161000,8.9221611328125,-4.181369304656982,-0.06520981341600418,-0.10659590363502502
1751620534042984400,8.940984375,-2.7543892860412598,-0.03588830679655075,-0.06505709886550903
1751620534061808000,8.95980810546875,-0.8826996088027954,0.07162389904260635,0.006872228812426329
1751620534080631800,8.9786318359375,0.5797106623649597,0.1510363221168518,0.061850059777498245
1751620534099455500,8.99745556640625,1.8613049983978271,-0.009010255336761475,0.02764163166284561
1751620534118279200,9.016279052734374,3.3762495517730713,0.141262486577034,0.09850194305181503
1751620534137102600,9.0351025390625,4.661509037017822,-0.0383317656815052,0.055741410702466965
1751620534155926300,9.05392626953125,5.478846073150635,0.0154243353754282,0.09605848789215088
1751620534174750000,9.07275,5.619345188140869,0.28176137804985046,0.19379685819149017
1751620534193573600,9.09157373046875,4.948615550994873,0.6482802629470825,0.26099199056625366
1751620534212397300,9.110397216796875,2.9303183555603027,-0.028557928279042244,0.0019853105768561363
1751620534231220700,9.129220703125,0.08491020649671555,0.09850194305181503,0.03252854943275452
1751620534250044400,9.14804443359375,-1.7342450618743896,-0.20082180202007294,-0.07116574794054031
1751620534268868000,9.1668681640625,-3.511861562728882,-0.3462076187133789,-0.145843967795372
1751620534287691800,9.18569189453125,-5.0585713386535645,-0.4842630624771118,-0.24342961609363556
1751620534306515200,9.20451513671875,-5.952877044677734,-0.11285726726055145,-0.14813470840454102
1751620534325339000,9.2233388671875,-5.852695465087891,-0.10797034949064255,-0.14691297709941864
1751620534344162600,9.24216259765625,-4.786125659942627,-0.08231402933597565,-0.12003492563962936
1751620534362986200,9.260986328125,-3.0940301418304443,-0.027336198836565018,-0.06994401663541794
1751620534381810000,9.279809814453126,-1.0024291276931763,-0.007788525894284248,-0.02000582218170166
1751620534400633600,9.298633544921875,0.49663305282592773,0.06673697382211685,0.03252854943275452
1751620534419457000,9.31745703125,1.6768238544464111,0.055741410702466965,0.05085449293255806
1751620534438280700,9.33628076171875,3.0353870391845703,0.16569706797599792,0.10705405473709106
1751620534457104400,9.3551044921875,4.313316345214844,0.30863943696022034,0.15836669504642487
1751620534475928000,9.373927978515624,5.322464942932129,0.08139773458242416,0.07895427197217941
1751620534494751500,9.39275146484375,5.662105560302734,0.24999640882015228,0.13393209874629974
1751620534513575200,9.4115751953125,5.371334075927734,0.449138343334198,0.162031888961792
1751620534532398800,9.43039892578125,4.572322845458984,0.12904518842697144,0.04718930274248123
1751620534551222500,9.449222412109375,2.8240277767181396,-0.028557928279042244,0.0019853105768561363
1751620534570046200,9.468046142578125,0.017715077847242355,0.02764163166284561,0.010537417605519295
1751620534588870000,9.486869873046874,-2.073885917663574,0.009315688163042068,0.0007635809597559273
1751620534607693300,9.505693359375,-3.6902341842651367,-0.12018764764070511,-0.047952886670827866
1751620534626517000,9.52451708984375,-4.731147766113281,-0.4353938698768616,-0.18234314024448395
1751620534645340700,9.543340576171875,-5.309025764465332,-0.5306887626647949,-0.27519458532333374
1751620534664164400,9.562164306640625,-5.453189849853516,-0.007788525894284248,-0.09315688163042068
1751620534682988000,9.580988037109375,-4.889972686767578,-0.16905683279037476,-0.15439607203006744
1751620534701811700,9.599811767578124,-3.6841254234313965,-0.0896444097161293,-0.10048725455999374
1751620534720635100,9.61863525390625,-2.072664260864258,-0.05299251899123192,-0.061391908675432205
1751620534739458800,9.637458740234376,-0.5332849621772766,-0.018784092739224434,-0.018631376326084137
1751620534758282500,9.656282470703125,0.2889390289783478,0.017867794260382652,0.014202605932950974
1751620534777106200,9.675106201171875,1.278540015220642,0.04841103404760361,0.04230238497257233
1751620534795929900,9.693929931640625,2.864344835281372,0.18890993297100067,0.1156061589717865
1751620534814753300,9.712753173828125,4.455036640167236,0.27809619903564453,0.15836669504642487
1751620534833577000,9.731576904296874,5.57169771194458,0.09239330142736435,0.08750637620687485
1751620534852400600,9.750400634765626,5.886903762817383,0.004428769461810589,0.07284562289714813
1751620534871224300,9.769224365234376,5.2687087059021,-0.125074565410614,0.0435241162776947
1751620534890048000,9.788048095703125,3.4996442794799805,0.1461493968963623,0.12171480804681778
1751620534908871700,9.80687158203125,0.5589412450790405,0.24510949850082397,0.09605848789215088
1751620534927695000,9.825695068359375,-1.397047758102417,0.2328922003507614,0.06795870512723923
1751620534946518800,9.844518798828124,-2.9352052211761475,-0.040775224566459656,-0.02977965772151947
1751620534965342500,9.863342529296874,-4.29254674911499,-0.36453354358673096,-0.1701258420944214
1751620534984166100,9.882166259765626,-5.185631275177002,-0.4243983030319214,-0.231212317943573
1751620535002989800,9.90098974609375,-5.566810607910156,-0.07131846249103546,-0.12247838824987411
1751620535021813500,9.9198134765625,-5.383551120758057,-0.1055268943309784,-0.13713914155960083
1751620535040637200,9.93863720703125,-4.775129795074463,-0.0896444097161293,-0.1285870373249054
1751620535059460600,9.957460693359375,-3.5778350830078125,-0.05299251899123192,-0.08460476994514465
1751620535078284300,9.9762841796875,-1.5399900674819946,0.0899498388171196,0.0032070400193333626
1751620535097108000,9.99510791015625,0.46608981490135193,0.17424917221069336,0.0642935186624527
1751620535115931600,10.013931640625,1.9541563987731934,0.03130681812763214,0.03375028073787689
1751620535134755300,10.03275537109375,3.6413650512695312,0.1302669197320938,0.09239330142736435
1751620535153579000,10.0515791015625,4.999927997589111,0.16081015765666962,0.1253799945116043
1751620535172402400,10.07040234375,5.6792097091674805,-0.04199695214629173,0.052076224237680435
1751620535191226000,10.08922607421875,5.76106595993042,-0.13484840095043182,0.052076224237680435
1751620535210049800,10.1080498046875,5.219839572906494,0.05451968312263489,0.10338886082172394
1751620535228873500,10.12687353515625,4.166708469390869,0.3098611533641815,0.17913609743118286
1751620535247697200,10.145697265625,2.751945734024048,0.20723587274551392,0.10216713696718216
1751620535266520800,10.164520751953125,1.1221586465835571,0.006872228812426329,0.017867794260382652
1751620535285344300,10.18334423828125,-0.185092031955719,0.08872810751199722,0.030085090547800064
1751620535304168000,10.20216796875,-0.7971785664558411,0.005650499369949102,-0.006414080038666725
1751620535322991600,10.22099169921875,-1.796553373336792,-0.3168860971927643,-0.12614357471466064
1751620535341815300,10.239815185546876,-3.1807730197906494,-0.2692386507987976,-0.15057817101478577
1751620535360639000,10.258638916015625,-4.705491542816162,-0.009010255336761475,-0.08338304609060287
1751620535379462700,10.277462646484375,-5.536267280578613,-0.15073087811470032,-0.1383608728647232
1751620535398286000,10.2962861328125,-5.139205455780029,-0.12751802802085876,-0.13591741025447845
1751620535417109800,10.31510986328125,-3.724442481994629,-0.13851359486579895,-0.11636973917484283
1751620535435933400,10.333933349609374,-1.5289945602416992,0.09850194305181503,0.0007635809597559273
1751620535454757000,10.352757080078124,0.6860011219978333,0.2793179154396057,0.10583232343196869
1751620535473580800,10.371580810546876,2.489274024963379,0.06673697382211685,0.049632761627435684
1751620535492404500,10.390404541015625,4.288881778717041,0.09850194305181503,0.08139773458242416
1751620535511228200,10.409228271484375,5.471515655517578,-0.20448698103427887,0.0007635809597559273
1751620535530051800,10.4280517578125,5.945547103881836,0.22434009611606598,0.20357069373130798
1751620535548875300,10.446875244140625,5.481289863586426,0.10949750989675522,0.14248420298099518
1751620535567699000,10.465698974609374,3.8515024185180664,0.11682789027690887,0.1156061589717865
1751620535586522600,10.484522705078126,1.1441497802734375,0.366060733795166,0.14492766559123993
1751620535605346300,10.50334619140625,-0.943786084651947,0.2890917658805847,0.08628465235233307
1751620535624170000,10.522169921875,-2.813032388687134,-0.07498364895582199,-0.03940077871084213
1751620535642993700,10.54099365234375,-4.48191499710083,-0.16416990756988525,-0.07116574794054031
1751620535661817000,10.559817138671875,-5.24671745300293,-0.43172869086265564,-0.1957821547985077
1751620535680640800,10.578640869140624,-5.3578948974609375,-0.2863428592681885,-0.17867794632911682
1751620535699464400,10.59746435546875,-4.8435468673706055,-0.1776089370250702,-0.1383608728647232
1751620535718288100,10.6162880859375,-3.743990182876587,-0.13362666964530945,-0.11392628401517868
1751620535737111800,10.63511181640625,-2.282801628112793,-0.060322895646095276,-0.06750056147575378
1751620535755935500,10.653935546875,-0.5491674542427063,-0.007788525894284248,-0.011300998739898205
1751620535774759200,10.67275927734375,0.5467239618301392,0.014202605932950974,0.0154243353754282
1751620535793582600,10.69158251953125,2.0299036502838135,0.09361502528190613,0.07406735420227051
1751620535812406300,10.71040625,3.8551676273345947,0.14981459081172943,0.1156061589717865
1751620535831230000,10.72922998046875,5.207622051239014,0.31230461597442627,0.17424917221069336
1751620535850053600,10.7480537109375,5.751291751861572,-0.00045814859913662076,0.07040216773748398
1751620535868877300,10.766877197265625,5.394546985626221,0.014202605932950974,0.10094540566205978
1751620535887701000,10.785700927734375,4.061639785766602,0.0948367565870285,0.10461059212684631
1751620535906524700,10.804524658203125,2.0995421409606934,0.44791659712791443,0.18035782873630524
1751620535925348400,10.823348388671874,0.13500112295150757,0.14492766559123993,0.04474584385752678
1751620535944171800,10.842171875,-0.9132428169250488,-0.2179260104894638,-0.0772743970155716
1751620535962995500,10.860995361328126,-2.456287384033203,0.011759147047996521,-0.02107483521103859
1751620535981819100,10.879819091796875,-4.106843948364258,-0.16661337018013,-0.09071341902017593
1751620536000642800,10.898642822265625,-5.316356182098389,-0.47815442085266113,-0.22999058663845062
1751620536019466500,10.917466552734375,-5.899121284484863,-0.08231402933597565,-0.13958260416984558
1751620536038290200,10.936290283203125,-5.670657634735107,-0.15073087811470032,-0.1519526094198227
1751620536057113900,10.95511376953125,-4.580874919891357,-0.02000582218170166,-0.09804379940032959
1751620536075937300,10.973937255859376,-2.66275954246521,0.17791436612606049,0.017867794260382652
1751620536094761000,10.992760986328125,-0.22174391150474548,0.2756527364253998,0.08628465235233307
1751620536113584600,11.011584716796875,1.524107575416565,-0.017562363296747208,0.004428769461810589
1751620536132408300,11.030408203125,3.359145402908325,0.061850059777498245,0.05940660089254379
1751620536151232000,11.04923193359375,4.791012287139893,0.15592323243618011,0.09239330142736435
1751620536170055700,11.0680556640625,5.5338239669799805,0.19013166427612305,0.09972367435693741
1751620536188879400,11.08687939453125,5.520384788513184,-0.5697841048240662,-0.12736530601978302
1751620536207703000,11.105703125,4.638296127319336,0.28298309445381165,0.19013166427612305
1751620536226526500,11.1245263671875,2.984074354171753,0.24633121490478516,0.13759729266166687
1751620536245350100,11.14335009765625,1.1710277795791626,0.2707658112049103,0.10583232343196869
1751620536264173800,11.162173828125,-0.009162971749901772,0.19379685819149017,0.06307178735733032
1751620536282997500,11.18099755859375,-0.5784889459609985,-0.004123337101191282,-0.002901607658714056
1751620536301821200,11.1998212890625,-1.7452406883239746,-0.08109229803085327,-0.035735588520765305
1751620536320644900,11.218644775390626,-3.335932493209839,-0.15073087811470032,-0.06994401663541794
1751620536339468500,11.237468505859376,-4.7739081382751465,-0.22036947309970856,-0.11392628401517868
1751620536358292000,11.2562919921875,-5.714640140533447,-0.15439607203006744,-0.12125665694475174
1751620536377115600,11.27511572265625,-5.907673358917236,-0.06765327602624893,-0.08093958348035812
1751620536395939300,11.293939208984375,-5.0952229499816895,0.04230238497257233,-0.0308486707508564
1751620536414763000,11.312762939453124,-3.1147994995117188,-0.1715002804994583,-0.07483093440532684
1751620536433586700,11.331586669921874,-0.2522871494293213,0.0019853105768561363,-0.00045814859913662076
1751620536452410400,11.350410400390626,1.3567306995391846,0.07895427197217941,0.03375028073787689
1751620536471234000,11.369234130859375,2.8460190296173096,0.1156061589717865,0.06307178735733032
1751620536490057700,11.3880576171875,4.218021392822266,0.1718057245016098,0.07895427197217941
1751620536508881200,11.406881103515625,5.294364929199219,0.19379685819149017,0.08872810751199722
1751620536527704800,11.425704833984375,5.677988052368164,-0.1360701322555542,-0.005345067009329796
1751620536546528500,11.444528564453124,5.223504543304443,-0.040775224566459656,0.039858926087617874
1751620536565352200,11.463352294921876,4.227795124053955,0.5810851454734802,0.21456626057624817
1751620536584175900,11.48217578125,2.875340461730957,-0.17027856409549713,-0.041844237595796585
1751620536602999600,11.50099951171875,0.9779945015907288,0.017867794260382652,0.012980876490473747
1751620536621823200,11.5198232421875,-0.39278605580329895,0.07895427197217941,0.022754713892936707
1751620536640647000,11.53864697265625,-1.0867284536361694,-0.11163553595542908,-0.04062250629067421
1751620536659470600,11.557470703125,-2.4746131896972656,-0.10797034949064255,-0.0565049909055233
1751620536678294000,11.5762939453125,-4.079966068267822,-0.040775224566459656,-0.04550942778587341
1751620536697117700,11.59511767578125,-5.003593444824219,-0.25579962134361267,-0.12492185086011887
1751620536715941400,11.61394140625,-5.180744171142578,-0.17027856409549713,-0.11514800786972046
1751620536734765000,11.63276513671875,-4.578431606292725,-0.07498364895582199,-0.07483093440532684
1751620536753588700,11.651588623046875,-3.138012409210205,-0.11407899856567383,-0.06872228533029556
1751620536772412400,11.670412353515625,-1.0158681869506836,-0.054214250296354294,-0.02977965772151947
1751620536791236000,11.689236083984374,0.6236929297447205,0.1156061589717865,0.045967575162649155
1751620536810059500,11.7080595703125,1.9407174587249756,0.09605848789215088,0.04841103404760361
1751620536828883200,11.72688330078125,3.43977952003479,0.15958842635154724,0.08384118974208832
1751620536847707000,11.745706787109375,4.754360675811768,0.32940882444381714,0.13515383005142212
1751620536866530600,11.764530517578125,5.56558895111084,-0.33276858925819397,-0.07483093440532684
1751620536885354200,11.783354248046875,5.390881538391113,-0.2484692484140396,0.0032070400193333626
1751620536904178000,11.802177978515624,4.087296009063721,0.028863361105322838,0.08017600327730179
1751620536923001600,11.821001708984374,2.1080944538116455,0.11194097250699997,0.08017600327730179
1751620536941825300,11.8398251953125,0.07635809481143951,0.061850059777498245,0.026419902220368385
1751620536960649000,11.85864892578125,-0.6982184648513794,0.13759729266166687,0.036193739622831345
1751620536979472400,11.877472412109375,-1.8222095966339111,0.0850629210472107,0.010537417605519295
1751620536998296000,11.896296142578125,-3.3261587619781494,0.03375028073787689,-0.018631376326084137
1751620537017119700,11.91511962890625,-4.557662010192871,0.039858926087617874,-0.016187917441129684
1751620537035943400,11.933943359375,-5.152644634246826,-0.3584249019622803,-0.168904110789299
1751620537054767000,11.95276708984375,-5.257713317871094,-0.18127411603927612,-0.11636973917484283
1751620537073590800,11.9715908203125,-4.809338569641113,-0.2594648003578186,-0.15057817101478577
1751620537092414500,11.99041455078125,-3.6621344089508057,-0.14462223649024963,-0.11026109009981155
1751620537111238100,12.009238037109375,-1.7501275539398193,-0.02977965772151947,-0.041844237595796585
1751620537130061600,12.0280615234375,0.24495677649974823,0.16569706797599792,0.05940660089254379
1751620537148885200,12.04688525390625,1.2614357471466064,0.10949750989675522,0.052076224237680435
1751620537167709000,12.065708984375,2.6004514694213867,0.023976443335413933,0.0435241162776947
1751620537186532600,12.08453271484375,4.262003421783447,-0.004123337101191282,0.055741410702466965
1751620537205356300,12.103356201171875,5.666992664337158,-0.028557928279042244,0.07528908550739288
1751620537224180000,12.122179931640625,6.243649005889893,0.13759729266166687,0.17547090351581573
1751620537243003600,12.141003662109375,5.487398147583008,0.10216713696718216,0.13759729266166687
1751620537261827300,12.159827392578125,3.6951210498809814,0.1363755613565445,0.11438442766666412
1751620537280651000,12.178651123046874,1.582750678062439,0.5432115197181702,0.20601414144039154
1751620537299474400,12.197474365234376,0.031154103577136993,-0.14340050518512726,-0.04917461425065994
1751620537318298000,12.216298095703126,-0.5687150955200195,-0.024892739951610565,-0.014966187067329884
1751620537337121800,12.235121826171875,-1.8710788488388062,0.005650499369949102,-0.01740964688360691
1751620537355945500,12.253945556640625,-3.598604440689087,-0.07376192510128021,-0.05894844979047775
1751620537374769200,12.27276904296875,-4.811781883239746,-0.20082180202007294,-0.12370011955499649
1751620537393592800,12.2915927734375,-5.454411506652832,-0.08231402933597565,-0.09804379940032959
1751620537412416500,12.31041650390625,-5.541154384613037,-0.23991714417934418,-0.14462223649024963
1751620537431240000,12.329239990234376,-4.80078649520874,-0.19104796648025513,-0.13240493834018707
1751620537450064000,12.34806396484375,-3.3628106117248535,-0.04321868345141411,-0.06750056147575378
1751620537468887300,12.36688720703125,-1.4520255327224731,0.009315688163042068,-0.02107483521103859
1751620537487711000,12.3857109375,0.28405213356018066,0.162031888961792,0.05818486958742142
1751620537506534700,12.40453466796875,1.3151918649673462,0.052076224237680435,0.030085090547800064
1751620537525358300,12.4233583984375,2.836245059967041,-0.07742711156606674,0.0154243353754282
1751620537544182000,12.44218212890625,4.243677616119385,-0.060322895646095276,0.04718930274248123
1751620537563005700,12.461005615234376,5.216174125671387,0.25121814012527466,0.16081015765666962
1751620537581829400,12.479829345703125,5.447081089019775,0.14004075527191162,0.11927134543657303
1751620537600652800,12.49865283203125,4.817890644073486,0.06673697382211685,0.08384118974208832
1751620537619476500,12.5174765625,3.389688730239868,0.11927134543657303,0.08628465235233307
1751620537638300200,12.536300048828124,1.3457350730895996,0.18280129134655,0.07406735420227051
1751620537657123800,12.555123779296874,-0.2571740746498108,0.29886558651924133,0.09605848789215088
1751620537675947500,12.573947509765626,-1.202792763710022,-0.1360701322555542,-0.047952886670827866
1751620537694771200,12.592771240234375,-2.4037528038024902,-0.12751802802085876,-0.05283980444073677
1751620537713595000,12.611594970703125,-3.615708589553833,-0.18371757864952087,-0.09193515032529831
1751620537732418600,12.63041845703125,-4.694495677947998,-0.12996147572994232,-0.09315688163042068
1751620537751242200,12.6492421875,-5.2906999588012695,-0.060322895646095276,-0.06994401663541794
1751620537770065700,12.668065673828124,-5.191739559173584,-0.08109229803085327,-0.06994401663541794
1751620537788889300,12.686889404296876,-4.232682228088379,-0.16294817626476288,-0.09193515032529831
1751620537807713000,12.705713134765626,-2.375653028488159,-0.1360701322555542,-0.06750056147575378
1751620537826536700,12.72453662109375,0.02626718580722809,0.08384118974208832,0.028863361105322838
1751620537845360400,12.7433603515625,1.5766420364379883,-0.001679878099821508,0.014202605932950974
1751620537864184000,12.76218408203125,3.2223117351531982,0.11438442766666412,0.07773254066705704
1751620537883007700,12.7810078125,4.64318323135376,-0.08109229803085327,0.02764163166284561
1751620537901831400,12.79983154296875,5.502058982849121,-0.05177079141139984,0.05940660089254379
1751620537920655000,12.818655029296876,5.792830467224121,0.08017600327730179,0.12171480804681778
1751620537939478500,12.837478515625,5.061014652252197,-0.056657709181308746,0.0691804364323616
1751620537958302200,12.85630224609375,3.138012409210205,0.14981459081172943,0.10827577859163284
1751620537977126000,12.8751259765625,0.6737838387489319,0.45646870136260986,0.16447533667087555
1751620537995949600,12.893949462890625,-0.66645348072052,0.09728021919727325,0.028863361105322838
1751620538014773200,12.912773193359374,-2.003025531768799,-0.13362666964530945,-0.05406153202056885
1751620538033597000,12.931596923828126,-3.4238970279693604,-0.18982623517513275,-0.09315688163042068
1751620538052420600,12.950420654296876,-4.6957173347473145,-0.3119991719722748,-0.15668681263923645
1751620538071244300,12.969244384765625,-5.591245174407959,-0.1824958473443985,-0.14813470840454102
1751620538090068000,12.98806787109375,-5.816043376922607,-0.044440411031246185,-0.09682206809520721
1751620538108891400,13.006891357421875,-5.146535873413086,-0.16783510148525238,-0.12003492563962936
1751620538127715000,13.025715087890624,-3.5497353076934814,-0.2790125012397766,-0.145843967795372
1751620538146538800,13.044538818359374,-1.0036507844924927,0.011759147047996521,-0.010079269297420979
1751620538165362400,13.063362548828126,1.3261874914169312,0.01908952370285988,0.03252854943275452
1751620538184186000,13.08218603515625,3.012174129486084,0.08750637620687485,0.0850629210472107
1751620538203009800,13.101009765625,4.608974933624268,0.19624030590057373,0.14737112820148468
1751620538221833500,13.11983349609375,5.677988052368164,0.17424917221069336,0.14370593428611755
1751620538240657200,13.1386572265625,6.021294116973877,0.49800750613212585,0.23777911067008972
1751620538259480800,13.157480712890624,5.657218933105469,0.03741546720266342,0.0386371985077858
1751620538278304300,13.17630419921875,4.309650897979736,-0.13729186356067657,0.0007635809597559273
1751620538297128000,13.1951279296875,1.8881829977035522,0.23655737936496735,0.10216713696718216
1751620538315951600,13.21395166015625,-0.33658650517463684,0.2084576040506363,0.0691804364323616
1751620538334775300,13.232775390625,-1.620624303817749,-0.07742711156606674,-0.032070402055978775
1751620538353599000,13.251598876953125,-3.4629924297332764,-0.14217877388000488,-0.06994401663541794
1751620538372422700,13.270422607421875,-5.076897144317627,-0.23258677124977112,-0.11392628401517868
1751620538391246300,13.289246337890624,-5.610793113708496,-0.15806126594543457,-0.10903936624526978
1751620538410070000,13.308070068359376,-5.276039123535156,-0.27656903862953186,-0.14813470840454102
1751620538428893400,13.3268935546875,-4.462367057800293,-0.05299251899123192,-0.08093958348035812
1751620538447717000,13.345717041015625,-3.1392340660095215,-0.09819651395082474,-0.06994401663541794
1751620538466540800,13.364540771484375,-1.1172716617584229,-0.28756460547447205,-0.1078176349401474
1751620538485364500,13.383364501953125,0.44409868121147156,0.0386371985077858,0.022754713892936707
1751620538504188200,13.402188232421874,1.4581341743469238,0.0154243353754282,0.030085090547800064
1751620538523011800,13.42101171875,2.8790056705474854,0.07773254066705704,0.07773254066705704
1751620538541835500,13.43983544921875,4.46969747543335,0.07895427197217941,0.1156061589717865
1751620538560659200,13.4586591796875,6.0200724601745605,0.14004075527191162,0.1510363221168518
1751620538579483000,13.47748291015625,7.139176845550537,0.14004075527191162,0.18524473905563354
1751620538598306300,13.496306396484375,7.032886028289795,0.10705405473709106,0.15592323243618011
1751620538617130000,13.5151298828125,5.21495246887207,0.09850194305181503,0.13515383005142212
1751620538635953700,13.53395361328125,2.260810613632202,0.05818486958742142,0.06307178735733032
1751620538654777300,13.55277734375,-0.7837395071983337,0.010537417605519295,-0.005345067009329796
1751620538673601000,13.57160107421875,-3.1673338413238525,0.09728021919727325,-0.01740964688360691
1751620538701836500,13.59983642578125,-5.904007911682129,0.09972367435693741,-0.014966187067329884
1751620538720660200,13.61866015625,-6.252201080322266,-0.39629852771759033,-0.19822561740875244
1751620538739484000,13.63748388671875,-5.886903762817383,-0.26190826296806335,-0.16539163887500763
1751620538758307300,13.656307373046875,-5.197848320007324,-0.1776089370250702,-0.14217877388000488
1751620538777131000,13.675131103515625,-4.28643798828125,-0.06887500733137131,-0.09193515032529831
1751620538795954700,13.69395458984375,-2.8240277767181396,-0.21548254787921906,-0.11881320178508759
1751620538814778400,13.7127783203125,-0.48441576957702637,-0.0102319847792387,-0.010079269297420979
1751620538833602000,13.73160205078125,0.9657772183418274,0.02153298258781433,0.02519817277789116
1751620538852425700,13.75042578125,2.3255622386932373,0.05451968312263489,0.06307178735733032
1751620538871249400,13.76924951171875,3.6780169010162354,0.12904518842697144,0.10949750989675522
1751620538890073000,13.788072998046875,4.793456077575684,0.20967933535575867,0.14737112820148468
1751620538908896800,13.806896728515625,5.500837326049805,0.10583232343196869,0.10949750989675522
1751620538927720200,13.82572021484375,5.4580769538879395,0.011759147047996521,0.11438442766666412
1751620538946543900,13.8445439453125,4.133721828460693,0.09605848789215088,0.10949750989675522
1751620538965367600,13.863367431640626,1.5118902921676636,0.05696314200758934,0.049632761627435684
1751620538984191200,13.882191162109375,-0.565049946308136,0.09728021919727325,0.02519817277789116
1751620539003015000,13.901014892578125,-2.0909900665283203,0.3623955249786377,0.09850194305181503
1751620539021838600,13.919838623046875,-3.9663450717926025,0.15225805342197418,0.02764163166284561
1751620539040662300,13.938662353515625,-5.342012405395508,-0.21181736886501312,-0.11148282140493393
1751620539059486000,13.95748583984375,-5.741518020629883,-0.20693044364452362,-0.10170898586511612
1751620539078309600,13.9763095703125,-5.401877403259277,-0.31444263458251953,-0.16035200655460358
1751620539097133000,13.995133056640626,-4.7372565269470215,-0.034666575491428375,-0.06383536756038666
1751620539115956700,14.013956787109375,-3.7036731243133545,0.045967575162649155,-0.018631376326084137
1751620539134780400,14.032780517578125,-1.8869613409042358,-0.1311832070350647,-0.05894844979047775
1751620539153604000,14.05160400390625,0.4575377106666565,-0.12140937149524689,-0.0308486707508564
1751620539172427800,14.070427734375,1.9211697578430176,-0.02977965772151947,0.01908952370285988
1751620539191251500,14.08925146484375,3.5020878314971924,0.05451968312263489,0.0691804364323616
1751620539210075100,14.1080751953125,4.855763912200928,0.12293653935194016,0.10583232343196869
1751620539228898800,14.12689892578125,5.684096813201904,0.05940660089254379,0.09239330142736435
1751620539247722500,14.145722412109375,5.674323081970215,-0.07742711156606674,0.07651081681251526
1751620539266546000,14.1645458984375,4.883863925933838,0.0899498388171196,0.1314886510372162
1751620539285369600,14.18336962890625,3.665799617767334,0.07284562289714813,0.08872810751199722
1751620539304193300,14.202193359375,2.2388193607330322,0.03252854943275452,0.04841103404760361
1751620539323017000,14.221016845703126,0.20219624042510986,0.0386371985077858,0.01908952370285988
1751620539341840600,14.239840576171876,-1.425147533416748,0.14004075527191162,0.02519817277789116
1751620539360664300,14.258664306640625,-3.411679744720459,0.4430296719074249,0.11438442766666412
1751620539379488000,14.277488037109375,-4.93395471572876,-0.23014330863952637,-0.08582650125026703
1751620539398311700,14.296311767578125,-5.554593563079834,-0.08842267841100693,-0.061391908675432205
1751620539417135400,14.31513525390625,-5.39210319519043,-0.2130390852689743,-0.09804379940032959
1751620539435958800,14.333958740234374,-4.6492919921875,-0.07620538026094437,-0.057726722210645676
1751620539454782500,14.352782470703126,-3.263850450515747,-0.15073087811470032,-0.07116574794054031
1751620539473606100,14.371606201171875,-1.4715732336044312,-0.1568395346403122,-0.06383536756038666
1751620539492429800,14.390429931640625,0.2156352698802948,-0.07131846249103546,-0.018631376326084137
1751620539511253500,14.40925341796875,1.063515543937683,0.05451968312263489,0.03252854943275452
1751620539530077200,14.4280771484375,2.252258539199829,0.09728021919727325,0.05818486958742142
1751620539548900900,14.44690087890625,3.60715651512146,0.17424917221069336,0.0948367565870285
1751620539567724500,14.465724609375,4.892416000366211,0.26221370697021484,0.11194097250699997
1751620539586548200,14.48454833984375,5.677988052368164,0.12293653935194016,0.06062832847237587
1751620539605371600,14.50337158203125,5.469072341918945,-0.18982623517513275,-0.013744457624852657
1751620539624195300,14.5221953125,4.379289627075195,-0.20693044364452362,-0.005345067009329796
1751620539643019000,14.54101904296875,2.57112979888916,0.04230238497257233,0.06062832847237587
1751620539661842700,14.5598427734375,-0.13988803327083588,0.017867794260382652,0.005650499369949102
1751620539680666400,14.578666259765624,-2.393979072570801,0.061850059777498245,-0.01740964688360691
1751620539699490000,14.597489990234376,-4.426937103271484,0.5041161775588989,0.11927134543657303
1751620539718313700,14.616313720703126,-5.299252033233643,-0.2240346521139145,-0.08093958348035812
1751620539737137400,14.635137451171875,-5.037801742553711,-0.1055268943309784,-0.05039634555578232
1751620539755960800,14.6539609375,-4.4134979248046875,-0.15317434072494507,-0.06872228533029556
1751620539774784500,14.672784423828125,-3.6584692001342773,-0.06520981341600418,-0.04062250629067421
1751620539793608200,14.691608154296874,-2.6761984825134277,-0.1360701322555542,-0.06261363625526428
1751620539812432000,14.710431884765624,-1.4373648166656494,-0.06154462695121765,-0.02977965772151947
1751620539831255600,14.729255615234376,-0.23029601573944092,0.13515383005142212,0.04108065739274025
1751620539850079200,14.748079345703125,0.5247328281402588,0.08628465235233307,0.030085090547800064
1751620539868903000,14.76690283203125,1.5607595443725586,-0.054214250296354294,-0.007635809946805239
1751620539887726600,14.7857265625,3.045161008834839,-0.024892739951610565,0.0154243353754282
1751620539906550300,14.80455029296875,4.417163372039795,-0.3779725730419159,-0.08582650125026703
1751620539925373700,14.823373779296874,5.180744171142578,0.10216713696718216,0.14004075527191162
1751620539944197400,14.842197265625,4.769021511077881,0.1302669197320938,0.141262486577034
1751620539963021000,14.86102099609375,3.177107810974121,0.07040216773748398,0.08017600327730179
1751620539981844700,14.8798447265625,0.9560033679008484,0.12904518842697144,0.06307178735733032
1751620540000668400,14.89866845703125,-0.6933315396308899,0.0154243353754282,-0.004123337101191282
1751620540019492000,14.9174921875,-1.6426154375076294,0.1107192412018776,0.0154243353754282
1751620540038315800,14.936315673828124,-2.610225200653076,0.29397866129875183,0.07284562289714813
1751620540057139500,14.955139404296874,-3.646251916885376,0.017867794260382652,-0.011300998739898205
1751620540075963100,14.973963134765626,-4.957167625427246,-0.31810784339904785,-0.12980876863002777
1751620540094786600,14.99278662109375,-5.860025882720947,-0.01511890348047018,-0.04673115536570549
1751620540113610200,15.0116103515625,-5.550928115844727,-0.16783510148525238,-0.07849612087011337
1751620540132434000,15.030433837890625,-3.9687883853912354,-0.11652245372533798,-0.05894844979047775
1751620540151257600,15.049257568359375,-1.7415754795074463,0.028863361105322838,-0.00045814859913662076
1751620540170081300,15.068081298828124,0.23396120965480804,0.07406735420227051,0.02519817277789116
1751620540188905000,15.086905029296876,1.4324779510498047,0.0019853105768561363,0.006872228812426329
1751620540207728600,15.105728759765626,2.9498660564422607,-0.040775224566459656,0.0032070400193333626
1751620540226552000,15.124552001953125,4.521010398864746,0.04474584385752678,0.04474584385752678
1751620540245376000,15.1433759765625,5.759843826293945,0.2854265570640564,0.1302669197320938
1751620540264199400,15.162199462890625,6.37070894241333,-0.23991714417934418,-0.03817904740571976
1751620540283023000,15.181023193359374,6.147132396697998,-0.22769984602928162,0.022754713892936707
1751620540301846800,15.1998466796875,4.9131855964660645,0.5285507440567017,0.23044873774051666
1751620540320670500,15.21867041015625,2.8069236278533936,0.10583232343196869,0.05940660089254379
1751620540339494100,15.237494140625,0.5210676789283752,0.1669187992811203,0.061850059777498245
1751620540358317800,15.25631787109375,-0.7531962990760803,0.05085449293255806,0.012980876490473747
1751620540377141500,15.2751416015625,-1.7831143140792847,-0.2228129357099533,-0.08338304609060287
1751620540395965000,15.29396484375,-3.0524911880493164,-0.19960007071495056,-0.09437860548496246
1751620540414788600,15.31278857421875,-4.5136799812316895,-0.04321868345141411,-0.0565049909055233
1751620540433612300,15.3316123046875,-5.798939228057861,0.08261945843696594,-0.011300998739898205
1751620540452436000,15.35043603515625,-6.15934944152832,-0.3828594982624054,-0.16539163887500763
1751620540471259600,15.369259765625,-5.390881538391113,-0.028557928279042244,-0.0565049909055233
1751620540490083300,15.388083251953125,-3.6205954551696777,-0.08597921580076218,-0.0565049909055233
1751620540508907000,15.406906982421875,-1.1087195873260498,-0.09453132748603821,-0.04062250629067421
1751620540527730700,15.425730712890624,0.4770853817462921,0.0642935186624527,0.02519817277789116
1751620540546554400,15.444554443359374,1.2455532550811768,0.11927134543657303,0.04841103404760361
1751620540565377800,15.463377685546876,2.3622140884399414,0.05940660089254379,0.03497200831770897
1751620540584201500,15.482201416015625,3.539961338043213,0.10827577859163284,0.05818486958742142
1751620540603025200,15.501025146484375,4.7433648109436035,0.16325360536575317,0.06673697382211685
1751620540621848800,15.519848876953125,5.6792097091674805,0.12660172581672668,0.055741410702466965
1751620540640672500,15.538672607421875,5.842921733856201,-0.228921577334404,-0.028405211865901947
1751620540659496200,15.55749609375,5.25893497467041,-0.25091269612312317,-0.006414080038666725
1751620540678319900,15.57631982421875,3.9211409091949463,0.17058399319648743,0.12904518842697144
1751620540697143600,15.5951435546875,1.3359612226486206,0.04474584385752678,0.039858926087617874
1751620540715967000,15.613967041015625,-1.360395908355713,0.263435423374176,0.07284562289714813
1751620540734790700,15.632790771484375,-3.856389284133911,0.3061959743499756,0.07406735420227051
1751620540753614300,15.6516142578125,-5.756178855895996,-0.18127411603927612,-0.07116574794054031
1751620540772438000,15.67043798828125,-6.384147644042969,-0.12263110280036926,-0.06017018109560013
1751620540791261700,15.68926171875,-5.811156749725342,-0.29856017231941223,-0.11881320178508759
1751620540810085400,15.70808544921875,-4.402502536773682,-0.09575305134057999,-0.06383536756038666
1751620540828909000,15.726908935546875,-2.428187608718872,-0.10430516302585602,-0.05039634555578232
1751620540847732500,15.745732421875,-0.3390299379825592,-0.031001387163996696,-0.012522728182375431
1751620540866556400,15.764556396484375,0.5320632457733154,0.1107192412018776,0.0386371985077858
1751620540885379800,15.7833798828125,1.2345577478408813,0.12415826320648193,0.04474584385752678
1751620540904203500,15.80220361328125,2.3536620140075684,0.0642935186624527,0.03130681812763214
1751620540923027200,15.821027099609376,3.783085584640503,0.14004075527191162,0.052076224237680435
1751620540941851000,15.839850830078126,5.162418365478516,0.11194097250699997,0.045967575162649155
1751620540960674600,15.858674560546875,5.697535991668701,-0.016340631991624832,0.01908952370285988
1751620540979498200,15.877498291015625,5.056127548217773,-0.43661558628082275,-0.09437860548496246
1751620540998322000,15.896322021484375,3.715890407562256,0.7179188132286072,0.2842048406600952
1751620541017145300,15.915145263671874,1.6426154375076294,-0.03222311660647392,-0.006414080038666725
1751620541035969000,15.933968994140624,-0.5039634704589844,-0.012675444595515728,-0.004123337101191282
1751620541054792700,15.952792724609376,-2.123976945877075,-0.08231402933597565,-0.02977965772151947
1751620541073616400,15.971616455078125,-3.869828462600708,-0.002901607658714056,-0.013744457624852657
1751620541092440000,15.990440185546875,-5.437307357788086,-0.2240346521139145,-0.08460476994514465
1751620541111263700,16.009263671875,-6.462338447570801,-0.17394374310970306,-0.07483093440532684
1751620541130087400,16.02808740234375,-6.848404884338379,-0.13729186356067657,-0.07360920310020447
1751620541148911000,16.0469111328125,-6.205775260925293,-0.18371757864952087,-0.07483093440532684
1751620541167734500,16.065734619140624,-4.165486812591553,-0.1568395346403122,-0.06872228533029556
1751620541186558200,16.08455810546875,-1.202792763710022,0.09117157012224197,0.023976443335413933
1751620541205382000,16.1033818359375,0.5467239618301392,0.0386371985077858,0.011759147047996521
1751620541224205600,16.12220556640625,1.6633847951889038,0.045967575162649155,0.017867794260382652
1751620541243029200,16.141029296875,3.1697773933410645,0.020311253145337105,0.016646064817905426
1751620541261853000,16.15985302734375,4.512458324432373,0.07162389904260635,0.04230238497257233
1751620541280676600,16.178676513671874,5.431198596954346,-0.07009673118591309,0.004428769461810589
1751620541299500000,16.1975,5.954099178314209,-0.3205513060092926,-0.04917461425065994
1751620541318323700,16.21632373046875,5.794052600860596,0.05085449293255806,0.1302669197320938
1751620541337147400,16.2351474609375,4.9302897453308105,0.0899498388171196,0.12660172581672668
1751620541355971000,16.25397119140625,3.1392340660095215,0.06795870512723923,0.08384118974208832
1751620541374794800,16.272794677734375,0.7568614482879639,0.08628465235233307,0.045967575162649155
1751620541393618400,16.291618408203124,-0.6175842881202698,0.40637779235839844,0.12782345712184906
1751620541412442000,16.310442138671874,-1.4581341743469238,0.07162389904260635,0.012980876490473747
1751620541431265800,16.329265869140624,-2.5222606658935547,-0.050549060106277466,-0.0308486707508564
1751620541450089500,16.34808935546875,-3.350593328475952,0.049632761627435684,-0.001679878099821508
1751620541468913000,16.366912841796875,-3.7879724502563477,-0.02367101050913334,-0.023518294095993042
1751620541487736600,16.385736572265625,-3.928471326828003,-0.13729186356067657,-0.0565049909055233
1751620541506560300,16.404560302734374,-3.6670212745666504,-0.20204351842403412,-0.0821613147854805
1751620541525384000,16.423384033203124,-3.0671520233154297,-0.005345067009329796,-0.01740964688360691
1751620541544207600,16.44220751953125,-2.230267286300659,-0.004123337101191282,-0.012522728182375431
1751620541563031300,16.46103125,-0.9608902931213379,0.016646064817905426,-0.00045814859913662076
1751620541581855000,16.47985498046875,0.2156352698802948,0.020311253145337105,0.006872228812426329
1751620541600678700,16.4986787109375,0.988990068435669,0.006872228812426329,0.008093958720564842
1751620541619502000,16.517502197265625,2.028681993484497,-0.040775224566459656,-0.00045814859913662076
1751620541638325800,16.53632568359375,3.4446663856506348,-0.2228129357099533,-0.04917461425065994
1751620541657149400,16.5551494140625,5.062236309051514,-0.32910341024398804,-0.041844237595796585
1751620541675973000,16.57397314453125,6.467225551605225,0.4430296719074249,0.26710063219070435
1751620541694796800,16.592796875,6.53197717666626,0.3819431960582733,0.1876882016658783
1751620541713620500,16.611620361328125,4.716486930847168,-0.5221366882324219,-0.11514800786972046
1751620541732444200,16.630444091796875,1.4385865926742554,0.10583232343196869,0.0691804364323616
1751620541751267600,16.649267578125,-1.3909391164779663,0.04841103404760361,-0.005345067009329796
1751620541770091300,16.66809130859375,-3.372584342956543,0.12415826320648193,-0.010079269297420979
1751620541788915000,16.6869150390625,-4.572322845458984,0.4173733592033386,0.10094540566205978
1751620541807738600,16.705738525390625,-4.689609050750732,-0.19837833940982819,-0.07238747924566269
1751620541826562300,16.724562255859375,-4.115396022796631,-0.07131846249103546,-0.03329212963581085
1751620541845386000,16.743385986328125,-3.459327220916748,-0.16539163887500763,-0.06261363625526428
1751620541864209700,16.762209716796875,-2.9498660564422607,-0.0639880821108818,-0.0308486707508564
1751620541883033300,16.781033447265624,-2.1471896171569824,-0.23625195026397705,-0.08582650125026703
1751620541901856800,16.799856689453126,-1.0097594261169434,-0.06520981341600418,-0.028405211865901947
1751620541920680400,16.818680419921876,-0.09346231073141098,0.06673697382211685,0.020311253145337105
1751620541939504000,16.837504150390625,0.21930044889450073,0.12782345712184906,0.0435241162776947
1751620541958327800,16.856327880859375,0.6371319890022278,0.010537417605519295,0.008093958720564842
1751620541977151500,16.8751513671875,1.377500057220459,-0.005345067009329796,0.005650499369949102
1751620541995975200,16.89397509765625,2.475834846496582,-0.0102319847792387,0.009315688163042068
1751620542014798800,16.912798828125,3.6584692001342773,-0.19960007071495056,-0.04062250629067421
1751620542033622300,16.931622314453126,4.650513648986816,0.22434009611606598,0.12782345712184906
1751620542052446000,16.950446044921875,4.715265274047852,0.3061959743499756,0.13881902396678925
1751620542071269600,16.96926953125,3.570504665374756,-0.2851211428642273,-0.061391908675432205
1751620542090093300,16.98809326171875,1.2174534797668457,-0.16416990756988525,-0.034666575491428375
1751620542108917000,17.0069169921875,-1.0134246349334717,0.13271036744117737,0.036193739622831345
1751620542127740700,17.02574072265625,-3.0695955753326416,0.19013166427612305,0.028863361105322838
1751620542146564400,17.044564453125,-4.736034870147705,0.25610506534576416,0.05451968312263489
1751620542165388000,17.063387939453126,-5.317577838897705,-0.06520981341600418,-0.034666575491428375
1751620542184211500,17.08221142578125,-5.040245532989502,-0.23258677124977112,-0.08460476994514465
1751620542203035100,17.10103515625,-4.538114547729492,-0.09819651395082474,-0.05894844979047775
1751620542221858800,17.11985888671875,-3.911367177963257,-0.14462223649024963,-0.06261363625526428
1751620542240682500,17.1386826171875,-2.9095489978790283,-0.018784092739224434,-0.02000582218170166
1751620542259506200,17.157506103515626,-1.1979057788848877,-0.07620538026094437,-0.0308486707508564
1751620542278329900,17.176329833984376,0.30970844626426697,0.0850629210472107,0.028863361105322838
1751620542297153300,17.1951533203125,1.239444613456726,0.09850194305181503,0.03375028073787689
1751620542315977000,17.21397705078125,2.6419901847839355,0.0899498388171196,0.036193739622831345
1751620542334800600,17.232800537109377,4.249786376953125,0.04108065739274025,0.030085090547800064
1751620542353624300,17.251624267578126,5.3969902992248535,-0.35475972294807434,-0.08093958348035812
1751620542372448000,17.270447998046876,5.583914756774902,-0.24236060678958893,0.004428769461810589
1751620542391271700,17.289271728515626,4.817890644073486,-0.002901607658714056,0.08628465235233307
1751620542410095400,17.308095458984376,3.5472917556762695,0.049632761627435684,0.08261945843696594
1751620542428918800,17.326918701171873,1.8674136400222778,0.02153298258781433,0.039858926087617874
1751620542447742500,17.345742431640623,0.19242240488529205,0.011759147047996521,0.009315688163042068
1751620542466566100,17.364566162109377,-0.5418370366096497,-0.005345067009329796,-0.010079269297420979
1751620542485389800,17.383389892578126,-1.3848304748535156,-0.02977965772151947,-0.03329212963581085
1751620542504213500,17.402213623046876,-2.9767441749572754,-0.05177079141139984,-0.07605266571044922
1751620542523037200,17.421037109375,-4.793456077575684,0.023976443335413933,-0.0772743970155716
1751620542541860900,17.43986083984375,-5.808712959289551,0.314748078584671,0.04108065739274025
1751620542560684500,17.4586845703125,-5.54970645904541,-0.10063996911048889,-0.06994401663541794
1751620542579508000,17.477508056640627,-4.30232048034668,-0.10919208079576492,-0.06627883017063141
1751620542598331600,17.49633154296875,-2.606559991836548,0.10583232343196869,0.017867794260382652
1751620542617155300,17.5151552734375,-0.8888082504272461,0.020311253145337105,-0.00045814859913662076
1751620542635979000,17.53397900390625,0.014049889519810677,0.012980876490473747,0.0032070400193333626
1751620542654802700,17.552802734375,0.004276053514331579,-0.022449281066656113,-0.005345067009329796
1751620542673626400,17.57162646484375,0.006719512399286032,0.0154243353754282,0.004428769461810589
1751620542692450000,17.590449951171873,0.24495677649974823,0.02153298258781433,0.006872228812426329
1751620542711273500,17.6092734375,1.0598503351211548,0.04841103404760361,0.016646064817905426
1751620542730097200,17.62809716796875,2.4636175632476807,0.07773254066705704,0.026419902220368385
1751620542748920800,17.6469208984375,4.031096458435059,0.03497200831770897,0.02764163166284561
1751620542767744500,17.66574462890625,5.291921615600586,-0.002901607658714056,0.02153298258781433
1751620542786568200,17.684568115234374,5.768395900726318,-0.5746710300445557,-0.1311832070350647
1751620542805392000,17.703391845703123,5.147757530212402,0.14737112820148468,0.16569706797599792
1751620542824215300,17.72221533203125,3.3176066875457764,0.08139773458242416,0.09728021919727325
1751620542843039000,17.7410390625,1.0781763792037964,0.06673697382211685,0.04718930274248123
1751620542861862700,17.759862548828124,-0.13622283935546875,-0.00045814859913662076,-0.001679878099821508
1751620542880686300,17.778686279296874,-0.5064069032669067,-0.007788525894284248,-0.011300998739898205
1751620542899510000,17.797510009765624,-0.4465421438217163,-0.006566796451807022,-0.007635809946805239
1751620542918333700,17.816333740234374,-0.3646862804889679,-0.031001387163996696,-0.02107483521103859
1751620542937157400,17.835157470703123,-1.1136064529418945,-0.028557928279042244,-0.032070402055978775
1751620542955981000,17.85398095703125,-2.9571964740753174,0.0019853105768561363,-0.05406153202056885
1751620542974804500,17.872804443359374,-4.648070335388184,0.37094762921333313,0.05818486958742142
1751620542993628200,17.891628173828124,-5.38232946395874,0.17791436612606049,0.03252854943275452
1751620543012451800,17.910451904296874,-5.254047870635986,-0.16905683279037476,-0.07360920310020447
1751620543031275500,17.929275634765624,-4.397615432739258,-0.07009673118591309,-0.03940077871084213
1751620543050099200,17.94809912109375,-2.7678282260894775,-0.040775224566459656,-0.023518294095993042
1751620543068923000,17.9669228515625,-0.45875945687294006,-0.04321868345141411,-0.012522728182375431
1751620543087746300,17.985746337890625,1.2174534797668457,0.03741546720266342,0.017867794260382652
1751620543106570000,18.004570068359374,2.8228061199188232,0.10461059212684631,0.0386371985077858
1751620543125393700,18.0233935546875,4.577209949493408,0.02153298258781433,0.026419902220368385
1751620543144217300,18.04221728515625,6.110480308532715,-0.1262962967157364,-0.010079269297420979
1751620543163041000,18.061041015625,7.042660236358643,-0.2790125012397766,0.004428769461810589
1751620543181864700,18.07986474609375,7.155059337615967,0.19013166427612305,0.20112723112106323
1751620543200688400,18.0986884765625,6.448899269104004,0.28787001967430115,0.1876882016658783
1751620543219511800,18.11751171875,4.8325514793396,-0.15561780333518982,0.02153298258781433
1751620543238335500,18.13633544921875,2.6273293495178223,0.1669187992811203,0.10949750989675522
1751620543257159200,18.1551591796875,0.21930044889450073,0.026419902220368385,0.014202605932950974
1751620543275982800,18.17398291015625,-0.8521563410758972,0.05329795181751251,0.005650499369949102
1751620543294806500,18.192806640625,-2.276693105697632,0.03252854943275452,-0.02107483521103859
1751620543313630200,18.211630126953125,-3.285841703414917,0.1510363221168518,0.016646064817905426
1751620543332454000,18.230453857421875,-3.5472917556762695,0.15958842635154724,0.03252854943275452
1751620543351277300,18.24927734375,-3.6951210498809814,-0.18860450387001038,-0.07605266571044922
1751620543370101000,18.26810107421875,-4.417163372039795,0.010537417605519295,-0.016187917441129684
1751620543388924700,18.286924560546876,-4.992598056793213,-0.046883873641490936,-0.034666575491428375
1751620543407748400,18.305748291015625,-4.9217376708984375,-0.08720094710588455,-0.04306596517562866
1751620543426572000,18.324572021484375,-4.429380416870117,-0.15806126594543457,-0.061391908675432205
1751620543445395700,18.343395751953125,-3.7256643772125244,-0.07498364895582199,-0.03329212963581085
1751620543464219400,18.362219482421875,-2.6114468574523926,-0.02367101050913334,-0.016187917441129684
1751620543483042800,18.381042724609376,-0.8179479241371155,-0.011453714221715927,-0.004123337101191282
1751620543501866500,18.399866455078126,0.9731075763702393,0.02519817277789116,0.011759147047996521
1751620543520690200,18.418690185546875,2.380540132522583,0.03252854943275452,0.01908952370285988
1751620543539513900,18.437513916015625,3.375027894973755,0.10216713696718216,0.039858926087617874
1751620543558337500,18.456337646484375,4.287660121917725,0.052076224237680435,0.02764163166284561
1751620543577161200,18.4751611328125,5.024363040924072,-0.3266599476337433,-0.07971785217523575
1751620543595984600,18.493984619140626,5.130653381347656,0.07406735420227051,0.10338886082172394
1751620543614808300,18.512808349609376,3.869828462600708,0.19379685819149017,0.10461059212684631
1751620543633632000,18.531632080078126,1.2626575231552124,0.05451968312263489,0.03252854943275452
1751620543652455700,18.55045556640625,-0.6945532560348511,0.3098611533641815,0.09850194305181503
1751620543671279400,18.569279296875,-0.9816597104072571,-0.021227551624178886,-0.010079269297420979
1751620543690103000,18.58810302734375,-0.5161807537078857,-0.021227551624178886,-0.008857538923621178
1751620543708926700,18.6069267578125,-0.21319180727005005,-0.018784092739224434,-0.002901607658714056
1751620543727750100,18.625750244140626,-0.5125155448913574,-0.10063996911048889,-0.032070402055978775
1751620543746573800,18.64457373046875,-2.221715211868286,-0.017562363296747208,-0.013744457624852657
1751620543765397500,18.6633974609375,-4.260781764984131,0.011759147047996521,-0.016187917441129684
1751620543784221200,18.68222119140625,-5.304138660430908,-0.10063996911048889,-0.04428769648075104
1751620543803044900,18.701044921875,-5.223504543304443,-0.11407899856567383,-0.04428769648075104
1751620543821868500,18.71986865234375,-4.705491542816162,-0.0896444097161293,-0.04062250629067421
1751620543840692000,18.73869189453125,-4.009105682373047,-0.10186170041561127,-0.03940077871084213
1751620543859515600,18.757515625,-2.8619015216827393,-0.06154462695121765,-0.02718348242342472
1751620543878339300,18.77633935546875,-0.8350521326065063,-0.02977965772151947,-0.011300998739898205
1751620543897163000,18.7951630859375,1.0977239608764648,0.03741546720266342,0.012980876490473747
1751620543915986700,18.813986572265627,2.332892656326294,0.06673697382211685,0.023976443335413933
1751620543934810400,18.832810302734377,3.500865936279297,0.07528908550739288,0.030085090547800064
1751620543953633800,18.8516337890625,4.593092441558838,-0.0102319847792387,0.017867794260382652
1751620543972457500,18.87045751953125,5.372555732727051,-0.26679518818855286,-0.05528326332569122
1751620543991281200,18.88928125,5.809935092926025,0.13393209874629974,0.10949750989675522
1751620544010104800,18.908104736328124,5.797717571258545,0.07895427197217941,0.09239330142736435
1751620544028928500,18.926928466796873,4.622413635253906,-0.009010255336761475,0.05818486958742142
1751620544047752200,18.945752197265627,2.2033891677856445,0.12293653935194016,0.07406735420227051
1751620544066576000,18.964575927734376,-0.20463970303535461,0.09239330142736435,0.030085090547800064
1751620544085399300,18.9833994140625,-1.5082250833511353,0.15347976982593536,0.0386371985077858
1751620544104223000,19.002222900390624,-2.475834846496582,0.05818486958742142,0.008093958720564842
1751620544123046700,19.021046630859374,-2.196058988571167,0.014202605932950974,-0.004123337101191282
1751620544141870300,19.039870361328123,-1.202792763710022,-0.060322895646095276,-0.02107483521103859
1751620544160694000,19.058694091796873,-0.8020654320716858,-0.002901607658714056,-0.002901607658714056
1751620544179517700,19.077517578125,-0.9462295174598694,-0.009010255336761475,-0.006414080038666725
1751620544198341400,19.09634130859375,-1.4117084741592407,-0.017562363296747208,-0.011300998739898205
1751620544217164800,19.115164794921874,-1.9162827730178833,-0.022449281066656113,-0.013744457624852657
1751620544235988500,19.133988525390624,-1.8503093719482422,-0.03588830679655075,-0.014966187067329884
1751620544254812200,19.152812255859374,-1.544877052307129,-0.0334448479115963,-0.010079269297420979
1751620544283047700,19.181047607421874,-1.941939115524292,-0.0334448479115963,-0.013744457624852657
1751620544301871400,19.199871337890624,-2.2168283462524414,-0.04199695214629173,-0.018631376326084137
1751620544320694800,19.21869482421875,-2.0518949031829834,-0.04199695214629173,-0.018631376326084137
1751620544339518500,19.2375185546875,-1.6975932121276855,-0.04810560122132301,-0.014966187067329884
1751620544358342100,19.256342041015625,-1.2651009559631348,-0.04566214233636856,-0.013744457624852657
1751620544377165800,19.275165771484374,-1.0060943365097046,-0.03711003437638283,-0.012522728182375431
1751620544395989500,19.293989501953124,-0.9902117848396301,-0.018784092739224434,-0.007635809946805239
1751620544414813200,19.312813232421874,-0.8179479241371155,-0.02000582218170166,-0.007635809946805239
1751620544433636600,19.33163671875,-0.4526508152484894,-0.01511890348047018,-0.004123337101191282
1751620544452460300,19.350460205078125,-0.16554436087608337,-0.006566796451807022,-0.001679878099821508
1751620544471284000,19.369283935546875,0.02871064469218254,0.0032070400193333626,0.0019853105768561363
1751620544490107600,19.388107666015625,0.35613417625427246,-0.004123337101191282,0.0019853105768561363
1751620544508931300,19.406931396484374,1.01708984375,0.01908952370285988,0.008093958720564842
1751620544527755000,19.425755126953124,2.1752893924713135,0.030085090547800064,0.016646064817905426
1751620544546578400,19.444578369140626,3.428783893585205,0.08628465235233307,0.03497200831770897
1751620544565402000,19.463402099609375,4.506349563598633,0.12782345712184906,0.049632761627435684
1751620544584225800,19.482225830078125,5.2797040939331055,-0.03955349326133728,0.004428769461810589
1751620544603049500,19.501049560546875,5.541154384613037,0.11438442766666412,0.07406735420227051
1751620544621873200,19.519873046875,4.767799377441406,0.009315688163042068,0.036193739622831345
1751620544640696800,19.53869677734375,3.0610435009002686,-0.23991714417934418,-0.05039634555578232
1751620544659520500,19.5575205078125,1.3542872667312622,0.32940882444381714,0.1314886510372162
1751620544678344000,19.576343994140625,0.2156352698802948,0.1107192412018776,0.03497200831770897
1751620544697167600,19.595167724609375,-0.33047783374786377,0.06307178735733032,0.016646064817905426
1751620544715991300,19.6139912109375,-1.2101231813430786,-0.07376192510128021,-0.02718348242342472
1751620544734815000,19.63281494140625,-2.9547529220581055,0.06307178735733032,0.005650499369949102
1751620544753638700,19.651638671875,-5.213730812072754,-0.12018764764070511,-0.05283980444073677
1751620544772462300,19.67046240234375,-6.841074466705322,-0.15561780333518982,-0.07238747924566269
1751620544791285800,19.68928564453125,-7.148950576782227,-0.2948949635028839,-0.1127045527100563
1751620544810109400,19.708109375,-6.260753154754639,-0.03588830679655075,-0.03940077871084213
1751620544828933000,19.72693310546875,-4.390285015106201,-0.1568395346403122,-0.06383536756038666
1751620544847756800,19.7457568359375,-1.7513493299484253,-0.02000582218170166,-0.013744457624852657
1751620544866580500,19.76458056640625,0.48563748598098755,0.017867794260382652,0.006872228812426329
1751620544885404200,19.783404052734376,1.5851941108703613,0.04108065739274025,0.017867794260382652
1751620544904227600,19.8022275390625,2.802036762237549,0.036193739622831345,0.02153298258781433
1751620544923051300,19.82105126953125,4.136165618896484,0.08261945843696594,0.04108065739274025
1751620544941875000,19.839875,5.3493428230285645,-0.0896444097161293,-0.007635809946805239
1751620544960698600,19.85869873046875,6.0872673988342285,-0.20693044364452362,-0.005345067009329796
1751620544979522300,19.877522216796876,6.05794620513916,-0.0896444097161293,0.08017600327730179
1751620544998346000,19.896345947265626,4.970606803894043,0.3220784664154053,0.18402300775051117
1751620545017169400,19.91516943359375,2.5552473068237305,-0.1055268943309784,-0.00045814859913662076
1751620545035993000,19.9339931640625,-0.2877173125743866,0.38072147965431213,0.1302669197320938
1751620545054816800,19.952816650390623,-1.8796309232711792,0.2280052751302719,0.0642935186624527
1751620545073640400,19.971640380859377,-2.793484687805176,-0.024892739951610565,-0.018631376326084137
1751620545092464000,19.990464111328127,-3.0329437255859375,-0.07498364895582199,-0.034666575491428375
1751620545111287800,20.009287841796876,-2.9095489978790283,-0.07620538026094437,-0.03329212963581085
1751620545130111200,20.028111328125,-3.012174129486084,-0.050549060106277466,-0.025961752980947495
1751620545148935000,20.046934814453124,-3.6144869327545166,-0.12140937149524689,-0.05283980444073677
1751620545167758600,20.065758544921874,-3.8624980449676514,-0.14462223649024963,-0.061391908675432205
1751620545186582300,20.084582275390623,-2.9804091453552246,-0.004123337101191282,-0.014966187067329884
1751620545205406000,20.103406005859377,-1.3335177898406982,0.028863361105322838,0.005650499369949102
1751620545224229600,20.122229736328126,-0.05192350596189499,0.026419902220368385,0.004428769461810589
1751620545243053000,20.141052978515624,0.2156352698802948,0.03375028073787689,0.008093958720564842
1751620545261876700,20.159876708984374,-0.015271619893610477,-0.016340631991624832,-0.002901607658714056
1751620545280700400,20.178700439453124,-0.0824667438864708,-0.017562363296747208,-0.004123337101191282
1751620545299524000,20.197524169921873,-0.11545344442129135,-0.009010255336761475,-0.001679878099821508
1751620545318347800,20.21634765625,-0.0030543238390237093,-0.012675444595515728,-0.001679878099821508
1751620545337171500,20.23517138671875,0.2571740746498108,-0.00045814859913662076,0.0019853105768561363
1751620545355995000,20.253994873046874,1.0231984853744507,-0.013897174037992954,0.0019853105768561363
1751620545374818600,20.272818603515624,2.3145666122436523,-0.056657709181308746,-0.008857538923621178
1751620545393642200,20.291642333984374,3.7476553916931152,0.005650499369949102,0.01908952370285988
1751620545412466000,20.3104658203125,4.803229808807373,0.23167046904563904,0.09850194305181503
1751620545431289600,20.32928955078125,5.161196708679199,-0.06643154472112656,0.006872228812426329
1751620545450113300,20.34811328125,4.547888278961182,-0.1104138121008873,0.011759147047996521
1751620545468936700,20.366936767578125,2.9058837890625,0.16569706797599792,0.08750637620687485
1751620545487760400,20.385760498046874,0.7177661061286926,0.1766926348209381,0.0691804364323616
1751620545506584000,20.404583984375,-0.7434224486351013,0.17058399319648743,0.049632761627435684
1751620545525407700,20.42340771484375,-1.6316198110580444,0.009315688163042068,-0.005345067009329796
1751620545544231400,20.4422314453125,-2.489274024963379,-0.05787943676114082,-0.024892739951610565
1751620545563055000,20.46105517578125,-3.778198719024658,-0.11407899856567383,-0.04917461425065994
1751620545581878500,20.47987841796875,-5.185631275177002,-0.03711003437638283,-0.035735588520765305
1751620545600702200,20.4987021484375,-6.0029683113098145,-0.14217877388000488,-0.057726722210645676
1751620545619526000,20.51752587890625,-6.017629146575928,-0.18005239963531494,-0.07238747924566269
1751620545638349600,20.536349609375,-5.146535873413086,-0.1055268943309784,-0.047952886670827866
1751620545657173200,20.55517333984375,-3.5277440547943115,-0.06154462695121765,-0.032070402055978775
1751620545675997000,20.573996826171875,-1.4715732336044312,-0.03222311660647392,-0.013744457624852657
1751620545694820400,20.5928203125,-0.07635809481143951,-0.001679878099821508,-0.001679878099821508
1751620545713644000,20.61164404296875,-0.033597562462091446,0.008093958720564842,0.0007635809597559273
1751620545732467700,20.6304677734375,0.11056652665138245,0.005650499369949102,0.0019853105768561363
1751620545751291400,20.64929150390625,0.7483093738555908,0.014202605932950974,0.006872228812426329
1751620545770115000,20.668114990234375,1.61085045337677,0.03130681812763214,0.014202605932950974
1751620545788938800,20.686938720703125,2.469726324081421,0.05696314200758934,0.02153298258781433
1751620545807762200,20.70576220703125,3.668242931365967,0.04718930274248123,0.02519817277789116
1751620545826585900,20.7245859375,4.938841819763184,0.1253799945116043,0.05329795181751251
1751620545845409500,20.743409423828126,5.861247539520264,0.11316270381212234,0.052076224237680435
1751620545864233200,20.762233154296876,6.15934944152832,0.0019853105768561363,0.02519817277789116
1751620545883057000,20.781056884765626,5.7659525871276855,0.022754713892936707,0.04108065739274025
1751620545901880600,20.799880615234375,4.296212196350098,0.09361502528190613,0.061850059777498245
1751620545920704000,20.8187041015625,1.4752384424209595,0.05085449293255806,0.030085090547800064
1751620545939527700,20.837527587890627,-1.3811652660369873,0.18524473905563354,0.052076224237680435
1751620545958351400,20.856351318359376,-3.7879724502563477,-0.0591011680662632,-0.03329212963581085
1751620545977175000,20.875175048828126,-5.389659881591797,-0.14950916171073914,-0.057726722210645676
1751620545995998700,20.893998779296876,-5.779391765594482,-0.10063996911048889,-0.04673115536570549
1751620546014822400,20.912822509765626,-5.197848320007324,-0.125074565410614,-0.04550942778587341
1751620546033645800,20.931645751953123,-4.121504783630371,-0.14706569910049438,-0.05039634555578232
1751620546052469500,20.950469482421877,-2.6090035438537598,-0.060322895646095276,-0.025961752980947495
1751620546071293200,20.969293212890626,-0.8155044913291931,-0.04566214233636856,-0.016187917441129684
1751620546090116900,20.988116943359376,0.000610864779446274,-0.050549060106277466,-0.014966187067329884
1751620546108940500,21.0069404296875,0.0054977829568088055,0.04474584385752678,0.014202605932950974
1751620546127764200,21.02576416015625,0.22907429933547974,0.03375028073787689,0.011759147047996521
1751620546146587600,21.044587646484374,1.1588104963302612,0.017867794260382652,0.010537417605519295
1751620546165411300,21.063411376953123,2.6945245265960693,0.049632761627435684,0.022754713892936707
1751620546184235000,21.082235107421877,4.342637538909912,0.12782345712184906,0.05085449293255806
1751620546203058700,21.10105859375,5.619345188140869,0.12660172581672668,0.05329795181751251
1751620546221882400,21.11988232421875,6.015185356140137,0.05818486958742142,0.039858926087617874
1751620546240706000,21.1387060546875,5.345677852630615,-0.14340050518512726,-0.01740964688360691
1751620546259529500,21.157529541015624,3.4361143112182617,-0.37552911043167114,-0.07849612087011337
1751620546278353200,21.176353271484373,0.43921178579330444,0.11316270381212234,0.04718930274248123
1751620546297176800,21.1951767578125,-2.480721950531006,0.263435423374176,0.061850059777498245
1751620546316000500,21.21400048828125,-4.715265274047852,0.10705405473709106,0.004428769461810589
1751620546334824200,21.23282421875,-5.596132278442383,-0.024892739951610565,-0.023518294095993042
1751620546353647900,21.25164794921875,-5.241830825805664,-0.09941824525594711,-0.047952886670827866
1751620546372471300,21.27047119140625,-4.359742164611816,-0.08109229803085327,-0.035735588520765305
1751620546391295000,21.289294921875,-3.346928119659424,-0.11163553595542908,-0.04428769648075104
1751620546410118700,21.30811865234375,-2.196058988571167,-0.044440411031246185,-0.02107483521103859
1751620546428942300,21.3269423828125,-1.0109812021255493,-0.03711003437638283,-0.013744457624852657
1751620546447766000,21.34576611328125,-0.21441353857517242,-0.11407899856567383,-0.03695731982588768
1751620546466589700,21.364589599609374,0.02260199747979641,-0.005345067009329796,-0.001679878099821508
1751620546485413000,21.3834130859375,0.5528326034545898,0.01908952370285988,0.011759147047996521
1751620546504236800,21.40223681640625,2.2290456295013428,0.1314886510372162,0.05696314200758934
1751620546523060500,21.421060546875,4.310872554779053,-0.1568395346403122,-0.028405211865901947
1751620546541884200,21.43988427734375,5.978533744812012,0.2903134822845459,0.13515383005142212
1751620546560707800,21.458707763671875,6.4415693283081055,0.24999640882015228,0.10827577859163284
1751620546579531500,21.477531494140624,5.588801860809326,-0.5184714794158936,-0.12247838824987411
1751620546598355000,21.49635498046875,3.5167484283447266,0.141262486577034,0.12415826320648193
1751620546617178600,21.5151787109375,0.6701186895370483,0.03375028073787689,0.026419902220368385
1751620546636002300,21.534002197265625,-1.7330234050750732,0.0007635809597559273,-0.02977965772151947
1751620546654826000,21.552825927734375,-3.836841583251953,0.19013166427612305,0.010537417605519295
1751620546673649700,21.571649658203125,-5.234500408172607,0.3355174660682678,0.06673697382211685
1751620546692473300,21.590473388671874,-5.566810607910156,-0.15928299725055695,-0.06872228533029556
1751620546711296800,21.609296875,-5.2125091552734375,-0.13484840095043182,-0.05528326332569122
1751620546730120400,21.628120361328126,-4.650513648986816,-0.0639880821108818,-0.03817904740571976
1751620546748944100,21.646944091796875,-3.757429361343384,-0.05543597787618637,-0.0308486707508564
1751620546767767800,21.665767822265625,-2.6945245265960693,-0.040775224566459656,-0.023518294095993042
1751620546786591500,21.684591552734375,-1.6743803024291992,-0.028557928279042244,-0.016187917441129684
1751620546805415000,21.703414794921876,-0.7055488228797913,0.012980876490473747,-0.001679878099821508
1751620546824238600,21.722238525390626,-0.09590577334165573,0.004428769461810589,-0.00045814859913662076
1751620546843062300,21.741062255859376,0.2718348205089569,0.0019853105768561363,0.0019853105768561363
1751620546861886000,21.759885986328126,0.8668171167373657,0.010537417605519295,0.005650499369949102
1751620546880709600,21.778709716796875,1.915061116218567,0.030085090547800064,0.0154243353754282
1751620546899533000,21.797532958984377,3.3676974773406982,0.07162389904260635,0.03130681812763214
1751620546918356700,21.816356689453126,4.822777271270752,0.07651081681251526,0.04108065739274025
1751620546937180400,21.835180419921876,6.079936981201172,0.16569706797599792,0.06795870512723923
1751620546956004000,21.854004150390626,6.676141262054443,0.11804962158203125,0.06062832847237587
1751620546974827800,21.872827880859376,6.094597816467285,0.16447533667087555,0.07528908550739288
1751620546993651500,21.8916513671875,4.029874801635742,-0.018784092739224434,0.016646064817905426
1751620547012475000,21.910474853515623,1.232114315032959,-0.034666575491428375,-0.004123337101191282
1751620547031298600,21.929298583984377,-1.3310743570327759,0.12171480804681778,0.03130681812763214
1751620547050122200,21.948122314453126,-3.5912740230560303,-0.03588830679655075,-0.02718348242342472
1751620547068946000,21.96694580078125,-5.310247421264648,-0.13851359486579895,-0.06017018109560013
1751620547087769600,21.98576953125,-5.816043376922607,-0.09941824525594711,-0.04917461425065994
1751620547106593300,22.00459326171875,-5.455633163452148,-0.18005239963531494,-0.06994401663541794
1751620547125416700,22.023416748046873,-4.823998928070068,-0.07009673118591309,-0.03940077871084213
1751620547144240400,22.042240478515627,-4.078743934631348,-0.0639880821108818,-0.032070402055978775
1751620547163064000,22.06106396484375,-2.8032584190368652,-0.060322895646095276,-0.023518294095993042
1751620547181887700,22.0798876953125,-0.9205732345581055,-0.02367101050913334,-0.008857538923621178
1751620547200711400,22.09871142578125,0.6493492722511292,-0.001679878099821508,0.0019853105768561363
1751620547219535000,22.11753515625,1.7061452865600586,0.04841103404760361,0.020311253145337105
1751620547238358500,22.136358642578124,3.040273904800415,0.06307178735733032,0.02764163166284561
1751620547257182200,22.15518212890625,4.360963821411133,0.06307178735733032,0.03252854943275452
1751620547276006000,22.174005859375,5.454411506652832,0.1314886510372162,0.05329795181751251
1751620547294829600,22.19282958984375,6.032289505004883,-0.20937390625476837,-0.03329212963581085
1751620547313653200,22.2116533203125,5.677988052368164,0.13271036744117737,0.0948367565870285
1751620547332477000,22.230476806640624,4.219243049621582,0.061850059777498245,0.06062832847237587
1751620547351300400,22.24930029296875,1.989586591720581,0.21945317089557648,0.09239330142736435
1751620547370124000,22.2681240234375,-0.06780599057674408,0.1253799945116043,0.04108065739274025
1751620547388947700,22.28694775390625,-1.6255111694335938,-0.13240493834018707,-0.05039634555578232
1751620547407771400,22.305771484375,-3.5973827838897705,-0.1153007298707962,-0.05406153202056885
1751620547426595000,22.324594970703124,-5.740296363830566,0.08139773458242416,-0.004123337101191282
1751620547445418500,22.34341845703125,-6.826414108276367,-0.13362666964530945,-0.057726722210645676
1751620547464242200,22.3622421875,-6.7323408126831055,-0.20937390625476837,-0.08826996386051178
1751620547483065900,22.38106591796875,-5.691427230834961,-0.0896444097161293,-0.04550942778587341
1751620547501889500,22.3998896484375,-3.8515024185180664,-0.07742711156606674,-0.03695731982588768
1751620547520713200,22.418713134765625,-1.5888593196868896,-0.040775224566459656,-0.01740964688360691
1751620547539537000,22.437536865234375,0.12767073512077332,0.016646064817905426,0.0019853105768561363
1751620547558360300,22.4563603515625,0.5064069032669067,0.01908952370285988,0.006872228812426329
1751620547577184000,22.47518408203125,1.163697361946106,0.016646064817905426,0.009315688163042068
1751620547596007700,22.494007568359375,2.219271659851074,0.03375028073787689,0.01908952370285988
1751620547614831400,22.512831298828125,3.4642140865325928,0.0691804364323616,0.03130681812763214
1751620547633655000,22.531655029296875,4.717708587646484,0.05818486958742142,0.03252854943275452
1751620547652478700,22.550478759765625,5.8270392417907715,0.1510363221168518,0.05696314200758934
1751620547671302100,22.56930224609375,6.4782209396362305,0.10827577859163284,0.052076224237680435
1751620547690125800,22.588125732421876,6.455008029937744,0.13393209874629974,0.05696314200758934
1751620547708949500,22.606949462890626,5.332238674163818,0.03130681812763214,0.03252854943275452
1751620547727773200,22.625773193359375,2.5503604412078857,-0.18860450387001038,-0.04673115536570549
1751620547746596900,22.644596923828125,-0.6615665555000305,0.4283689260482788,0.13515383005142212
1751620547765420500,22.663420654296875,-2.9352052211761475,-0.16783510148525238,-0.05528326332569122
1751620547784244000,22.682243896484376,-4.679834842681885,-0.13851359486579895,-0.05528326332569122
1751620547803067600,22.701067626953126,-5.526493549346924,-0.12018764764070511,-0.04917461425065994
1751620547821891300,22.719891357421876,-5.224726676940918,-0.11163553595542908,-0.04673115536570549
1751620547840715000,22.738715087890625,-4.3463029861450195,-0.16905683279037476,-0.05894844979047775
1751620547859538700,22.75753857421875,-3.3102762699127197,-0.04810560122132301,-0.02718348242342472
1751620547878362000,22.776362060546877,-2.525925874710083,-0.0639880821108818,-0.024892739951610565
1751620547897185800,22.795185791015626,-2.009134292602539,-0.031001387163996696,-0.016187917441129684
1751620547916009500,22.814009521484376,-1.4740166664123535,-0.013897174037992954,-0.010079269297420979
1751620547934833200,22.832833251953126,-0.7202095985412598,-0.05177079141139984,-0.01740964688360691
