time,seconds_elapsed,z,y,x
1751620525270086400,0.16808642578125,-41.34375,-15.018750190734863,6.843750476837158
1751620525290086400,0.18808642578125,-40.10625076293945,7.612500190734863,17.025001525878906
1751620525300086500,0.19808642578125,-40.98750305175781,7.931250095367432,17.34375
1751620525340086500,0.23808642578125,-41.17500305175781,8.21250057220459,17.475000381469727
1751620525380086500,0.27808642578125,-41.15625,8.268750190734863,17.475000381469727
1751620525410086400,0.30808642578125,-41.25,8.100000381469727,17.17500114440918
1751620525420086500,0.31808642578125,-41.25,7.893750190734863,17.26875114440918
1751620525430086400,0.32808642578125,-41.41875076293945,7.931250095367432,17.137500762939453
1751620525440086500,0.33808642578125,-41.28750228881836,8.02500057220459,17.100000381469727
1751620525450086400,0.34808642578125,-41.32500076293945,8.006250381469727,16.912500381469727
1751620525460086500,0.35808642578125,-41.400001525878906,8.043750762939453,16.96875
1751620525470086400,0.36808642578125,-41.23125076293945,7.875000476837158,16.950000762939453
1751620525480086500,0.37808642578125,-41.493751525878906,7.931250095367432,17.08125114440918
1751620525490086400,0.38808642578125,-41.26875305175781,8.006250381469727,17.100000381469727
1751620525500086500,0.39808642578125,-41.28750228881836,8.137500762939453,17.118751525878906
1751620525510086400,0.40808642578125,-41.55000305175781,8.137500762939453,17.25
1751620525520086500,0.41808642578125,-41.47500228881836,8.137500762939453,17.36250114440918
1751620525530086400,0.42808642578125,-41.625,8.11875057220459,17.512500762939453
1751620525540086500,0.43808642578125,-41.70000076293945,8.081250190734863,17.34375
1751620525550086400,0.44808642578125,-41.775001525878906,8.137500762939453,17.34375
1751620525560086500,0.45808642578125,-41.75625228881836,8.02500057220459,17.08125114440918
1751620525570086400,0.46808642578125,-41.83125305175781,8.100000381469727,17.17500114440918
1751620525580086500,0.47808642578125,-42.03750228881836,7.987500190734863,17.043750762939453
1751620525590086400,0.48808642578125,-41.94375228881836,7.912500381469727,16.96875
1751620525600086500,0.49808642578125,-41.90625,7.912500381469727,16.931251525878906
1751620525610086400,0.50808642578125,-41.64375305175781,7.893750190734863,16.856250762939453
1751620525620086500,0.51808642578125,-41.55000305175781,7.931250095367432,16.950000762939453
1751620525630086400,0.52808642578125,-41.53125,7.950000286102295,16.931251525878906
1751620525640086500,0.53808642578125,-41.55000305175781,7.968750476837158,17.25
1751620525650086400,0.54808642578125,-41.400001525878906,7.856250286102295,16.98750114440918
1751620525660086500,0.55808642578125,-41.36250305175781,7.912500381469727,17.006250381469727
1751620525670086400,0.56808642578125,-41.36250305175781,8.02500057220459,17.15625
1751620525680086500,0.57808642578125,-41.493751525878906,7.968750476837158,17.17500114440918
1751620525690086400,0.58808642578125,-41.55000305175781,7.875000476837158,17.17500114440918
1751620525700086500,0.59808642578125,-41.587501525878906,7.875000476837158,17.118751525878906
1751620525710086400,0.60808642578125,-41.56875228881836,7.856250286102295,17.137500762939453
1751620525720086500,0.61808642578125,-41.4375,8.043750762939453,16.80000114440918
1751620525730086400,0.62808642578125,-41.53125,7.968750476837158,16.89375114440918
1751620525740086500,0.63808642578125,-41.34375,7.950000286102295,16.650001525878906
1751620525750086400,0.64808642578125,-41.19375228881836,7.968750476837158,16.650001525878906
1751620525760086500,0.65808642578125,-41.17500305175781,8.043750762939453,16.725000381469727
1751620525770086400,0.66808642578125,-40.875,8.193750381469727,17.006250381469727
1751620525780086500,0.67808642578125,-40.89375305175781,8.21250057220459,16.950000762939453
1751620525790086400,0.68808642578125,-40.91250228881836,8.40000057220459,16.950000762939453
1751620525800086500,0.69808642578125,-40.98750305175781,8.25,17.08125114440918
1751620525810086400,0.70808642578125,-40.85625076293945,8.231250762939453,17.34375
1751620525820086500,0.71808642578125,-40.81875228881836,8.325000762939453,17.493751525878906
1751620525830086400,0.72808642578125,-40.743751525878906,8.11875057220459,17.36250114440918
1751620525840086500,0.73808642578125,-40.76250076293945,8.137500762939453,17.25
1751620525850086400,0.74808642578125,-41.025001525878906,8.100000381469727,17.193750381469727
1751620525860086500,0.75808642578125,-41.118751525878906,7.893750190734863,17.287500381469727
1751620525870086400,0.76808642578125,-41.15625,7.743750095367432,17.381250381469727
1751620525880086500,0.77808642578125,-41.28750228881836,7.912500381469727,17.625
1751620525890086400,0.78808642578125,-41.26875305175781,8.100000381469727,17.34375
1751620525900086500,0.79808642578125,-41.26875305175781,7.950000286102295,17.381250381469727
1751620525910086400,0.80808642578125,-41.32500076293945,8.043750762939453,17.381250381469727
1751620525920086500,0.81808642578125,-41.19375228881836,8.02500057220459,17.306251525878906
1751620525930086400,0.82808642578125,-41.19375228881836,7.893750190734863,17.212501525878906
1751620525940086500,0.83808642578125,-41.212501525878906,8.137500762939453,17.34375
1751620525950086400,0.84808642578125,-41.23125076293945,8.193750381469727,17.325000762939453
1751620525960086500,0.85808642578125,-41.17500305175781,8.081250190734863,17.287500381469727
1751620525970086400,0.86808642578125,-41.56875228881836,7.912500381469727,17.381250381469727
1751620525980086500,0.87808642578125,-41.53125,8.081250190734863,17.53125
1751620525990086400,0.88808642578125,-41.66250228881836,8.043750762939453,17.64375114440918
1751620526000086500,0.89808642578125,-41.45625305175781,7.912500381469727,17.625
1751620526010086400,0.90808642578125,-41.55000305175781,8.21250057220459,17.475000381469727
1751620526020086500,0.91808642578125,-41.41875076293945,7.950000286102295,17.25
1751620526030086400,0.92808642578125,-41.60625076293945,7.800000190734863,17.0625
1751620526040086500,0.93808642578125,-41.60625076293945,7.650000095367432,16.875
1751620526050086400,0.94808642578125,-41.306251525878906,7.725000381469727,16.89375114440918
1751620526060086500,0.95808642578125,-41.41875076293945,7.687500476837158,16.89375114440918
1751620526070086400,0.96808642578125,-41.400001525878906,7.706250190734863,16.743751525878906
1751620526080086500,0.97808642578125,-41.88750076293945,7.781250476837158,16.875
1751620526090086400,0.98808642578125,-41.83125305175781,7.593750476837158,16.931251525878906
1751620526100086500,0.99808642578125,-41.94375228881836,7.800000190734863,16.875
1751620526110086400,1.00808642578125,-41.493751525878906,8.11875057220459,17.17500114440918
1751620526120086500,1.01808642578125,-41.64375305175781,8.381250381469727,17.193750381469727
1751620526130086400,1.02808642578125,-41.85000228881836,8.40000057220459,17.100000381469727
1751620526140086500,1.03808642578125,-41.73750305175781,8.40000057220459,17.100000381469727
1751620526150086400,1.04808642578125,-41.60625076293945,8.287500381469727,17.118751525878906
1751620526160086500,1.05808642578125,-41.47500228881836,8.268750190734863,17.0625
1751620526170086400,1.06808642578125,-41.400001525878906,8.137500762939453,17.25
1751620526180086500,1.07808642578125,-41.38125228881836,8.043750762939453,17.25
1751620526190086400,1.08808642578125,-41.26875305175781,7.818750381469727,17.043750762939453
1751620526200086500,1.09808642578125,-40.931251525878906,7.781250476837158,17.193750381469727
1751620526210086400,1.10808642578125,-40.85625076293945,7.875000476837158,17.118751525878906
1751620526220086500,1.11808642578125,-40.743751525878906,7.762500286102295,17.15625
1751620526230086400,1.12808642578125,-40.91250228881836,7.950000286102295,17.100000381469727
1751620526240086500,1.13808642578125,-40.91250228881836,8.006250381469727,17.212501525878906
1751620526250086400,1.14808642578125,-40.91250228881836,8.043750762939453,17.212501525878906
1751620526260086500,1.15808642578125,-40.76250076293945,8.006250381469727,17.306251525878906
1751620526270086400,1.16808642578125,-40.96875,8.081250190734863,17.15625
1751620526280086500,1.17808642578125,-41.306251525878906,8.0625,17.287500381469727
1751620526290086400,1.18808642578125,-41.51250076293945,8.02500057220459,17.568750381469727
1751620526300086500,1.19808642578125,-41.75625228881836,8.100000381469727,17.418750762939453
1751620526310086400,1.20808642578125,-41.73750305175781,8.006250381469727,17.306251525878906
1751620526320086500,1.21808642578125,-41.587501525878906,7.987500190734863,17.212501525878906
1751620526330086400,1.22808642578125,-41.90625,8.081250190734863,17.137500762939453
1751620526340086500,1.23808642578125,-41.8125,8.137500762939453,17.212501525878906
1751620526350086400,1.24808642578125,-41.70000076293945,7.987500190734863,17.45625114440918
1751620526360086500,1.25808642578125,-41.587501525878906,8.006250381469727,17.26875114440918
1751620526370086400,1.26808642578125,-41.38125228881836,8.02500057220459,17.08125114440918
1751620526380086500,1.27808642578125,-41.118751525878906,8.043750762939453,17.137500762939453
1751620526390086400,1.28808642578125,-40.98750305175781,8.006250381469727,17.4375
1751620526400086500,1.29808642578125,-41.212501525878906,8.11875057220459,17.568750381469727
1751620526410086400,1.30808642578125,-41.00625228881836,8.325000762939453,17.73750114440918
1751620526420086500,1.31808642578125,-41.118751525878906,8.325000762939453,17.71875
1751620526430086400,1.32808642578125,-41.45625305175781,8.40000057220459,17.662500381469727
1751620526440086500,1.33808642578125,-41.493751525878906,8.325000762939453,17.475000381469727
1751620526450086400,1.34808642578125,-41.45625305175781,8.362500190734863,17.568750381469727
1751620526460086500,1.35808642578125,-41.55000305175781,8.362500190734863,17.475000381469727
1751620526470086400,1.36808642578125,-41.71875,8.550000190734863,17.231250762939453
1751620526480086500,1.37808642578125,-41.60625076293945,8.287500381469727,17.118751525878906
1751620526490086400,1.38808642578125,-41.51250076293945,8.02500057220459,16.912500381469727
1751620526500086500,1.39808642578125,-41.79375076293945,8.02500057220459,17.006250381469727
1751620526510086400,1.40808642578125,-41.56875228881836,8.006250381469727,17.025001525878906
1751620526520086500,1.41808642578125,-41.4375,7.931250095367432,16.89375114440918
1751620526530086400,1.42808642578125,-41.38125228881836,7.818750381469727,16.89375114440918
1751620526540086500,1.43808642578125,-41.400001525878906,7.668750286102295,16.96875
1751620526550086400,1.44808642578125,-41.28750228881836,7.537500381469727,17.043750762939453
1751620526560086500,1.45808642578125,-41.41875076293945,7.668750286102295,17.15625
1751620526570086400,1.46808642578125,-41.53125,7.875000476837158,17.306251525878906
1751620526580086500,1.47808642578125,-41.13750076293945,7.743750095367432,17.193750381469727
1751620526590086400,1.48808642578125,-41.17500305175781,7.725000381469727,17.475000381469727
1751620526600086500,1.49808642578125,-41.400001525878906,7.912500381469727,17.868751525878906
1751620526610086400,1.50808642578125,-41.25,8.02500057220459,17.868751525878906
1751620526620086500,1.51808642578125,-41.45625305175781,8.15625,17.887500762939453
1751620526630086400,1.52808642578125,-41.41875076293945,7.987500190734863,17.83125114440918
1751620526640086500,1.53808642578125,-41.26875305175781,8.11875057220459,17.55000114440918
1751620526650086400,1.54808642578125,-41.38125228881836,8.0625,17.64375114440918
1751620526660086500,1.55808642578125,-41.64375305175781,8.30625057220459,17.90625
1751620526670086400,1.56808642578125,-41.66250228881836,8.362500190734863,17.756250381469727
1751620526680086500,1.57808642578125,-41.56875228881836,8.34375,17.606250762939453
1751620526690086400,1.58808642578125,-41.66250228881836,8.175000190734863,17.587501525878906
1751620526700086500,1.59808642578125,-41.4375,8.11875057220459,17.587501525878906
1751620526710086400,1.60808642578125,-41.47500228881836,8.49375057220459,17.71875
1751620526720086500,1.61808642578125,-41.400001525878906,8.287500381469727,17.775001525878906
1751620526730086400,1.62808642578125,-41.26875305175781,8.081250190734863,17.45625114440918
1751620526740086500,1.63808642578125,-41.15625,8.137500762939453,17.15625
1751620526750086400,1.64808642578125,-41.26875305175781,8.381250381469727,17.193750381469727
1751620526760086500,1.65808642578125,-41.04375076293945,8.4375,17.287500381469727
1751620526770086400,1.66808642578125,-40.98750305175781,8.550000190734863,17.306251525878906
1751620526780086500,1.67808642578125,-41.19375228881836,8.550000190734863,17.306251525878906
1751620526790086400,1.68808642578125,-41.118751525878906,8.175000190734863,17.193750381469727
1751620526800086500,1.69808642578125,-41.118751525878906,8.175000190734863,17.193750381469727
1751620526810086400,1.70808642578125,-40.96875,8.193750381469727,17.381250381469727
1751620526820086500,1.71808642578125,-40.931251525878906,8.02500057220459,17.325000762939453
1751620526830086400,1.72808642578125,-41.08125305175781,7.781250476837158,17.17500114440918
1751620526840086500,1.73808642578125,-41.493751525878906,7.781250476837158,16.950000762939453
1751620526850086400,1.74808642578125,-41.85000228881836,7.706250190734863,17.025001525878906
1751620526860086500,1.75808642578125,-41.66250228881836,7.800000190734863,16.875
1751620526870086400,1.76808642578125,-41.79375076293945,8.081250190734863,17.212501525878906
1751620526880086500,1.77808642578125,-41.79375076293945,8.175000190734863,17.325000762939453
1751620526890086400,1.78808642578125,-41.45625305175781,8.268750190734863,17.25
1751620526900086500,1.79808642578125,-41.51250076293945,8.15625,17.231250762939453
1751620526910086400,1.80808642578125,-41.45625305175781,8.043750762939453,17.34375
1751620526920086500,1.81808642578125,-41.26875305175781,7.950000286102295,17.568750381469727
1751620526930086400,1.82808642578125,-41.15625,7.968750476837158,17.400001525878906
1751620526940086500,1.83808642578125,-41.38125228881836,7.800000190734863,17.55000114440918
1751620526950086400,1.84808642578125,-41.4375,7.743750095367432,17.400001525878906
1751620526960086500,1.85808642578125,-41.45625305175781,7.725000381469727,17.418750762939453
1751620526970086400,1.86808642578125,-41.775001525878906,7.575000286102295,17.34375
1751620526980086500,1.87808642578125,-41.83125305175781,7.706250190734863,17.306251525878906
1751620526990086400,1.88808642578125,-41.60625076293945,7.725000381469727,17.26875114440918
1751620527000086500,1.89808642578125,-41.4375,7.725000381469727,17.400001525878906
1751620527010086400,1.90808642578125,-41.36250305175781,7.631250381469727,17.55000114440918
1751620527020086500,1.91808642578125,-41.0625,7.668750286102295,17.512500762939453
1751620527030086400,1.92808642578125,-41.08125305175781,7.668750286102295,17.306251525878906
1751620527040086500,1.93808642578125,-41.08125305175781,7.725000381469727,17.137500762939453
1751620527050086400,1.94808642578125,-41.306251525878906,7.912500381469727,17.231250762939453
1751620527060086500,1.95808642578125,-41.118751525878906,8.006250381469727,17.26875114440918
1751620527070086400,1.96808642578125,-41.19375228881836,8.02500057220459,17.418750762939453
1751620527080086500,1.97808642578125,-41.4375,8.043750762939453,17.0625
1751620527090086400,1.98808642578125,-41.625,8.043750762939453,17.0625
1751620527100086500,1.99808642578125,-41.64375305175781,7.987500190734863,17.006250381469727
1751620527110086400,2.00808642578125,-41.38125228881836,8.043750762939453,17.025001525878906
1751620527120086500,2.01808642578125,-41.45625305175781,7.893750190734863,17.006250381469727
1751620527130086400,2.02808642578125,-41.25,7.725000381469727,17.26875114440918
1751620527140086500,2.03808642578125,-41.36250305175781,7.668750286102295,17.34375
1751620527150086400,2.04808642578125,-41.34375,7.893750190734863,17.381250381469727
1751620527160086500,2.05808642578125,-41.23125076293945,7.781250476837158,17.493751525878906
1751620527170086400,2.06808642578125,-41.15625,7.893750190734863,17.418750762939453
1751620527180086500,2.07808642578125,-41.28750228881836,8.0625,17.568750381469727
1751620527190086400,2.08808642578125,-41.19375228881836,8.100000381469727,17.475000381469727
1751620527200086500,2.09808642578125,-41.10000228881836,8.362500190734863,17.568750381469727
1751620527210086400,2.10808642578125,-41.15625,8.475000381469727,17.418750762939453
1751620527220086500,2.11808642578125,-41.23125076293945,8.475000381469727,17.681251525878906
1751620527230086400,2.12808642578125,-41.19375228881836,8.137500762939453,17.475000381469727
1751620527240086500,2.13808642578125,-40.98750305175781,8.02500057220459,17.55000114440918
1751620527250086400,2.14808642578125,-40.837501525878906,7.893750190734863,17.53125
1751620527260086500,2.15808642578125,-40.72500228881836,7.837500095367432,17.73750114440918
1751620527270086400,2.16808642578125,-40.837501525878906,7.800000190734863,17.943750381469727
1751620527280086500,2.17808642578125,-40.89375305175781,7.575000286102295,18.01875114440918
1751620527290086400,2.18808642578125,-40.931251525878906,7.575000286102295,17.775001525878906
1751620527300086500,2.19808642578125,-40.98750305175781,7.556250095367432,17.512500762939453
1751620527310086400,2.20808642578125,-40.96875,7.743750095367432,17.55000114440918
1751620527320086500,2.21808642578125,-40.931251525878906,7.987500190734863,17.475000381469727
1751620527330086400,2.22808642578125,-40.875,8.100000381469727,17.53125
1751620527340086500,2.23808642578125,-40.76250076293945,8.043750762939453,17.15625
1751620527350086400,2.24808642578125,-40.96875,8.137500762939453,17.15625
1751620527360086500,2.25808642578125,-41.025001525878906,8.193750381469727,17.17500114440918
1751620527370086400,2.26808642578125,-40.931251525878906,8.193750381469727,17.475000381469727
1751620527380086500,2.27808642578125,-40.837501525878906,8.137500762939453,17.512500762939453
1751620527390086400,2.28808642578125,-40.85625076293945,8.15625,17.400001525878906
1751620527400086500,2.29808642578125,-41.400001525878906,8.100000381469727,17.400001525878906
1751620527410086400,2.30808642578125,-41.400001525878906,8.15625,17.34375
1751620527420086500,2.31808642578125,-41.306251525878906,8.11875057220459,17.381250381469727
1751620527430086400,2.32808642578125,-41.51250076293945,7.912500381469727,17.325000762939453
1751620527440086500,2.33808642578125,-41.25,7.968750476837158,17.287500381469727
1751620527450086400,2.34808642578125,-41.212501525878906,8.02500057220459,17.043750762939453
1751620527460086500,2.35808642578125,-41.25,8.231250762939453,17.137500762939453
1751620527470086400,2.36808642578125,-41.26875305175781,8.21250057220459,17.25
1751620527480086500,2.37808642578125,-40.89375305175781,8.21250057220459,17.381250381469727
1751620527490086400,2.38808642578125,-40.96875,8.100000381469727,17.512500762939453
1751620527500086500,2.39808642578125,-41.26875305175781,8.11875057220459,17.625
1751620527510086400,2.40808642578125,-41.13750076293945,8.081250190734863,17.606250762939453
1751620527520086500,2.41808642578125,-41.34375,8.11875057220459,17.756250381469727
1751620527530086400,2.42808642578125,-41.53125,8.11875057220459,17.71875
1751620527540086500,2.43808642578125,-41.400001525878906,7.950000286102295,17.587501525878906
1751620527550086400,2.44808642578125,-41.70000076293945,7.912500381469727,17.4375
1751620527560086500,2.45808642578125,-41.64375305175781,7.912500381469727,17.381250381469727
1751620527570086400,2.46808642578125,-41.56875228881836,7.893750190734863,17.231250762939453
1751620527580086500,2.47808642578125,-41.47500228881836,8.006250381469727,17.08125114440918
1751620527590086400,2.48808642578125,-41.47500228881836,8.043750762939453,17.193750381469727
1751620527600086500,2.49808642578125,-41.625,7.968750476837158,17.193750381469727
1751620527610086400,2.50808642578125,-41.60625076293945,7.950000286102295,17.26875114440918
1751620527620086500,2.51808642578125,-41.66250228881836,7.893750190734863,17.34375
1751620527630086400,2.52808642578125,-41.36250305175781,8.02500057220459,17.306251525878906
1751620527640086500,2.53808642578125,-41.400001525878906,8.137500762939453,17.17500114440918
1751620527650086400,2.54808642578125,-41.681251525878906,8.40000057220459,17.231250762939453
1751620527660086500,2.55808642578125,-41.83125305175781,8.34375,17.212501525878906
1751620527670086400,2.56808642578125,-41.681251525878906,8.287500381469727,17.325000762939453
1751620527680086500,2.57808642578125,-41.53125,8.25,17.381250381469727
1751620527690086400,2.58808642578125,-41.64375305175781,8.175000190734863,17.381250381469727
1751620527700086500,2.59808642578125,-41.75625228881836,8.0625,17.137500762939453
1751620527710086400,2.60808642578125,-41.85000228881836,7.856250286102295,17.212501525878906
1751620527720086500,2.61808642578125,-42.056251525878906,7.800000190734863,17.493751525878906
1751620527730086400,2.62808642578125,-41.92500305175781,7.462500095367432,17.400001525878906
1751620527740086500,2.63808642578125,-41.868751525878906,7.725000381469727,17.568750381469727
1751620527750086400,2.64808642578125,-41.868751525878906,7.706250190734863,17.381250381469727
1751620527760086500,2.65808642578125,-42.01875305175781,7.743750095367432,17.100000381469727
1751620527770086400,2.66808642578125,-41.8125,7.818750381469727,17.15625
1751620527780086500,2.67808642578125,-42,7.931250095367432,17.418750762939453
1751620527790086400,2.68808642578125,-42.11250305175781,8.02500057220459,17.475000381469727
1751620527800086500,2.69808642578125,-41.92500305175781,7.950000286102295,17.36250114440918
1751620527810086400,2.70808642578125,-41.94375228881836,7.968750476837158,17.587501525878906
1751620527820086500,2.71808642578125,-41.79375076293945,7.781250476837158,17.381250381469727
1751620527830086400,2.72808642578125,-41.90625,7.856250286102295,17.400001525878906
1751620527840086500,2.73808642578125,-41.8125,7.743750095367432,17.45625114440918
1751620527850086400,2.74808642578125,-41.71875,7.725000381469727,17.418750762939453
1751620527860086500,2.75808642578125,-41.53125,7.725000381469727,17.231250762939453
1751620527870086400,2.76808642578125,-41.19375228881836,7.631250381469727,17.400001525878906
1751620527880086500,2.77808642578125,-41.306251525878906,7.725000381469727,17.400001525878906
1751620527890086400,2.78808642578125,-41.26875305175781,7.706250190734863,17.231250762939453
1751620527900086500,2.79808642578125,-41.45625305175781,7.575000286102295,17.4375
1751620527910086400,2.80808642578125,-41.55000305175781,7.650000095367432,17.4375
1751620527920086500,2.81808642578125,-41.56875228881836,7.912500381469727,17.606250762939453
1751620527930086400,2.82808642578125,-41.73750305175781,7.893750190734863,17.55000114440918
1751620527940086500,2.83808642578125,-41.493751525878906,7.875000476837158,17.71875
1751620527950086400,2.84808642578125,-41.625,8.0625,17.756250381469727
1751620527960086500,2.85808642578125,-41.587501525878906,8.100000381469727,17.756250381469727
1751620527970086400,2.86808642578125,-41.51250076293945,8.25,17.71875
1751620527980086500,2.87808642578125,-41.212501525878906,8.325000762939453,17.681251525878906
1751620527990086400,2.88808642578125,-41.0625,8.362500190734863,17.700000762939453
1751620528000086500,2.89808642578125,-41.025001525878906,8.268750190734863,17.64375114440918
1751620528010086400,2.90808642578125,-41.025001525878906,8.40000057220459,17.756250381469727
1751620528020086500,2.91808642578125,-40.931251525878906,8.512500762939453,17.868751525878906
1751620528030086400,2.92808642578125,-41.19375228881836,8.49375057220459,17.73750114440918
1751620528040086500,2.93808642578125,-41.118751525878906,8.456250190734863,17.587501525878906
1751620528050086400,2.94808642578125,-41.306251525878906,8.30625057220459,17.662500381469727
1751620528060086500,2.95808642578125,-41.41875076293945,8.4375,17.475000381469727
1751620528070086400,2.96808642578125,-41.32500076293945,8.34375,17.475000381469727
1751620528080086500,2.97808642578125,-41.25,8.34375,17.231250762939453
1751620528090086400,2.98808642578125,-41.26875305175781,8.081250190734863,17.193750381469727
1751620528100086500,2.99808642578125,-41.55000305175781,8.0625,16.96875
1751620528110086400,3.00808642578125,-41.17500305175781,8.11875057220459,16.98750114440918
1751620528120086500,3.01808642578125,-41.15625,8.15625,17.100000381469727
1751620528130086400,3.02808642578125,-41.025001525878906,8.34375,17.100000381469727
1751620528140086500,3.03808642578125,-41.15625,8.231250762939453,17.25
1751620528150086400,3.04808642578125,-41.13750076293945,8.193750381469727,17.25
1751620528160086500,3.05808642578125,-41.32500076293945,7.987500190734863,17.418750762939453
1751620528170086400,3.06808642578125,-41.41875076293945,8.175000190734863,17.64375114440918
1751620528180086500,3.07808642578125,-41.28750228881836,8.175000190734863,17.775001525878906
1751620528190086400,3.08808642578125,-41.71875,8.043750762939453,17.587501525878906
1751620528200086500,3.09808642578125,-41.60625076293945,8.137500762939453,17.53125
1751620528210086400,3.10808642578125,-41.66250228881836,7.950000286102295,17.306251525878906
1751620528220086500,3.11808642578125,-41.56875228881836,7.912500381469727,17.193750381469727
1751620528230086400,3.12808642578125,-41.83125305175781,7.837500095367432,17.306251525878906
1751620528240086500,3.13808642578125,-41.64375305175781,7.931250095367432,17.231250762939453
1751620528250086400,3.14808642578125,-41.306251525878906,7.781250476837158,17.100000381469727
1751620528260086500,3.15808642578125,-41.53125,7.800000190734863,16.98750114440918
1751620528270086400,3.16808642578125,-41.17500305175781,7.893750190734863,17.287500381469727
1751620528280086500,3.17808642578125,-41.51250076293945,7.818750381469727,17.36250114440918
1751620528290086400,3.18808642578125,-41.23125076293945,8.006250381469727,17.587501525878906
1751620528300086500,3.19808642578125,-41.17500305175781,8.006250381469727,17.700000762939453
1751620528310086400,3.20808642578125,-41.025001525878906,8.175000190734863,17.662500381469727
1751620528320086500,3.21808642578125,-41.13750076293945,8.25,17.625
1751620528330086400,3.22808642578125,-41.23125076293945,8.325000762939453,17.55000114440918
1751620528340086500,3.23808642578125,-41.36250305175781,8.25,17.45625114440918
1751620528350086400,3.24808642578125,-41.400001525878906,8.137500762939453,17.137500762939453
1751620528360086500,3.25808642578125,-41.23125076293945,8.0625,17.231250762939453
1751620528370086400,3.26808642578125,-41.41875076293945,8.0625,17.325000762939453
1751620528380086500,3.27808642578125,-41.45625305175781,8.25,17.36250114440918
1751620528390086400,3.28808642578125,-41.212501525878906,8.287500381469727,17.118751525878906
1751620528400086500,3.29808642578125,-41.10000228881836,8.21250057220459,17.325000762939453
1751620528410086400,3.30808642578125,-41.400001525878906,8.287500381469727,17.418750762939453
1751620528420086500,3.31808642578125,-41.17500305175781,8.268750190734863,17.400001525878906
1751620528430086400,3.32808642578125,-41.13750076293945,8.268750190734863,17.700000762939453
1751620528440086500,3.33808642578125,-41.23125076293945,8.34375,17.625
1751620528450086400,3.34808642578125,-41.19375228881836,8.137500762939453,17.287500381469727
1751620528460086500,3.35808642578125,-41.4375,7.987500190734863,17.287500381469727
1751620528470086400,3.36808642578125,-41.53125,7.856250286102295,17.34375
1751620528480086500,3.37808642578125,-41.45625305175781,7.893750190734863,17.26875114440918
1751620528490086400,3.38808642578125,-41.19375228881836,7.818750381469727,17.17500114440918
1751620528500086500,3.39808642578125,-40.98750305175781,7.800000190734863,17.231250762939453
1751620528510086400,3.40808642578125,-41.13750076293945,7.706250190734863,17.006250381469727
1751620528520086500,3.41808642578125,-40.931251525878906,7.762500286102295,16.89375114440918
1751620528530086400,3.42808642578125,-41.0625,7.893750190734863,17.137500762939453
1751620528540086500,3.43808642578125,-40.66875076293945,7.856250286102295,17.118751525878906
1751620528550086400,3.44808642578125,-40.6875,7.912500381469727,17.25
1751620528560086500,3.45808642578125,-40.70625305175781,7.987500190734863,17.287500381469727
1751620528570086400,3.46808642578125,-40.556251525878906,8.02500057220459,17.34375
1751620528580086500,3.47808642578125,-40.78125,8.081250190734863,17.45625114440918
1751620528590086400,3.48808642578125,-40.42500305175781,8.137500762939453,17.45625114440918
1751620528600086500,3.49808642578125,-40.556251525878906,8.006250381469727,17.512500762939453
1751620528610086400,3.50808642578125,-40.556251525878906,7.987500190734863,17.381250381469727
1751620528620086500,3.51808642578125,-40.91250228881836,8.006250381469727,17.15625
1751620528630086400,3.52808642578125,-40.95000076293945,8.02500057220459,17.025001525878906
1751620528640086500,3.53808642578125,-41.10000228881836,7.875000476837158,17.006250381469727
1751620528650086400,3.54808642578125,-41.36250305175781,7.856250286102295,17.15625
1751620528660086500,3.55808642578125,-41.493751525878906,7.912500381469727,16.98750114440918
1751620528670086400,3.56808642578125,-41.775001525878906,8.043750762939453,17.100000381469727
1751620528680086500,3.57808642578125,-41.60625076293945,8.100000381469727,17.25
1751620528690086400,3.58808642578125,-41.625,8.137500762939453,17.418750762939453
1751620528700086500,3.59808642578125,-41.53125,8.193750381469727,17.568750381469727
1751620528710086400,3.60808642578125,-41.47500228881836,8.25,17.606250762939453
1751620528720086500,3.61808642578125,-41.306251525878906,8.325000762939453,17.493751525878906
1751620528730086400,3.62808642578125,-41.47500228881836,8.40000057220459,17.25
1751620528740086500,3.63808642578125,-41.36250305175781,8.268750190734863,17.400001525878906
1751620528750086400,3.64808642578125,-41.587501525878906,8.193750381469727,17.118751525878906
1751620528760086500,3.65808642578125,-41.8125,8.231250762939453,17.100000381469727
1751620528770086400,3.66808642578125,-41.8125,8.02500057220459,17.0625
1751620528780086500,3.67808642578125,-41.8125,8.0625,17.025001525878906
1751620528790086400,3.68808642578125,-42.09375,7.987500190734863,17.08125114440918
1751620528800086500,3.69808642578125,-42.11250305175781,8.006250381469727,17.26875114440918
1751620528810086400,3.70808642578125,-41.94375228881836,8.006250381469727,17.193750381469727
1751620528820086500,3.71808642578125,-41.83125305175781,7.987500190734863,17.212501525878906
1751620528830086400,3.72808642578125,-41.8125,8.02500057220459,17.568750381469727
1751620528840086500,3.73808642578125,-41.71875,7.912500381469727,17.475000381469727
1751620528850086400,3.74808642578125,-41.79375076293945,8.043750762939453,17.587501525878906
1751620528860086500,3.75808642578125,-41.775001525878906,7.875000476837158,17.606250762939453
1751620528870086400,3.76808642578125,-41.75625228881836,7.818750381469727,17.512500762939453
1751620528880086500,3.77808642578125,-41.75625228881836,7.856250286102295,17.400001525878906
1751620528890086400,3.78808642578125,-41.53125,7.875000476837158,17.700000762939453
1751620528900086500,3.79808642578125,-41.71875,8.02500057220459,17.587501525878906
1751620528910086400,3.80808642578125,-41.38125228881836,8.100000381469727,17.587501525878906
1751620528920086500,3.81808642578125,-41.306251525878906,8.15625,17.868751525878906
1751620528930086400,3.82808642578125,-41.13750076293945,8.268750190734863,17.943750381469727
1751620528940086500,3.83808642578125,-41.08125305175781,8.49375057220459,18.1875
1751620528950086400,3.84808642578125,-40.91250228881836,8.456250190734863,18.243751525878906
1751620528960086500,3.85808642578125,-40.98750305175781,8.25,18.225000381469727
1751620528970086400,3.86808642578125,-41.04375076293945,8.175000190734863,18.037500381469727
1751620528980086500,3.87808642578125,-40.89375305175781,8.11875057220459,18.09375
1751620528990086400,3.88808642578125,-40.98750305175781,8.081250190734863,17.981250762939453
1751620529000086500,3.89808642578125,-41.04375076293945,8.175000190734863,17.775001525878906
1751620529010086400,3.90808642578125,-41.10000228881836,8.11875057220459,17.587501525878906
1751620529020086500,3.91808642578125,-41.0625,8.043750762939453,17.325000762939453
1751620529030086400,3.92808642578125,-41.0625,8.100000381469727,17.475000381469727
1751620529040086500,3.93808642578125,-41.04375076293945,8.34375,17.512500762939453
1751620529050086400,3.94808642578125,-41.118751525878906,8.21250057220459,17.512500762939453
1751620529060086500,3.95808642578125,-41.212501525878906,8.34375,17.4375
1751620529070086400,3.96808642578125,-41.36250305175781,8.268750190734863,17.512500762939453
1751620529080086500,3.97808642578125,-41.4375,8.231250762939453,17.512500762939453
1751620529090086400,3.98808642578125,-41.34375,8.175000190734863,17.212501525878906
1751620529100086500,3.99808642578125,-41.10000228881836,8.0625,17.25
1751620529110086400,4.00808642578125,-41.15625,8.100000381469727,17.0625
1751620529120086500,4.01808642578125,-41.41875076293945,8.02500057220459,17.0625
1751620529130086400,4.02808642578125,-41.34375,8.100000381469727,17.25
1751620529140086500,4.03808642578125,-41.13750076293945,8.25,17.26875114440918
1751620529150086400,4.04808642578125,-40.96875,8.268750190734863,17.325000762939453
1751620529160086500,4.05808642578125,-40.91250228881836,8.02500057220459,17.287500381469727
1751620529170086400,4.06808642578125,-41.04375076293945,8.006250381469727,17.45625114440918
1751620529180086500,4.07808642578125,-41.19375228881836,8.02500057220459,17.568750381469727
1751620529190086400,4.08808642578125,-41.04375076293945,8.043750762939453,17.8125
1751620529200086500,4.09808642578125,-40.81875228881836,8.02500057220459,17.775001525878906
1751620529210086400,4.10808642578125,-41.025001525878906,7.968750476837158,17.625
1751620529220086500,4.11808642578125,-41.08125305175781,7.537500381469727,17.625
1751620529230086400,4.12808642578125,-41.025001525878906,7.668750286102295,17.587501525878906
1751620529240086500,4.13808642578125,-40.96875,7.987500190734863,17.662500381469727
1751620529250086400,4.14808642578125,-40.91250228881836,7.912500381469727,17.756250381469727
1751620529260086500,4.15808642578125,-41.025001525878906,7.987500190734863,17.756250381469727
1751620529270086400,4.16808642578125,-41.26875305175781,7.968750476837158,17.25
1751620529280086500,4.17808642578125,-41.118751525878906,8.100000381469727,17.25
1751620529290086400,4.18808642578125,-40.89375305175781,8.0625,17.137500762939453
1751620529300086500,4.19808642578125,-40.85625076293945,8.25,17.231250762939453
1751620529310086400,4.20808642578125,-41.15625,8.231250762939453,17.100000381469727
1751620529320086500,4.21808642578125,-41.28750228881836,8.081250190734863,16.875
1751620529330086400,4.22808642578125,-41.4375,7.931250095367432,16.912500381469727
1751620529340086500,4.23808642578125,-41.32500076293945,7.856250286102295,16.837501525878906
1751620529350086400,4.24808642578125,-41.19375228881836,7.875000476837158,17.15625
1751620529360086500,4.25808642578125,-41.306251525878906,7.800000190734863,17.17500114440918
1751620529370086400,4.26808642578125,-41.4375,7.912500381469727,17.306251525878906
1751620529380086500,4.27808642578125,-41.70000076293945,7.893750190734863,17.325000762939453
1751620529390086400,4.28808642578125,-41.64375305175781,7.650000095367432,17.306251525878906
1751620529400086500,4.29808642578125,-41.55000305175781,7.668750286102295,17.287500381469727
1751620529410086400,4.30808642578125,-41.400001525878906,7.931250095367432,17.100000381469727
1751620529420086500,4.31808642578125,-41.38125228881836,7.950000286102295,17.08125114440918
1751620529430086400,4.32808642578125,-41.4375,7.931250095367432,17.118751525878906
1751620529440086500,4.33808642578125,-41.56875228881836,7.856250286102295,17.006250381469727
1751620529450086400,4.34808642578125,-41.625,7.931250095367432,16.96875
1751620529460086500,4.35808642578125,-41.587501525878906,7.931250095367432,16.856250762939453
1751620529470086400,4.36808642578125,-41.64375305175781,8.15625,16.80000114440918
1751620529480086500,4.37808642578125,-41.681251525878906,8.15625,16.931251525878906
1751620529490086400,4.38808642578125,-41.56875228881836,8.15625,17.08125114440918
1751620529500086500,4.39808642578125,-41.587501525878906,8.21250057220459,17.15625
1751620529510086400,4.40808642578125,-41.47500228881836,8.231250762939453,17.137500762939453
1751620529520086500,4.41808642578125,-41.25,8.231250762939453,17.306251525878906
1751620529530086400,4.42808642578125,-41.13750076293945,8.193750381469727,17.15625
1751620529540086500,4.43808642578125,-40.76250076293945,8.175000190734863,17.100000381469727
1751620529550086400,4.44808642578125,-40.72500228881836,8.15625,17.325000762939453
1751620529560086500,4.45808642578125,-40.80000305175781,8.175000190734863,17.287500381469727
1751620529570086400,4.46808642578125,-40.70625305175781,8.325000762939453,17.26875114440918
1751620529580086500,4.47808642578125,-40.81875228881836,8.268750190734863,17.212501525878906
1751620529590086400,4.48808642578125,-40.70625305175781,8.25,17.34375
1751620529600086500,4.49808642578125,-40.76250076293945,8.231250762939453,17.26875114440918
1751620529610086400,4.50808642578125,-40.76250076293945,8.137500762939453,17.400001525878906
1751620529620086500,4.51808642578125,-41.025001525878906,8.081250190734863,17.4375
1751620529630086400,4.52808642578125,-41.00625228881836,8.100000381469727,17.4375
1751620529640086500,4.53808642578125,-41.00625228881836,8.175000190734863,17.34375
1751620529650086400,4.54808642578125,-41.04375076293945,8.0625,17.36250114440918
1751620529660086500,4.55808642578125,-41.0625,8.006250381469727,17.493751525878906
1751620529670086400,4.56808642578125,-41.025001525878906,7.781250476837158,17.381250381469727
1751620529680086500,4.57808642578125,-40.875,7.800000190734863,17.45625114440918
1751620529690086400,4.58808642578125,-41.025001525878906,7.893750190734863,17.493751525878906
1751620529700086500,4.59808642578125,-41.212501525878906,7.931250095367432,17.475000381469727
1751620529710086400,4.60808642578125,-41.17500305175781,7.912500381469727,17.662500381469727
1751620529720086500,4.61808642578125,-41.04375076293945,7.856250286102295,17.92500114440918
1751620529730086400,4.62808642578125,-41.26875305175781,7.912500381469727,18
1751620529740086500,4.63808642578125,-41.13750076293945,8.02500057220459,17.793750762939453
1751620529750086400,4.64808642578125,-41.212501525878906,8.231250762939453,17.756250381469727
1751620529760086500,4.65808642578125,-41.47500228881836,8.287500381469727,17.662500381469727
1751620529770086400,4.66808642578125,-41.53125,8.175000190734863,17.512500762939453
1751620529780086500,4.67808642578125,-41.306251525878906,8.11875057220459,17.53125
1751620529790086400,4.68808642578125,-41.36250305175781,8.15625,17.137500762939453
1751620529800086500,4.69808642578125,-41.47500228881836,8.137500762939453,17.231250762939453
1751620529810086400,4.70808642578125,-41.118751525878906,7.968750476837158,17.006250381469727
1751620529820086500,4.71808642578125,-41.60625076293945,8.100000381469727,17.15625
1751620529830086400,4.72808642578125,-41.681251525878906,7.950000286102295,17.006250381469727
1751620529840086500,4.73808642578125,-41.8125,8.006250381469727,17.025001525878906
1751620529850086400,4.74808642578125,-41.73750305175781,8.137500762939453,17.287500381469727
1751620529860086500,4.75808642578125,-41.60625076293945,8.175000190734863,17.212501525878906
1751620529870086400,4.76808642578125,-41.60625076293945,8.137500762939453,17.400001525878906
1751620529880086500,4.77808642578125,-41.625,8.043750762939453,17.212501525878906
1751620529890086400,4.78808642578125,-41.868751525878906,8.231250762939453,17.400001525878906
1751620529900086500,4.79808642578125,-41.4375,8.25,17.493751525878906
1751620529910086400,4.80808642578125,-41.60625076293945,8.456250190734863,17.793750762939453
1751620529920086500,4.81808642578125,-41.28750228881836,8.49375057220459,17.887500762939453
1751620529930086400,4.82808642578125,-41.25,8.381250381469727,17.493751525878906
1751620529940086500,4.83808642578125,-41.32500076293945,8.456250190734863,17.53125
1751620529950086400,4.84808642578125,-41.118751525878906,8.40000057220459,17.53125
1751620529960086500,4.85808642578125,-41.10000228881836,8.53125,17.475000381469727
1751620529970086400,4.86808642578125,-40.85625076293945,8.4375,17.45625114440918
1751620529980086500,4.87808642578125,-41.10000228881836,8.325000762939453,17.26875114440918
1751620529990086400,4.88808642578125,-41.15625,8.137500762939453,17.287500381469727
1751620530000086500,4.89808642578125,-41.28750228881836,8.25,17.212501525878906
1751620530010086400,4.90808642578125,-41.41875076293945,8.25,17.475000381469727
1751620530020086500,4.91808642578125,-41.28750228881836,8.268750190734863,17.34375
1751620530030086400,4.92808642578125,-41.56875228881836,8.268750190734863,17.231250762939453
1751620530040086500,4.93808642578125,-41.493751525878906,8.193750381469727,17.381250381469727
1751620530050086400,4.94808642578125,-41.775001525878906,8.193750381469727,17.400001525878906
1751620530060086500,4.95808642578125,-41.56875228881836,8.287500381469727,17.493751525878906
1751620530070086400,4.96808642578125,-41.28750228881836,8.287500381469727,17.53125
1751620530080086500,4.97808642578125,-41.38125228881836,8.11875057220459,17.681251525878906
1751620530090086400,4.98808642578125,-40.931251525878906,8.15625,17.850000381469727
1751620530100086500,4.99808642578125,-41.08125305175781,8.15625,18.20625114440918
1751620530110086400,5.00808642578125,-40.98750305175781,8.100000381469727,18.30000114440918
1751620530120086500,5.01808642578125,-40.98750305175781,8.006250381469727,18.01875114440918
1751620530130086400,5.02808642578125,-40.96875,8.02500057220459,18
1751620530140086500,5.03808642578125,-41.025001525878906,7.950000286102295,17.962501525878906
1751620530150086400,5.04808642578125,-41.17500305175781,7.931250095367432,17.8125
1751620530160086500,5.05808642578125,-41.118751525878906,7.837500095367432,17.475000381469727
1751620530170086400,5.06808642578125,-41.56875228881836,7.893750190734863,17.306251525878906
1751620530180086500,5.07808642578125,-41.55000305175781,7.856250286102295,17.137500762939453
1751620530190086400,5.08808642578125,-41.28750228881836,7.968750476837158,17.212501525878906
1751620530200086500,5.09808642578125,-41.306251525878906,8.11875057220459,17.493751525878906
1751620530210086400,5.10808642578125,-41.28750228881836,8.0625,17.45625114440918
1751620530220086500,5.11808642578125,-41.306251525878906,8.11875057220459,17.493751525878906
1751620530230086400,5.12808642578125,-41.28750228881836,8.268750190734863,17.475000381469727
1751620530240086500,5.13808642578125,-41.25,8.175000190734863,17.493751525878906
1751620530250086400,5.14808642578125,-41.23125076293945,8.381250381469727,17.475000381469727
1751620530260086500,5.15808642578125,-41.36250305175781,8.362500190734863,17.45625114440918
1751620530270086400,5.16808642578125,-41.493751525878906,8.231250762939453,17.512500762939453
1751620530280086500,5.17808642578125,-41.625,8.231250762939453,17.287500381469727
1751620530290086400,5.18808642578125,-41.55000305175781,8.231250762939453,17.287500381469727
1751620530300086500,5.19808642578125,-41.55000305175781,8.175000190734863,17.231250762939453
1751620530310086400,5.20808642578125,-41.53125,8.100000381469727,17.25
1751620530320086500,5.21808642578125,-41.56875228881836,8.325000762939453,17.212501525878906
1751620530330086400,5.22808642578125,-41.587501525878906,8.043750762939453,17.17500114440918
1751620530340086500,5.23808642578125,-41.47500228881836,8.21250057220459,17.418750762939453
1751620530350086400,5.24808642578125,-41.45625305175781,8.362500190734863,17.34375
1751620530360086500,5.25808642578125,-41.45625305175781,8.175000190734863,17.26875114440918
1751620530370086400,5.26808642578125,-41.681251525878906,8.100000381469727,17.381250381469727
1751620530380086500,5.27808642578125,-41.79375076293945,8.02500057220459,17.568750381469727
1751620530390086400,5.28808642578125,-41.66250228881836,8.100000381469727,17.45625114440918
1751620530400086500,5.29808642578125,-41.56875228881836,8.0625,17.662500381469727
1751620530410086400,5.30808642578125,-41.41875076293945,8.02500057220459,17.625
1751620530420086500,5.31808642578125,-41.36250305175781,7.912500381469727,17.45625114440918
1751620530430086400,5.32808642578125,-41.36250305175781,7.837500095367432,17.55000114440918
1751620530440086500,5.33808642578125,-41.26875305175781,8.02500057220459,17.71875
1751620530450086400,5.34808642578125,-41.025001525878906,8.081250190734863,17.512500762939453
1751620530460086500,5.35808642578125,-40.95000076293945,8.231250762939453,17.418750762939453
1751620530470086400,5.36808642578125,-41.04375076293945,8.231250762939453,17.587501525878906
1751620530480086500,5.37808642578125,-41.212501525878906,7.987500190734863,17.606250762939453
1751620530490086400,5.38808642578125,-41.26875305175781,8.175000190734863,17.681251525878906
1751620530500086500,5.39808642578125,-41.66250228881836,8.231250762939453,17.700000762939453
1751620530510086400,5.40808642578125,-41.53125,8.287500381469727,17.512500762939453
1751620530520086500,5.41808642578125,-41.71875,8.268750190734863,17.700000762939453
1751620530530086400,5.42808642578125,-41.83125305175781,8.362500190734863,17.73750114440918
1751620530540086500,5.43808642578125,-41.8125,8.0625,17.775001525878906
1751620530550086400,5.44808642578125,-41.92500305175781,8.081250190734863,17.55000114440918
1751620530560086500,5.45808642578125,-41.775001525878906,8.231250762939453,17.512500762939453
1751620530570086400,5.46808642578125,-41.70000076293945,8.0625,17.381250381469727
1751620530580086500,5.47808642578125,-41.4375,8.081250190734863,17.25
1751620530590086400,5.48808642578125,-41.34375,7.725000381469727,17.212501525878906
1751620530600086500,5.49808642578125,-41.118751525878906,7.650000095367432,17.025001525878906
1751620530610086400,5.50808642578125,-40.98750305175781,7.725000381469727,17.0625
1751620530620086500,5.51808642578125,-41.00625228881836,7.781250476837158,17.08125114440918
1751620530630086400,5.52808642578125,-40.98750305175781,7.706250190734863,17.15625
1751620530640086500,5.53808642578125,-41.00625228881836,7.818750381469727,17.36250114440918
1751620530650086400,5.54808642578125,-40.98750305175781,7.837500095367432,17.64375114440918
1751620530660086500,5.55808642578125,-40.875,7.837500095367432,17.73750114440918
1751620530670086400,5.56808642578125,-40.85625076293945,8.175000190734863,17.71875
1751620530680086500,5.57808642578125,-40.743751525878906,8.231250762939453,17.587501525878906
1751620530690086400,5.58808642578125,-40.743751525878906,8.25,17.71875
1751620530700086500,5.59808642578125,-40.743751525878906,8.49375057220459,17.700000762939453
1751620530710086400,5.60808642578125,-40.81875228881836,8.625,17.90625
1751620530720086500,5.61808642578125,-40.91250228881836,8.550000190734863,17.73750114440918
1751620530730086400,5.62808642578125,-40.78125,8.475000381469727,17.662500381469727
1751620530740086500,5.63808642578125,-41.118751525878906,8.550000190734863,17.700000762939453
1751620530750086400,5.64808642578125,-41.55000305175781,8.49375057220459,17.64375114440918
1751620530760086500,5.65808642578125,-41.8125,8.512500762939453,17.73750114440918
1751620530770086400,5.66808642578125,-42,8.362500190734863,17.53125
1751620530780086500,5.67808642578125,-42.243751525878906,8.381250381469727,17.512500762939453
1751620530790086400,5.68808642578125,-42.26250076293945,8.21250057220459,17.45625114440918
1751620530800086500,5.69808642578125,-42.337501525878906,8.231250762939453,17.34375
1751620530810086400,5.70808642578125,-42.63750076293945,8.25,17.25
1751620530820086500,5.71808642578125,-42.50625228881836,8.11875057220459,17.08125114440918
1751620530830086400,5.72808642578125,-42.1875,8.006250381469727,17.193750381469727
1751620530840086500,5.73808642578125,-42.01875305175781,8.0625,17.17500114440918
1751620530850086400,5.74808642578125,-41.94375228881836,8.0625,17.15625
1751620530860086500,5.75808642578125,-41.88750076293945,7.912500381469727,17.137500762939453
1751620530870086400,5.76808642578125,-41.70000076293945,8.02500057220459,17.100000381469727
1751620530880086500,5.77808642578125,-41.625,7.912500381469727,17.118751525878906
1751620530890086400,5.78808642578125,-41.45625305175781,8.11875057220459,17.212501525878906
1751620530900086500,5.79808642578125,-41.34375,8.043750762939453,17.287500381469727
1751620530910086400,5.80808642578125,-41.75625228881836,7.987500190734863,17.212501525878906
1751620530920086500,5.81808642578125,-41.775001525878906,7.837500095367432,17.118751525878906
1751620530930086400,5.82808642578125,-42,7.931250095367432,17.4375
1751620530940086500,5.83808642578125,-41.88750076293945,8.081250190734863,17.418750762939453
1751620530950086400,5.84808642578125,-41.85000228881836,8.02500057220459,17.325000762939453
1751620530960086500,5.85808642578125,-41.70000076293945,8.0625,17.381250381469727
1751620530970086400,5.86808642578125,-41.94375228881836,7.931250095367432,17.381250381469727
1751620530980086500,5.87808642578125,-41.73750305175781,7.987500190734863,17.418750762939453
1751620530990086400,5.88808642578125,-41.55000305175781,7.987500190734863,17.400001525878906
1751620531000086500,5.89808642578125,-41.45625305175781,8.006250381469727,17.512500762939453
1751620531010086400,5.90808642578125,-41.13750076293945,8.043750762939453,17.25
1751620531020086500,5.91808642578125,-40.95000076293945,8.02500057220459,17.287500381469727
1751620531030086400,5.92808642578125,-41.04375076293945,7.912500381469727,17.36250114440918
1751620531040086500,5.93808642578125,-41.212501525878906,7.987500190734863,17.193750381469727
1751620531050086400,5.94808642578125,-41.10000228881836,8.081250190734863,17.0625
1751620531060086500,5.95808642578125,-41.28750228881836,8.043750762939453,16.950000762939453
1751620531070086400,5.96808642578125,-41.08125305175781,8.043750762939453,16.950000762939453
1751620531080086500,5.97808642578125,-41.212501525878906,7.931250095367432,16.875
1751620531090086400,5.98808642578125,-41.25,7.912500381469727,17.006250381469727
1751620531100086500,5.99808642578125,-41.34375,7.612500190734863,16.856250762939453
1751620531110086400,6.00808642578125,-41.36250305175781,7.706250190734863,16.875
1751620531120086500,6.01808642578125,-41.36250305175781,7.481250286102295,16.950000762939453
1751620531130086400,6.02808642578125,-41.38125228881836,7.518750190734863,17.100000381469727
1751620531140086500,6.03808642578125,-41.28750228881836,7.575000286102295,17.231250762939453
1751620531150086400,6.04808642578125,-41.55000305175781,7.781250476837158,17.25
1751620531160086500,6.05808642578125,-41.47500228881836,8.006250381469727,17.25
1751620531170086400,6.06808642578125,-41.55000305175781,7.837500095367432,17.137500762939453
1751620531180086500,6.07808642578125,-41.45625305175781,8.175000190734863,17.26875114440918
1751620531190086400,6.08808642578125,-41.41875076293945,8.25,17.231250762939453
1751620531200086500,6.09808642578125,-41.41875076293945,8.456250190734863,17.25
1751620531210086400,6.10808642578125,-41.17500305175781,8.53125,17.100000381469727
1751620531220086500,6.11808642578125,-41.13750076293945,8.568750381469727,16.98750114440918
1751620531230086400,6.12808642578125,-40.72500228881836,8.175000190734863,16.950000762939453
1751620531240086500,6.13808642578125,-40.78125,8.15625,16.96875
1751620531250086400,6.14808642578125,-40.6875,8.381250381469727,17.043750762939453
1751620531260086500,6.15808642578125,-40.78125,8.231250762939453,17.118751525878906
1751620531270086400,6.16808642578125,-40.837501525878906,8.081250190734863,17.137500762939453
1751620531280086500,6.17808642578125,-40.81875228881836,8.02500057220459,17.118751525878906
1751620531290086400,6.18808642578125,-41.10000228881836,7.743750095367432,17.26875114440918
1751620531300086500,6.19808642578125,-41.23125076293945,7.650000095367432,17.325000762939453
1751620531310086400,6.20808642578125,-41.681251525878906,7.818750381469727,17.26875114440918
1751620531320086500,6.21808642578125,-41.71875,7.856250286102295,17.306251525878906
1751620531330086400,6.22808642578125,-41.868751525878906,7.743750095367432,17.45625114440918
1751620531340086500,6.23808642578125,-41.98125076293945,7.837500095367432,17.55000114440918
1751620531350086400,6.24808642578125,-41.98125076293945,8.02500057220459,17.587501525878906
1751620531360086500,6.25808642578125,-41.83125305175781,8.15625,17.512500762939453
1751620531370086400,6.26808642578125,-41.775001525878906,8.175000190734863,17.475000381469727
1751620531380086500,6.27808642578125,-41.775001525878906,8.268750190734863,17.475000381469727
1751620531390086400,6.28808642578125,-41.60625076293945,8.4375,17.681251525878906
1751620531400086500,6.29808642578125,-41.400001525878906,8.381250381469727,17.71875
1751620531410086400,6.30808642578125,-41.306251525878906,8.475000381469727,17.700000762939453
1751620531420086500,6.31808642578125,-41.025001525878906,8.49375057220459,17.793750762939453
1751620531430086400,6.32808642578125,-40.98750305175781,8.325000762939453,17.850000381469727
1751620531440086500,6.33808642578125,-41.0625,8.268750190734863,17.962501525878906
1751620531450086400,6.34808642578125,-41.15625,8.25,18.01875114440918
1751620531460086500,6.35808642578125,-41.212501525878906,8.006250381469727,18
1751620531470086400,6.36808642578125,-41.28750228881836,8.0625,17.943750381469727
1751620531480086500,6.37808642578125,-41.493751525878906,8.043750762939453,17.775001525878906
1751620531490086400,6.38808642578125,-41.4375,7.912500381469727,17.73750114440918
1751620531500086500,6.39808642578125,-41.56875228881836,7.818750381469727,17.306251525878906
1751620531510086400,6.40808642578125,-41.493751525878906,7.968750476837158,17.287500381469727
1751620531520086500,6.41808642578125,-41.681251525878906,7.912500381469727,17.606250762939453
1751620531530086400,6.42808642578125,-41.625,7.931250095367432,17.568750381469727
1751620531540086500,6.43808642578125,-41.47500228881836,7.950000286102295,17.700000762939453
1751620531550086400,6.44808642578125,-41.45625305175781,7.650000095367432,17.887500762939453
1751620531560086500,6.45808642578125,-41.71875,7.462500095367432,18.20625114440918
1751620531570086400,6.46808642578125,-41.51250076293945,7.331250190734863,18.11250114440918
1751620531580086500,6.47808642578125,-41.51250076293945,7.293750286102295,18.5625
1751620531590086400,6.48808642578125,-41.681251525878906,7.106250286102295,18.731250762939453
1751620531600086500,6.49808642578125,-41.587501525878906,6.768750190734863,18.637500762939453
1751620531610086400,6.50808642578125,-41.45625305175781,6.731250286102295,18.787500381469727
1751620531620086500,6.51808642578125,-41.25,6.468750476837158,18.918750762939453
1751620531630086400,6.52808642578125,-41.493751525878906,6.262500286102295,18.918750762939453
1751620531640086500,6.53808642578125,-41.17500305175781,5.925000190734863,18.825000762939453
1751620531650086400,6.54808642578125,-41.36250305175781,5.71875,18.918750762939453
1751620531660086500,6.55808642578125,-41.53125,5.400000095367432,18.825000762939453
1751620531670086400,6.56808642578125,-41.34375,5.100000381469727,18.637500762939453
1751620531680086500,6.57808642578125,-41.28750228881836,5.212500095367432,18.76875114440918
1751620531690086400,6.58808642578125,-41.26875305175781,4.837500095367432,18.600000381469727
1751620531700086500,6.59808642578125,-41.56875228881836,4.912500381469727,18.412500381469727
1751620531710086400,6.60808642578125,-41.47500228881836,5.137500286102295,18.46875
1751620531720086500,6.61808642578125,-41.47500228881836,5.400000095367432,18.506250381469727
1751620531730086400,6.62808642578125,-41.47500228881836,5.700000286102295,18.39375114440918
1751620531740086500,6.63808642578125,-41.38125228881836,5.887500286102295,18.09375
1751620531750086400,6.64808642578125,-41.625,6.393750190734863,17.962501525878906
1751620531760086500,6.65808642578125,-41.75625228881836,6.506250381469727,17.493751525878906
1751620531770086400,6.66808642578125,-41.90625,7.050000190734863,17.287500381469727
1751620531780086500,6.67808642578125,-42.056251525878906,7.668750286102295,17.100000381469727
1751620531790086400,6.68808642578125,-41.83125305175781,8.043750762939453,16.743751525878906
1751620531800086500,6.69808642578125,-42.03750228881836,8.512500762939453,16.743751525878906
1751620531810086400,6.70808642578125,-42.07500076293945,8.96250057220459,16.350000381469727
1751620531820086500,6.71808642578125,-42,9.450000762939453,16.368751525878906
1751620531830086400,6.72808642578125,-41.71875,9.506250381469727,16.14375114440918
1751620531840086500,6.73808642578125,-41.51250076293945,10.068750381469727,16.256250381469727
1751620531850086400,6.74808642578125,-41.38125228881836,10.331250190734863,16.40625
1751620531860086500,6.75808642578125,-41.04375076293945,10.40625,16.575000762939453
1751620531870086400,6.76808642578125,-41.04375076293945,10.46250057220459,16.631250381469727
1751620531880086500,6.77808642578125,-40.98750305175781,10.55625057220459,16.40625
1751620531890086400,6.78808642578125,-40.91250228881836,10.575000762939453,16.59375
1751620531900086500,6.79808642578125,-40.95000076293945,10.293750762939453,16.42500114440918
1751620531910086400,6.80808642578125,-41.08125305175781,10.387500762939453,16.668750762939453
1751620531920086500,6.81808642578125,-41.08125305175781,10.050000190734863,16.6875
1751620531930086400,6.82808642578125,-41.28750228881836,9.731250762939453,16.668750762939453
1751620531940086500,6.83808642578125,-41.45625305175781,9.168750762939453,16.80000114440918
1751620531950086400,6.84808642578125,-41.625,8.568750381469727,16.80000114440918
1751620531960086500,6.85808642578125,-41.23125076293945,7.875000476837158,17.25
1751620531970086400,6.86808642578125,-41.41875076293945,7.012500286102295,17.4375
1751620531980086500,6.87808642578125,-41.51250076293945,6.262500286102295,17.92500114440918
1751620531990086400,6.88808642578125,-41.34375,5.34375,18.150001525878906
1751620532000086500,6.89808642578125,-41.306251525878906,4.575000286102295,18.243751525878906
1751620532010086400,6.90808642578125,-41.08125305175781,3.9562501907348633,18.506250381469727
1751620532020086500,6.91808642578125,-40.76250076293945,3.5062501430511475,18.525001525878906
1751620532030086400,6.92808642578125,-40.61250305175781,2.9625000953674316,18.600000381469727
1751620532040086500,6.93808642578125,-41.025001525878906,2.5500001907348633,18.48750114440918
1751620532050086400,6.94808642578125,-40.96875,2.34375,18.618751525878906
1751620532060086500,6.95808642578125,-40.6875,2.15625,18.506250381469727
1751620532070086400,6.96808642578125,-40.80000305175781,2.25,18.356250762939453
1751620532080086500,6.97808642578125,-40.875,2.4937500953674316,18.39375114440918
1751620532090086400,6.98808642578125,-40.931251525878906,2.6437501907348633,18.30000114440918
1751620532100086500,6.99808642578125,-41.23125076293945,2.9250001907348633,18.337501525878906
1751620532110086400,7.00808642578125,-41.17500305175781,3.637500047683716,18.450000762939453
1751620532120086500,7.01808642578125,-41.04375076293945,4.237500190734863,18.337501525878906
1751620532130086400,7.02808642578125,-41.17500305175781,4.837500095367432,18.243751525878906
1751620532140086500,7.03808642578125,-41.306251525878906,5.8125,18.243751525878906
1751620532150086400,7.04808642578125,-41.23125076293945,6.431250095367432,18.225000381469727
1751620532160086500,7.05808642578125,-41.212501525878906,7.031250476837158,18.01875114440918
1751620532170086400,7.06808642578125,-41.28750228881836,7.762500286102295,17.700000762939453
1751620532180086500,7.07808642578125,-41.32500076293945,8.25,17.0625
1751620532190086400,7.08808642578125,-41.34375,8.756250381469727,16.818750381469727
1751620532200086500,7.09808642578125,-41.47500228881836,9.225000381469727,16.462501525878906
1751620532210086400,7.10808642578125,-41.25,9.787500381469727,16.275001525878906
1751620532220086500,7.11808642578125,-41.45625305175781,9.90000057220459,16.106250762939453
1751620532230086400,7.12808642578125,-41.66250228881836,10.256250381469727,16.106250762939453
1751620532240086500,7.13808642578125,-41.8125,10.293750762939453,16.106250762939453
1751620532250086400,7.14808642578125,-41.85000228881836,10.331250190734863,16.181251525878906
1751620532260086500,7.15808642578125,-41.98125076293945,10.3125,16.631250381469727
1751620532270086400,7.16808642578125,-41.98125076293945,10.162500381469727,16.70625114440918
1751620532280086500,7.17808642578125,-42.07500076293945,9.956250190734863,16.668750762939453
1751620532290086400,7.18808642578125,-42.22500228881836,9.637500762939453,16.837501525878906
1751620532300086500,7.19808642578125,-42.26250076293945,9.43125057220459,17.025001525878906
1751620532310086400,7.20808642578125,-42.01875305175781,9.018750190734863,17.100000381469727
1751620532320086500,7.21808642578125,-41.85000228881836,8.662500381469727,17.231250762939453
1751620532330086400,7.22808642578125,-41.56875228881836,7.968750476837158,17.475000381469727
1751620532340086500,7.23808642578125,-41.38125228881836,7.387500286102295,17.55000114440918
1751620532350086400,7.24808642578125,-41.41875076293945,6.787500381469727,17.850000381469727
1751620532360086500,7.25808642578125,-41.118751525878906,6.075000286102295,18.28125
1751620532370086400,7.26808642578125,-41.19375228881836,5.25,18.30000114440918
1751620532380086500,7.27808642578125,-40.91250228881836,4.481250286102295,18.243751525878906
1751620532390086400,7.28808642578125,-41.25,3.8625001907348633,18.431251525878906
1751620532400086500,7.29808642578125,-41.36250305175781,3.2250001430511475,18.65625
1751620532410086400,7.30808642578125,-41.41875076293945,2.9437501430511475,18.881250381469727
1751620532420086500,7.31808642578125,-41.400001525878906,2.71875,18.787500381469727
1751620532430086400,7.32808642578125,-41.38125228881836,2.5500001907348633,18.618751525878906
1751620532440086500,7.33808642578125,-41.34375,2.53125,18.637500762939453
1751620532450086400,7.34808642578125,-41.306251525878906,2.7750000953674316,18.75
1751620532460086500,7.35808642578125,-41.400001525878906,3.075000047683716,18.86250114440918
1751620532470086400,7.36808642578125,-41.28750228881836,3.468750238418579,18.712501525878906
1751620532480086500,7.37808642578125,-41.15625,4.125,18.600000381469727
1751620532490086400,7.38808642578125,-41.212501525878906,4.6875,18.131250381469727
1751620532500086500,7.39808642578125,-41.306251525878906,5.456250190734863,18.11250114440918
1751620532510086400,7.40808642578125,-41.47500228881836,6.262500286102295,18.20625114440918
1751620532520086500,7.41808642578125,-41.212501525878906,7.087500095367432,17.756250381469727
1751620532530086400,7.42808642578125,-41.08125305175781,7.893750190734863,17.325000762939453
1751620532540086500,7.43808642578125,-40.89375305175781,8.625,16.743751525878906
1751620532550086400,7.44808642578125,-40.6875,9.131250381469727,16.293750762939453
1751620532560086500,7.45808642578125,-40.837501525878906,9.693750381469727,15.937500953674316
1751620532570086400,7.46808642578125,-40.89375305175781,10.331250190734863,15.637500762939453
1751620532580086500,7.47808642578125,-40.66875076293945,10.762500762939453,15.318750381469727
1751620532590086400,7.48808642578125,-40.5,11.006250381469727,14.943750381469727
1751620532600086500,7.49808642578125,-40.81875228881836,11.34375,15.000000953674316
1751620532610086400,7.50808642578125,-40.875,11.58750057220459,14.700000762939453
1751620532620086500,7.51808642578125,-41.04375076293945,11.68125057220459,14.793750762939453
1751620532630086400,7.52808642578125,-41.10000228881836,11.662500381469727,14.718750953674316
1751620532640086500,7.53808642578125,-41.23125076293945,11.49375057220459,15.000000953674316
1751620532650086400,7.54808642578125,-41.28750228881836,11.11875057220459,15.225000381469727
1751620532660086500,7.55808642578125,-41.53125,10.800000190734863,15.637500762939453
1751620532670086400,7.56808642578125,-41.45625305175781,10.237500190734863,15.843750953674316
1751620532680086500,7.57808642578125,-41.56875228881836,9.600000381469727,16.350000381469727
1751620532690086400,7.58808642578125,-41.55000305175781,8.643750190734863,16.96875
1751620532700086500,7.59808642578125,-41.493751525878906,7.762500286102295,17.36250114440918
1751620532720086500,7.61808642578125,-41.08125305175781,6.543750286102295,17.943750381469727
1751620532730086400,7.62808642578125,-40.95000076293945,5.868750095367432,18.431251525878906
1751620532740086500,7.63808642578125,-40.91250228881836,4.875,18.58125114440918
1751620532750086400,7.64808642578125,-41.08125305175781,4.012500286102295,18.76875114440918
1751620532760086500,7.65808642578125,-41.08125305175781,3.5250000953674316,18.67500114440918
1751620532770086400,7.66808642578125,-40.80000305175781,3.356250047683716,18.637500762939453
1751620532780086500,7.67808642578125,-40.6875,3.3000001907348633,18.76875114440918
1751620532790086400,7.68808642578125,-40.95000076293945,3.2437500953674316,18.9375
1751620532800086500,7.69808642578125,-40.875,3.2437500953674316,18.75
1751620532810086400,7.70808642578125,-40.80000305175781,3.5250000953674316,18.506250381469727
1751620532820086500,7.71808642578125,-40.6875,4.256250381469727,18.28125
1751620532830086400,7.72808642578125,-40.51875305175781,5.025000095367432,18.30000114440918
1751620532840086500,7.73808642578125,-40.48125076293945,5.943750381469727,18.168750762939453
1751620532850086400,7.74808642578125,-40.70625305175781,6.618750095367432,18.056251525878906
1751620532860086500,7.75808642578125,-40.837501525878906,7.462500095367432,17.568750381469727
1751620532870086400,7.76808642578125,-40.931251525878906,8.4375,17.118751525878906
1751620532880086500,7.77808642578125,-40.78125,9.225000381469727,16.818750381469727
1751620532890086400,7.78808642578125,-40.63125228881836,10.03125,16.387500762939453
1751620532900086500,7.79808642578125,-40.556251525878906,10.537500381469727,15.956250190734863
1751620532910086400,7.80808642578125,-40.78125,11.25,15.43125057220459
1751620532920086500,7.81808642578125,-40.650001525878906,11.662500381469727,15.112500190734863
1751620532930086400,7.82808642578125,-40.743751525878906,12.206250190734863,14.793750762939453
1751620532940086500,7.83808642578125,-40.76250076293945,12.412500381469727,14.606250762939453
1751620532950086400,7.84808642578125,-40.72500228881836,12.656250953674316,14.531250953674316
1751620532960086500,7.85808642578125,-40.81875228881836,12.750000953674316,14.550000190734863
1751620532970086400,7.86808642578125,-41.25,12.543750762939453,14.531250953674316
1751620532980086500,7.87808642578125,-41.47500228881836,12.43125057220459,14.737500190734863
1751620532990086400,7.88808642578125,-41.34375,12.168750762939453,14.68125057220459
1751620533000086500,7.89808642578125,-41.34375,11.643750190734863,14.793750762939453
1751620533010086400,7.90808642578125,-41.26875305175781,11.21250057220459,15.112500190734863
1751620533020086500,7.91808642578125,-41.17500305175781,10.65000057220459,15.468750953674316
1751620533030086400,7.92808642578125,-41.26875305175781,9.918750762939453,15.825000762939453
1751620533040086500,7.93808642578125,-41.32500076293945,9.206250190734863,16.33125114440918
1751620533050086400,7.94808642578125,-40.89375305175781,8.643750190734863,16.6875
1751620533060086500,7.95808642578125,-40.81875228881836,7.968750476837158,16.98750114440918
1751620533070086400,7.96808642578125,-40.85625076293945,7.200000286102295,17.606250762939453
1751620533080086500,7.97808642578125,-40.85625076293945,6.468750476837158,17.90625
1751620533090086400,7.98808642578125,-41.00625228881836,5.643750190734863,18.09375
1751620533100086500,7.99808642578125,-41.19375228881836,5.006250381469727,18.337501525878906
1751620533110086400,8.00808642578125,-41.212501525878906,4.443750381469727,18.431251525878906
1751620533120086500,8.01808642578125,-41.25,3.9000000953674316,18.48750114440918
1751620533130086400,8.02808642578125,-41.51250076293945,3.4312500953674316,18.825000762939453
1751620533140086500,8.03808642578125,-41.400001525878906,3.0375001430511475,19.03125
1751620533150086400,8.04808642578125,-41.400001525878906,2.7562501430511475,18.900001525878906
1751620533160086500,8.05808642578125,-41.47500228881836,2.700000047683716,18.95625114440918
1751620533170086400,8.06808642578125,-41.47500228881836,2.8500001430511475,19.012500762939453
1751620533180086500,8.07808642578125,-41.45625305175781,3.2250001430511475,18.993751525878906
1751620533190086400,8.08808642578125,-41.25,3.5062501430511475,18.787500381469727
1751620533200086500,8.09808642578125,-41.15625,4.087500095367432,18.431251525878906
1751620533210086400,8.10808642578125,-41.13750076293945,4.743750095367432,17.943750381469727
1751620533220086500,8.11808642578125,-40.98750305175781,5.643750190734863,17.53125
1751620533230086400,8.12808642578125,-41.17500305175781,6.600000381469727,17.381250381469727
1751620533240086500,8.13808642578125,-41.23125076293945,7.556250095367432,16.89375114440918
1751620533250086400,8.14808642578125,-41.25,8.381250381469727,16.51875114440918
1751620533260086500,8.15808642578125,-41.04375076293945,9.225000381469727,16.125
1751620533270086400,8.16808642578125,-41.17500305175781,10.106250762939453,15.675000190734863
1751620533280086500,8.17808642578125,-41.13750076293945,10.725000381469727,15.562500953674316
1751620533290086400,8.18808642578125,-41.118751525878906,11.4375,15.43125057220459
1751620533300086500,8.19808642578125,-41.17500305175781,11.86875057220459,15.131250381469727
1751620533310086400,8.20808642578125,-41.0625,12.206250190734863,14.737500190734863
1751620533320086500,8.21808642578125,-41.17500305175781,12.33750057220459,14.550000190734863
1751620533330086400,8.22808642578125,-41.04375076293945,12.600000381469727,14.325000762939453
1751620533340086500,8.23808642578125,-41.17500305175781,12.656250953674316,14.156250953674316
1751620533350086400,8.24808642578125,-41.17500305175781,12.637500762939453,14.250000953674316
1751620533360086500,8.25808642578125,-41.19375228881836,12.506250381469727,14.156250953674316
1751620533370086400,8.26808642578125,-41.26875305175781,12.24375057220459,14.21250057220459
1751620533380086500,8.27808642578125,-41.493751525878906,11.90625,14.437500953674316
1751620533390086400,8.28808642578125,-41.493751525878906,11.606250762939453,14.662500381469727
1751620533400086500,8.29808642578125,-41.28750228881836,11.268750190734863,15.093750953674316
1751620533410086400,8.30808642578125,-41.26875305175781,10.65000057220459,15.506250381469727
1751620533420086500,8.31808642578125,-41.41875076293945,10.012500762939453,15.99375057220459
1751620533430086400,8.32808642578125,-41.41875076293945,9.24375057220459,16.443750381469727
1751620533440086500,8.33808642578125,-41.83125305175781,8.568750381469727,16.78125
1751620533450086400,8.34808642578125,-42,7.781250476837158,17.08125114440918
1751620533460086500,8.35808642578125,-42.03750228881836,7.087500095367432,17.45625114440918
1751620533470086400,8.36808642578125,-41.92500305175781,6.300000190734863,18.037500381469727
1751620533480086500,8.37808642578125,-42.09375,5.381250381469727,18.262500762939453
1751620533490086400,8.38808642578125,-42.243751525878906,4.59375,18.450000762939453
1751620533500086500,8.39808642578125,-42.03750228881836,3.8625001907348633,18.46875
1751620533510086400,8.40808642578125,-42.01875305175781,3.3187501430511475,18.731250762939453
1751620533520086500,8.41808642578125,-41.775001525878906,2.9250001907348633,18.975000381469727
1751620533530086400,8.42808642578125,-41.625,2.4562501907348633,19.23750114440918
1751620533540086500,8.43808642578125,-41.587501525878906,2.0625,19.275001525878906
1751620533550086400,8.44808642578125,-41.55000305175781,1.7625000476837158,19.125
1751620533560086500,8.45808642578125,-41.41875076293945,1.7812501192092896,19.181251525878906
1751620533570086400,8.46808642578125,-41.45625305175781,1.7812501192092896,19.125
1751620533580086500,8.47808642578125,-41.55000305175781,1.9500000476837158,19.200000762939453
1751620533590086400,8.48808642578125,-41.625,2.0812501907348633,18.900001525878906
1751620533600086500,8.49808642578125,-41.4375,2.137500047683716,18.637500762939453
1751620533610086400,8.50808642578125,-41.60625076293945,2.7562501430511475,18.375
1751620533620086500,8.51808642578125,-41.56875228881836,3.4312500953674316,18.131250381469727
1751620533630086400,8.52808642578125,-41.625,4.181250095367432,18.09375
1751620533640086500,8.53808642578125,-41.625,4.893750190734863,17.700000762939453
1751620533650086400,8.54808642578125,-41.73750305175781,5.71875,17.55000114440918
1751620533660086500,8.55808642578125,-41.60625076293945,6.431250095367432,17.100000381469727
1751620533670086400,8.56808642578125,-41.51250076293945,7.218750476837158,16.837501525878906
1751620533680086500,8.57808642578125,-41.70000076293945,8.043750762939453,16.5
1751620533690086400,8.58808642578125,-41.587501525878906,8.550000190734863,16.293750762939453
1751620533700086500,8.59808642578125,-41.53125,9.09375,15.918750762939453
1751620533710086400,8.60808642578125,-41.66250228881836,9.543750762939453,15.450000762939453
1751620533720086500,8.61808642578125,-41.66250228881836,9.9375,15.225000381469727
1751620533730086400,8.62808642578125,-41.64375305175781,10.237500190734863,15.225000381469727
1751620533740086500,8.63808642578125,-41.66250228881836,10.425000190734863,15.318750381469727
1751620533750086400,8.64808642578125,-41.79375076293945,10.575000762939453,15.262500762939453
1751620533760086500,8.65808642578125,-41.775001525878906,10.725000381469727,15.412500381469727
1751620533770086400,8.66808642578125,-41.868751525878906,10.800000190734863,15.393750190734863
1751620533780086500,8.67808642578125,-42.11250305175781,10.818750381469727,15.825000762939453
1751620533790086400,8.68808642578125,-42.07500076293945,10.518750190734863,15.956250190734863
1751620533800086500,8.69808642578125,-42.150001525878906,10.106250762939453,16.21875
1751620533810086400,8.70808642578125,-42.056251525878906,9.65625,16.181251525878906
1751620533820086500,8.71808642578125,-42.11250305175781,9,16.42500114440918
1751620533830086400,8.72808642578125,-42.28125,8.381250381469727,16.931251525878906
1751620533840086500,8.73808642578125,-42.45000076293945,7.500000476837158,17.26875114440918
1751620533850086400,8.74808642578125,-42.41250228881836,6.543750286102295,17.493751525878906
1751620533860086500,8.75808642578125,-42.45000076293945,5.418750286102295,17.475000381469727
1751620533870086400,8.76808642578125,-42.41250228881836,4.59375,17.8125
1751620533880086500,8.77808642578125,-42.39375305175781,3.6937501430511475,18.11250114440918
1751620533890086400,8.78808642578125,-42.22500228881836,2.8687500953674316,18.412500381469727
1751620533900086500,8.79808642578125,-42.13125228881836,2.4750001430511475,18.46875
1751620533910086400,8.80808642578125,-42,1.8562500476837158,18.637500762939453
1751620533920086500,8.81808642578125,-41.90625,1.537500023841858,18.693750381469727
1751620533930086400,8.82808642578125,-41.681251525878906,1.2937500476837158,18.825000762939453
1751620533940086500,8.83808642578125,-41.71875,1.40625,19.087501525878906
1751620533950086400,8.84808642578125,-41.79375076293945,1.537500023841858,19.23750114440918
1751620533960086500,8.85808642578125,-41.625,1.9875000715255737,19.162500381469727
1751620533970086400,8.86808642578125,-41.47500228881836,2.5875000953674316,19.068750381469727
1751620533980086500,8.87808642578125,-41.51250076293945,3.093750238418579,18.993751525878906
1751620533990086400,8.88808642578125,-41.400001525878906,4.050000190734863,18.600000381469727
1751620534000086500,8.89808642578125,-41.26875305175781,4.631250381469727,18.131250381469727
1751620534010086400,8.90808642578125,-41.41875076293945,5.700000286102295,17.793750762939453
1751620534020086500,8.91808642578125,-41.13750076293945,6.618750095367432,17.287500381469727
1751620534030086400,8.92808642578125,-41.19375228881836,7.687500476837158,16.631250381469727
1751620534040086500,8.93808642578125,-41.15625,8.71875,16.162500381469727
1751620534050086400,8.94808642578125,-41.26875305175781,9.506250381469727,15.881250381469727
1751620534060086500,8.95808642578125,-41.28750228881836,10.08750057220459,15.318750381469727
1751620534070086400,8.96808642578125,-41.306251525878906,10.575000762939453,15.112500190734863
1751620534080086500,8.97808642578125,-41.28750228881836,11.512500762939453,14.925000190734863
1751620534090086400,8.98808642578125,-41.23125076293945,11.831250190734863,14.737500190734863
1751620534100086500,8.99808642578125,-41.17500305175781,11.925000190734863,14.568750381469727
1751620534110086400,9.00808642578125,-41.17500305175781,11.981250762939453,14.625000953674316
1751620534120086500,9.01808642578125,-41.47500228881836,11.90625,14.718750953674316
1751620534130086400,9.02808642578125,-41.587501525878906,11.662500381469727,14.737500190734863
1751620534140086500,9.03808642578125,-41.493751525878906,11.550000190734863,15.131250381469727
1751620534150086400,9.04808642578125,-41.493751525878906,10.987500190734863,15.24375057220459
1751620534160086500,9.05808642578125,-41.681251525878906,10.125,15.562500953674316
1751620534170086400,9.06808642578125,-41.88750076293945,9.356250762939453,15.956250190734863
1751620534180086500,9.07808642578125,-42.11250305175781,8.77500057220459,16.350000381469727
1751620534190086400,9.08808642578125,-42.01875305175781,7.762500286102295,16.78125
1751620534200086500,9.09808642578125,-42.01875305175781,6.693750381469727,17.26875114440918
1751620534210086400,9.10808642578125,-41.94375228881836,5.775000095367432,17.943750381469727
1751620534220086500,9.11808642578125,-42.13125228881836,4.706250190734863,18.20625114440918
1751620534230086400,9.12808642578125,-42.09375,3.8625001907348633,18.712501525878906
1751620534240086500,9.13808642578125,-41.962501525878906,3.187500238418579,19.087501525878906
1751620534250086400,9.14808642578125,-42.01875305175781,2.5687501430511475,19.21875
1751620534260086500,9.15808642578125,-41.85000228881836,1.9312500953674316,19.51875114440918
1751620534270086400,9.16808642578125,-41.962501525878906,1.8750001192092896,19.668750762939453
1751620534280086500,9.17808642578125,-41.775001525878906,2.0062501430511475,19.61250114440918
1751620534290086400,9.18808642578125,-41.775001525878906,2.1750001907348633,19.256250381469727
1751620534300086500,9.19808642578125,-41.71875,2.7375001907348633,19.40625
1751620534310086400,9.20808642578125,-41.681251525878906,3.450000047683716,18.993751525878906
1751620534320086500,9.21808642578125,-41.83125305175781,4.200000286102295,18.48750114440918
1751620534330086400,9.22808642578125,-41.625,5.081250190734863,18.037500381469727
1751620534340086500,9.23808642578125,-41.681251525878906,6.225000381469727,17.568750381469727
1751620534350086400,9.24808642578125,-41.36250305175781,7.143750190734863,16.875
1751620534360086500,9.25808642578125,-41.28750228881836,8.193750381469727,16.42500114440918
1751620534370086400,9.26808642578125,-41.32500076293945,9.300000190734863,15.881250381469727
1751620534380086500,9.27808642578125,-41.38125228881836,10.18125057220459,14.943750381469727
1751620534390086400,9.28808642578125,-41.493751525878906,10.96875,14.550000190734863
1751620534400086500,9.29808642578125,-41.38125228881836,11.568750381469727,14.268750190734863
1751620534410086400,9.30808642578125,-41.493751525878906,12.112500190734863,14.137500762939453
1751620534420086500,9.31808642578125,-41.53125,12.318750381469727,13.856250762939453
1751620534430086400,9.32808642578125,-41.66250228881836,12.506250381469727,13.800000190734863
1751620534440086500,9.33808642578125,-41.83125305175781,12.468750953674316,13.631250381469727
1751620534450086400,9.34808642578125,-41.73750305175781,12.225000381469727,13.74375057220459
1751620534460086500,9.35808642578125,-41.71875,11.981250762939453,14.11875057220459
1751620534470086400,9.36808642578125,-41.79375076293945,11.77500057220459,14.550000190734863
1751620534480086500,9.37808642578125,-41.868751525878906,11.34375,14.925000190734863
1751620534490086400,9.38808642578125,-41.94375228881836,10.78125,15.206250190734863
1751620534500086500,9.39808642578125,-41.94375228881836,10.106250762939453,15.731250762939453
1751620534510086400,9.40808642578125,-42.1875,9.1875,16.181251525878906
1751620534520086500,9.41808642578125,-42.20625305175781,8.231250762939453,16.668750762939453
1751620534530086400,9.42808642578125,-42.243751525878906,7.275000095367432,17.400001525878906
1751620534540086500,9.43808642578125,-42.1875,6.150000095367432,17.887500762939453
1751620534550086400,9.44808642578125,-42.337501525878906,5.137500286102295,18.39375114440918
1751620534560086500,9.45808642578125,-42.337501525878906,4.275000095367432,18.9375
1751620534570086400,9.46808642578125,-42.11250305175781,3.262500047683716,19.42500114440918
1751620534580086500,9.47808642578125,-42.056251525878906,2.4562501907348633,19.61250114440918
1751620534590086400,9.48808642578125,-41.85000228881836,1.725000023841858,19.96875
1751620534600086500,9.49808642578125,-42.01875305175781,1.3687500953674316,20.193750381469727
1751620534610086400,9.50808642578125,-42.07500076293945,1.125,20.137500762939453
1751620534620086500,9.51808642578125,-42.09375,1.1437500715255737,20.15625
1751620534630086400,9.52808642578125,-41.94375228881836,1.03125,20.006250381469727
1751620534640086500,9.53808642578125,-41.8125,1.1812500953674316,19.743751525878906
1751620534650086400,9.54808642578125,-41.625,1.8750001192092896,19.5
1751620534660086500,9.55808642578125,-41.56875228881836,2.6812500953674316,19.387500762939453
1751620534670086400,9.56808642578125,-41.55000305175781,3.562500238418579,19.012500762939453
1751620534680086500,9.57808642578125,-41.306251525878906,4.256250381469727,18.65625
1751620534690086400,9.58808642578125,-41.19375228881836,5.231250286102295,17.981250762939453
1751620534700086500,9.59808642578125,-41.08125305175781,6.056250095367432,17.493751525878906
1751620534710086400,9.60808642578125,-40.837501525878906,6.993750095367432,17.0625
1751620534720086500,9.61808642578125,-40.80000305175781,8.02500057220459,16.5
1751620534730086400,9.62808642578125,-41.0625,8.662500381469727,15.90000057220459
1751620534740086500,9.63808642578125,-41.08125305175781,9,15.300000190734863
1751620534750086400,9.64808642578125,-41.04375076293945,9.787500381469727,15.131250381469727
1751620534760086500,9.65808642578125,-41.19375228881836,10.425000190734863,14.831250190734863
1751620534770086400,9.66808642578125,-41.212501525878906,10.83750057220459,14.700000762939453
1751620534780086500,9.67808642578125,-41.400001525878906,11.30625057220459,14.568750381469727
1751620534790086400,9.68808642578125,-41.55000305175781,11.456250190734863,14.40000057220459
1751620534800086500,9.69808642578125,-41.8125,11.58750057220459,14.456250190734863
1751620534810086400,9.70808642578125,-41.60625076293945,11.625,14.418750762939453
1751620534820086500,9.71808642578125,-41.79375076293945,11.625,14.550000190734863
1751620534830086400,9.72808642578125,-41.92500305175781,11.512500762939453,14.643750190734863
1751620534840086500,9.73808642578125,-42.09375,10.74375057220459,14.850000381469727
1751620534850086400,9.74808642578125,-42.45000076293945,9.975000381469727,15.093750953674316
1751620534860086500,9.75808642578125,-42.31875228881836,9.318750381469727,15.506250381469727
1751620534870086400,9.76808642578125,-42.48750305175781,8.53125,15.656250953674316
1751620534880086500,9.77808642578125,-42.45000076293945,7.481250286102295,16.03125
1751620534890086400,9.78808642578125,-42.900001525878906,6.487500190734863,16.537500381469727
1751620534900086500,9.79808642578125,-42.75,5.4375,17.0625
1751620534910086400,9.80808642578125,-42.82500076293945,4.200000286102295,17.475000381469727
1751620534920086500,9.81808642578125,-42.63750076293945,3.6750001907348633,18.037500381469727
1751620534930086400,9.82808642578125,-42.48750305175781,3.075000047683716,18.431251525878906
1751620534940086500,9.83808642578125,-42.63750076293945,2.4937500953674316,18.65625
1751620534950086400,9.84808642578125,-42.46875,2.043750047683716,19.068750381469727
1751620534960086500,9.85808642578125,-42.337501525878906,1.8562500476837158,19.42500114440918
1751620534970086400,9.86808642578125,-42.11250305175781,1.8750001192092896,19.6875
1751620534980086500,9.87808642578125,-41.92500305175781,2.1187500953674316,19.631250381469727
1751620534990086400,9.88808642578125,-41.8125,2.625,19.51875114440918
1751620535000086500,9.89808642578125,-41.56875228881836,3.4125001430511475,19.087501525878906
1751620535010086400,9.90808642578125,-41.60625076293945,4.331250190734863,18.95625114440918
1751620535020086500,9.91808642578125,-41.681251525878906,5.025000095367432,18.67500114440918
1751620535030086400,9.92808642578125,-41.45625305175781,6.225000381469727,18.225000381469727
1751620535040086500,9.93808642578125,-41.587501525878906,7.256250381469727,17.64375114440918
1751620535050086400,9.94808642578125,-41.36250305175781,8.4375,16.98750114440918
1751620535060086500,9.95808642578125,-41.73750305175781,9.46875,16.387500762939453
1751620535070086400,9.96808642578125,-41.75625228881836,10.59375,15.918750762939453
1751620535080086500,9.97808642578125,-42.11250305175781,11.175000190734863,15.393750190734863
1751620535090086400,9.98808642578125,-41.88750076293945,11.831250190734863,14.700000762939453
1751620535100086500,9.99808642578125,-41.55000305175781,12.43125057220459,14.193750381469727
1751620535110086400,10.00808642578125,-41.70000076293945,12.843750953674316,14.006250381469727
1751620535120086500,10.01808642578125,-41.73750305175781,13.237500190734863,13.818750381469727
1751620535130086400,10.02808642578125,-41.8125,13.425000190734863,13.781250953674316
1751620535140086500,10.03808642578125,-41.75625228881836,13.406250953674316,13.687500953674316
1751620535150086400,10.04808642578125,-41.56875228881836,13.106250762939453,13.443750381469727
1751620535160086500,10.05808642578125,-41.493751525878906,12.843750953674316,13.781250953674316
1751620535170086400,10.06808642578125,-41.681251525878906,12.375000953674316,14.081250190734863
1751620535180086500,10.07808642578125,-41.94375228881836,11.925000190734863,14.325000762939453
1751620535190086400,10.08808642578125,-42.09375,11.25,14.512500762939453
1751620535200086500,10.09808642578125,-41.962501525878906,10.443750381469727,14.943750381469727
1751620535210086400,10.10808642578125,-41.92500305175781,9.52500057220459,15.468750953674316
1751620535220086500,10.11808642578125,-41.90625,8.71875,15.975000381469727
1751620535230086400,10.12808642578125,-41.90625,7.893750190734863,16.6875
1751620535240086500,10.13808642578125,-41.79375076293945,6.918750286102295,17.137500762939453
1751620535250086400,10.14808642578125,-41.47500228881836,5.850000381469727,17.625
1751620535260086500,10.15808642578125,-41.4375,4.818750381469727,18.150001525878906
1751620535270086400,10.16808642578125,-41.47500228881836,3.8812501430511475,18.375
1751620535280086500,10.17808642578125,-41.493751525878906,3.187500238418579,18.58125114440918
1751620535290086400,10.18808642578125,-41.493751525878906,2.4750001430511475,18.75
1751620535300086500,10.19808642578125,-41.41875076293945,1.9687501192092896,19.05000114440918
1751620535310086400,10.20808642578125,-41.64375305175781,1.537500023841858,19.443750381469727
1751620535320086500,10.21808642578125,-41.64375305175781,1.40625,19.650001525878906
1751620535330086400,10.22808642578125,-41.85000228881836,1.5562500953674316,19.875
1751620535340086500,10.23808642578125,-42.11250305175781,1.8750001192092896,19.725000381469727
1751620535350086400,10.24808642578125,-41.90625,1.9687501192092896,19.725000381469727
1751620535360086500,10.25808642578125,-41.90625,2.137500047683716,19.743751525878906
1751620535370086400,10.26808642578125,-42,2.5500001907348633,19.462501525878906
1751620535380086500,10.27808642578125,-41.90625,3.2062501907348633,19.23750114440918
1751620535390086400,10.28808642578125,-41.73750305175781,3.8625001907348633,18.67500114440918
1751620535400086500,10.29808642578125,-41.8125,4.612500190734863,18.20625114440918
1751620535410086400,10.30808642578125,-42.03750228881836,5.475000381469727,17.73750114440918
1751620535420086500,10.31808642578125,-41.71875,6.225000381469727,17.4375
1751620535430086400,10.32808642578125,-41.71875,7.331250190734863,17.381250381469727
1751620535440086500,10.33808642578125,-41.587501525878906,8.25,16.70625114440918
1751620535450086400,10.34808642578125,-41.64375305175781,9.09375,16.275001525878906
1751620535460086500,10.35808642578125,-41.587501525878906,9.637500762939453,16.125
1751620535470086400,10.36808642578125,-41.60625076293945,10.03125,15.637500762939453
1751620535480086500,10.37808642578125,-41.681251525878906,10.256250381469727,15.600000381469727
1751620535490086400,10.38808642578125,-41.587501525878906,10.27500057220459,15.393750190734863
1751620535500086500,10.39808642578125,-41.64375305175781,10.36875057220459,15.450000762939453
1751620535510086400,10.40808642578125,-41.83125305175781,10.08750057220459,15.52500057220459
1751620535520086500,10.41808642578125,-41.868751525878906,9.65625,15.825000762939453
1751620535530086400,10.42808642578125,-41.625,9.075000762939453,16.21875
1751620535540086500,10.43808642578125,-41.79375076293945,8.325000762939453,16.350000381469727
1751620535550086400,10.44808642578125,-41.98125076293945,7.462500095367432,16.96875
1751620535560086500,10.45808642578125,-42,6.637500286102295,17.231250762939453
1751620535570086400,10.46808642578125,-41.83125305175781,5.71875,17.83125114440918
1751620535580086500,10.47808642578125,-41.92500305175781,4.462500095367432,18.225000381469727
1751620535590086400,10.48808642578125,-41.8125,3.468750238418579,18.356250762939453
1751620535600086500,10.49808642578125,-41.94375228881836,2.6437501907348633,18.787500381469727
1751620535610086400,10.50808642578125,-42.09375,1.912500023841858,19.068750381469727
1751620535620086500,10.51808642578125,-42.01875305175781,1.256250023841858,19.181251525878906
1751620535630086400,10.52808642578125,-42.03750228881836,0.9937500357627869,19.368751525878906
1751620535640086500,10.53808642578125,-41.90625,0.7875000238418579,19.556251525878906
1751620535650086400,10.54808642578125,-41.868751525878906,0.675000011920929,19.443750381469727
1751620535660086500,10.55808642578125,-41.85000228881836,0.9750000238418579,19.350000381469727
1751620535670086400,10.56808642578125,-41.73750305175781,1.3125,19.106250762939453
1751620535680086500,10.57808642578125,-41.8125,1.8562500476837158,18.76875114440918
1751620535690086400,10.58808642578125,-41.868751525878906,2.5687501430511475,18.543750762939453
1751620535700086500,10.59808642578125,-41.83125305175781,3.5812501907348633,18.46875
1751620535710086400,10.60808642578125,-41.66250228881836,4.443750381469727,17.92500114440918
1751620535720086500,10.61808642578125,-41.681251525878906,5.550000190734863,17.400001525878906
1751620535730086400,10.62808642578125,-41.71875,6.618750095367432,16.875
1751620535740086500,10.63808642578125,-41.400001525878906,7.593750476837158,16.443750381469727
1751620535750086400,10.64808642578125,-41.38125228881836,8.568750381469727,16.14375114440918
1751620535760086500,10.65808642578125,-41.23125076293945,9.318750381469727,15.862500190734863
1751620535770086400,10.66808642578125,-41.13750076293945,9.975000381469727,15.506250381469727
1751620535780086500,10.67808642578125,-41.32500076293945,10.5,15.206250190734863
1751620535790086400,10.68808642578125,-41.08125305175781,10.725000381469727,15.093750953674316
1751620535800086500,10.69808642578125,-41.25,10.78125,15.000000953674316
1751620535810086400,10.70808642578125,-41.400001525878906,10.875,14.943750381469727
1751620535820086500,10.71808642578125,-41.56875228881836,10.875,15.112500190734863
1751620535830086400,10.72808642578125,-41.625,10.612500190734863,15.393750190734863
1751620535840086500,10.73808642578125,-41.73750305175781,10.293750762939453,15.412500381469727
1751620535850086400,10.74808642578125,-41.8125,9.731250762939453,15.675000190734863
1751620535860086500,10.75808642578125,-41.85000228881836,9.037500381469727,16.05000114440918
1751620535870086400,10.76808642578125,-42.03750228881836,8.4375,16.256250381469727
1751620535880086500,10.77808642578125,-41.88750076293945,7.612500190734863,16.631250381469727
1751620535890086400,10.78808642578125,-42,6.750000476837158,17.15625
1751620535900086500,10.79808642578125,-42.13125228881836,5.625,17.400001525878906
1751620535910086400,10.80808642578125,-42.20625305175781,4.631250381469727,17.662500381469727
1751620535920086500,10.81808642578125,-42.30000305175781,3.6187500953674316,18.131250381469727
1751620535930086400,10.82808642578125,-42.26250076293945,2.606250047683716,18.412500381469727
1751620535940086500,10.83808642578125,-42.01875305175781,2.0062501430511475,18.712501525878906
1751620535950086400,10.84808642578125,-42.337501525878906,1.350000023841858,18.9375
1751620535960086500,10.85808642578125,-42.58125305175781,1.03125,19.23750114440918
1751620535970086400,10.86808642578125,-42.45000076293945,0.8250000476837158,19.21875
1751620535980086500,10.87808642578125,-42.337501525878906,0.956250011920929,19.481250762939453
1751620535990086400,10.88808642578125,-42.26250076293945,1.03125,19.51875114440918
1751620536000086500,10.89808642578125,-42.28125,1.4625000953674316,19.631250381469727
1751620536010086400,10.90808642578125,-42.28125,2.1750001907348633,19.59375
1751620536020086500,10.91808642578125,-42.41250228881836,2.90625,19.3125
1751620536030086400,10.92808642578125,-42.16875076293945,3.7125000953674316,19.14375114440918
1751620536040086500,10.93808642578125,-41.8125,4.425000190734863,18.76875114440918
1751620536050086400,10.94808642578125,-41.681251525878906,5.306250095367432,18.39375114440918
1751620536060086500,10.95808642578125,-41.70000076293945,6.168750286102295,17.756250381469727
1751620536070086400,10.96808642578125,-41.85000228881836,7.200000286102295,17.36250114440918
1751620536080086500,10.97808642578125,-41.71875,8.287500381469727,16.631250381469727
1751620536090086400,10.98808642578125,-41.962501525878906,9.131250381469727,15.843750953674316
1751620536100086500,10.99808642578125,-42.01875305175781,9.675000190734863,15.543750762939453
1751620536110086400,11.00808642578125,-41.85000228881836,10.36875057220459,15.24375057220459
1751620536120086500,11.01808642578125,-42.150001525878906,10.950000762939453,14.981250762939453
1751620536130086400,11.02808642578125,-42.09375,11.175000190734863,14.906250953674316
1751620536140086500,11.03808642578125,-42.11250305175781,11.40000057220459,14.906250953674316
1751620536150086400,11.04808642578125,-41.868751525878906,11.34375,15.037500381469727
1751620536160086500,11.05808642578125,-41.775001525878906,11.0625,15.318750381469727
1751620536170086400,11.06808642578125,-41.625,10.6875,15.731250762939453
1751620536180086500,11.07808642578125,-41.775001525878906,10.387500762939453,15.843750953674316
1751620536190086400,11.08808642578125,-41.79375076293945,9.787500381469727,16.33125114440918
1751620536200086500,11.09808642578125,-41.71875,9.018750190734863,16.51875114440918
1751620536210086400,11.10808642578125,-42,8.137500762939453,16.818750381469727
1751620536220086500,11.11808642578125,-42.22500228881836,7.181250095367432,17.100000381469727
1751620536230086400,11.12808642578125,-42.337501525878906,6.412500381469727,17.36250114440918
1751620536240086500,11.13808642578125,-42.50625228881836,5.550000190734863,17.662500381469727
1751620536250086400,11.14808642578125,-42.46875,4.78125,18.01875114440918
1751620536260086500,11.15808642578125,-42.20625305175781,3.750000238418579,18.131250381469727
1751620536270086400,11.16808642578125,-42.431251525878906,3.075000047683716,18.30000114440918
1751620536280086500,11.17808642578125,-42.39375305175781,2.5687501430511475,18.65625
1751620536290086400,11.18808642578125,-42.16875076293945,2.2125000953674316,18.693750381469727
1751620536300086500,11.19808642578125,-42.16875076293945,1.9500000476837158,18.65625
1751620536310086400,11.20808642578125,-42.13125228881836,1.8562500476837158,18.86250114440918
1751620536320086500,11.21808642578125,-41.92500305175781,1.6687500476837158,18.84375
1751620536330086400,11.22808642578125,-41.71875,1.8562500476837158,18.806251525878906
1751620536340086500,11.23808642578125,-41.79375076293945,2.15625,18.825000762939453
1751620536350086400,11.24808642578125,-41.625,2.4937500953674316,18.76875114440918
1751620536360086500,11.25808642578125,-41.26875305175781,3.0562500953674316,18.787500381469727
1751620536370086400,11.26808642578125,-41.17500305175781,3.7125000953674316,18.787500381469727
1751620536380086500,11.27808642578125,-41.025001525878906,4.518750190734863,18.787500381469727
1751620536390086400,11.28808642578125,-41.04375076293945,5.4375,18.150001525878906
1751620536400086500,11.29808642578125,-40.96875,6.693750381469727,17.83125114440918
1751620536410086400,11.30808642578125,-41.26875305175781,7.781250476837158,17.568750381469727
1751620536420086500,11.31808642578125,-41.10000228881836,8.943750381469727,17.08125114440918
1751620536430086400,11.32808642578125,-40.95000076293945,9.731250762939453,16.462501525878906
1751620536440086500,11.33808642578125,-41.212501525878906,10.631250381469727,15.843750953674316
1751620536450086400,11.34808642578125,-41.19375228881836,11.362500190734863,15.187500953674316
1751620536460086500,11.35808642578125,-40.85625076293945,11.831250190734863,14.700000762939453
1751620536470086400,11.36808642578125,-40.72500228881836,12.318750381469727,14.456250190734863
1751620536480086500,11.37808642578125,-40.66875076293945,12.262500762939453,14.175000190734863
1751620536490086400,11.38808642578125,-40.44375228881836,12.037500381469727,14.137500762939453
1751620536500086500,11.39808642578125,-40.59375,11.737500190734863,14.531250953674316
1751620536510086400,11.40808642578125,-40.81875228881836,11.58750057220459,14.606250762939453
1751620536520086500,11.41808642578125,-40.95000076293945,11.006250381469727,14.943750381469727
1751620536530086400,11.42808642578125,-41.118751525878906,10.537500381469727,15.600000381469727
1751620536540086500,11.43808642578125,-41.47500228881836,9.99375057220459,16.068750381469727
1751620536550086400,11.44808642578125,-41.75625228881836,8.831250190734863,16.42500114440918
1751620536560086500,11.45808642578125,-41.868751525878906,7.875000476837158,17.006250381469727
1751620536570086400,11.46808642578125,-42,6.937500476837158,17.400001525878906
1751620536580086500,11.47808642578125,-41.962501525878906,6.037500381469727,17.625
1751620536590086400,11.48808642578125,-42.01875305175781,4.950000286102295,18.168750762939453
1751620536600086500,11.49808642578125,-41.98125076293945,4.106250286102295,18.450000762939453
1751620536610086400,11.50808642578125,-41.98125076293945,3.1500000953674316,18.712501525878906
1751620536620086500,11.51808642578125,-41.90625,2.34375,18.84375
1751620536630086400,11.52808642578125,-41.73750305175781,1.725000023841858,19.5
1751620536640086500,11.53808642578125,-41.71875,1.3312500715255737,19.5
1751620536650086400,11.54808642578125,-41.75625228881836,1.0125000476837158,19.537500381469727
1751620536660086500,11.55808642578125,-41.60625076293945,0.8062500357627869,19.61250114440918
1751620536670086400,11.56808642578125,-41.75625228881836,1.0125000476837158,19.631250381469727
1751620536680086500,11.57808642578125,-41.681251525878906,1.0875000953674316,19.556251525878906
1751620536690086400,11.58808642578125,-41.88750076293945,1.3125,19.387500762939453
1751620536700086500,11.59808642578125,-41.962501525878906,1.5562500953674316,19.350000381469727
1751620536710086400,11.60808642578125,-42.056251525878906,2.34375,18.975000381469727
1751620536720086500,11.61808642578125,-42.16875076293945,2.9437501430511475,18.67500114440918
1751620536730086400,11.62808642578125,-42.01875305175781,3.731250047683716,18.375
1751620536740086500,11.63808642578125,-42.1875,4.575000286102295,18.09375
1751620536750086400,11.64808642578125,-41.775001525878906,5.287500381469727,17.775001525878906
1751620536760086500,11.65808642578125,-41.71875,6.262500286102295,17.475000381469727
1751620536770086400,11.66808642578125,-41.47500228881836,7.293750286102295,16.950000762939453
1751620536780086500,11.67808642578125,-41.55000305175781,8.137500762939453,16.61250114440918
1751620536790086400,11.68808642578125,-41.60625076293945,8.756250381469727,16.33125114440918
1751620536800086500,11.69808642578125,-41.681251525878906,9.506250381469727,16.23750114440918
1751620536810086400,11.70808642578125,-41.70000076293945,10.03125,16.05000114440918
1751620536820086500,11.71808642578125,-41.587501525878906,10.143750190734863,15.80625057220459
1751620536830086400,11.72808642578125,-41.88750076293945,10.21875,15.731250762939453
1751620536840086500,11.73808642578125,-41.8125,10.143750190734863,15.675000190734863
1751620536850086400,11.74808642578125,-41.70000076293945,9.787500381469727,16.03125
1751620536860086500,11.75808642578125,-41.56875228881836,9.375,16.3125
1751620536870086400,11.76808642578125,-41.73750305175781,8.68125057220459,16.443750381469727
1751620536880086500,11.77808642578125,-41.70000076293945,7.893750190734863,16.743751525878906
1751620536890086400,11.78808642578125,-41.64375305175781,6.918750286102295,17.0625
1751620536900086500,11.79808642578125,-41.70000076293945,6.150000095367432,17.475000381469727
1751620536910086400,11.80808642578125,-41.53125,5.175000190734863,17.83125114440918
1751620536920086500,11.81808642578125,-41.868751525878906,4.237500190734863,18.225000381469727
1751620536930086400,11.82808642578125,-41.92500305175781,3.3000001907348633,18.543750762939453
1751620536940086500,11.83808642578125,-42.150001525878906,2.4562501907348633,18.67500114440918
1751620536950086400,11.84808642578125,-41.85000228881836,1.8750001192092896,18.993751525878906
1751620536960086500,11.85808642578125,-41.85000228881836,1.256250023841858,19.181251525878906
1751620536970086400,11.86808642578125,-42.03750228881836,0.8437500596046448,19.350000381469727
1751620536980086500,11.87808642578125,-42.1875,0.5625,19.42500114440918
1751620536990086400,11.88808642578125,-42.09375,0.4312500059604645,19.59375
1751620537000086500,11.89808642578125,-41.868751525878906,0.22500000894069672,19.59375
1751620537010086400,11.90808642578125,-41.94375228881836,0.4125000238418579,19.42500114440918
1751620537020086500,11.91808642578125,-41.8125,0.9000000357627869,19.350000381469727
1751620537030086400,11.92808642578125,-41.79375076293945,1.3125,19.21875
1751620537040086500,11.93808642578125,-41.66250228881836,1.9875000715255737,19.068750381469727
1751620537050086400,11.94808642578125,-41.53125,2.8125,18.95625114440918
1751620537060086500,11.95808642578125,-41.493751525878906,3.656250238418579,18.825000762939453
1751620537070086400,11.96808642578125,-41.775001525878906,4.668750286102295,18.450000762939453
1751620537080086500,11.97808642578125,-41.70000076293945,5.737500190734863,18.150001525878906
1751620537090086400,11.98808642578125,-41.56875228881836,6.825000286102295,18.01875114440918
1751620537100086500,11.99808642578125,-41.45625305175781,7.612500190734863,17.493751525878906
1751620537110086400,12.00808642578125,-41.587501525878906,8.4375,16.875
1751620537120086500,12.01808642578125,-41.64375305175781,9.168750762939453,16.42500114440918
1751620537130086400,12.02808642578125,-41.587501525878906,9.75,16.012500762939453
1751620537140086500,12.03808642578125,-41.493751525878906,10.293750762939453,15.581250190734863
1751620537150086400,12.04808642578125,-41.38125228881836,10.78125,15.281250953674316
1751620537160086500,12.05808642578125,-41.56875228881836,10.912500381469727,15.018750190734863
1751620537170086400,12.06808642578125,-41.64375305175781,10.800000190734863,14.793750762939453
1751620537180086500,12.07808642578125,-41.56875228881836,10.631250381469727,15.037500381469727
1751620537190086400,12.08808642578125,-41.306251525878906,10.27500057220459,14.906250953674316
1751620537200086500,12.09808642578125,-41.19375228881836,9.975000381469727,15.131250381469727
1751620537210086400,12.10808642578125,-41.23125076293945,9.487500190734863,15.262500762939453
1751620537220086500,12.11808642578125,-41.28750228881836,8.96250057220459,15.543750762939453
1751620537230086400,12.12808642578125,-41.212501525878906,8.081250190734863,15.80625057220459
1751620537240086500,12.13808642578125,-41.10000228881836,7.331250190734863,16.40625
1751620537250086400,12.14808642578125,-40.98750305175781,6.506250381469727,16.70625114440918
1751620537260086500,12.15808642578125,-41.0625,5.475000381469727,17.0625
1751620537270086400,12.16808642578125,-41.34375,4.706250190734863,17.756250381469727
1751620537280086500,12.17808642578125,-41.47500228881836,3.6000001430511475,18.056251525878906
1751620537290086400,12.18808642578125,-41.36250305175781,2.6625001430511475,18.543750762939453
1751620537300086500,12.19808642578125,-41.38125228881836,1.8562500476837158,18.84375
1751620537310086400,12.20808642578125,-41.36250305175781,1.3687500953674316,19.256250381469727
1751620537320086500,12.21808642578125,-41.47500228881836,0.9937500357627869,19.275001525878906
1751620537330086400,12.22808642578125,-41.83125305175781,0.675000011920929,19.462501525878906
1751620537340086500,12.23808642578125,-41.90625,0.5625,19.59375
1751620537350086400,12.24808642578125,-41.8125,0.4687500298023224,19.80000114440918
1751620537360086500,12.25808642578125,-41.98125076293945,0.581250011920929,19.875
1751620537370086400,12.26808642578125,-42.150001525878906,0.8062500357627869,19.762500762939453
1751620537380086500,12.27808642578125,-42.07500076293945,1.0125000476837158,19.61250114440918
1751620537390086400,12.28808642578125,-41.98125076293945,1.4250000715255737,19.443750381469727
1751620537400086500,12.29808642578125,-41.79375076293945,1.9312500953674316,19.14375114440918
1751620537410086400,12.30808642578125,-41.60625076293945,2.7562501430511475,18.86250114440918
1751620537420086500,12.31808642578125,-41.36250305175781,3.637500047683716,18.618751525878906
1751620537430086400,12.32808642578125,-41.36250305175781,4.612500190734863,18.243751525878906
1751620537440086500,12.33808642578125,-41.19375228881836,5.737500190734863,17.962501525878906
1751620537450086400,12.34808642578125,-41.118751525878906,6.862500190734863,17.36250114440918
1751620537460086500,12.35808642578125,-41.118751525878906,7.987500190734863,16.950000762939453
1751620537470086400,12.36808642578125,-41.53125,8.925000190734863,16.443750381469727
1751620537480086500,12.37808642578125,-41.64375305175781,9.581250190734863,15.975000381469727
1751620537490086400,12.38808642578125,-41.66250228881836,9.881250381469727,15.52500057220459
1751620537500086500,12.39808642578125,-41.8125,10.481250762939453,15.018750190734863
1751620537510086400,12.40808642578125,-41.60625076293945,10.856250762939453,14.850000381469727
1751620537520086500,12.41808642578125,-41.47500228881836,10.96875,14.58750057220459
1751620537530086400,12.42808642578125,-41.45625305175781,10.875,14.68125057220459
1751620537540086500,12.43808642578125,-41.60625076293945,10.55625057220459,14.718750953674316
1751620537550086400,12.44808642578125,-41.45625305175781,10.27500057220459,14.756250381469727
1751620537560086500,12.45808642578125,-41.34375,10.106250762939453,15.225000381469727
1751620537570086400,12.46808642578125,-41.23125076293945,9.918750762939453,15.637500762939453
1751620537580086500,12.47808642578125,-41.32500076293945,9.318750381469727,16.012500762939453
1751620537590086400,12.48808642578125,-41.625,8.456250190734863,16.256250381469727
1751620537600086500,12.49808642578125,-41.75625228881836,7.612500190734863,16.61250114440918
1751620537610086400,12.50808642578125,-41.92500305175781,6.843750476837158,16.818750381469727
1751620537620086500,12.51808642578125,-41.98125076293945,5.90625,17.15625
1751620537630086400,12.52808642578125,-41.92500305175781,4.762500286102295,17.45625114440918
1751620537640086500,12.53808642578125,-41.79375076293945,3.7687501907348633,17.8125
1751620537650086400,12.54808642578125,-41.85000228881836,2.7562501430511475,17.981250762939453
1751620537660086500,12.55808642578125,-41.775001525878906,2.137500047683716,18.30000114440918
1751620537670086400,12.56808642578125,-41.60625076293945,1.631250023841858,18.46875
1751620537680086500,12.57808642578125,-41.625,1.3312500715255737,18.787500381469727
1751620537690086400,12.58808642578125,-41.70000076293945,1.162500023841858,19.21875
1751620537700086500,12.59808642578125,-41.493751525878906,1.2000000476837158,19.537500381469727
1751620537710086400,12.60808642578125,-41.45625305175781,1.4250000715255737,19.762500762939453
1751620537720086500,12.61808642578125,-41.73750305175781,1.8000000715255737,19.631250381469727
1751620537730086400,12.62808642578125,-41.70000076293945,2.231250047683716,19.575000762939453
1751620537740086500,12.63808642578125,-41.75625228881836,2.625,19.33125114440918
1751620537750086400,12.64808642578125,-41.88750076293945,3.4312500953674316,19.21875
1751620537760086500,12.65808642578125,-41.79375076293945,4.03125,18.693750381469727
1751620537770086400,12.66808642578125,-41.400001525878906,4.650000095367432,18.11250114440918
1751620537780086500,12.67808642578125,-41.47500228881836,5.493750095367432,17.83125114440918
1751620537790086400,12.68808642578125,-41.41875076293945,6.525000095367432,17.4375
1751620537800086500,12.69808642578125,-41.45625305175781,7.331250190734863,17.100000381469727
1751620537810086400,12.70808642578125,-41.306251525878906,8.175000190734863,16.631250381469727
1751620537820086500,12.71808642578125,-41.25,9,16.256250381469727
1751620537830086400,12.72808642578125,-41.212501525878906,9.581250190734863,15.750000953674316
1751620537840086500,12.73808642578125,-41.13750076293945,10.143750190734863,15.450000762939453
1751620537850086400,12.74808642578125,-41.28750228881836,10.65000057220459,15.262500762939453
1751620537860086500,12.75808642578125,-40.96875,10.987500190734863,14.737500190734863
1751620537870086400,12.76808642578125,-41.0625,11.100000381469727,14.756250381469727
1751620537880086500,12.77808642578125,-41.10000228881836,11.02500057220459,14.643750190734863
1751620537890086400,12.78808642578125,-41.25,10.83750057220459,14.86875057220459
1751620537900086500,12.79808642578125,-41.493751525878906,10.40625,15.112500190734863
1751620537910086400,12.80808642578125,-41.625,9.975000381469727,15.412500381469727
1751620537920086500,12.81808642578125,-41.85000228881836,9.412500381469727,15.750000953674316
1751620537930086400,12.82808642578125,-41.868751525878906,8.512500762939453,16.368751525878906
1751620537940086500,12.83808642578125,-42.11250305175781,7.425000190734863,16.950000762939453
1751620537950086400,12.84808642578125,-42.056251525878906,6.337500095367432,17.400001525878906
1751620537960086500,12.85808642578125,-41.962501525878906,5.4375,18.037500381469727
1751620537970086400,12.86808642578125,-42.11250305175781,4.612500190734863,18.375
1751620537980086500,12.87808642578125,-42.01875305175781,3.9937500953674316,18.5625
1751620537990086400,12.88808642578125,-41.83125305175781,2.9625000953674316,18.86250114440918
1751620538000086500,12.89808642578125,-41.71875,2.3062500953674316,19.3125
1751620538010086400,12.90808642578125,-41.85000228881836,1.725000023841858,19.106250762939453
1751620538020086500,12.91808642578125,-41.85000228881836,1.6125000715255737,19.256250381469727
1751620538030086400,12.92808642578125,-41.56875228881836,1.5562500953674316,19.275001525878906
1751620538040086500,12.93808642578125,-41.493751525878906,1.537500023841858,19.125
1751620538050086400,12.94808642578125,-41.400001525878906,1.7625000476837158,19.05000114440918
1751620538060086500,12.95808642578125,-41.34375,1.9687501192092896,18.95625114440918
1751620538070086400,12.96808642578125,-41.26875305175781,2.793750047683716,19.012500762939453
1751620538080086500,12.97808642578125,-41.13750076293945,3.4125001430511475,18.693750381469727
1751620538090086400,12.98808642578125,-40.85625076293945,4.481250286102295,18.543750762939453
1751620538100086500,12.99808642578125,-41.04375076293945,5.643750190734863,18.1875
1751620538110086400,13.00808642578125,-41.08125305175781,6.431250095367432,17.587501525878906
1751620538120086500,13.01808642578125,-41.212501525878906,7.518750190734863,17.15625
1751620538130086400,13.02808642578125,-41.36250305175781,8.662500381469727,16.762500762939453
1751620538140086500,13.03808642578125,-41.19375228881836,9.487500190734863,16.162500381469727
1751620538150086400,13.04808642578125,-41.306251525878906,10.256250381469727,15.543750762939453
1751620538160086500,13.05808642578125,-41.32500076293945,11.193750381469727,15.262500762939453
1751620538170086400,13.06808642578125,-41.38125228881836,11.68125057220459,14.812500953674316
1751620538180086500,13.07808642578125,-41.4375,11.943750381469727,14.662500381469727
1751620538190086400,13.08808642578125,-42.01875305175781,12.412500381469727,14.49375057220459
1751620538200086500,13.09808642578125,-42.056251525878906,12.393750190734863,14.362500190734863
1751620538210086400,13.10808642578125,-42.07500076293945,11.925000190734863,14.40000057220459
1751620538220086500,13.11808642578125,-42.1875,11.850000381469727,14.812500953674316
1751620538230086400,13.12808642578125,-42.07500076293945,11.193750381469727,15.206250190734863
1751620538240086500,13.13808642578125,-42.1875,10.387500762939453,15.412500381469727
1751620538250086400,13.14808642578125,-42.22500228881836,9.543750762939453,15.843750953674316
1751620538260086500,13.15808642578125,-42.09375,8.381250381469727,16.162500381469727
1751620538270086400,13.16808642578125,-41.70000076293945,7.331250190734863,16.668750762939453
1751620538280086500,13.17808642578125,-41.587501525878906,6.506250381469727,17.25
1751620538290086400,13.18808642578125,-41.493751525878906,5.587500095367432,17.775001525878906
1751620538300086500,13.19808642578125,-41.38125228881836,4.518750190734863,18.131250381469727
1751620538310086400,13.20808642578125,-41.47500228881836,3.7125000953674316,18.412500381469727
1751620538320086500,13.21808642578125,-41.66250228881836,2.9437501430511475,18.881250381469727
1751620538330086400,13.22808642578125,-41.73750305175781,2.3625001907348633,19.181251525878906
1751620538340086500,13.23808642578125,-41.73750305175781,2.0812501907348633,19.387500762939453
1751620538350086400,13.24808642578125,-41.8125,1.7062500715255737,19.70625114440918
1751620538360086500,13.25808642578125,-41.71875,1.5562500953674316,19.818750381469727
1751620538370086400,13.26808642578125,-41.70000076293945,1.6875001192092896,19.556251525878906
1751620538380086500,13.27808642578125,-41.8125,2.0250000953674316,19.537500381469727
1751620538390086400,13.28808642578125,-41.71875,2.5687501430511475,19.40625
1751620538400086500,13.29808642578125,-41.56875228881836,3.3000001907348633,19.087501525878906
1751620538410086400,13.30808642578125,-41.64375305175781,4.068750381469727,18.825000762939453
1751620538420086500,13.31808642578125,-41.53125,4.987500190734863,18.48750114440918
1751620538430086400,13.32808642578125,-41.60625076293945,6.093750476837158,17.943750381469727
1751620538440086500,13.33808642578125,-41.71875,7.181250095367432,17.512500762939453
1751620538450086400,13.34808642578125,-41.775001525878906,8.100000381469727,17.25
1751620538460086500,13.35808642578125,-41.98125076293945,8.981250762939453,16.743751525878906
1751620538470086400,13.36808642578125,-42.22500228881836,9.84375,16.23750114440918
1751620538480086500,13.37808642578125,-42.1875,10.331250190734863,15.825000762939453
1751620538490086400,13.38808642578125,-42.03750228881836,11.0625,15.693750381469727
1751620538500086500,13.39808642578125,-41.88750076293945,11.381250381469727,15.581250190734863
1751620538510086400,13.40808642578125,-41.88750076293945,11.512500762939453,15.356250762939453
1751620538520086500,13.41808642578125,-42.16875076293945,11.49375057220459,15.281250953674316
1751620538530086400,13.42808642578125,-42.07500076293945,11.4375,15.24375057220459
1751620538540086500,13.43808642578125,-41.83125305175781,11.287500381469727,15.300000190734863
1751620538550086400,13.44808642578125,-41.60625076293945,10.6875,15.393750190734863
1751620538560086500,13.45808642578125,-41.51250076293945,10.256250381469727,15.80625057220459
1751620538570086400,13.46808642578125,-41.51250076293945,9.52500057220459,15.862500190734863
1751620538580086500,13.47808642578125,-41.962501525878906,8.831250190734863,16.068750381469727
1751620538590086400,13.48808642578125,-41.94375228881836,7.968750476837158,16.42500114440918
1751620538600086500,13.49808642578125,-41.94375228881836,6.862500190734863,16.725000381469727
1751620538610086400,13.50808642578125,-41.94375228881836,5.71875,17.08125114440918
1751620538620086500,13.51808642578125,-41.92500305175781,4.518750190734863,17.662500381469727
1751620538630086400,13.52808642578125,-42.13125228881836,3.5250000953674316,18.168750762939453
1751620538640086500,13.53808642578125,-42.11250305175781,2.4937500953674316,18.150001525878906
1751620538650086400,13.54808642578125,-41.98125076293945,1.40625,18.637500762939453
1751620538660086500,13.55808642578125,-41.8125,0.39375001192092896,18.806251525878906
1751620538670086400,13.56808642578125,-41.681251525878906,-0.3187500238418579,19.200000762939453
1751620538680086500,13.57808642578125,-41.38125228881836,-0.8250000476837158,19.33125114440918
1751620538690086400,13.58808642578125,-41.4375,-0.9937500357627869,19.387500762939453
1751620538700086500,13.59808642578125,-41.400001525878906,-0.862500011920929,19.33125114440918
1751620538710086400,13.60808642578125,-41.38125228881836,-0.6187500357627869,19.40625
1751620538720086500,13.61808642578125,-41.71875,-0.09375,19.537500381469727
1751620538730086400,13.62808642578125,-41.73750305175781,0.5625,19.23750114440918
1751620538740086500,13.63808642578125,-41.962501525878906,1.5750000476837158,19.087501525878906
1751620538750086400,13.64808642578125,-41.962501525878906,2.5500001907348633,18.67500114440918
1751620538760086500,13.65808642578125,-42.09375,3.8062500953674316,18.375
1751620538770086400,13.66808642578125,-41.92500305175781,4.987500190734863,18.150001525878906
1751620538780086500,13.67808642578125,-42.01875305175781,5.962500095367432,17.71875
1751620538790086400,13.68808642578125,-42.01875305175781,7.050000190734863,17.100000381469727
1751620538800086500,13.69808642578125,-41.64375305175781,8.0625,16.80000114440918
1751620538810086400,13.70808642578125,-41.681251525878906,9.15000057220459,16.481250762939453
1751620538820086500,13.71808642578125,-41.23125076293945,9.787500381469727,16.162500381469727
1751620538830086400,13.72808642578125,-41.400001525878906,10.200000762939453,15.61875057220459
1751620538840086500,13.73808642578125,-41.23125076293945,10.631250381469727,15.33750057220459
1751620538850086400,13.74808642578125,-41.32500076293945,10.93125057220459,15.15000057220459
1751620538860086500,13.75808642578125,-41.41875076293945,11.100000381469727,15.075000762939453
1751620538870086400,13.76808642578125,-41.36250305175781,10.912500381469727,15.15000057220459
1751620538880086500,13.77808642578125,-41.71875,10.83750057220459,14.925000190734863
1751620538890086400,13.78808642578125,-42,10.425000190734863,15.206250190734863
1751620538900086500,13.79808642578125,-42.09375,9.9375,15.300000190734863
1751620538910086400,13.80808642578125,-42.11250305175781,9.65625,15.918750762939453
1751620538920086500,13.81808642578125,-42.13125228881836,8.831250190734863,16.350000381469727
1751620538930086400,13.82808642578125,-42.45000076293945,7.968750476837158,16.556251525878906
1751620538940086500,13.83808642578125,-42.35625076293945,7.218750476837158,16.78125
1751620538950086400,13.84808642578125,-42.31875228881836,6.468750476837158,17.043750762939453
