time,seconds_elapsed,z,y,x
1751620525292500500,0.19050048828125,9.893723487854004,0.0891326442360878,-0.1495514214038849
1751620525339559400,0.237559326171875,9.764511108398438,0.17527425289154053,0.04666004329919815
1751620525377206500,0.27520654296875,9.860223770141602,0.15613168478012085,-0.14476576447486877
1751620525405442000,0.303442138671875,9.946365356445312,0.1178465187549591,-0.2309073805809021
1751620525424265500,0.322265380859375,9.879366874694824,0.357128769159317,-0.17347964644432068
1751620525443089200,0.341089111328125,9.845867156982422,0.4384847581386566,-0.15912270545959473
1751620525461912800,0.359912841796875,9.88415241241455,0.20877377688884735,-0.21176479756832123
1751620525480736300,0.378736328125,9.88415241241455,0.03170489892363548,-0.19262222945690155
1751620525499560000,0.397559814453125,9.865009307861328,0.12741780281066895,-0.08733802288770676
1751620525518383600,0.416383544921875,9.869794845581055,0.2231307178735733,-0.005982056725770235
1751620525537207300,0.435207275390625,9.903294563293457,0.1178465187549591,0.003589233849197626
1751620525556030700,0.45403076171875,9.932008743286133,-0.020937198773026466,-0.058624155819416046
1751620525574854400,0.4728544921875,9.970293998718262,0.012562318705022335,-0.09212367236614227
1751620525593678000,0.491677978515625,9.927223205566406,0.2470589429140091,-0.07776673883199692
1751620525612501500,0.51050146484375,9.92243766784668,0.30927231907844543,-0.10169496387243271
1751620525631325200,0.5293251953125,9.946365356445312,0.18963119387626648,-0.17347964644432068
1751620525650148900,0.54814892578125,9.927223205566406,0.12263216078281403,-0.19740787148475647
1751620525668972500,0.56697265625,9.89850902557373,0.23748764395713806,-0.16390834748744965
1751620525687796000,0.5857958984375,9.865009307861328,0.3044866919517517,-0.10169496387243271
1751620525706619600,0.60461962890625,9.850652694702148,0.1657029688358307,-0.11126625537872314
1751620525725443300,0.623443359375,9.89850902557373,0.07477571070194244,-0.13998012244701385
1751620525744266800,0.642266845703125,9.874580383300781,-0.03529413416981697,-0.05383851006627083
1751620525763090400,0.66109033203125,9.874580383300781,0.17527425289154053,0.0323031060397625
1751620525781914000,0.6799140625,9.88415241241455,0.22791635990142822,-0.010767702013254166
1751620525800737800,0.69873779296875,9.955936431884766,0.0364905446767807,-0.13040883839130402
1751620525819561200,0.717561279296875,9.975079536437988,0.012562318705022335,-0.16869398951530457
1751620525838385000,0.736385009765625,9.951150894165039,0.1944168359041214,-0.10169496387243271
1751620525857208600,0.75520849609375,9.932008743286133,0.357128769159317,-0.039481572806835175
1751620525876032300,0.7740322265625,9.91286563873291,0.34277185797691345,-0.1543370634317398
1751620525894855700,0.792855712890625,9.941579818725586,0.14656038582324982,-0.27397820353507996
1751620525913679400,0.811679443359375,9.91286563873291,0.16091732680797577,-0.25004997849464417
1751620525932503000,0.8305029296875,9.845867156982422,0.33798620104789734,-0.12083754688501358
1751620525951326700,0.84932666015625,9.855438232421875,0.23270200192928314,-0.04426721855998039
1751620525970150100,0.868150146484375,9.893723487854004,0.0029910283628851175,-0.039481572806835175
1751620525988973800,0.886973876953125,9.903294563293457,-0.030508488416671753,-0.039481572806835175
1751620526007797500,0.905797607421875,9.89850902557373,0.06999006122350693,-0.02512463741004467
1751620526026621200,0.92462109375,9.903294563293457,0.16091732680797577,-0.015553346835076809
1751620526045444600,0.943444580078125,9.932008743286133,0.11306086927652359,-0.06340979784727097
1751620526064268300,0.962268310546875,9.951150894165039,0.10348957777023315,-0.08733802288770676
1751620526083092000,0.981092041015625,9.93679428100586,0.18484555184841156,-0.13040883839130402
1751620526101915600,0.99991552734375,9.92243766784668,0.2470589429140091,-0.12083754688501358
1751620526120739000,1.018739013671875,9.908080101013184,0.2709871530532837,-0.16390834748744965
1751620526139562800,1.037562744140625,9.89850902557373,0.3475574851036072,-0.25004997849464417
1751620526158386400,1.056386474609375,9.89850902557373,0.31405797600746155,-0.3074777126312256
1751620526177210000,1.075210205078125,9.888937950134277,0.3044866919517517,-0.26440688967704773
1751620526196033500,1.094033447265625,9.88415241241455,0.3044866919517517,-0.17347964644432068
1751620526214857200,1.112857177734375,9.879366874694824,0.21355941891670227,-0.09212367236614227
1751620526233681000,1.131680908203125,9.917651176452637,0.07956135272979736,-0.06340979784727097
1751620526252504600,1.150504638671875,9.917651176452637,-0.030508488416671753,-0.03469592705368996
1751620526271328000,1.169327880859375,9.941579818725586,-0.03529413416981697,0.017946170642971992
1751620526290151700,1.188151611328125,9.951150894165039,0.0077766734175384045,0.037088751792907715
1751620526308975400,1.206975341796875,9.941579818725586,0.026919255033135414,0.02751746028661728
1751620526327799000,1.225799072265625,9.946365356445312,0.06999006122350693,-0.058624155819416046
1751620526346622700,1.244622802734375,9.941579818725586,0.15613168478012085,-0.11605189740657806
1751620526365446100,1.263446044921875,9.91286563873291,0.2183450609445572,-0.16390834748744965
1751620526384269800,1.282269775390625,9.903294563293457,0.26620152592658997,-0.18305093050003052
1751620526403093500,1.301093505859375,9.888937950134277,0.2709871530532837,-0.19740787148475647
1751620526421917200,1.319917236328125,9.893723487854004,0.251844584941864,-0.19262222945690155
1751620526440740600,1.33874072265625,9.88415241241455,0.23270200192928314,-0.16390834748744965
1751620526459564300,1.357564208984375,9.879366874694824,0.21355941891670227,-0.13998012244701385
1751620526478388000,1.376387939453125,9.89850902557373,0.18005990982055664,-0.09690931439399719
1751620526497211600,1.395211669921875,9.91286563873291,0.1178465187549591,-0.08733802288770676
1751620526516035300,1.414035400390625,9.927223205566406,0.09391828626394272,-0.06819544732570648
1751620526534858800,1.432858642578125,9.955936431884766,0.13220344483852386,-0.058624155819416046
1751620526553682400,1.451682373046875,9.951150894165039,0.15134602785110474,-0.08733802288770676
1751620526572506000,1.470506103515625,9.955936431884766,0.16091732680797577,-0.11605189740657806
1751620526591329800,1.489329833984375,9.951150894165039,0.15613168478012085,-0.12083754688501358
1751620526610153200,1.5081533203125,9.93679428100586,0.18484555184841156,-0.12083754688501358
1751620526628977000,1.526976806640625,9.92243766784668,0.16091732680797577,-0.10169496387243271
1751620526647800600,1.545800537109375,9.88415241241455,0.14656038582324982,-0.11126625537872314
1751620526666624300,1.564624267578125,9.874580383300781,0.1704886108636856,-0.10169496387243271
1751620526685448000,1.583447998046875,9.869794845581055,0.14656038582324982,-0.11605189740657806
1751620526704271400,1.602271240234375,9.88415241241455,0.15613168478012085,-0.09690931439399719
1751620526723095000,1.621094970703125,9.865009307861328,0.1657029688358307,-0.11605189740657806
1751620526741918700,1.639918701171875,9.908080101013184,0.18484555184841156,-0.12083754688501358
1751620526760742400,1.658742431640625,9.92243766784668,0.1657029688358307,-0.13519448041915894
1751620526779565800,1.67756591796875,9.955936431884766,0.18005990982055664,-0.1256231814622879
1751620526798389500,1.696389404296875,9.960722923278809,0.1657029688358307,-0.12083754688501358
1751620526817213200,1.715213134765625,9.965508460998535,0.17527425289154053,-0.08255238085985184
1751620526836036900,1.734036865234375,9.941579818725586,0.1417747437953949,-0.08733802288770676
1751620526854860500,1.752860595703125,9.941579818725586,0.13698910176753998,-0.08733802288770676
1751620526873684000,1.77168408203125,9.917651176452637,0.15613168478012085,-0.09690931439399719
1751620526892507600,1.790507568359375,9.893723487854004,0.15134602785110474,-0.11605189740657806
1751620526911331300,1.809331298828125,9.874580383300781,0.16091732680797577,-0.13040883839130402
1751620526930155000,1.828155029296875,9.874580383300781,0.18005990982055664,-0.13040883839130402
1751620526948978700,1.846978759765625,9.88415241241455,0.1944168359041214,-0.13519448041915894
1751620526967802000,1.865802001953125,9.89850902557373,0.1944168359041214,-0.13519448041915894
1751620526986625800,1.884625732421875,9.92243766784668,0.1704886108636856,-0.13040883839130402
1751620527005449500,1.903449462890625,9.93679428100586,0.16091732680797577,-0.10648060590028763
1751620527024273200,1.922273193359375,9.970293998718262,0.14656038582324982,-0.08733802288770676
1751620527043096800,1.941096923828125,9.951150894165039,0.14656038582324982,-0.08255238085985184
1751620527061920300,1.959920166015625,9.965508460998535,0.13698910176753998,-0.06819544732570648
1751620527080744000,1.978743896484375,9.92243766784668,0.1178465187549591,-0.08733802288770676
1751620527099567600,1.997567626953125,9.93679428100586,0.13698910176753998,-0.09212367236614227
1751620527118391300,2.016391357421875,9.89850902557373,0.16091732680797577,-0.09212367236614227
1751620527137214700,2.035214599609375,9.874580383300781,0.1704886108636856,-0.11605189740657806
1751620527156038400,2.054038330078125,9.874580383300781,0.18005990982055664,-0.1256231814622879
1751620527174862000,2.072862060546875,9.869794845581055,0.1944168359041214,-0.13040883839130402
1751620527193685800,2.091685791015625,9.89850902557373,0.1944168359041214,-0.13998012244701385
1751620527212509400,2.110509521484375,9.91286563873291,0.20877377688884735,-0.1256231814622879
1751620527231333000,2.1293330078125,9.932008743286133,0.18484555184841156,-0.12083754688501358
1751620527250156500,2.148156494140625,9.941579818725586,0.1657029688358307,-0.09690931439399719
1751620527268980200,2.166980224609375,9.965508460998535,0.14656038582324982,-0.09212367236614227
1751620527297215700,2.1952158203125,9.88415241241455,0.14656038582324982,-0.10648060590028763
1751620527316039400,2.214039306640625,9.888937950134277,0.15613168478012085,-0.09690931439399719
1751620527334862800,2.23286279296875,9.91286563873291,0.15613168478012085,-0.09690931439399719
1751620527353686500,2.2516865234375,9.946365356445312,0.1417747437953949,-0.09212367236614227
1751620527372510200,2.27051025390625,9.946365356445312,0.16091732680797577,-0.09212367236614227
1751620527391334000,2.289333984375,9.955936431884766,0.1657029688358307,-0.10648060590028763
1751620527410157600,2.308157470703125,9.955936431884766,0.1944168359041214,-0.10648060590028763
1751620527428981000,2.32698095703125,9.960722923278809,0.1704886108636856,-0.12083754688501358
1751620527447804700,2.3458046875,9.927223205566406,0.18484555184841156,-0.12083754688501358
1751620527466628400,2.36462841796875,9.927223205566406,0.18005990982055664,-0.13998012244701385
1751620527485452000,2.3834521484375,9.893723487854004,0.18484555184841156,-0.12083754688501358
1751620527504275700,2.402275634765625,9.869794845581055,0.1657029688358307,-0.10648060590028763
1751620527523099100,2.42109912109375,9.88415241241455,0.17527425289154053,-0.12083754688501358
1751620527541922800,2.4399228515625,9.879366874694824,0.18005990982055664,-0.11126625537872314
1751620527560746500,2.45874658203125,9.888937950134277,0.17527425289154053,-0.11605189740657806
1751620527579570200,2.477570068359375,9.917651176452637,0.1657029688358307,-0.10648060590028763
1751620527598393900,2.496393798828125,9.927223205566406,0.14656038582324982,-0.09690931439399719
1751620527617217300,2.51521728515625,9.951150894165039,0.13220344483852386,-0.0729810893535614
1751620527636041000,2.534041015625,9.965508460998535,0.15613168478012085,-0.06819544732570648
1751620527654864600,2.55286474609375,9.970293998718262,0.13220344483852386,-0.08255238085985184
1751620527673688300,2.571688232421875,9.955936431884766,0.1417747437953949,-0.09212367236614227
1751620527692512000,2.590511962890625,9.946365356445312,0.15134602785110474,-0.10169496387243271
1751620527711335400,2.60933544921875,9.917651176452637,0.1704886108636856,-0.10648060590028763
1751620527730159000,2.6281591796875,9.879366874694824,0.18963119387626648,-0.12083754688501358
1751620527748982800,2.646982666015625,9.88415241241455,0.19920247793197632,-0.14476576447486877
1751620527767806500,2.665806396484375,9.874580383300781,0.2231307178735733,-0.17347964644432068
1751620527786630100,2.684630126953125,9.888937950134277,0.21355941891670227,-0.15912270545959473
1751620527805453800,2.703453857421875,9.91286563873291,0.1704886108636856,-0.12083754688501358
1751620527824277200,2.72227734375,9.917651176452637,0.14656038582324982,-0.09212367236614227
1751620527843101000,2.741100830078125,9.932008743286133,0.1178465187549591,-0.0729810893535614
1751620527861924600,2.759924560546875,9.951150894165039,0.12741780281066895,-0.06819544732570648
1751620527880748300,2.778748291015625,9.960722923278809,0.13698910176753998,-0.07776673883199692
1751620527899571700,2.79757177734375,9.951150894165039,0.15613168478012085,-0.09690931439399719
1751620527918395400,2.8163955078125,9.955936431884766,0.14656038582324982,-0.13040883839130402
1751620527937219000,2.835218994140625,9.917651176452637,0.1657029688358307,-0.1256231814622879
1751620527956042800,2.854042724609375,9.893723487854004,0.20877377688884735,-0.1256231814622879
1751620527974866400,2.872866455078125,9.88415241241455,0.17527425289154053,-0.11605189740657806
1751620527993690000,2.891690185546875,9.879366874694824,0.16091732680797577,-0.12083754688501358
1751620528012513500,2.910513427734375,9.874580383300781,0.15613168478012085,-0.13519448041915894
1751620528031337200,2.929337158203125,9.88415241241455,0.1704886108636856,-0.12083754688501358
1751620528050161000,2.948160888671875,9.92243766784668,0.18484555184841156,-0.13040883839130402
1751620528068984600,2.966984619140625,9.932008743286133,0.14656038582324982,-0.09212367236614227
1751620528087808000,2.98580810546875,9.965508460998535,0.15134602785110474,-0.08733802288770676
1751620528106631700,3.004631591796875,9.965508460998535,0.16091732680797577,-0.09212367236614227
1751620528125455400,3.023455322265625,9.960722923278809,0.16091732680797577,-0.08733802288770676
1751620528144279000,3.042279052734375,9.93679428100586,0.17527425289154053,-0.08733802288770676
1751620528163102700,3.061102783203125,9.932008743286133,0.18005990982055664,-0.11126625537872314
1751620528181926400,3.079926513671875,9.927223205566406,0.17527425289154053,-0.13998012244701385
1751620528200749800,3.098749755859375,9.888937950134277,0.17527425289154053,-0.13519448041915894
1751620528219573500,3.117573486328125,9.869794845581055,0.18963119387626648,-0.1256231814622879
1751620528238397200,3.136397216796875,9.865009307861328,0.18484555184841156,-0.11605189740657806
1751620528257220900,3.155220947265625,9.88415241241455,0.14656038582324982,-0.11605189740657806
1751620528276044500,3.17404443359375,9.89850902557373,0.1657029688358307,-0.13040883839130402
1751620528294868000,3.192867919921875,9.917651176452637,0.16091732680797577,-0.09690931439399719
1751620528313691600,3.211691650390625,9.941579818725586,0.1657029688358307,-0.09212367236614227
1751620528332515300,3.230515380859375,9.965508460998535,0.13220344483852386,-0.09212367236614227
1751620528351339000,3.249339111328125,9.984650611877441,0.1657029688358307,-0.11126625537872314
1751620528370162700,3.26816259765625,9.951150894165039,0.18484555184841156,-0.12083754688501358
1751620528388986000,3.286986083984375,9.951150894165039,0.18963119387626648,-0.13040883839130402
1751620528407809800,3.305809814453125,9.927223205566406,0.17527425289154053,-0.13040883839130402
1751620528426633500,3.324633544921875,9.932008743286133,0.1657029688358307,-0.1256231814622879
1751620528445457200,3.34345703125,9.893723487854004,0.18484555184841156,-0.10648060590028763
1751620528464280800,3.36228076171875,9.874580383300781,0.1657029688358307,-0.10648060590028763
1751620528483104300,3.381104248046875,9.879366874694824,0.1417747437953949,-0.12083754688501358
1751620528501928000,3.399927978515625,9.888937950134277,0.14656038582324982,-0.11605189740657806
1751620528520751600,3.418751708984375,9.917651176452637,0.1657029688358307,-0.12083754688501358
1751620528539575300,3.4375751953125,9.941579818725586,0.17527425289154053,-0.12083754688501358
1751620528558399000,3.45639892578125,9.951150894165039,0.16091732680797577,-0.11126625537872314
1751620528577222400,3.475222412109375,9.965508460998535,0.1657029688358307,-0.10648060590028763
1751620528596046000,3.494046142578125,9.979865074157715,0.18005990982055664,-0.10648060590028763
1751620528614869800,3.512869873046875,9.955936431884766,0.15613168478012085,-0.09690931439399719
1751620528633693400,3.531693359375,9.946365356445312,0.16091732680797577,-0.09212367236614227
1751620528652517000,3.55051708984375,9.941579818725586,0.1704886108636856,-0.12083754688501358
1751620528671340800,3.5693408203125,9.893723487854004,0.14656038582324982,-0.12083754688501358
1751620528690164200,3.588164306640625,9.879366874694824,0.1704886108636856,-0.1256231814622879
1751620528708988000,3.60698779296875,9.874580383300781,0.17527425289154053,-0.12083754688501358
1751620528727811600,3.6258115234375,9.869794845581055,0.1704886108636856,-0.11605189740657806
1751620528746635300,3.64463525390625,9.88415241241455,0.14656038582324982,-0.11605189740657806
1751620528765459000,3.663458984375,9.908080101013184,0.15613168478012085,-0.11126625537872314
1751620528784282400,3.682282470703125,9.946365356445312,0.17527425289154053,-0.11126625537872314
1751620528803106000,3.70110595703125,9.951150894165039,0.15134602785110474,-0.11126625537872314
1751620528821929700,3.7199296875,9.965508460998535,0.15613168478012085,-0.12083754688501358
1751620528840753400,3.73875341796875,9.989436149597168,0.1704886108636856,-0.09690931439399719
1751620528859577000,3.7575771484375,9.955936431884766,0.16091732680797577,-0.09690931439399719
1751620528878400500,3.776400390625,9.93679428100586,0.18484555184841156,-0.12083754688501358
1751620528897224200,3.79522412109375,9.92243766784668,0.17527425289154053,-0.10648060590028763
1751620528916048000,3.8140478515625,9.89850902557373,0.1657029688358307,-0.11605189740657806
1751620528934871600,3.83287158203125,9.879366874694824,0.1657029688358307,-0.10648060590028763
1751620528953695200,3.8516953125,9.879366874694824,0.15134602785110474,-0.11605189740657806
1751620528972518700,3.8705185546875,9.879366874694824,0.15134602785110474,-0.11126625537872314
1751620528991342300,3.88934228515625,9.89850902557373,0.16091732680797577,-0.11126625537872314
1751620529010166000,3.908166015625,9.917651176452637,0.17527425289154053,-0.09690931439399719
1751620529028989700,3.92698974609375,9.93679428100586,0.1657029688358307,-0.1256231814622879
1751620529047813400,3.9458134765625,9.970293998718262,0.16091732680797577,-0.10169496387243271
1751620529066636800,3.96463671875,9.960722923278809,0.15134602785110474,-0.10648060590028763
1751620529085460500,3.98346044921875,9.975079536437988,0.15613168478012085,-0.11126625537872314
1751620529104284200,4.0022841796875,9.955936431884766,0.14656038582324982,-0.11126625537872314
1751620529123107800,4.02110791015625,9.927223205566406,0.15134602785110474,-0.11605189740657806
1751620529141931500,4.039931640625,9.893723487854004,0.1657029688358307,-0.10648060590028763
1751620529160755000,4.0587548828125,9.879366874694824,0.1657029688358307,-0.10648060590028763
1751620529179578600,4.07757861328125,9.874580383300781,0.15134602785110474,-0.11126625537872314
1751620529198402300,4.09640234375,9.88415241241455,0.16091732680797577,-0.11126625537872314
1751620529217226000,4.11522607421875,9.88415241241455,0.1657029688358307,-0.12083754688501358
1751620529236049700,4.134049560546875,9.908080101013184,0.15134602785110474,-0.09212367236614227
1751620529254873300,4.152873291015625,9.927223205566406,0.1704886108636856,-0.10648060590028763
1751620529273696800,4.17169677734375,9.955936431884766,0.16091732680797577,-0.10648060590028763
1751620529292520400,4.1905205078125,9.951150894165039,0.15613168478012085,-0.12083754688501358
1751620529311344000,4.20934423828125,9.975079536437988,0.16091732680797577,-0.10648060590028763
1751620529330167800,4.228167724609375,9.960722923278809,0.15134602785110474,-0.11126625537872314
1751620529348991200,4.2469912109375,9.965508460998535,0.16091732680797577,-0.09690931439399719
1751620529367815000,4.26581494140625,9.932008743286133,0.15134602785110474,-0.11605189740657806
1751620529386638600,4.284638671875,9.903294563293457,0.1704886108636856,-0.12083754688501358
1751620529405462300,4.303462158203125,9.888937950134277,0.17527425289154053,-0.11126625537872314
1751620529424286000,4.322285888671875,9.874580383300781,0.18005990982055664,-0.11605189740657806
1751620529443109400,4.341109375,9.874580383300781,0.15134602785110474,-0.11605189740657806
1751620529461933000,4.35993310546875,9.893723487854004,0.14656038582324982,-0.1256231814622879
1751620529480756700,4.3787568359375,9.927223205566406,0.13698910176753998,-0.10169496387243271
1751620529499580400,4.397580322265625,9.91286563873291,0.17527425289154053,-0.10648060590028763
1751620529518404000,4.416404052734375,9.946365356445312,0.15613168478012085,-0.10648060590028763
1751620529537227800,4.435227783203125,9.970293998718262,0.15613168478012085,-0.10169496387243271
1751620529556051200,4.45405126953125,9.975079536437988,0.17527425289154053,-0.11126625537872314
1751620529574875000,4.472875,9.970293998718262,0.17527425289154053,-0.10648060590028763
1751620529593698600,4.491698486328125,9.946365356445312,0.1704886108636856,-0.12083754688501358
1751620529612522200,4.510522216796875,9.917651176452637,0.15613168478012085,-0.1256231814622879
1751620529631345700,4.529345703125,9.888937950134277,0.16091732680797577,-0.12083754688501358
1751620529650169300,4.54816943359375,9.893723487854004,0.15134602785110474,-0.12083754688501358
1751620529668993000,4.566992919921875,9.88415241241455,0.16091732680797577,-0.11605189740657806
1751620529687816700,4.585816650390625,9.874580383300781,0.15613168478012085,-0.12083754688501358
1751620529706640400,4.604640380859375,9.91286563873291,0.17527425289154053,-0.11126625537872314
1751620529725463800,4.6234638671875,9.92243766784668,0.1657029688358307,-0.11605189740657806
1751620529744287500,4.64228759765625,9.932008743286133,0.1657029688358307,-0.14476576447486877
1751620529763111200,4.661111083984375,9.960722923278809,0.16091732680797577,-0.10169496387243271
1751620529791346700,4.6893466796875,9.879366874694824,0.16091732680797577,-0.11126625537872314
1751620529810170400,4.70817041015625,9.893723487854004,0.1657029688358307,-0.10648060590028763
1751620529828993800,4.726993896484375,9.89850902557373,0.1657029688358307,-0.10169496387243271
1751620529847817500,4.7458173828125,9.927223205566406,0.18005990982055664,-0.11126625537872314
1751620529866641200,4.76464111328125,9.955936431884766,0.18005990982055664,-0.11126625537872314
1751620529885464800,4.78346484375,9.965508460998535,0.15613168478012085,-0.12083754688501358
1751620529904288500,4.80228857421875,9.975079536437988,0.16091732680797577,-0.09690931439399719
1751620529923112000,4.82111181640625,9.951150894165039,0.1704886108636856,-0.09212367236614227
1751620529941935600,4.839935546875,9.951150894165039,0.15134602785110474,-0.09690931439399719
1751620529960759300,4.85875927734375,9.927223205566406,0.15613168478012085,-0.11605189740657806
1751620529979583000,4.8775830078125,9.91286563873291,0.15613168478012085,-0.11126625537872314
1751620529998406400,4.896406494140625,9.888937950134277,0.1704886108636856,-0.11605189740657806
1751620530017230000,4.91522998046875,9.874580383300781,0.1657029688358307,-0.10648060590028763
1751620530036053800,4.9340537109375,9.88415241241455,0.1704886108636856,-0.11126625537872314
1751620530054877400,4.95287744140625,9.903294563293457,0.1704886108636856,-0.1256231814622879
1751620530073701000,4.971701171875,9.893723487854004,0.1944168359041214,-0.12083754688501358
1751620530092524500,4.990524658203125,9.946365356445312,0.17527425289154053,-0.1256231814622879
1751620530111348200,5.00934814453125,9.955936431884766,0.16091732680797577,-0.10648060590028763
1751620530130172000,5.028171875,9.970293998718262,0.12741780281066895,-0.10648060590028763
1751620530148995600,5.04699560546875,9.979865074157715,0.1417747437953949,-0.11605189740657806
1751620530167819300,5.0658193359375,9.946365356445312,0.1657029688358307,-0.09690931439399719
1751620530186642700,5.084642578125,9.932008743286133,0.15134602785110474,-0.10648060590028763
1751620530205466400,5.10346630859375,9.92243766784668,0.14656038582324982,-0.12083754688501358
1751620530224290000,5.1222900390625,9.888937950134277,0.14656038582324982,-0.11605189740657806
1751620530243113700,5.14111376953125,9.888937950134277,0.15134602785110474,-0.09690931439399719
1751620530261937200,5.159937255859375,9.874580383300781,0.18484555184841156,-0.13040883839130402
1751620530280760800,5.1787607421875,9.88415241241455,0.17527425289154053,-0.13519448041915894
1751620530299584500,5.19758447265625,9.89850902557373,0.18005990982055664,-0.11126625537872314
1751620530318408200,5.216408203125,9.927223205566406,0.1657029688358307,-0.10648060590028763
1751620530337232000,5.23523193359375,9.93679428100586,0.17527425289154053,-0.11126625537872314
1751620530356055300,5.25405517578125,9.965508460998535,0.15613168478012085,-0.09212367236614227
1751620530374879000,5.27287890625,9.960722923278809,0.16091732680797577,-0.10169496387243271
1751620530393702700,5.29170263671875,9.965508460998535,0.15613168478012085,-0.10648060590028763
1751620530412526300,5.3105263671875,9.951150894165039,0.1657029688358307,-0.09690931439399719
1751620530431350000,5.32935009765625,9.93679428100586,0.1704886108636856,-0.10169496387243271
1751620530450173400,5.34817333984375,9.908080101013184,0.1657029688358307,-0.13519448041915894
1751620530468997000,5.3669970703125,9.893723487854004,0.17527425289154053,-0.12083754688501358
1751620530487820800,5.38582080078125,9.88415241241455,0.17527425289154053,-0.11605189740657806
1751620530506644500,5.40464453125,9.879366874694824,0.16091732680797577,-0.12083754688501358
1751620530525468000,5.423468017578125,9.89850902557373,0.1704886108636856,-0.12083754688501358
1751620530544291600,5.44229150390625,9.91286563873291,0.16091732680797577,-0.11126625537872314
1751620530563115300,5.461115234375,9.941579818725586,0.15134602785110474,-0.10169496387243271
1751620530581939000,5.47993896484375,9.946365356445312,0.10348957777023315,-0.05383851006627083
1751620530600762600,5.4987626953125,9.970293998718262,0.07477571070194244,-0.058624155819416046
1751620530619586000,5.5175859375,9.93679428100586,0.06999006122350693,-0.06819544732570648
1751620530638409700,5.53640966796875,9.908080101013184,0.16091732680797577,-0.07776673883199692
1751620530657233400,5.5552333984375,9.92243766784668,0.21355941891670227,-0.08733802288770676
1751620530676057000,5.57405712890625,9.927223205566406,0.1704886108636856,-0.1495514214038849
1751620530694880500,5.592880615234375,9.888937950134277,0.251844584941864,-0.16869398951530457
1751620530713704200,5.6117041015625,9.88415241241455,0.29012975096702576,-0.18305093050003052
1751620530732527900,5.63052783203125,9.91286563873291,0.2183450609445572,-0.17347964644432068
1751620530751351600,5.6493515625,9.888937950134277,0.1704886108636856,-0.16390834748744965
1751620530770175000,5.668175048828125,9.903294563293457,0.17527425289154053,-0.11605189740657806
1751620530788998700,5.68699853515625,9.946365356445312,0.15134602785110474,-0.06340979784727097
1751620530807822300,5.705822265625,9.946365356445312,0.1178465187549591,-0.04905286431312561
1751620530826646000,5.72464599609375,9.975079536437988,0.0891326442360878,-0.05383851006627083
1751620530845469700,5.7434697265625,9.979865074157715,0.09391828626394272,-0.05383851006627083
1751620530864293000,5.762293212890625,9.965508460998535,0.1417747437953949,-0.06819544732570648
1751620530883116800,5.78111669921875,9.955936431884766,0.1657029688358307,-0.10169496387243271
1751620530901940500,5.7999404296875,9.927223205566406,0.18005990982055664,-0.1495514214038849
1751620530920764200,5.81876416015625,9.917651176452637,0.19920247793197632,-0.1543370634317398
1751620530939587600,5.837587646484375,9.879366874694824,0.1944168359041214,-0.13998012244701385
1751620530958411300,5.856411376953125,9.855438232421875,0.19920247793197632,-0.13519448041915894
1751620530977235000,5.87523486328125,9.88415241241455,0.1657029688358307,-0.10169496387243271
1751620530996058600,5.89405859375,9.903294563293457,0.1178465187549591,-0.10648060590028763
1751620531014882300,5.91288232421875,9.93679428100586,0.13220344483852386,-0.09212367236614227
1751620531033705700,5.931705810546875,9.91286563873291,0.12741780281066895,-0.03469592705368996
1751620531052529400,5.950529296875,9.860223770141602,0.1178465187549591,-0.058624155819416046
1751620531071353000,5.96935302734375,10.003793716430664,0.15134602785110474,-0.1495514214038849
1751620531090176800,5.9881767578125,10.00857925415039,0.15134602785110474,-0.13040883839130402
1751620531109000200,6.007000244140625,9.984650611877441,0.20398813486099243,-0.1256231814622879
1751620531127824000,6.025823974609375,9.93679428100586,0.2183450609445572,-0.14476576447486877
1751620531146647600,6.0446474609375,9.932008743286133,0.21355941891670227,-0.1495514214038849
1751620531165471200,6.06347119140625,9.917651176452637,0.18484555184841156,-0.15912270545959473
1751620531184295000,6.082294921875,9.88415241241455,0.14656038582324982,-0.10169496387243271
1751620531203118300,6.101118408203125,9.888937950134277,0.12741780281066895,-0.07776673883199692
1751620531221942000,6.11994189453125,9.888937950134277,0.09391828626394272,-0.058624155819416046
1751620531240765700,6.138765625,9.92243766784668,0.10348957777023315,-0.08255238085985184
1751620531259589400,6.15758935546875,9.92243766784668,0.14656038582324982,-0.08255238085985184
1751620531278412800,6.176412841796875,9.932008743286133,0.18484555184841156,-0.12083754688501358
1751620531297236500,6.195236572265625,9.946365356445312,0.19920247793197632,-0.13040883839130402
1751620531316060200,6.21406005859375,9.970293998718262,0.19920247793197632,-0.14476576447486877
1751620531334883800,6.2328837890625,9.955936431884766,0.19920247793197632,-0.1495514214038849
1751620531353707300,6.251707275390625,9.946365356445312,0.20877377688884735,-0.13040883839130402
1751620531372531000,6.270531005859375,9.932008743286133,0.15613168478012085,-0.11126625537872314
1751620531391354600,6.289354736328125,9.946365356445312,0.1417747437953949,-0.12083754688501358
1751620531410178300,6.30817822265625,9.908080101013184,0.10827522724866867,-0.08255238085985184
1751620531429001700,6.327001708984375,9.81236743927002,0.11306086927652359,-0.0011964113218709826
1751620531447825400,6.345825439453125,9.750154495239258,0.1417747437953949,-0.058624155819416046
1751620531466649000,6.364649169921875,9.88415241241455,0.18484555184841156,-0.010767702013254166
1751620531485472800,6.38347265625,9.888937950134277,0.9314061999320984,-0.8578268885612488
1751620531504296200,6.402296142578125,9.91286563873291,0.4336991012096405,-0.9056833982467651
1751620531523119900,6.421119873046875,9.932008743286133,0.01734796352684498,-0.9774680733680725
1751620531541943600,6.439943603515625,9.960722923278809,0.2183450609445572,-1.2167502641677856
1751620531560767200,6.458767333984375,9.984650611877441,0.28534409403800964,-1.293320655822754
1751620531579590700,6.477590576171875,9.979865074157715,-0.37028929591178894,-0.3026920557022095
1751620531598414300,6.496414306640625,9.93679428100586,-0.7339983582496643,1.3818551301956177
1751620531617238000,6.515238037109375,9.932008743286133,-0.542572557926178,2.0039889812469482
1751620531636061700,6.534061767578125,9.92243766784668,-0.21236300468444824,1.4871392250061035
1751620531654885400,6.552885498046875,9.879366874694824,-0.7914260625839233,1.1856436729431152
1751620531673708800,6.571708740234375,9.927223205566406,-1.2508480548858643,1.5828521251678467
1751620531692532500,6.590532470703125,9.908080101013184,-1.308275818824768,1.817348837852478
1751620531711356200,6.609356201171875,9.951150894165039,-0.47557350993156433,0.9655039310455322
1751620531730179800,6.628179931640625,9.865009307861328,0.26141586899757385,-0.32183465361595154
1751620531749003300,6.647003173828125,9.955936431884766,0.615553617477417,-1.2215359210968018
1751620531767827000,6.665826904296875,9.970293998718262,1.0319048166275024,-1.9776679277420044
1751620531786650600,6.684650634765625,9.970293998718262,1.2855439186096191,-2.4610180854797363
1751620531805474000,6.70347412109375,9.989436149597168,1.0558329820632935,-1.939382791519165
1751620531824297700,6.722297607421875,9.932008743286133,0.6681957244873047,-0.35054850578308105
1751620531843121400,6.741121337890625,9.946365356445312,0.17527425289154053,-0.029910283163189888
1751620531861945000,6.759945068359375,9.92243766784668,0.36670008301734924,0.12323036789894104
1751620531880768800,6.778768798828125,9.879366874694824,1.8837496042251587,-2.2504496574401855
1751620531899592200,6.79759228515625,9.893723487854004,1.7593228816986084,-2.906083106994629
1751620531918416000,6.816415771484375,9.927223205566406,0.9266205430030823,-2.9587252140045166
1751620531937239600,6.835239501953125,9.908080101013184,-0.21236300468444824,-1.9680966138839722
1751620531956063200,6.854063232421875,9.946365356445312,-1.0977073907852173,-0.35054850578308105
1751620531974886700,6.87288671875,9.92243766784668,-1.6480566263198853,1.1665010452270508
1751620531993710300,6.89171044921875,9.960722923278809,-1.85383939743042,2.9036903381347656
1751620532012534000,6.910533935546875,9.999007225036621,-1.5810575485229492,4.047459602355957
1751620532031357700,6.929357666015625,10.00857925415039,0.05563312768936157,-0.06819544732570648
1751620532050181000,6.94818115234375,9.92243766784668,-2.217548370361328,1.9417755603790283
1751620532069004800,6.9670048828125,9.903294563293457,-2.806182861328125,2.7553353309631348
1751620532087828500,6.985828369140625,9.999007225036621,-1.8490537405014038,2.0039889812469482
1751620532106652000,7.00465185546875,9.8267240524292,-0.6239284873008728,0.5060819983482361
1751620532125475600,7.0234755859375,9.659226417541504,0.0029910283628851175,-0.9439685344696045
1751620532144299300,7.04229931640625,9.89850902557373,0.7543373107910156,-1.412961721420288
1751620532163123000,7.061123046875,9.845867156982422,1.7353945970535278,-2.504088878631592
1751620532181946600,7.079946533203125,9.888937950134277,2.132603168487549,-3.078366279602051
1751620532200770000,7.09877001953125,9.932008743286133,1.9555343389511108,-3.207578659057617
1751620532219593700,7.11759375,9.941579818725586,0.9074779748916626,-0.8961120843887329
1751620532238417400,7.13641748046875,9.932008743286133,1.8646070957183838,-2.5471596717834473
1751620532257240800,7.15524072265625,9.941579818725586,0.8356932997703552,-1.9202401638031006
1751620532276064500,7.174064453125,9.979865074157715,-0.08793623000383377,-1.6378871202468872
1751620532294888200,7.19288818359375,9.92243766784668,-0.40378883481025696,-1.3316057920455933
1751620532313711900,7.2117119140625,9.91286563873291,-0.26979073882102966,-0.9774680733680725
1751620532332535300,7.230535400390625,9.970293998718262,-0.42293140292167664,0.26201409101486206
1751620532351359000,7.24935888671875,9.89850902557373,-0.997208833694458,2.2671995162963867
1751620532370182700,7.2681826171875,9.917651176452637,-1.547558069229126,3.923032760620117
1751620532389006300,7.28700634765625,9.979865074157715,-1.0019944906234741,0.8745766878128052
1751620532407830000,7.305830078125,9.955936431884766,-1.609771490097046,1.664208173751831
1751620532426653400,7.3246533203125,9.802796363830566,-2.1361923217773438,2.7218358516693115
1751620532445477000,7.34347705078125,9.807581901550293,-1.2317054271697998,2.6117658615112305
1751620532464300800,7.36230078125,9.979865074157715,-1.705484390258789,1.7934205532073975
1751620532483124200,7.381124267578125,9.769296646118164,-1.217348575592041,0.08973085135221481
1751620532501948000,7.399947998046875,10.123434066772461,-0.14057832956314087,-1.805384635925293
1751620532520771600,7.418771484375,10.042078018188477,0.9266205430030823,-3.174079179763794
1751620532539595300,7.43759521484375,9.941579818725586,2.1613171100616455,-3.757927894592285
1751620532558418700,7.456418701171875,9.908080101013184,3.118446111679077,-4.676771640777588
1751620532577242400,7.475242431640625,9.769296646118164,1.3573286533355713,-1.451246976852417
1751620532596066000,7.494066162109375,9.888937950134277,1.740180253982544,-2.403590440750122
1751620532614889700,7.5128896484375,9.91286563873291,1.2281162738800049,-2.599801778793335
1751620532633713200,7.531713134765625,9.93679428100586,0.47676992416381836,-2.513660192489624
1751620532652536800,7.550536865234375,9.91286563873291,-0.7722834944725037,-2.135594129562378
1751620532671360500,7.569360595703125,9.932008743286133,-1.456630825996399,-0.7286145091056824
1751620532690184000,7.588183837890625,9.879366874694824,-1.327418327331543,0.09451649338006973
1751620532709007600,7.607007568359375,9.960722923278809,-1.4662020206451416,1.664208173751831
1751620532727831300,7.625831298828125,9.970293998718262,-1.8346967697143555,4.621737003326416
1751620532746655000,7.644655029296875,9.979865074157715,-1.0259226560592651,3.1477582454681396
1751620532765478700,7.663478759765625,9.92243766784668,-1.815554141998291,2.9898319244384766
1751620532784302000,7.682302001953125,9.946365356445312,-2.743969440460205,3.0185458660125732
1751620532803125800,7.701125732421875,9.860223770141602,-2.877967357635498,2.4681966304779053
1751620532821949400,7.719949462890625,10.003793716430664,-2.2366909980773926,0.8889335989952087
1751620532840772900,7.73877294921875,9.941579818725586,-0.7148557901382446,-1.2646067142486572
1751620532859596500,7.757596435546875,9.865009307861328,1.4817553758621216,-3.6191442012786865
1751620532878420200,7.776420166015625,9.927223205566406,2.5010979175567627,-4.475774765014648
1751620532897244000,7.795243896484375,9.88415241241455,2.7595226764678955,-4.624129772186279
1751620532916067300,7.8140673828125,9.850652694702148,0.5341976284980774,-0.4175475537776947
1751620532934891000,7.83289111328125,9.951150894165039,1.6875381469726562,-1.9968105554580688
1751620532953714700,7.851714599609375,9.955936431884766,1.677966833114624,-2.5423741340637207
1751620532972538400,7.870538330078125,9.979865074157715,0.9505487680435181,-2.700300455093384
1751620532991361800,7.88936181640625,9.994221687316895,-0.054436713457107544,-2.3605196475982666
1751620533010185500,7.908185546875,9.932008743286133,-0.6622136831283569,-1.7240287065505981
1751620533029009200,7.927009033203125,9.960722923278809,-0.6382854580879211,-1.0348957777023315
1751620533047832800,7.945832763671875,9.91286563873291,-1.241276741027832,-0.2021935135126114
1751620533066656300,7.96465625,9.941579818725586,-1.7724833488464355,1.3627125024795532
1751620533085480000,7.98347998046875,9.888937950134277,-1.8586249351501465,2.592623233795166
1751620533104303600,8.0023037109375,9.869794845581055,-1.4757733345031738,3.6885361671447754
1751620533123127300,8.021127197265624,9.92243766784668,-0.5808576941490173,2.286342144012451
1751620533141950700,8.03995068359375,9.860223770141602,-2.083550214767456,3.7459638118743896
1751620533160774400,8.0587744140625,10.04686450958252,-2.3994028568267822,4.210171222686768
1751620533179598000,8.07759814453125,9.745368003845215,-2.490330219268799,2.458625316619873
1751620533198421800,8.096421875,10.00857925415039,-1.7724833488464355,0.4295116662979126
1751620533217245200,8.1152451171875,10.018150329589844,-0.8967102766036987,-1.3698909282684326
1751620533236068900,8.13406884765625,9.965508460998535,0.1178465187549591,-3.0065815448760986
1751620533254892500,8.152892578125,10.03729248046875,2.11824631690979,-4.992624282836914
1751620533273716000,8.171716064453125,10.051650047302246,2.582453727722168,-4.9878387451171875
1751620533292539600,8.19053955078125,9.836296081542969,1.5583257675170898,-0.9583254456520081
1751620533311363300,8.20936328125,9.917651176452637,1.2089736461639404,-1.1018948554992676
1751620533330187000,8.22818701171875,9.917651176452637,1.7258232831954956,-1.867598056793213
1751620533349010700,8.2470107421875,9.903294563293457,1.0223335027694702,-1.3268201351165771
1751620533367834000,8.265834228515626,9.64965534210205,0.2566302418708801,-1.4608181715011597
1751620533386657800,8.28465771484375,10.0612211227417,0.42412781715393066,-2.1020946502685547
1751620533405481500,8.3034814453125,9.89850902557373,0.5724828243255615,-1.3746765851974487
1751620533424305200,8.32230517578125,9.979865074157715,0.4049852192401886,-0.8817551732063293
1751620533443128600,8.341128662109375,9.970293998718262,-0.542572557926178,-0.7286145091056824
1751620533461952300,8.3599521484375,10.166504859924316,-1.9974087476730347,-0.45104706287384033
1751620533480776000,8.37877587890625,9.845867156982422,-2.231905221939087,0.3290131092071533
1751620533499599600,8.397599609375,9.750154495239258,-2.609971284866333,2.874976396560669
1751620533518423000,8.416423095703125,10.401001930236816,-1.0019944906234741,4.755734920501709
1751620533537246700,8.435246826171875,9.525228500366211,-0.6382854580879211,2.5160529613494873
1751620533556070400,8.4540703125,9.309874534606934,-1.944766640663147,1.415354609489441
1751620533574894000,8.47289404296875,9.606584548950195,-1.6193426847457886,2.032702922821045
1751620533593717500,8.491717529296874,9.855438232421875,-1.1120643615722656,1.357926845550537
1751620533612541200,8.510541259765626,9.8267240524292,-0.8871390223503113,0.15194423496723175
1751620533631364900,8.52936474609375,9.841081619262695,0.022133609279990196,-0.747757077217102
1751620533650188500,8.5481884765625,10.027721405029297,0.8691928386688232,-1.8149559497833252
1751620533669012000,8.567011962890625,9.989436149597168,1.0845468044281006,-2.4993033409118652
1751620533687835600,8.585835693359375,10.04686450958252,1.036690354347229,-2.480160713195801
1751620533706659300,8.604659423828124,9.960722923278809,1.43389892578125,-1.144965648651123
1751620533725483000,8.62348291015625,9.984650611877441,0.357128769159317,0.2907279431819916
1751620533744306700,8.642306640625,9.89850902557373,1.3094722032546997,-1.5708880424499512
1751620533763130000,8.661130126953125,9.92243766784668,1.8741782903671265,-3.049652576446533
1751620533781953800,8.679953857421875,9.726225852966309,1.3860424757003784,-3.55214524269104
1751620533800777500,8.698777587890625,10.42492961883545,-0.08793623000383377,-3.025724172592163
1751620533819601200,8.71760107421875,8.59202766418457,-0.5760720372200012,-1.2406785488128662
1751620533838424600,8.736424560546874,9.582656860351562,-1.6815561056137085,0.5443671345710754
1751620533857248300,8.755248291015626,9.70229721069336,-2.131406784057617,2.4777679443359375
1751620533876072000,8.774072021484375,9.836296081542969,-2.2271196842193604,3.755535125732422
1751620533894895600,8.7928955078125,10.013364791870117,-1.8969101905822754,3.5497524738311768
1751620533913719000,8.811718994140625,9.850652694702148,-1.571486234664917,2.386840581893921
1751620533932542700,8.830542724609375,10.180862426757812,-2.1170499324798584,2.5351955890655518
1751620533951366400,8.849366455078124,9.180662155151367,-2.318047046661377,1.8843477964401245
1751620533970190000,8.868190185546876,9.860223770141602,-2.050050735473633,1.3004990816116333
1751620533989013800,8.887013671875,9.769296646118164,-1.1312068700790405,0.4534398913383484
1751620534007837200,8.905837158203125,9.994221687316895,-0.04486542567610741,-0.8386843204498291
1751620534026660900,8.924660888671875,9.879366874694824,1.563111424446106,-2.4705893993377686
1751620534045484500,8.943484619140625,10.051650047302246,2.9413771629333496,-3.810570001602173
1751620534064308200,8.96230810546875,9.79801082611084,2.8791637420654297,-4.442275047302246
1751620534083131600,8.981131591796874,10.13300609588623,1.8789639472961426,-1.7527425289154053
1751620534101955300,8.999955322265626,9.865009307861328,1.9124635457992554,-2.6189444065093994
1751620534120779000,9.018779052734375,9.994221687316895,1.074975609779358,-2.9730820655822754
1751620534139602700,9.037602783203125,9.888937950134277,0.1657029688358307,-3.2267212867736816
1751620534158426400,9.05642626953125,10.018150329589844,-0.8249256014823914,-2.2360928058624268
1751620534177250000,9.07525,9.458230018615723,-1.064207911491394,-0.9391828775405884
1751620534196073500,9.094073486328124,10.587641716003418,-2.648256540298462,1.8077775239944458
1751620534214897200,9.112897216796876,9.721440315246582,-3.720241069793701,5.492724418640137
1751620534233720800,9.131720947265626,10.123434066772461,-1.906481385231018,3.5497524738311768
1751620534252544500,9.15054443359375,9.975079536437988,-2.0787646770477295,2.6979074478149414
1751620534271368200,9.1693681640625,10.032506942749023,-2.4807589054107666,2.1714866161346436
1751620534290191600,9.188191650390625,9.989436149597168,-2.9976086616516113,1.2287144660949707
1751620534309015300,9.207015380859374,10.056435585021973,-2.3371894359588623,0.0849452018737793
1751620534327839000,9.2258388671875,10.16171932220459,-0.23629122972488403,-1.8436698913574219
1751620534346662700,9.24466259765625,9.93679428100586,1.9507486820220947,-3.3415768146514893
1751620534365486000,9.263486083984375,9.975079536437988,3.3098719120025635,-4.078566074371338
1751620534384309800,9.282309814453125,10.003793716430664,3.171088218688965,-2.9874391555786133
1751620534403133400,9.301133544921875,9.932008743286133,1.8837496042251587,-1.537388563156128
1751620534421957000,9.31995703125,10.027721405029297,1.3956137895584106,-1.7910277843475342
1751620534440780800,9.33878076171875,9.855438232421875,0.8500502705574036,-1.8867406845092773
1751620534459604500,9.3576044921875,10.094720840454102,-0.04007977992296219,-2.6285157203674316
1751620534478428000,9.376427978515625,10.027721405029297,-1.1407781839370728,-2.197807550430298
1751620534497251600,9.39525146484375,9.573084831237793,-1.2699905633926392,-0.9104689955711365
1751620534516075300,9.4140751953125,10.822138786315918,-0.8632107973098755,0.07058826833963394
1751620534534899000,9.43289892578125,9.879366874694824,-1.7437695264816284,1.8221344947814941
1751620534553722600,9.45172265625,9.620942115783691,-3.696312665939331,5.1050872802734375
1751620534572546000,9.470546142578126,9.888937950134277,-1.9639091491699219,4.133601188659668
1751620534591369700,9.48936962890625,9.989436149597168,-0.7387840151786804,3.1956145763397217
1751620534610193400,9.508193359375,10.137791633605957,-0.2841476798057556,0.7166503667831421
1751620534629017000,9.52701708984375,10.156933784484863,-1.4039887189865112,-0.12083754688501358
1751620534647840800,9.5458408203125,8.874381065368652,-1.7964116334915161,-0.47976094484329224
1751620534666664400,9.56466455078125,10.353145599365234,-0.96370929479599,-1.805384635925293
1751620534685487900,9.58348779296875,9.515657424926758,0.5533402562141418,-2.2983062267303467
1751620534704311600,9.6023115234375,9.726225852966309,1.7880367040634155,-2.6189444065093994
1751620534723135200,9.62113525390625,9.850652694702148,2.05603289604187,-2.906083106994629
1751620534741959000,9.639958984375,9.70229721069336,0.8069794178009033,0.6879364848136902
1751620534760782600,9.658782470703125,9.917651176452637,0.6921239495277405,-0.029910283163189888
1751620534779606300,9.677606201171875,9.841081619262695,1.5439687967300415,-0.9391828775405884
1751620534798429700,9.6964296875,9.874580383300781,1.8023936748504639,-2.059023857116699
1751620534817253400,9.71525341796875,9.88415241241455,1.5104693174362183,-2.882154941558838
1751620534836077000,9.7340771484375,10.128219604492188,0.41934216022491455,-3.4707891941070557
1751620534854900700,9.752900634765625,10.104291915893555,-0.786640465259552,-1.389033555984497
1751620534873724400,9.771724365234375,9.946365356445312,-2.767897605895996,0.9176474809646606
1751620534892548000,9.790548095703125,10.113862991333008,-4.0935211181640625,4.870590686798096
1751620534911371500,9.80937158203125,9.640084266662598,-2.2510478496551514,4.24367094039917
1751620534930195200,9.8281953125,10.180862426757812,-0.6813562512397766,2.678765058517456
1751620534949019000,9.847018798828126,10.128219604492188,-0.5569294691085815,1.6019947528839111
1751620534967842600,9.865842529296875,10.02293586730957,-1.2508480548858643,0.6783652305603027
1751620534986666200,9.884666259765625,9.778867721557617,-1.5427724123001099,-0.03469592705368996
1751620535005489700,9.90348974609375,10.415358543395996,-1.2556337118148804,-0.9631111025810242
1751620535024313300,9.922313232421875,10.070792198181152,-0.3320041298866272,-1.5134602785110474
1751620535043137000,9.941136962890624,9.855438232421875,0.735194742679596,-1.8340985774993896
1751620535061960700,9.959960693359376,9.932008743286133,1.898106575012207,-2.3748764991760254
1751620535080784400,9.978784423828126,9.807581901550293,2.740380048751831,-3.064009428024292
1751620535099608000,9.997608154296875,10.075577735900879,1.252044439315796,-1.144965648651123
1751620535137255200,10.035255126953125,10.003793716430664,0.9936196208000183,-2.0159530639648438
1751620535156078800,10.054078857421874,10.003793716430664,-0.1501496136188507,-2.14516544342041
1751620535174902500,10.072902587890624,10.353145599365234,-0.7770691514015198,-2.39401912689209
1751620535193726200,10.091726318359376,8.596813201904297,-0.9349954724311829,-1.3076776266098022
1751620535212550000,10.1105498046875,9.750154495239258,-1.1934202909469604,0.3290131092071533
1751620535231373300,10.129373291015625,9.707083702087402,-1.1838489770889282,2.008774518966675
1751620535250197000,10.148197021484375,10.085148811340332,-1.6002001762390137,2.851048231124878
1751620535269020700,10.167020751953125,9.721440315246582,-1.906481385231018,3.219542980194092
1751620535287844400,10.18584423828125,9.951150894165039,0.07477571070194244,0.07537391036748886
1751620535306668000,10.20466796875,10.0612211227417,-0.01615155301988125,0.30987054109573364
1751620535325491700,10.22349169921875,10.04686450958252,-1.088136076927185,0.778863787651062
1751620535344315400,10.2423154296875,9.343374252319336,-2.8253252506256104,1.841277003288269
1751620535363139000,10.26113916015625,9.807581901550293,-3.3517463207244873,2.36291241645813
1751620535381962500,10.27996240234375,10.2478609085083,-1.3657035827636719,0.989432156085968
1751620535400786200,10.2987861328125,9.501300811767578,0.8452646136283875,-1.2789636850357056
1751620535419609900,10.31760986328125,9.678369522094727,2.8791637420654297,-3.025724172592163
1751620535438433500,10.33643359375,9.850652694702148,4.228715896606445,-4.557130813598633
1751620535457257200,10.35525732421875,10.056435585021973,2.2091734409332275,-1.939382791519165
1751620535476081000,10.374080810546875,9.960722923278809,2.4053850173950195,-2.9826533794403076
1751620535494904300,10.392904296875,9.955936431884766,0.7495517134666443,-2.671586513519287
1751620535513728000,10.41172802734375,10.429716110229492,-0.6478567123413086,-2.5902304649353027
1751620535532551700,10.4305517578125,10.960922241210938,-1.8873388767242432,-1.207179069519043
1751620535551375400,10.449375244140626,10.190433502197266,-3.3230323791503906,0.381655216217041
1751620535570199000,10.468198974609376,9.793225288391113,-2.940180778503418,3.6837503910064697
1751620535589022700,10.487022705078125,9.984650611877441,-1.7820546627044678,5.755934715270996
1751620535607846400,10.505846435546875,10.420144081115723,-1.3417752981185913,2.152343988418579
1751620535626669800,10.524669921875,9.745368003845215,-1.6576279401779175,2.8701908588409424
1751620535645493500,10.543493408203124,10.166504859924316,-0.4181457459926605,1.1282159090042114
1751620535664317200,10.562317138671874,9.764511108398438,-1.1168500185012817,-0.6472585201263428
1751620535683140900,10.581140869140626,9.845867156982422,-1.5284154415130615,-1.2167502641677856
1751620535701964500,10.599964599609375,9.879366874694824,-0.1740778535604477,-1.542174220085144
1751620535720788200,10.618788330078125,9.836296081542969,0.9266205430030823,-2.0685951709747314
1751620535739611600,10.637611572265625,9.81236743927002,1.8406788110733032,-2.197807550430298
1751620535758435300,10.656435302734375,9.836296081542969,2.644667148590088,-0.9822536706924438
1751620535777259000,10.675259033203124,9.845867156982422,1.4769697189331055,-0.6616154313087463
1751620535796082700,10.694082763671876,9.88415241241455,2.950948476791382,-3.284149169921875
1751620535814906400,10.71290625,9.970293998718262,2.0991036891937256,-3.198007345199585
1751620535833730000,10.73172998046875,10.003793716430664,-0.03529413416981697,-2.221735715866089
1751620535852553700,10.7505537109375,10.578070640563965,-2.0309081077575684,-1.140179991722107
1751620535871377400,10.76937744140625,8.898308753967285,-2.7535407543182373,0.9272187948226929
1751620535890200800,10.788200927734374,9.482157707214355,-2.2031915187835693,2.884547710418701
1751620535909024500,10.8070244140625,9.927223205566406,-1.7629120349884033,3.8464624881744385
1751620535927848200,10.82584814453125,10.305289268493652,-0.50907301902771,0.3194418251514435
1751620535946671900,10.844671875,9.8267240524292,-1.0546365976333618,2.1858434677124023
1751620535965495600,10.86349560546875,9.893723487854004,-1.547558069229126,2.568695068359375
1751620535984319200,10.8823193359375,10.214361190795898,-1.41834557056427,0.8315058946609497
1751620536003143000,10.901142822265625,9.903294563293457,-1.944766640663147,-0.1256231814622879
1751620536021966300,10.91996630859375,10.109077453613281,-1.7389838695526123,-0.6329016089439392
1751620536040790000,10.9387900390625,10.032506942749023,-0.6861419081687927,-1.5948163270950317
1751620536059613700,10.95761376953125,9.917651176452637,1.2089736461639404,-2.7290141582489014
1751620536078437400,10.976437255859375,9.932008743286133,3.1136605739593506,-3.346362352371216
1751620536097261000,10.995260986328125,10.14736270904541,2.7499513626098633,-1.2598211765289307
1751620536116084700,11.014084716796875,9.984650611877441,1.9938194751739502,-1.7048860788345337
1751620536134908400,11.032908447265624,9.89850902557373,2.1517457962036133,-2.451446771621704
1751620536153732000,11.051732177734374,9.841081619262695,1.2376874685287476,-2.0207388401031494
1751620536172555500,11.070555419921876,10.334002494812012,-0.42771705985069275,-1.867598056793213
1751620536191379200,11.089379150390625,10.688140869140625,-2.1170499324798584,-0.2309073805809021
1751620536210203000,11.108202880859375,11.075778007507324,-2.7870402336120605,1.4009976387023926
1751620536229026600,11.127026611328125,9.697511672973633,-1.4709876775741577,2.5639095306396484
1751620536247850200,11.145850341796875,10.195219039916992,-1.3800604343414307,2.5591237545013428
1751620536266674000,11.164673828125,10.018150329589844,0.1944168359041214,-0.3122633695602417
1751620536285497600,11.18349755859375,10.056435585021973,0.2231307178735733,0.8171489238739014
1751620536304321000,11.202321044921876,9.793225288391113,-0.8823533654212952,1.7694923877716064
1751620536323144700,11.221144775390625,10.13300609588623,-2.1361923217773438,1.333998680114746
1751620536341968400,11.239968505859375,9.865009307861328,-2.461616277694702,0.6640082597732544
1751620536360792000,11.2587919921875,9.984650611877441,-1.5379867553710938,-0.05383851006627083
1751620536379615700,11.27761572265625,9.70229721069336,-0.753140926361084,0.003589233849197626
1751620536398439400,11.296439453125,10.066006660461426,0.859621524810791,-1.1784651279449463
1751620536417263000,11.31526318359375,9.984650611877441,3.5156545639038086,-3.7435710430145264
1751620536436086800,11.334086669921875,9.81236743927002,1.9555343389511108,-2.89172625541687
1751620536454910200,11.35291015625,10.013364791870117,1.3621143102645874,-1.542174220085144
1751620536473734000,11.37173388671875,9.807581901550293,1.1276177167892456,-1.8580267429351807
1751620536492557600,11.3905576171875,9.999007225036621,0.7782655358314514,-2.3365912437438965
1751620536511381200,11.40938134765625,10.0612211227417,-0.4325026869773865,-2.2360928058624268
1751620536530205000,11.428204833984376,10.166504859924316,-1.6671991348266602,-1.207179069519043
1751620536549028600,11.447028564453126,9.419944763183594,-1.2508480548858643,0.21415762603282928
1751620536567852300,11.465852294921875,10.726426124572754,-0.666999340057373,0.5826523303985596
1751620536586676000,11.484676025390625,9.534799575805664,-1.1455638408660889,2.094916343688965
1751620536605499600,11.503499755859375,10.018150329589844,-1.5092729330062866,3.5928232669830322
1751620536624323000,11.522322998046874,9.908080101013184,0.0891326442360878,-0.4366901218891144
1751620536643146800,11.541146728515624,9.917651176452637,-0.5712863802909851,0.8937192559242249
1751620536661970400,11.559970458984376,9.831509590148926,-1.8969101905822754,2.324627161026001
1751620536680794000,11.578794189453125,9.8267240524292,-1.906481385231018,1.4871392250061035
1751620536699617800,11.59761767578125,10.00857925415039,-0.9254241585731506,0.4247260093688965
1751620536718441500,11.61644140625,9.783653259277344,-0.4133601188659668,-0.34576287865638733
1751620536737265200,11.63526513671875,9.927223205566406,0.5198407173156738,-1.168893814086914
1751620536756088600,11.654088623046874,10.02293586730957,2.213959217071533,-2.3222343921661377
1751620536774912300,11.672912353515626,9.879366874694824,2.974876642227173,-3.906282901763916
1751620536793736000,11.69173583984375,9.93679428100586,1.414756417274475,-0.9439685344696045
1751620536812559600,11.7105595703125,9.979865074157715,1.3668999671936035,-1.3603196144104004
1751620536831383300,11.72938330078125,9.908080101013184,0.8883354067802429,-1.5900306701660156
1751620536850207000,11.74820703125,10.16171932220459,0.4624129831790924,-2.6189444065093994
1751620536869030700,11.76703076171875,10.477572441101074,-0.6622136831283569,-2.5232315063476562
1751620536887854300,11.785854248046874,8.893523216247559,-1.6049858331680298,-0.45583271980285645
1751620536906677800,11.804677734375,9.611370086669922,-2.1266210079193115,2.1379871368408203
1751620536925501400,11.82350146484375,9.711869239807129,-1.3848460912704468,3.4923245906829834
1751620536944325000,11.8423251953125,9.841081619262695,-0.5042873620986938,0.989432156085968
1751620536963148800,11.861148681640625,9.793225288391113,0.2183450609445572,0.1950150430202484
1751620536981972500,11.879972412109375,10.003793716430664,-0.4660021960735321,1.3435698747634888
1751620537000796200,11.898796142578124,9.778867721557617,-0.9541380405426025,1.8077775239944458
1751620537019619800,11.917619873046876,10.415358543395996,-1.5236297845840454,0.8315058946609497
1751620537038443500,11.936443603515626,9.81236743927002,-1.6480566263198853,0.8554341197013855
1751620537057267200,11.95526708984375,10.075577735900879,-1.1982059478759766,0.4773681163787842
1751620537076090600,11.974090576171875,9.793225288391113,-0.04486542567610741,-0.3314059376716614
1751620537094914300,11.992914306640625,9.845867156982422,1.7784653902053833,-1.810170292854309
1751620537113738000,12.011738037109374,9.821938514709473,3.0370900630950928,-3.355933666229248
1751620537132561700,12.030561767578124,9.917651176452637,1.1180464029312134,-1.3076776266098022
1751620537151385300,12.04938525390625,10.03729248046875,2.1756739616394043,-2.1547367572784424
1751620537170209000,12.068208984375,9.89850902557373,1.6444673538208008,-2.5328028202056885
1751620537189032700,12.08703271484375,10.00857925415039,0.5054838061332703,-2.135594129562378
1751620537207856000,12.105856201171875,10.195219039916992,-1.638485312461853,-2.480160713195801
1751620537226680000,12.12468017578125,10.334002494812012,-2.6530420780181885,-0.6424728631973267
1751620537245503500,12.14350341796875,9.917651176452637,-2.32761812210083,1.7742780447006226
1751620537264327200,12.1623271484375,9.625727653503418,-1.456630825996399,3.291327476501465
1751620537283150800,12.18115087890625,10.578070640563965,-0.5712863802909851,4.004388809204102
1751620537301974500,12.199974609375,10.0612211227417,0.06999006122350693,-0.6951149702072144
1751620537320798200,12.218798095703125,9.764511108398438,-0.3798605799674988,1.0660024881362915
1751620537339622000,12.237621826171875,9.970293998718262,-1.4039887189865112,2.2193429470062256
1751620537358445600,12.256445556640625,10.013364791870117,-1.1359925270080566,1.6402798891067505
1751620537377269000,12.27526904296875,9.845867156982422,-0.8727820515632629,0.5587241053581238
1751620537396092700,12.2940927734375,9.951150894165039,-1.5284154415130615,0.6017948985099792
1751620537414916400,12.312916259765625,9.92243766784668,-1.4518451690673828,-0.21655045449733734
1751620537433740000,12.331739990234375,9.764511108398438,-0.13100704550743103,-1.2023934125900269
1751620537452563700,12.350563720703125,9.994221687316895,2.008176326751709,-2.317448616027832
1751620537471387400,12.369387451171875,9.91286563873291,3.3003005981445312,-3.8536407947540283
1751620537490211000,12.388211181640624,10.018150329589844,0.7447660565376282,-0.9439685344696045
1751620537509034800,12.40703466796875,10.066006660461426,1.0462616682052612,-1.7958134412765503
1751620537527858400,12.4258583984375,10.03729248046875,0.6251249313354492,-1.5804593563079834
1751620537546681900,12.444681884765625,9.79801082611084,-0.006580262444913387,-2.5471596717834473
1751620537565505500,12.463505615234375,9.93679428100586,-0.11665010452270508,-2.221735715866089
1751620537584329200,12.4823291015625,10.02293586730957,-0.3128615617752075,-0.5084748268127441
1751620537603153000,12.50115283203125,9.850652694702148,-0.9876375198364258,1.482353687286377
1751620537621976600,12.5199765625,9.740582466125488,-1.7437695264816284,3.339184045791626
1751620537640800300,12.53880029296875,9.711869239807129,-2.3706889152526855,4.0426740646362305
1751620537659624000,12.5576240234375,10.166504859924316,-0.05922235921025276,0.1663011759519577
1751620537678447600,12.576447509765625,9.793225288391113,0.09870393574237823,1.683350682258606
1751620537697271300,12.595271240234375,10.051650047302246,-0.3320041298866272,1.3387842178344727
1751620537716094700,12.6140947265625,9.932008743286133,-1.327418327331543,1.0755738019943237
1751620537734918400,12.63291845703125,9.92243766784668,-2.121835470199585,1.0325030088424683
1751620537753742000,12.6517421875,9.946365356445312,-1.7724833488464355,0.49172505736351013
1751620537772565800,12.670565673828126,9.960722923278809,-0.5808576941490173,-0.3601198196411133
1751620537791389400,12.689389404296875,9.874580383300781,1.4051851034164429,-2.4083759784698486
1751620537810213000,12.708213134765625,9.932008743286133,2.71645188331604,-3.7770705223083496
1751620537829036800,12.727036865234375,10.013364791870117,0.6107679605484009,-1.7958134412765503
1751620537847860500,12.745860595703125,9.874580383300781,2.204387903213501,-2.7050859928131104
1751620537866684200,12.76468408203125,10.118648529052734,1.4626128673553467,-3.5808591842651367
1751620537885507600,12.783507568359376,9.970293998718262,-0.030508488416671753,-2.5328028202056885
1751620537904331300,12.802331298828125,9.611370086669922,-0.7387840151786804,-2.39401912689209
1751620537923155000,12.821155029296875,10.094720840454102,-1.8586249351501465,-0.6903293132781982
1751620537941978600,12.839978515625,9.242876052856445,-2.767897605895996,2.4299113750457764
1751620537960802300,12.85880224609375,9.553942680358887,-2.145763635635376,4.837090969085693
1751620537979626000,12.8776259765625,9.965508460998535,-0.10707881301641464,3.2961132526397705
1751620537998449700,12.89644970703125,10.02293586730957,0.251844584941864,1.2957134246826172
1751620538017273300,12.9152734375,10.00857925415039,0.6681957244873047,1.8699909448623657
1751620538036096800,12.9340966796875,9.994221687316895,-0.6909275650978088,0.9224331378936768
1751620538054920400,12.95292041015625,9.979865074157715,-1.6815561056137085,0.15194423496723175
1751620538073744100,12.971744140625,9.81236743927002,-2.3563320636749268,0.4534398913383484
1751620538092567800,12.99056787109375,9.908080101013184,-2.0404794216156006,0.39601215720176697
1751620538111391500,13.0093916015625,10.080363273620605,-0.6622136831283569,-0.5994020700454712
1751620538130215200,13.028215087890626,9.89850902557373,1.414756417274475,-1.95852530002594
1751620538149038800,13.047038818359376,10.104291915893555,2.816950559616089,-2.9826533794403076
1751620538167862500,13.065862548828125,9.989436149597168,1.4195420742034912,-0.6903293132781982
1751620538186686200,13.084686279296875,9.903294563293457,1.9938194751739502,-3.3846476078033447
1751620538205509600,13.103509521484375,9.960722923278809,2.1134605407714844,-4.140779495239258
1751620538224333300,13.122333251953124,9.817152976989746,1.1132607460021973,-2.89172625541687
1751620538243157000,13.141156982421874,9.908080101013184,-0.01615155301988125,-1.5948163270950317
1751620538261980700,13.159980712890626,10.41057300567627,-1.9256240129470825,-0.0011964113218709826
1751620538280804400,13.178804443359375,9.592227935791016,-3.294318675994873,3.4540395736694336
1751620538299628000,13.1976279296875,9.654440879821777,-3.3996028900146484,5.330012321472168
1751620538318451700,13.21645166015625,10.104291915893555,-0.5617151260375977,0.9846464991569519
1751620538337275400,13.235275390625,9.932008743286133,-1.1407781839370728,2.2671995162963867
1751620538356099000,13.25409912109375,9.793225288391113,-2.0931215286254883,2.8414769172668457
1751620538374922500,13.272922607421876,9.888937950134277,-1.6911274194717407,1.089930772781372
1751620538393746200,13.29174609375,10.051650047302246,-0.8679963946342468,-1.3698909282684326
1751620538412569900,13.31056982421875,9.845867156982422,-0.18364913761615753,-2.3222343921661377
1751620538431393500,13.3293935546875,9.908080101013184,0.4336991012096405,-1.867598056793213
1751620538450217200,13.34821728515625,10.142577171325684,1.3381860256195068,-1.8628123998641968
1751620538469041000,13.367041015625,9.984650611877441,2.826521635055542,-3.087937593460083
1751620538487864600,13.385864501953124,10.13300609588623,0.706480860710144,-0.537188708782196
1751620538506688300,13.404688232421876,9.946365356445312,1.5296118259429932,-1.848455548286438
1751620538525512000,13.423511962890625,10.109077453613281,1.189831018447876,-2.796013355255127
1751620538544335400,13.44233544921875,9.8267240524292,0.5054838061332703,-3.2889347076416016
1751620538563159000,13.461158935546875,10.300503730773926,-0.389431893825531,-3.5473594665527344
1751620538581982700,13.479982666015625,10.156933784484863,-1.7868403196334839,-2.939582586288452
1751620538600806400,13.498806396484374,10.003793716430664,-3.7010984420776367,0.6592226624488831
1751620538619630000,13.517630126953126,9.745368003845215,-3.5479576587677,5.052444934844971
1751620538638453800,13.536453857421876,9.793225288391113,-1.8586249351501465,6.679564476013184
1751620538657277400,13.55527734375,9.92243766784668,-0.9397810697555542,3.3678979873657227
1751620538676101000,13.57410107421875,9.850652694702148,-1.303490161895752,3.5545380115509033
1751620538694924800,13.5929248046875,10.176076889038086,-1.5332010984420776,1.5780665874481201
1751620538713748200,13.611748291015624,10.166504859924316,-0.8488538265228271,-0.7429714202880859
1751620538732572000,13.630572021484374,9.965508460998535,-0.7435696125030518,-2.0781664848327637
1751620538751395600,13.6493955078125,9.932008743286133,-0.19322042167186737,-2.307877540588379
1751620538770219300,13.66821923828125,9.908080101013184,0.2757728099822998,-1.3411771059036255
1751620538789043000,13.68704296875,10.094720840454102,0.6873382925987244,-1.2502498626708984
1751620538807866600,13.70586669921875,9.496515274047852,1.989033818244934,-3.1166515350341797
1751620538826690300,13.724690185546875,9.908080101013184,0.5437689423561096,-0.4989035129547119
1751620538845514000,13.743513916015624,9.874580383300781,1.591825246810913,-1.7623138427734375
1751620538864337700,13.762337646484376,9.850652694702148,1.9555343389511108,-2.293520450592041
1751620538883161000,13.7811611328125,9.88415241241455,1.587039589881897,-2.365305185317993
1751620538901984800,13.79998486328125,10.156933784484863,0.4815555512905121,-1.9680966138839722
1751620538920808400,13.818808349609375,10.080363273620605,-1.3417752981185913,-0.7812566161155701
1751620538939632000,13.837632080078125,9.817152976989746,-3.3134610652923584,2.262413740158081
1751620538958455800,13.856455810546874,10.00857925415039,-3.8590247631073,4.569094657897949
1751620538977279500,13.875279541015624,9.970293998718262,-0.6239284873008728,1.5302101373672485
1751620538996103200,13.894103271484376,9.683155059814453,-1.1120643615722656,2.2576282024383545
1751620539014926800,13.9129267578125,9.965508460998535,-1.9830517768859863,2.496910333633423
1751620539033750500,13.93175048828125,9.855438232421875,-1.3178470134735107,1.534995675086975
1751620539052574000,13.950573974609375,10.003793716430664,-0.5186443328857422,-0.12083754688501358
1751620539071397600,13.969397705078125,9.955936431884766,-0.001794616924598813,-1.6666009426116943
1751620539090221300,13.98822119140625,9.807581901550293,-0.08315058797597885,-1.8915263414382935
1751620539109045000,14.007044921875,9.89850902557373,-0.01615155301988125,-1.1114661693572998
1751620539127868700,14.02586865234375,10.070792198181152,1.1850453615188599,-1.9537396430969238
1751620539146692400,14.0446923828125,9.946365356445312,1.74496591091156,-3.867997884750366
1751620539165516000,14.06351611328125,9.917651176452637,1.3573286533355713,-1.1928220987319946
1751620539184339500,14.08233935546875,9.965508460998535,2.190030813217163,-2.7912275791168213
1751620539203163400,14.101163330078125,9.903294563293457,1.3812568187713623,-2.685943365097046
1751620539221986800,14.11998681640625,10.137791633605957,0.13220344483852386,-2.2265214920043945
1751620539240810500,14.138810546875,10.625926971435547,-0.9445667266845703,-1.0971091985702515
1751620539259634200,14.15763427734375,10.39621639251709,-1.662413477897644,0.3002992272377014
1751620539278457900,14.176457763671875,10.042078018188477,-1.4422738552093506,1.1186445951461792
1751620539297281500,14.195281494140625,9.93679428100586,-1.4135600328445435,2.4011974334716797
1751620539316105200,14.214105224609375,9.783653259277344,-2.9306094646453857,4.191029071807861
1751620539334929000,14.232928955078124,9.726225852966309,-1.6911274194717407,2.4059832096099854
1751620539353752600,14.251752685546874,9.68794059753418,-1.72941255569458,2.8893332481384277
1751620539372576000,14.270575927734376,10.597213745117188,-1.241276741027832,0.9032905697822571
1751620539391399700,14.289399658203125,9.81236743927002,-0.5904290080070496,-0.5515456199645996
1751620539410223400,14.308223388671875,10.018150329589844,-0.6143572330474854,-1.3651052713394165
1751620539429047000,14.327047119140625,9.903294563293457,-0.4468596279621124,-1.4464613199234009
1751620539447870700,14.34587060546875,10.042078018188477,0.5485545992851257,-2.0446670055389404
1751620539466694400,14.3646943359375,9.93679428100586,1.7641085386276245,-2.3126630783081055
1751620539485518000,14.38351806640625,9.850652694702148,2.5489542484283447,-1.8436698913574219
1751620539504341800,14.402341796875,9.855438232421875,0.4911268353462219,-0.13040883839130402
1751620539523165200,14.421165283203125,9.865009307861328,1.2376874685287476,-1.5038890838623047
1751620539541988900,14.43998876953125,9.879366874694824,1.8263218402862549,-2.3844478130340576
1751620539560812500,14.4588125,9.932008743286133,1.6588243246078491,-2.9587252140045166
1751620539579636200,14.47763623046875,10.051650047302246,0.06999006122350693,-2.599801778793335
1751620539598460000,14.4964599609375,10.118648529052734,-1.5044872760772705,-0.8578268885612488
1751620539617283600,14.51528369140625,9.908080101013184,-1.662413477897644,1.171286702156067
1751620539636107300,14.534107177734375,9.419944763183594,-1.9399809837341309,3.157329559326172
1751620539654931000,14.552930908203125,9.692726135253906,-3.390031576156616,4.856233596801758
1751620539673754600,14.571754638671875,9.754940032958984,-1.9974087476730347,3.535395383834839
1751620539692578300,14.590578369140625,9.486943244934082,-1.9208383560180664,2.8079774379730225
1751620539711401700,14.609401611328124,10.597213745117188,-1.4709876775741577,-0.11605189740657806
1751620539730225400,14.628225341796876,10.003793716430664,-0.2793620526790619,-1.566102385520935
1751620539749049000,14.647049072265625,9.778867721557617,0.07956135272979736,-0.7956135272979736
1751620539767872800,14.665872802734375,9.841081619262695,-0.054436713457107544,0.09451649338006973
1751620539786696400,14.684696533203125,9.908080101013184,1.165902853012085,-0.8769695162773132
1751620539805520100,14.70352001953125,9.850652694702148,2.2809581756591797,-2.6811578273773193
1751620539824343800,14.72234375,9.831509590148926,1.5726827383041382,-3.0448668003082275
1751620539843167500,14.74116748046875,9.965508460998535,0.24227328598499298,-0.9391828775405884
1751620539861991200,14.7599912109375,10.02293586730957,0.41934216022491455,-1.0683952569961548
1751620539880814600,14.778814697265625,9.960722923278809,0.5581258535385132,-2.0925233364105225
1751620539899638300,14.79763818359375,10.491929054260254,0.30927231907844543,-3.0065815448760986
1751620539918462000,14.8164619140625,8.108677864074707,0.4624129831790924,-2.5423741340637207
1751620539937285600,14.83528564453125,9.644869804382324,-0.9924231767654419,-1.5182459354400635
1751620539956109300,14.854109375,9.975079536437988,-1.0019944906234741,1.9130617380142212
1751620539974933000,14.87293310546875,9.644869804382324,-1.1024930477142334,3.817748546600342
1751620539993756700,14.891756591796875,9.745368003845215,-1.3561322689056396,2.764906644821167
1751620540012580400,14.910580322265625,9.89850902557373,-0.0975075215101242,0.20937198400497437
1751620540031404000,14.929404052734375,9.778867721557617,-0.8009973764419556,0.7501499056816101
1751620540050227500,14.9482275390625,10.209575653076172,-2.193620204925537,1.2813565731048584
1751620540069051100,14.967051025390624,10.080363273620605,-3.208176851272583,3.4061830043792725
1751620540087874800,14.985874755859374,9.77408218383789,-2.6147570610046387,3.3439695835113525
1751620540106698500,15.004698486328126,10.099506378173828,-0.32721850275993347,0.003589233849197626
1751620540125522200,15.023522216796875,9.903294563293457,2.290529489517212,-3.5952160358428955
1751620540144345900,15.042345947265625,9.88415241241455,4.032504558563232,-5.026124000549316
1751620540163169500,15.06116943359375,9.91286563873291,1.922034740447998,-3.6909289360046387
1751620540181993000,15.079992919921875,9.946365356445312,1.252044439315796,-1.4943177700042725
1751620540200816600,15.098816650390624,10.018150329589844,1.5391831398010254,-2.283949136734009
1751620540219640300,15.117640380859376,9.81236743927002,1.5056836605072021,-2.6668007373809814
1751620540238464000,15.136464111328126,9.582656860351562,0.5485545992851257,-2.221735715866089
1751620540257287700,15.15528759765625,10.233504295349121,-0.9302098155021667,-1.9872392416000366
1751620540276111400,15.174111328125,10.04686450958252,-1.662413477897644,-0.3601198196411133
1751620540294935000,15.19293505859375,9.965508460998535,-2.097907304763794,1.4727823734283447
1751620540313758700,15.2117587890625,10.042078018188477,-1.944766640663147,3.229114055633545
1751620540332582400,15.23058251953125,9.888937950134277,-1.7964116334915161,3.4923245906829834
1751620540351405800,15.24940576171875,10.003793716430664,-0.2267199456691742,0.30508488416671753
1751620540370229500,15.2682294921875,10.190433502197266,0.26620152592658997,0.4342973232269287
1751620540389053200,15.28705322265625,9.77408218383789,-1.0977073907852173,1.1473584175109863
1751620540407876900,15.305876953125,9.879366874694824,-2.9306094646453857,1.4488540887832642
1751620540436112400,15.3341123046875,10.195219039916992,-2.7535407543182373,0.4247260093688965
1751620540454936000,15.35293603515625,9.960722923278809,-1.308275818824768,-0.45104706287384033
1751620540473759700,15.371759765625,9.79801082611084,0.5006981492042542,-0.8961120843887329
1751620540492583200,15.390583251953124,10.123434066772461,2.912663459777832,-3.0592236518859863
1751620540511407000,15.409406982421874,9.845867156982422,4.204787731170654,-4.17427921295166
1751620540530230500,15.42823046875,9.91286563873291,1.2185449600219727,-0.3840480446815491
1751620540549054200,15.44705419921875,9.888937950134277,1.4386845827102661,-1.1306086778640747
1751620540567878000,15.4658779296875,9.879366874694824,1.319043517112732,-1.714457392692566
1751620540586701600,15.48470166015625,9.640084266662598,1.1850453615188599,-2.623729944229126
1751620540605525200,15.503525146484375,9.932008743286133,0.6777670383453369,-3.188436269760132
1751620540624349000,15.522348876953124,10.104291915893555,-0.494716078042984,-2.2504496574401855
1751620540643172600,15.541172607421874,10.0612211227417,-1.4422738552093506,-0.6089733839035034
1751620540661996000,15.55999609375,9.79801082611084,-1.4709876775741577,0.9846464991569519
1751620540680819700,15.57881982421875,10.14736270904541,-2.2749760150909424,3.463610887527466
1751620540699643400,15.597643310546875,9.711869239807129,-3.514458179473877,5.052444934844971
1751620540718467000,15.616467041015625,9.893723487854004,-2.107478618621826,3.6646077632904053
1751620540737290800,15.635290771484375,10.152148246765137,-2.6913273334503174,2.5160529613494873
1751620540756114400,15.654114501953124,9.845867156982422,-2.0213370323181152,0.43908295035362244
1751620540774938000,15.672938232421876,10.051650047302246,-1.7485551834106445,-2.0207388401031494
1751620540793761800,15.69176171875,9.869794845581055,-0.5042873620986938,-2.504088878631592
1751620540812585200,15.710585205078125,9.893723487854004,0.9601200819015503,-2.8007988929748535
1751620540831409000,15.729408935546875,9.908080101013184,2.4149563312530518,-2.5423741340637207
1751620540850232600,15.748232666015625,9.759725570678711,3.40079927444458,-1.805384635925293
1751620540869056300,15.76705615234375,9.91286563873291,1.2424731254577637,-1.0109676122665405
1751620540887880000,15.7858798828125,9.831509590148926,1.8167506456375122,-1.7048860788345337
1751620540906703600,15.80470361328125,9.793225288391113,1.716252088546753,-1.7431713342666626
1751620540925527300,15.82352734375,9.979865074157715,0.768694281578064,-1.7670994997024536
1751620540944351000,15.84235107421875,10.018150329589844,-1.241276741027832,-1.2646067142486572
1751620540963174700,15.861174560546875,10.367502212524414,-3.002394199371338,-0.03469592705368996
1751620540981998000,15.879998046875,9.659226417541504,-1.9591234922409058,1.01814603805542
1751620541000821800,15.89882177734375,9.927223205566406,-0.25064817070961,1.8652052879333496
1751620541019645400,15.9176455078125,9.683155059814453,-0.049651071429252625,3.238685369491577
1751620541038469000,15.93646923828125,9.88415241241455,0.20877377688884735,0.8075776696205139
1751620541057292800,15.955292724609375,10.027721405029297,-0.4468596279621124,1.2526426315307617
1751620541076116500,15.974116455078125,10.066006660461426,-2.6865415573120117,1.2574282884597778
1751620541094940200,15.992940185546875,9.764511108398438,-3.710669755935669,0.46779683232307434
1751620541113763600,16.011763671875,9.999007225036621,-2.681756019592285,-0.015553346835076809
1751620541132587300,16.030587158203126,9.640084266662598,-1.9591234922409058,0.7692924737930298
1751620541151411000,16.049410888671876,9.975079536437988,0.44805604219436646,-1.2502498626708984
1751620541170234600,16.068234619140625,9.802796363830566,3.6879379749298096,-4.983053207397461
1751620541189058300,16.087058349609375,9.970293998718262,5.176273345947266,-4.370490550994873
1751620541207882000,16.105882080078125,9.970293998718262,1.591825246810913,-0.6711867451667786
1751620541226705700,16.12470556640625,9.955936431884766,1.649253010749817,-1.3459627628326416
1751620541245529300,16.143529296875,9.946365356445312,1.0701899528503418,-2.0781664848327637
1751620541264352800,16.162352783203126,9.845867156982422,0.768694281578064,-2.5184457302093506
1751620541283176400,16.181176513671875,10.056435585021973,0.7112665176391602,-3.0975089073181152
1751620541302000000,16.200000244140625,10.13300609588623,-0.42771705985069275,-2.245664119720459
1751620541320823800,16.21882373046875,9.740582466125488,-1.8059829473495483,-0.5611169338226318
1751620541339647500,16.2376474609375,9.836296081542969,-2.758326292037964,1.5493526458740234
1751620541358471200,16.25647119140625,9.807581901550293,-2.868396043777466,4.009174346923828
1751620541377294800,16.275294921875,9.711869239807129,-1.700698733329773,3.511467218399048
1751620541396118300,16.2941181640625,10.152148246765137,-0.03529413416981697,-0.6472585201263428
1751620541414942200,16.312942138671875,10.152148246765137,-0.42771705985069275,0.6879364848136902
1751620541433765600,16.331765625,9.874580383300781,-1.3800604343414307,1.6211373805999756
1751620541452589300,16.35058935546875,9.970293998718262,-1.456630825996399,0.8841479420661926
1751620541471413000,16.3694130859375,10.075577735900879,-1.1455638408660889,0.41515472531318665
1751620541490236700,16.388236572265626,9.965508460998535,-1.3752747774124146,0.592223584651947
1751620541509060400,16.407060302734376,9.683155059814453,0.022133609279990196,0.22851456701755524
1751620541527884000,16.425884033203126,9.965508460998535,1.721037745475769,-1.0157532691955566
1751620541546707700,16.444707763671875,9.836296081542969,2.8073792457580566,-2.011167526245117
1751620541565531100,16.46353125,9.869794845581055,2.5872395038604736,-3.183650493621826
1751620541584354800,16.482354736328126,9.879366874694824,0.97926265001297,-0.867398202419281
1751620541603178500,16.501178466796876,9.89850902557373,1.1180464029312134,-1.0109676122665405
1751620541622002200,16.520002197265626,10.051650047302246,0.5916253924369812,-1.5708880424499512
1751620541640825900,16.538825927734376,10.080363273620605,0.6251249313354492,-2.4945175647735596
1751620541659649500,16.5576494140625,10.204790115356445,-0.24586252868175507,-4.183850288391113
1751620541678473200,16.57647314453125,9.893723487854004,-1.1359925270080566,-3.7387852668762207
1751620541697297000,16.595296875,10.702497482299805,-2.547757863998413,0.5443671345710754
1751620541716120300,16.614120361328126,9.946365356445312,-2.8253252506256104,5.856433391571045
1751620541734944000,16.632944091796876,10.27178955078125,-1.7341982126235962,6.847062110900879
1751620541753767700,16.651767578125,9.903294563293457,-0.719641387462616,2.6739792823791504
1751620541772591400,16.67059130859375,9.597013473510742,-1.179063320159912,1.353141188621521
1751620541791415000,16.6894150390625,10.123434066772461,-1.1599208116531372,-0.48454657196998596
1751620541810238700,16.70823876953125,9.453444480895996,-0.753140926361084,-1.6618152856826782
1751620541829062400,16.7270625,9.92243766784668,-0.2602194547653198,-1.6426727771759033
1751620541847885800,16.7458857421875,9.917651176452637,0.735194742679596,0.18544375896453857
1751620541866709500,16.76470947265625,10.018150329589844,0.5964110493659973,0.8506484627723694
1751620541885533200,16.783533203125,9.855438232421875,1.1419745683670044,-0.8530412912368774
1751620541904356900,16.80235693359375,9.91286563873291,1.49611234664917,-1.7670994997024536
1751620541923180500,16.8211806640625,9.845867156982422,0.6251249313354492,-1.0157532691955566
1751620541942004200,16.840004150390627,10.018150329589844,0.6251249313354492,-0.2787638306617737
1751620541960828000,16.858827880859376,9.893723487854004,0.4815555512905121,-0.05383851006627083
1751620541979651600,16.877651611328126,9.960722923278809,0.6107679605484009,-0.5706881880760193
1751620541998475000,16.89647509765625,10.003793716430664,1.3286148309707642,-1.5326029062271118
1751620542017298700,16.915298583984374,9.81236743927002,1.036690354347229,-4.045066833496094
1751620542036122400,16.934122314453123,9.874580383300781,0.5868397355079651,-3.135794162750244
1751620542054946000,16.952946044921877,10.262218475341797,-0.5760720372200012,-0.16390834748744965
1751620542073769700,16.971769775390626,9.955936431884766,-2.4089741706848145,2.8941190242767334
1751620542092593400,16.990593505859376,9.415159225463867,-3.19860577583313,5.157729148864746
1751620542111417000,17.0094169921875,10.00857925415039,-1.7868403196334839,2.6979074478149414
1751620542130240500,17.028240478515624,9.759725570678711,-2.4329023361206055,3.0233314037323
1751620542149064200,17.047064208984374,10.501500129699707,-2.050050735473633,0.9367900490760803
1751620542167888000,17.065887939453123,10.032506942749023,-0.7579265832901001,-1.1928220987319946
1751620542186711600,17.084711669921877,10.051650047302246,0.07956135272979736,-1.5565310716629028
1751620542205535200,17.10353515625,9.77408218383789,0.2231307178735733,-1.1306086778640747
1751620542224359000,17.12235888671875,9.821938514709473,1.098903775215149,-0.98703932762146
1751620542243182600,17.1411826171875,9.946365356445312,1.740180253982544,-1.9202401638031006
1751620542262006300,17.16000634765625,9.740582466125488,2.4580271244049072,-3.7818562984466553
1751620542280829700,17.17882958984375,9.979865074157715,0.9601200819015503,-0.8817551732063293
1751620542299653400,17.1976533203125,9.999007225036621,1.6109678745269775,-1.95852530002594
1751620542318477000,17.21647705078125,9.874580383300781,1.3334003686904907,-2.341377019882202
1751620542337300700,17.23530078125,10.03729248046875,0.6442674994468689,-2.623729944229126
1751620542356124400,17.25412451171875,10.305289268493652,-0.3415754437446594,-1.939382791519165
1751620542374947800,17.27294775390625,8.400602340698242,-0.9445667266845703,-0.18305093050003052
1751620542393771500,17.291771484375,9.348159790039062,-0.9110672473907471,1.2095718383789062
1751620542412595200,17.31059521484375,9.716654777526855,-0.7435696125030518,1.817348837852478
1751620542431419000,17.3294189453125,9.673583984375,-1.5906288623809814,2.932404041290283
1751620542450242600,17.34824267578125,9.802796363830566,-1.083350419998169,1.0516455173492432
1751620542469066200,17.367066162109374,9.955936431884766,-0.24586252868175507,0.33858439326286316
1751620542487890000,17.385889892578124,9.855438232421875,-1.2891331911087036,1.4105689525604248
1751620542506713600,17.404713623046874,9.879366874694824,-2.7631118297576904,2.764906644821167
1751620542525537000,17.423537109375,9.635298728942871,-3.9355950355529785,2.4681966304779053
1751620542544360700,17.442360595703125,10.2478609085083,-3.428316593170166,0.28115665912628174
1751620542563184400,17.461184326171875,10.003793716430664,-0.7292127013206482,-1.5900306701660156
1751620542582008000,17.480008056640624,9.692726135253906,2.0368902683258057,-3.0448668003082275
1751620542600831700,17.498831787109374,10.00857925415039,4.046861171722412,-3.7052857875823975
1751620542619655400,17.517655517578124,9.946365356445312,3.692723512649536,-3.3511481285095215
1751620542638479000,17.53647900390625,9.960722923278809,0.13698910176753998,-0.02512463741004467
1751620542657302500,17.555302490234375,9.932008743286133,-0.16450655460357666,-0.05383851006627083
1751620542676126200,17.574126220703125,9.927223205566406,0.0891326442360878,-0.0011964113218709826
1751620542694950000,17.592949951171875,9.869794845581055,0.3523431420326233,0.4582255482673645
1751620542713773600,17.611773681640624,9.89850902557373,1.4482558965682983,-1.2550355195999146
1751620542732597200,17.63059716796875,9.92243766784668,2.0656042098999023,-2.7385854721069336
1751620542751421000,17.6494208984375,9.941579818725586,1.831107497215271,-3.4133615493774414
1751620542770244600,17.66824462890625,10.166504859924316,0.8787640929222107,-2.9347970485687256
1751620542789068000,17.687068115234375,10.472786903381348,-0.7435696125030518,-1.2693923711776733
1751620542807891700,17.7058916015625,10.965707778930664,-2.571686029434204,1.6067804098129272
1751620542826715400,17.72471533203125,10.042078018188477,-2.1505494117736816,3.7746777534484863
1751620542845539000,17.7435390625,10.25743293762207,-1.332203984260559,2.042274236679077
1751620542864362800,17.76236279296875,10.051650047302246,-0.8488538265228271,0.23330020904541016
1751620542883186400,17.7811865234375,9.927223205566406,-1.1694921255111694,-0.11605189740657806
1751620542902010000,17.800010009765625,9.92243766784668,0.07956135272979736,0.20937198400497437
1751620542920833500,17.81883349609375,9.807581901550293,-1.9208383560180664,0.6161518096923828
1751620542939657200,17.8376572265625,9.692726135253906,-4.031308174133301,2.6739792823791504
1751620542958481000,17.85648095703125,9.831509590148926,-3.308675527572632,3.6119658946990967
1751620542977304600,17.8753046875,9.831509590148926,-1.41834557056427,1.4488540887832642
1751620542996128300,17.894128173828125,10.209575653076172,0.5437689423561096,-1.5565310716629028
1751620543014952000,17.912951904296875,9.731011390686035,2.0033907890319824,-2.417947292327881
1751620543033775600,17.931775634765625,9.821938514709473,3.1040892601013184,-2.6189444065093994
1751620543052599000,17.95059912109375,9.946365356445312,3.965505361557007,-3.59043025970459
1751620543071422700,17.969422607421876,9.975079536437988,2.1613171100616455,-2.9826533794403076
1751620543090246400,17.988246337890626,9.965508460998535,1.8454644680023193,-2.0398812294006348
1751620543109070000,18.007070068359376,10.051650047302246,1.4003994464874268,-2.480160713195801
1751620543127893800,18.025893798828125,10.080363273620605,0.6825526356697083,-3.2889347076416016
1751620543146717400,18.044717529296875,10.166504859924316,-0.7579265832901001,-3.4133615493774414
1751620543165540900,18.063540771484377,9.946365356445312,-1.9399809837341309,-2.5902304649353027
1751620543184364500,18.082364501953126,9.965508460998535,-1.9256240129470825,-1.0396814346313477
1751620543203188200,18.101188232421876,10.28614616394043,-2.193620204925537,0.7310073375701904
1751620543222012000,18.120011962890626,10.066006660461426,-2.5334010124206543,3.377469062805176
1751620543240835600,18.138835693359376,10.03729248046875,-2.916252613067627,4.444668292999268
1751620543259659300,18.1576591796875,9.802796363830566,-1.174277663230896,0.8937192559242249
1751620543278483000,18.17648291015625,10.018150329589844,-1.571486234664917,1.6689938306808472
1751620543297306600,18.195306640625,9.821938514709473,-0.9349954724311829,1.5014961957931519
1751620543316130000,18.214130126953126,9.78843879699707,-0.633499801158905,-0.27397820353507996
1751620543334953700,18.23295361328125,10.324431419372559,-0.4899304509162903,-0.747757077217102
1751620543353777400,18.25177734375,9.855438232421875,-1.9878374338150024,1.2574282884597778
1751620543372601000,18.27060107421875,10.113862991333008,-1.6145570278167725,1.7216359376907349
1751620543391424800,18.2894248046875,10.00857925415039,0.26620152592658997,-0.3696911036968231
1751620543410248400,18.30824853515625,9.91286563873291,1.4865410327911377,-1.451246976852417
1751620543429072000,18.32707177734375,9.865009307861328,1.4913266897201538,-0.98703932762146
1751620543447895600,18.3458955078125,9.831509590148926,1.8263218402862549,-1.0205388069152832
1751620543466719200,18.36471923828125,9.821938514709473,2.0656042098999023,-0.8243274092674255
1751620543485543000,18.38354296875,9.903294563293457,0.8691928386688232,-1.633101463317871
1751620543504366600,18.40236669921875,9.970293998718262,0.20877377688884735,-1.542174220085144
1751620543523190300,18.421190185546877,9.999007225036621,0.33798620104789734,-1.657029628753662
1751620543542014000,18.440013916015626,9.979865074157715,1.6971094608306885,-3.049652576446533
1751620543560837400,18.45883740234375,10.027721405029297,1.835893154144287,-3.8009986877441406
1751620543579661000,18.4776611328125,10.214361190795898,0.9601200819015503,-3.2410783767700195
1751620543598484700,18.496484619140624,9.668798446655273,-0.8009973764419556,-0.2787638306617737
1751620543617308400,18.515308349609374,10.075577735900879,-2.6291139125823975,3.1621150970458984
1751620543636132000,18.534132080078123,9.78843879699707,-3.61017107963562,4.320241451263428
1751620543654955800,18.552955810546877,10.16171932220459,-0.7627122402191162,0.31465616822242737
1751620543673779200,18.571779296875,9.927223205566406,0.251844584941864,-0.8195417523384094
1751620543692603000,18.590602783203124,9.879366874694824,-0.45164528489112854,-0.16390834748744965
1751620543711426600,18.609426513671874,9.93679428100586,0.1944168359041214,-0.029910283163189888
1751620543730250200,18.628250244140624,9.88415241241455,-2.1649062633514404,1.994417667388916
1751620543749074000,18.647073974609373,9.855438232421875,-3.0167510509490967,3.5736806392669678
1751620543767897600,18.665897705078127,10.094720840454102,-1.7964116334915161,1.511067509651184
1751620543786721000,18.684720947265625,9.984650611877441,-0.13579268753528595,-1.5469598770141602
1751620543805544700,18.703544677734374,9.979865074157715,0.7304090857505798,-2.6811578273773193
1751620543824368400,18.722368408203124,9.946365356445312,1.0271191596984863,-1.9489539861679077
1751620543843192000,18.741192138671874,9.927223205566406,0.5772684812545776,0.6305087804794312
1751620543862015700,18.760015625,9.89850902557373,1.319043517112732,0.22372891008853912
1751620543880839400,18.77883935546875,9.91286563873291,1.721037745475769,-2.441875457763672
1751620543899663000,18.7976630859375,9.92243766784668,0.9314061999320984,-1.1497513055801392
1751620543918486800,18.81648681640625,9.91286563873291,1.6588243246078491,-1.456032633781433
1751620543937310200,18.835310302734374,9.917651176452637,1.9459630250930786,-2.7864420413970947
1751620543956134000,18.8541337890625,9.984650611877441,1.074975609779358,-3.269792079925537
1751620543974957600,18.87295751953125,9.8267240524292,0.22791635990142822,-3.504288673400879
1751620543993781200,18.89178125,10.070792198181152,-0.389431893825531,-2.6572296619415283
1751620544012605000,18.91060498046875,10.233504295349121,-1.571486234664917,-0.13040883839130402
1751620544031428600,18.9294287109375,9.778867721557617,-3.208176851272583,3.559323787689209
1751620544050252000,18.948251953125,9.802796363830566,-3.4091739654541016,4.956732273101807
1751620544069075700,18.96707568359375,10.066006660461426,-1.1455638408660889,1.022931694984436
1751620544087899400,18.9858994140625,9.855438232421875,-1.0354939699172974,1.7599210739135742
1751620544106723000,19.00472314453125,10.066006660461426,0.2997010350227356,-0.8147560954093933
1751620544125546800,19.023546630859375,9.89850902557373,1.280758261680603,-3.542573928833008
1751620544144370400,19.042370361328125,9.802796363830566,0.23748764395713806,-0.6664010882377625
1751620544163193900,19.06119384765625,9.903294563293457,-0.42293140292167664,0.41994038224220276
1751620544182017500,19.080017578125,9.903294563293457,-0.32721850275993347,1.1282159090042114
1751620544200841200,19.09884130859375,9.888937950134277,-0.8488538265228271,2.066202402114868
1751620544219665000,19.117664794921875,9.92243766784668,-0.5473581552505493,1.26699960231781
1751620544238488600,19.136488525390625,9.927223205566406,0.1704886108636856,-0.27397820353507996
1751620544257312300,19.155312255859375,9.951150894165039,-0.4133601188659668,-0.1543370634317398
1751620544276135700,19.1741357421875,9.984650611877441,-0.4420739710330963,0.625723123550415
1751620544294959400,19.19295947265625,9.951150894165039,0.4289134442806244,-0.13998012244701385
1751620544313783000,19.211782958984376,9.917651176452637,1.1276177167892456,-1.1832507848739624
1751620544332606700,19.230606689453126,9.91286563873291,1.103689432144165,-1.29810631275177
1751620544351430400,19.249430419921875,9.917651176452637,1.103689432144165,-1.389033555984497
1751620544370254000,19.268254150390625,9.874580383300781,0.5102694034576416,-0.6951149702072144
1751620544389077800,19.287077880859375,9.908080101013184,0.14656038582324982,-0.1782652884721756
1751620544407901200,19.305901123046876,9.89850902557373,0.17527425289154053,-0.6711867451667786
1751620544426724900,19.324724853515626,9.927223205566406,-0.24586252868175507,-0.8961120843887329
1751620544445548500,19.343548583984376,9.908080101013184,0.26620152592658997,0.17587246000766754
1751620544473784000,19.3717841796875,9.917651176452637,0.15613168478012085,0.13280165195465088
1751620544492607700,19.390607666015626,9.908080101013184,0.22791635990142822,0.28115665912628174
1751620544511431400,19.409431396484376,9.908080101013184,0.7495517134666443,-1.9728822708129883
1751620544530254800,19.4282548828125,9.903294563293457,1.7353945970535278,-3.3894333839416504
1751620544549078500,19.44707861328125,9.88415241241455,1.7593228816986084,-3.0544381141662598
1751620544567902200,19.465902099609377,10.00857925415039,0.6969096064567566,-2.341377019882202
1751620544586726000,19.484725830078126,9.92243766784668,-0.04486542567610741,-1.1497513055801392
1751620544605549600,19.503549560546876,9.91286563873291,-1.0115658044815063,1.0755738019943237
1751620544624373200,19.522373291015626,10.03729248046875,-2.026122570037842,3.410968780517578
1751620544643196700,19.54119677734375,9.731011390686035,-2.1170499324798584,3.2578279972076416
1751620544662020400,19.560020263671873,9.946365356445312,-1.4662020206451416,1.042074203491211
1751620544680844000,19.578843994140627,10.032506942749023,-0.35114672780036926,-1.1210373640060425
1751620544699667700,19.597667724609376,9.999007225036621,-0.20757736265659332,-0.2069791555404663
1751620544718491400,19.616491455078126,9.91286563873291,-0.9828519225120544,1.2574282884597778
1751620544737315000,19.635315185546876,10.075577735900879,-2.41375994682312,3.3678979873657227
1751620544756138500,19.654138427734374,9.89850902557373,-3.040679454803467,2.4634108543395996
1751620544774962200,19.672962158203124,9.965508460998535,-2.3611178398132324,0.3768695592880249
1751620544793785900,19.691785888671873,9.869794845581055,-1.2221341133117676,-1.1018948554992676
1751620544812609500,19.710609619140627,9.869794845581055,0.2566302418708801,-2.0207388401031494
1751620544831433200,19.72943310546875,9.740582466125488,2.4532413482666016,-3.4707891941070557
1751620544850257000,19.7482568359375,9.917651176452637,4.190430641174316,-4.9160542488098145
1751620544869080300,19.767080322265624,9.888937950134277,1.8215361833572388,-1.054038405418396
1751620544887904000,19.785904052734374,9.93679428100586,1.9507486820220947,-1.6378871202468872
1751620544906727700,19.804727783203123,9.88415241241455,1.2185449600219727,-1.6666009426116943
1751620544925551400,19.82355126953125,9.994221687316895,0.6873382925987244,-2.3270199298858643
1751620544944375000,19.842375,10.152148246765137,0.0364905446767807,-2.5950162410736084
1751620544963198700,19.86119873046875,9.994221687316895,-0.6574280261993408,-1.9776679277420044
1751620544982022100,19.880022216796874,9.386445045471191,-1.0689935684204102,-0.058624155819416046
1751620545000845800,19.898845703125,10.195219039916992,-2.1888344287872314,2.420340061187744
1751620545019669500,19.91766943359375,9.544371604919434,-3.1028928756713867,4.84187650680542
1751620545038493200,19.9364931640625,9.831509590148926,-1.2269197702407837,1.5397813320159912
1751620545057316900,19.95531689453125,10.453643798828125,0.42412781715393066,0.2763710021972656
1751620545076140500,19.974140625,10.075577735900879,0.10348957777023315,-0.7381857633590698
1751620545094964000,19.9929638671875,9.989436149597168,-0.47557350993156433,-1.23589289188385
1751620545113787600,20.01178759765625,9.927223205566406,-1.1599208116531372,-0.4127618968486786
1751620545132611300,20.030611328125,9.955936431884766,-2.3706889152526855,1.7455641031265259
1751620545151435000,20.04943505859375,9.93679428100586,-2.705684185028076,2.999403238296509
1751620545170258700,20.0682587890625,9.836296081542969,-1.571486234664917,1.26699960231781
1751620545189082400,20.087082275390625,9.941579818725586,1.4434702396392822,-1.8819550275802612
1751620545207905800,20.10590576171875,9.89850902557373,3.8697924613952637,-3.566502094268799
1751620545226729500,20.1247294921875,9.874580383300781,3.180659532546997,-3.0975089073181152
1751620545245553200,20.14355322265625,9.888937950134277,0.5198407173156738,-0.24526432156562805
1751620545264376800,20.162376953125,9.908080101013184,0.4097708761692047,-0.18305093050003052
1751620545283200500,20.181200439453125,9.91286563873291,0.4576273262500763,-0.2883351147174835
1751620545302024200,20.200024169921875,9.917651176452637,0.4289134442806244,-0.2548356056213379
1751620545320848000,20.218847900390625,9.917651176452637,0.0077766734175384045,0.013160524889826775
1751620545339671300,20.23767138671875,9.946365356445312,0.04127619042992592,0.39122650027275085
1751620545358495000,20.256494873046876,10.02293586730957,0.23270200192928314,-0.08255238085985184
1751620545377318700,20.275318603515625,9.975079536437988,0.7782655358314514,-1.5996019840240479
1751620545396142300,20.294142333984375,9.620942115783691,1.4291132688522339,-3.183650493621826
1751620545414966000,20.312966064453125,10.14736270904541,1.2281162738800049,-2.8247270584106445
1751620545433789700,20.331789794921875,10.113862991333008,0.582054078578949,-1.2885349988937378
1751620545452613000,20.350613037109376,9.597013473510742,-0.6287141442298889,1.6019947528839111
1751620545471436800,20.369436767578126,9.750154495239258,-1.700698733329773,2.913261651992798
1751620545490260500,20.388260498046876,9.893723487854004,-2.3371894359588623,2.276770830154419
1751620545509084200,20.407084228515625,10.290931701660156,-0.4660021960735321,0.21415762603282928
1751620545527907800,20.425907958984375,10.109077453613281,-0.9110672473907471,0.43908295035362244
1751620545546731500,20.4447314453125,10.013364791870117,-1.949552297592163,1.262213945388794
1751620545565555000,20.463554931640626,9.91286563873291,-2.8013970851898193,1.994417667388916
1751620545584378600,20.482378662109376,9.91286563873291,-2.758326292037964,1.1186445951461792
1751620545603202300,20.501202392578126,10.094720840454102,-2.633899450302124,0.36251261830329895
1751620545622026000,20.52002587890625,9.88415241241455,-0.7770691514015198,-1.164108157157898
1751620545640849700,20.538849609375,9.917651176452637,1.3046865463256836,-2.6763720512390137
1751620545659673300,20.55767333984375,9.888937950134277,2.788236618041992,-3.5952160358428955
1751620545678496800,20.576496826171876,9.88415241241455,3.0418758392333984,-3.0927233695983887
1751620545697320400,20.595320556640626,9.869794845581055,0.9457631707191467,-0.21655045449733734
1751620545716144000,20.61414404296875,9.841081619262695,0.36670008301734924,0.8123632669448853
1751620545734967800,20.6329677734375,9.908080101013184,0.45284169912338257,0.3720839321613312
1751620545753791500,20.65179150390625,9.946365356445312,0.37148571014404297,-0.503689169883728
1751620545772615200,20.670615234375,9.941579818725586,0.4336991012096405,-0.4127618968486786
1751620545791438600,20.6894384765625,9.960722923278809,1.4673985242843628,-2.2504496574401855
1751620545810262300,20.70826220703125,9.984650611877441,1.5774682760238647,-3.7148571014404297
1751620545829086000,20.7270859375,9.994221687316895,1.0223335027694702,-3.8057844638824463
1751620545847909600,20.74590966796875,9.951150894165039,0.615553617477417,-2.93001127243042
1751620545866733300,20.7647333984375,9.999007225036621,0.1944168359041214,-1.3651052713394165
1751620545885557000,20.783556884765623,9.831509590148926,-0.6957131624221802,0.6544370055198669
1751620545904380400,20.80238037109375,9.855438232421875,-2.7535407543182373,3.9421753883361816
1751620545923204000,20.8212041015625,10.085148811340332,-4.725226402282715,5.416153907775879
1751620545942027800,20.84002783203125,9.946365356445312,-3.0550363063812256,3.4061830043792725
1751620545960851500,20.8588515625,9.888937950134277,-2.4329023361206055,2.310270309448242
1751620545979675100,20.877675048828124,9.893723487854004,-1.8251254558563232,-0.03469592705368996
1751620545998498800,20.896498779296873,9.979865074157715,-0.50907301902771,-2.3461625576019287
1751620546017322200,20.915322265625,9.93679428100586,0.6586244106292725,-2.6524438858032227
1751620546036146000,20.93414599609375,9.92243766784668,1.3286148309707642,-1.6091731786727905
1751620546054969600,20.952969482421874,9.955936431884766,1.7258232831954956,-2.3605196475982666
1751620546073793300,20.971793212890624,10.018150329589844,0.5916253924369812,-1.0971091985702515
1751620546092617000,20.990616943359374,9.845867156982422,0.13220344483852386,-0.06340979784727097
1751620546111440400,21.0094404296875,9.92243766784668,0.13220344483852386,-0.06340979784727097
1751620546130264000,21.02826416015625,9.932008743286133,0.7447660565376282,0.09451649338006973
1751620546149087700,21.047087646484375,9.927223205566406,0.9170492887496948,-0.4366901218891144
1751620546167911400,21.065911376953125,9.92243766784668,1.4769697189331055,-2.1403799057006836
1751620546186735000,21.084735107421874,9.989436149597168,1.2089736461639404,-4.088137626647949
1751620546205558800,21.103558837890624,9.836296081542969,1.1084750890731812,-3.8727834224700928
1751620546224382200,21.12238232421875,9.821938514709473,0.8548358678817749,-1.963310956954956
1751620546243206000,21.141205810546875,10.14736270904541,-0.10229317098855972,1.3722838163375854
1751620546262029600,21.160029541015625,9.716654777526855,-2.097907304763794,4.856233596801758
1751620546280853200,21.178853271484375,9.745368003845215,-4.337589263916016,5.454439163208008
1751620546299677000,21.197677001953124,10.109077453613281,-3.964308977127075,3.975674867630005
1751620546318500400,21.216500244140626,9.989436149597168,-3.6293137073516846,1.5158531665802002
1751620546337324000,21.235323974609376,9.865009307861328,-1.7102699279785156,-1.5996019840240479
1751620546356147700,21.254147705078125,9.93679428100586,0.16091732680797577,-3.159722328186035
1751620546374971400,21.272971435546875,9.994221687316895,0.8309076428413391,-2.853440999984741
1751620546393795000,21.291795166015625,9.821938514709473,1.2137593030929565,-1.6522440910339355
1751620546412618800,21.31061865234375,9.908080101013184,1.6301103830337524,-1.1258230209350586
1751620546431442200,21.329442138671876,9.960722923278809,1.5726827383041382,-1.604387640953064
1751620546450265900,21.348265869140626,9.860223770141602,0.31405797600746155,0.2189432680606842
1751620546469089500,21.367089599609375,9.89850902557373,0.1417747437953949,0.07058826833963394
1751620546487913200,21.385913330078125,9.979865074157715,0.6873382925987244,-0.2309073805809021
1751620546506737000,21.40473681640625,10.013364791870117,0.7591229677200317,-0.8003991842269897
1751620546525560600,21.423560546875,9.836296081542969,0.7304090857505798,-3.518645763397217
1751620546544384000,21.442384033203126,10.03729248046875,1.1371889114379883,-3.0975089073181152
1751620546563207700,21.461207763671876,10.353145599365234,0.5054838061332703,-1.9537396430969238
1751620546582031400,21.48003125,10.319645881652832,-0.28893333673477173,0.7836494445800781
1751620546600855000,21.49885498046875,11.051849365234375,-0.7052844762802124,4.377668857574463
1751620546619678700,21.5176787109375,9.932008743286133,-2.073979139328003,3.1142587661743164
1751620546638502400,21.53650244140625,9.850652694702148,-2.375474691390991,2.396411895751953
1751620546657325800,21.555325927734376,10.013364791870117,-2.145763635635376,1.5541383028030396
1751620546676149500,21.5741494140625,10.032506942749023,-2.3324038982391357,-0.24526432156562805
1751620546694973200,21.59297314453125,10.018150329589844,-2.231905221939087,-1.1162517070770264
1751620546713796900,21.611796875,10.04686450958252,-2.0644078254699707,-0.3840480446815491
1751620546732620500,21.63062060546875,10.099506378173828,-0.4181457459926605,-0.48454657196998596
1751620546751444200,21.6494443359375,9.984650611877441,1.1994023323059082,-1.2646067142486572
1751620546770267600,21.668267578125,9.932008743286133,2.0751755237579346,-1.9010975360870361
1751620546789091300,21.68709130859375,9.893723487854004,2.630310297012329,-2.1930220127105713
1751620546807915000,21.7059150390625,9.970293998718262,1.2424731254577637,-0.8769695162773132
1751620546826738700,21.72473876953125,9.91286563873291,-0.12622138857841492,0.22851456701755524
1751620546845562400,21.743562255859374,9.89850902557373,0.24227328598499298,0.3577269911766052
1751620546864386000,21.762385986328123,9.888937950134277,0.649053156375885,-0.04426721855998039
1751620546883209500,21.78120947265625,9.879366874694824,1.1611171960830688,-1.2023934125900269
1751620546902033200,21.800033203125,9.917651176452637,1.103689432144165,-1.719243049621582
1751620546920856800,21.81885693359375,9.917651176452637,0.39541393518447876,-3.3846476078033447
1751620546939680500,21.837680419921874,10.056435585021973,0.33798620104789734,-3.6335012912750244
1751620546958504200,21.856504150390624,10.013364791870117,-0.3367897868156433,-2.073380708694458
1751620546977327900,21.875327880859373,9.893723487854004,-0.9493523836135864,1.6498512029647827
1751620546996151300,21.8941513671875,10.027721405029297,-2.169692039489746,3.631108283996582
1751620547014975000,21.91297509765625,9.697511672973633,-1.7437695264816284,4.411168575286865
1751620547033798700,21.931798583984374,10.295717239379883,-1.3369896411895752,2.142772674560547
1751620547052622300,21.950622314453124,9.917651176452637,-2.94975209236145,2.640479803085327
1751620547071446000,21.969446044921874,9.91286563873291,-3.0550363063812256,0.5778666734695435
1751620547090269400,21.98826953125,9.89850902557373,-1.7724833488464355,-1.8197416067123413
1751620547109093000,22.007093017578125,9.927223205566406,-0.20757736265659332,-2.3461625576019287
1751620547127916800,22.025916748046875,9.831509590148926,0.5006981492042542,-1.1210373640060425
1751620547146740500,22.044740478515624,9.893723487854004,0.649053156375885,-0.21176479756832123
1751620547165564200,22.063564208984374,9.869794845581055,1.9411773681640625,-2.0542383193969727
1751620547184387600,22.0823876953125,9.888937950134277,2.974876642227173,-2.5471596717834473
1751620547203211300,22.101211181640625,9.91286563873291,0.46719861030578613,0.6640082597732544
1751620547222035000,22.120034912109375,9.989436149597168,1.5056836605072021,-1.0013962984085083
1751620547240858600,22.138858642578125,9.984650611877441,2.1134605407714844,-2.4227328300476074
1751620547259682300,22.157682373046875,9.92243766784668,1.984248161315918,-3.0927233695983887
1751620547278506000,22.176506103515624,10.118648529052734,1.1467602252960205,-3.4277184009552
1751620547297329400,22.195329345703126,9.78843879699707,-0.10707881301641464,-2.365305185317993
1751620547316153000,22.214153076171876,9.999007225036621,-1.308275818824768,-0.259621262550354
1751620547334976800,22.232976806640625,9.740582466125488,-1.8299111127853394,2.42512583732605
1751620547353800400,22.251800537109375,9.932008743286133,-2.035693883895874,3.5880374908447266
1751620547372624100,22.2706240234375,10.018150329589844,-1.3561322689056396,1.6450655460357666
1751620547391447800,22.28944775390625,9.888937950134277,-2.1888344287872314,1.4775680303573608
1751620547410271200,22.308271240234376,9.965508460998535,-3.648456335067749,2.7553353309631348
1751620547429095000,22.327094970703126,9.845867156982422,-4.174877166748047,1.6689938306808472
1751620547447918600,22.345918701171875,9.989436149597168,-3.3469607830047607,-0.7716853022575378
1751620547466742300,22.3647421875,9.93679428100586,-1.3992030620574951,-1.1593226194381714
1751620547485566000,22.38356591796875,9.965508460998535,0.49591249227523804,-1.9776679277420044
1751620547504389600,22.4023896484375,9.841081619262695,3.1519455909729004,-3.2650065422058105
1751620547523213000,22.421213134765626,9.879366874694824,4.5206403732299805,-3.8057844638824463
1751620547542036700,22.44003662109375,9.869794845581055,0.7399803996086121,-0.058624155819416046
1751620547560860400,22.4588603515625,9.893723487854004,0.8691928386688232,-0.04905286431312561
1751620547579684000,22.47768408203125,9.874580383300781,0.4624129831790924,0.23330020904541016
1751620547598507800,22.4965078125,9.869794845581055,0.8548358678817749,-0.7094719409942627
1751620547617331200,22.515331298828126,9.874580383300781,1.4769697189331055,-2.3988046646118164
1751620547636155000,22.53415478515625,9.807581901550293,1.567897081375122,-3.9828531742095947
1751620547654978600,22.552978515625,9.893723487854004,1.2855439186096191,-3.968496322631836
1751620547673802200,22.57180224609375,9.955936431884766,0.9074779748916626,-2.700300455093384
1751620547692626000,22.5906259765625,9.965508460998535,-0.355932354927063,-1.0444670915603638
1751620547711449600,22.60944970703125,10.013364791870117,-2.767897605895996,2.630908489227295
1751620547730273000,22.62827294921875,9.42473030090332,-4.217947959899902,5.48793888092041
1751620547749096700,22.6470966796875,10.664212226867676,-2.2893331050872803,2.6979074478149414
1751620547767920400,22.66592041015625,9.879366874694824,-1.9830517768859863,1.6546368598937988
1751620547786744000,22.684744140625,9.711869239807129,-2.241476535797119,2.0279171466827393
1751620547805567700,22.703567626953124,9.850652694702148,-1.9830517768859863,-0.21655045449733734
1751620547824391400,22.722391357421873,9.893723487854004,-0.8727820515632629,-1.3603196144104004
1751620547843214800,22.74121484375,9.927223205566406,-0.39900317788124084,-0.8961120843887329
1751620547862038500,22.76003857421875,9.927223205566406,-0.20757736265659332,-0.3170489966869354
1751620547880862200,22.7788623046875,9.908080101013184,0.6825526356697083,-0.15912270545959473
1751620547899686000,22.797685791015624,9.860223770141602,1.4913266897201538,-1.3794622421264648
1751620547918509600,22.816509521484374,9.984650611877441,1.6348960399627686,-2.111665964126587
1751620547937333200,22.835333251953124,9.970293998718262,1.189831018447876,-2.451446771621704
1751620547956156700,22.85415673828125,9.93679428100586,0.2566302418708801,-0.015553346835076809
1751620547974980400,22.87298046875,9.965508460998535,0.18005990982055664,-0.09212367236614227
1751620547993804000,22.891803955078124,9.951150894165039,0.1178465187549591,-0.05383851006627083
1751620548012627700,22.910627685546874,9.932008743286133,0.12741780281066895,0.1663011759519577
1751620548031451400,22.929451416015624,9.89850902557373,0.8261220455169678,-0.3601198196411133
1751620548050274800,22.94827490234375,9.908080101013184,1.5439687967300415,-1.8580267429351807
1751620548069098500,22.967098388671875,9.855438232421875,1.5439687967300415,-3.59043025970459
1751620548087922200,22.985922119140625,9.955936431884766,1.2185449600219727,-4.466203689575195
1751620548106745900,23.004745849609375,9.941579818725586,0.36191442608833313,-3.073580741882324
1751620548125569500,23.023569580078124,9.989436149597168,-1.1072787046432495,-0.5946164131164551
1751620548144393000,23.04239306640625,9.903294563293457,-3.820739507675171,4.2723846435546875
1751620548163216600,23.061216552734376,9.874580383300781,-4.304089546203613,7.052844524383545
1751620548182040300,23.080040283203125,10.042078018188477,-0.9780662655830383,1.8604196310043335
1751620548200864000,23.098864013671875,9.903294563293457,-1.0689935684204102,0.9128618240356445
1751620548219687700,23.117687744140625,10.013364791870117,-1.576271891593933,0.14715859293937683
1751620548238511400,23.136511474609375,10.066006660461426,-2.2893331050872803,-0.06819544732570648
1751620548257334800,23.155334716796876,9.960722923278809,-3.5479576587677,1.5254244804382324
1751620548276158500,23.174158447265626,9.994221687316895,-3.026322364807129,1.3244273662567139
1751620548294982100,23.192982177734375,9.850652694702148,-0.26979073882102966,-2.0829520225524902
1751620548313805800,23.211805908203125,9.817152976989746,2.15653133392334,-4.2795634269714355
1751620548332629500,23.23062939453125,9.893723487854004,3.4342987537384033,-3.5473594665527344
1751620548351453200,23.249453125,9.89850902557373,4.362713813781738,-3.647858142852783
1751620548370276600,23.268276611328126,9.903294563293457,1.0893324613571167,-0.5180460810661316
1751620548389100300,23.287100341796876,9.92243766784668,1.280758261680603,-1.3028919696807861
1751620548407924000,23.305924072265626,9.960722923278809,1.3525429964065552,-1.8436698913574219
1751620548426747600,23.32474755859375,9.994221687316895,1.3573286533355713,-2.6141586303710938
1751620548445571300,23.3435712890625,9.92243766784668,0.6346961855888367,-3.355933666229248
1751620548464394800,23.362394775390626,10.319645881652832,-0.39900317788124084,-3.418147087097168
1751620548483218400,23.381218505859376,9.893723487854004,-1.327418327331543,-1.934597134590149
1751620548502041300,23.400041259765626,9.932008743286133,-2.0883359909057617,0.8889335989952087
1751620548520865000,23.418864990234376,9.81236743927002,-2.2845473289489746,2.669193744659424
1751620548539688700,23.437688720703125,9.91286563873291,-1.0019944906234741,3.080759048461914
1751620548558512400,23.456512451171875,9.865009307861328,-1.9974087476730347,2.592623233795166
1751620548577336000,23.475336181640625,9.941579818725586,-2.586043119430542,2.4155545234680176
1751620548596159700,23.49415966796875,9.960722923278809,-3.514458179473877,2.4394826889038086
1751620548614983200,23.512983154296876,10.003793716430664,-3.303889751434326,0.3529413342475891
1751620548633806800,23.531806884765626,9.917651176452637,-2.1170499324798584,-0.16869398951530457
1751620548652630500,23.550630615234375,9.941579818725586,-1.0977073907852173,-0.6281159520149231
1751620548671454200,23.5694541015625,9.81236743927002,0.1657029688358307,-1.781456470489502
1751620548690278000,23.58827783203125,9.946365356445312,1.673181176185608,-2.575873613357544
1751620548709101300,23.607101318359376,9.893723487854004,2.927020311355591,-3.4851462841033936
1751620548727925000,23.625925048828126,9.88415241241455,3.4438700675964355,-3.456432342529297
1751620548746748700,23.644748779296876,9.91286563873291,1.7736797332763672,-0.7429714202880859
1751620548765572400,23.663572265625,9.893723487854004,1.1994023323059082,-1.0492527484893799
1751620548784396000,23.68239599609375,9.951150894165039,1.3812568187713623,-2.2121646404266357
1751620548803219500,23.701219482421877,9.836296081542969,1.5296118259429932,-2.3461625576019287
1751620548822043100,23.720043212890626,9.999007225036621,0.1704886108636856,-2.944368362426758
1751620548840866800,23.73886669921875,10.214361190795898,-1.906481385231018,-3.5808591842651367
1751620548859690500,23.7576904296875,10.113862991333008,-3.3373894691467285,-1.810170292854309
1751620548878514200,23.77651416015625,9.721440315246582,-3.6340994834899902,1.8795621395111084
1751620548897337900,23.795337890625,10.128219604492188,-2.8013970851898193,4.033102512359619
1751620548916161300,23.814161376953123,9.721440315246582,0.0364905446767807,5.866004943847656
1751620548934985000,23.83298486328125,9.941579818725586,0.7543373107910156,2.334198474884033
1751620548953808600,23.85180859375,9.908080101013184,-0.7100701332092285,2.6596224308013916
1751620548972632300,23.87063232421875,9.888937950134277,-2.035693883895874,1.511067509651184
1751620548991456000,23.8894560546875,10.0612211227417,-2.8636105060577393,-0.06819544732570648
1751620549010279700,23.90827978515625,10.118648529052734,-2.7631118297576904,-1.23589289188385
1751620549029103000,23.92710302734375,9.783653259277344,-2.7726831436157227,-0.7381857633590698
1751620549047926800,23.9459267578125,9.888937950134277,-1.9639091491699219,-0.27397820353507996
1751620549066750500,23.96475048828125,10.123434066772461,0.44805604219436646,-2.5663022994995117
1751620549085574100,23.98357421875,9.750154495239258,3.171088218688965,-4.719842433929443
1751620549104397800,24.002397705078124,10.142577171325684,4.204787731170654,-4.447061061859131
1751620549123221200,24.02122119140625,9.984650611877441,2.103889226913452,-1.1066805124282837
1751620549142045000,24.040044921875,9.979865074157715,1.280758261680603,-1.1880364418029785
1751620549160868600,24.05886865234375,10.02293586730957,1.0223335027694702,-1.2741780281066895
1751620549179692300,24.0776923828125,9.778867721557617,0.735194742679596,-2.475374937057495
