time,seconds_elapsed,z,y,x
1750854075988213800,0.1082138671875,0,0,0
1750854076007038200,0.1270380859375,-0.01729106903076172,-0.03598177433013916,-0.0438704788684845
1750854076044687600,0.1646875,-0.0793905258178711,-0.10925710201263428,0.08862796425819397
1750854076082336800,0.202336669921875,0.05832386016845703,0.2160658836364746,-0.15936517715454102
1750854076101161200,0.2211611328125,-0.12357711791992188,0.06832945346832275,0.028055399656295776
1750854076119986000,0.23998583984375,-0.13864707946777344,-0.08128142356872559,0.019298255443572998
1750854076138810600,0.258810546875,-0.02583026885986328,-0.09408378601074219,0.1330554485321045
1750854076157635000,0.277635009765625,-0.025420188903808594,0.019512295722961426,0.041385114192962646
1750854076176459800,0.296459716796875,0.12276172637939453,0.07323622703552246,0.01978665590286255
1750854076195284200,0.3152841796875,0.17513084411621094,-0.05012679100036621,-0.03465208411216736
1750854076214109000,0.33410888671875,0.11115550994873047,-0.07528221607208252,-0.09942987561225891
1750854076232933400,0.352933349609375,-0.009755134582519531,-0.07189297676086426,0.001309037208557129
1750854076251758000,0.371758056640625,-0.04501056671142578,-0.06674718856811523,0.0467056930065155
1750854076270582500,0.39058251953125,-0.07593917846679688,0.08663392066955566,0.009051024913787842
1750854076289407200,0.4094072265625,-0.07511329650878906,0.1109457015991211,-0.011094987392425537
1750854076308232000,0.42823193359375,-0.07410144805908203,0.05794239044189453,0.02505508065223694
1750854076327056400,0.447056396484375,0.07941532135009766,-0.017011165618896484,0.08796638250350952
1750854076345881000,0.465881103515625,0.07418537139892578,-0.09109783172607422,0.08008214831352234
1750854076364705500,0.48470556640625,0.1669178009033203,-0.08768773078918457,0.027604058384895325
1750854076383530200,0.5035302734375,-0.13592910766601562,-0.014513134956359863,-0.018980547785758972
1750854076402355000,0.52235498046875,-0.023474693298339844,0.03174448013305664,-0.01996859908103943
1750854076421179400,0.541179443359375,0.11980628967285156,-0.07223916053771973,-0.014622807502746582
1750854076440004000,0.560004150390625,-0.09968185424804688,-0.07177960872650146,0.02760186791419983
1750854076458828500,0.57882861328125,-0.2160778045654297,-0.05109667778015137,0.07831861078739166
1750854076477653200,0.5976533203125,-0.04135322570800781,-0.04548323154449463,0.018869787454605103
1750854076496477700,0.616477783203125,0.11309432983398438,0.017782211303710938,0.03439413011074066
1750854076515302400,0.635302490234375,0.03820610046386719,0.07767963409423828,-0.046693697571754456
1750854076534126800,0.654126953125,-0.10837554931640625,0.07244622707366943,-0.01693597435951233
1750854076552951600,0.67295166015625,-0.0021677017211914062,0.018240928649902344,0.03164944052696228
1750854076571776300,0.6917763671875,-0.18616199493408203,-0.18613862991333008,0.11307801306247711
1750854076590600700,0.7106005859375,0.0039730072021484375,0.13680565357208252,0.11482908576726913
1750854076609425400,0.72942529296875,0.046706199645996094,0.09811341762542725,-0.010216593742370605
1750854076628249900,0.748249755859375,0.019412994384765625,-0.08819818496704102,0.06409075856208801
1750854076647074600,0.767074462890625,0.09651851654052734,-0.06704604625701904,-0.0534905344247818
1750854076665899000,0.78589892578125,0.2707509994506836,-0.01220560073852539,-0.047386378049850464
1750854076684723700,0.8047236328125,0.15678119659423828,0.05415964126586914,-0.006357938051223755
1750854076703548200,0.823548095703125,-0.13934898376464844,0.05046284198760986,-0.029479265213012695
1750854076722372900,0.842372802734375,-0.07449626922607422,-0.014197230339050293,0.04591989517211914
1750854076741197600,0.861197509765625,-0.0948476791381836,0.00486147403717041,0.03894554078578949
1750854076760022000,0.88002197265625,-0.11508941650390625,-0.04176938533782959,0.07369856536388397
1750854076778846700,0.8988466796875,-0.038168907165527344,-0.08714985847473145,0.06741097569465637
1750854076797671200,0.917671142578125,0.045169830322265625,-0.029392600059509277,-0.04455885291099548
1750854076816495900,0.936495849609375,0.04355621337890625,0.03196310997009277,-0.10190753638744354
1750854076835320300,0.9553203125,0.09849071502685547,-0.017821550369262695,0.01149432361125946
1750854076854145000,0.97414501953125,-0.15997982025146484,0.004169940948486328,0.12680673599243164
1750854076872969700,0.9929697265625,-0.17293357849121094,0.051505327224731445,0.08943991363048553
1750854076891794200,1.011794189453125,0.17832374572753906,0.04000198841094971,0.02595572918653488
1750854076910619000,1.030618896484375,0.16774749755859375,0.016581177711486816,-0.11598552763462067
1750854076929443300,1.049443359375,0.113677978515625,-0.11758863925933838,0.06982001662254333
1750854076948268000,1.06826806640625,0.0532379150390625,-0.05175614356994629,0.04054909199476242
1750854076967092500,1.087092529296875,-0.1412372589111328,-0.010438084602355957,0.04814387112855911
1750854076985917200,1.105917236328125,-0.10634613037109375,-0.03228354454040527,0.06582055240869522
1750854077004742000,1.124741943359375,-0.028830528259277344,-0.0028001070022583008,0.007627151906490326
1750854077023566300,1.14356640625,-0.08239078521728516,0.01128840446472168,0.04831581562757492
1750854077042391000,1.16239111328125,-0.0026111602783203125,0.05481863021850586,-0.03393932431936264
1750854077061215500,1.181215576171875,0.13102054595947266,-0.004746198654174805,-0.029124140739440918
1750854077080040200,1.200040283203125,0.04692363739013672,0.05051612854003906,-0.002904444932937622
1750854077098864600,1.21886474609375,-0.09471893310546875,0.09546828269958496,-0.10735482722520828
1750854077117689300,1.237689453125,-0.1214761734008789,0.06473886966705322,0.13787594437599182
1750854077136513800,1.256513671875,-0.04943656921386719,0.0671532154083252,-0.0261780247092247
1750854077155338500,1.27533837890625,0.17420005798339844,-0.04289054870605469,-0.07562155276536942
1750854077174163000,1.294162841796875,0.15419483184814453,-0.09433555603027344,-0.015996769070625305
1750854077192987600,1.312987548828125,-0.0548095703125,-0.04662632942199707,-0.009402208030223846
1750854077211812400,1.331812255859375,-0.09910011291503906,0.02081012725830078,-0.007338576018810272
1750854077230636800,1.35063671875,-0.1807851791381836,0.009950041770935059,0.031060058623552322
1750854077249461500,1.36946142578125,-0.16749095916748047,-0.0527113676071167,0.06337592005729675
1750854077268286000,1.388285888671875,0.06945037841796875,-0.02897346019744873,0.03873463347554207
1750854077287110700,1.407110595703125,0.20157527923583984,-0.020493268966674805,-0.028820723295211792
1750854077305935000,1.42593505859375,0.16808509826660156,0.0046138763427734375,-0.0266539566218853
1750854077324759800,1.444759765625,0.04298210144042969,0.03335690498352051,-0.01602526754140854
1750854077343584300,1.463584228515625,-0.021880149841308594,0.04646456241607666,-0.042077239602804184
1750854077362409000,1.482408935546875,-0.12356758117675781,0.005461335182189941,0.043039292097091675
1750854077381233400,1.5012333984375,-0.07351207733154297,-0.03226780891418457,-0.011435950174927711
1750854077400058000,1.52005810546875,0.017053604125976562,-0.017839670181274414,0.012622633948922157
1750854077418882800,1.5388828125,-0.016533851623535156,0.04020416736602783,-0.09058693051338196
1750854077437707300,1.557707275390625,0.05880260467529297,0.03993213176727295,0.007209073752164841
1750854077456532000,1.576531982421875,0.07093048095703125,0.03248238563537598,0.025644443929195404
1750854077475356400,1.5953564453125,-0.0288543701171875,-0.004298210144042969,-0.019345618784427643
1750854077494181000,1.61418115234375,-0.07429695129394531,-0.036910295486450195,0.04641112685203552
1750854077513005600,1.633005615234375,-0.025930404663085938,-0.0039522647857666016,0.04233800247311592
1750854077531830300,1.651830322265625,0.07707786560058594,-0.010185956954956055,0.02940288931131363
1750854077550654700,1.67065478515625,0.06942272186279297,-0.05237436294555664,0.023912018164992332
1750854077569479400,1.6894794921875,0.011590003967285156,-0.001612544059753418,0.004223663359880447
1750854077588304000,1.708303955078125,-0.08699798583984375,0.008789896965026855,0.008205127902328968
1750854077607128600,1.727128662109375,0.050899505615234375,-0.0298154354095459,0.002187490463256836
1750854077625953000,1.745953125,0.07249259948730469,0.020244479179382324,0.016069766134023666
1750854077644777700,1.76477783203125,-0.045060157775878906,-0.02223026752471924,0.024164937436580658
1750854077663602200,1.783602294921875,-0.10682964324951172,-0.009495735168457031,0.02833062782883644
1750854077682427000,1.802427001953125,0.05808067321777344,0.021961688995361328,-0.03154939413070679
1750854077701251300,1.821251220703125,0.08155250549316406,0.012226700782775879,-0.05277710780501366
1750854077720076000,1.840075927734375,-0.05392646789550781,-0.043015241622924805,0.05678762495517731
1750854077738900700,1.858900634765625,0.015254974365234375,-0.01854074001312256,0.025356722995638847
1750854077757725200,1.87772509765625,0.0067691802978515625,-0.018793940544128418,-0.035536546260118484
1750854077776550000,1.8965498046875,-0.030973434448242188,-0.01661539077758789,0.010806169360876083
1750854077795374300,1.915374267578125,-0.012564659118652344,-0.048131704330444336,0.010282691568136215
1750854077814199000,1.934198974609375,-0.008421897888183594,0.026509523391723633,0.002665981650352478
1750854077833023500,1.9530234375,0.07009410858154297,0.0577845573425293,-0.043544866144657135
1750854077851848200,1.97184814453125,-0.044475555419921875,0.019785046577453613,0.04109559953212738
1750854077870672600,1.990672607421875,-0.08016681671142578,0.08474528789520264,0.054045334458351135
1750854077889497300,2.009497314453125,0.04827594757080078,0.05265450477600098,-0.02726074308156967
1750854077908321800,2.02832177734375,-0.09333038330078125,0.003551006317138672,0.020274363458156586
1750854077927146500,2.047146484375,-0.057066917419433594,0.005589842796325684,-0.0027753859758377075
1750854077945971000,2.065970947265625,-0.009812355041503906,-0.0008778572082519531,-0.03128182142972946
1750854077964795600,2.084795654296875,-0.01906299591064453,-0.03921926021575928,-0.011935949325561523
1750854077983620000,2.1036201171875,0.04611396789550781,-0.008295536041259766,-0.04678729921579361
1750854078002444800,2.12244482421875,-0.11942672729492188,-0.032208800315856934,-0.015315346419811249
1750854078021269200,2.141269287109375,-0.13510990142822266,0.006390810012817383,-0.0052566006779670715
1750854078040094000,2.160093994140625,-0.02523517608642578,0.03206205368041992,0.020194001495838165
1750854078058918700,2.178918701171875,0.05774211883544922,0.0313946008682251,-0.024103112518787384
1750854078077743000,2.1977431640625,-0.005862236022949219,0.02637195587158203,0.022628851234912872
1750854078096567800,2.21656787109375,-0.0012073516845703125,0.005170583724975586,0.009223423898220062
1750854078115392300,2.235392333984375,0.030469894409179688,0.00915825366973877,0.029187552630901337
1750854078134217000,2.254217041015625,0.06074714660644531,0.02047133445739746,0.0037884339690208435
1750854078153041400,2.27304150390625,0.06703376770019531,-0.03744184970855713,-0.015610717236995697
1750854078171866000,2.2918662109375,0.16609573364257812,-0.011309504508972168,-0.013879932463169098
1750854078190690600,2.310690673828125,0.14083194732666016,-0.01716923713684082,0.009673744440078735
1750854078209515300,2.329515380859375,0.06604671478271484,-0.006813526153564453,-0.028017856180667877
1750854078228339700,2.348339599609375,-0.04803752899169922,-0.029954195022583008,0.045732684433460236
1750854078247164400,2.367164306640625,-0.004452705383300781,-0.0055408477783203125,0.0021146461367607117
1750854078265988900,2.38598876953125,0.04283714294433594,-0.010458946228027344,-0.005534276366233826
1750854078284813600,2.4048134765625,0.07428359985351562,0.001679062843322754,0.03955218195915222
1750854078303638000,2.423637939453125,0.04918861389160156,-0.01099693775177002,-0.007204063236713409
1750854078322462700,2.442462646484375,-0.05927562713623047,0.04420661926269531,-0.013299159705638885
1750854078341287200,2.461287109375,-0.09071063995361328,0.004445075988769531,0.03022603690624237
1750854078360111900,2.48011181640625,-0.09342002868652344,0.020175814628601074,0.027978554368019104
1750854078378936300,2.498936279296875,-0.04874229431152344,-0.012151360511779785,0.01755008101463318
1750854078397761000,2.517760986328125,-0.038054466247558594,-0.01771724224090576,-0.022521428763866425
1750854078416585500,2.53658544921875,-0.08311176300048828,0.023360848426818848,-0.01931677758693695
1750854078435410200,2.55541015625,-0.23913860321044922,0.04154932498931885,0.0005145668983459473
1750854078454234600,2.574234619140625,-0.2192373275756836,0.054432034492492676,-0.08852249383926392
1750854078473059300,2.593059326171875,-0.0007953643798828125,0.0008550882339477539,-0.02375931292772293
1750854078491883800,2.6118837890625,0.1450662612915039,-0.008125782012939453,-0.03248392790555954
1750854078510708500,2.63070849609375,0.15239810943603516,-0.004961729049682617,-0.11135730147361755
1750854078529533000,2.649532958984375,0.11937999725341797,-0.051683783531188965,-0.09645584970712662
1750854078548357600,2.668357666015625,-0.08115386962890625,-0.05467510223388672,-0.05977616459131241
1750854078567182000,2.68718212890625,-0.16763877868652344,0.0016297101974487305,-0.09965597093105316
1750854078586006800,2.7060068359375,-0.0015192031860351562,0.07242047786712646,-0.16103525459766388
1750854078604831200,2.724831298828125,0.1548910140991211,0.0600665807723999,-0.1595742553472519
1750854078623656000,2.743656005859375,0.15794086456298828,0.04364359378814697,-0.058474719524383545
1750854078642480400,2.76248046875,0.04620552062988281,0.0144270658493042,0.1044156402349472
1750854078661305000,2.78130517578125,0.05981636047363281,0.06293928623199463,0.01948576793074608
1750854078680129500,2.800129638671875,0.09128189086914062,0.08378362655639648,-0.06591394543647766
1750854078698954200,2.818954345703125,-0.07105350494384766,0.08111917972564697,-0.08602441102266312
1750854078717778700,2.83777880859375,-0.08803176879882812,0.07605552673339844,-0.09976508468389511
1750854078736603400,2.856603271484375,0.10783958435058594,0.003012537956237793,-0.05625993758440018
1750854078755427800,2.875427734375,0.2979307174682617,0.0281447172164917,-0.09448125958442688
1750854078774252500,2.89425244140625,0.2082977294921875,-0.01674175262451172,-0.18694615364074707
1750854078793077000,2.913076904296875,-0.012027740478515625,0.053919315338134766,-0.34245961904525757
1750854078811901700,2.931901611328125,-0.31906604766845703,0.1386774778366089,-0.31421348452568054
1750854078830726100,2.95072607421875,-0.27200984954833984,0.19954359531402588,-0.39610737562179565
1750854078849550800,2.96955078125,-0.09760379791259766,0.05781376361846924,-0.3494757413864136
1750854078868375300,2.988375244140625,0.26359081268310547,-0.18714964389801025,-0.018094196915626526
1750854078887200000,3.007199951171875,0.08340644836425781,-0.37247514724731445,0.3433656394481659
1750854078906024400,3.0260244140625,0.09403133392333984,-0.45168960094451904,0.4618961215019226
1750854078924849200,3.04484912109375,0.09264469146728516,-0.2627696990966797,0.2697201371192932
1750854078943673600,3.063673583984375,0.13758182525634766,-0.2359987497329712,0.36257725954055786
1750854078962498300,3.082498291015625,-0.24421215057373047,-0.6049165725708008,0.9250345230102539
1750854078981322800,3.10132275390625,-0.6296119689941406,-0.5594518184661865,1.3429052829742432
1750854079000147500,3.1201474609375,-0.2711524963378906,-0.15498137474060059,1.1944379806518555
1750854079018972000,3.138971923828125,0.34174537658691406,-0.15011632442474365,0.5157818794250488
1750854079037796600,3.157796630859375,0.3260650634765625,-0.23340082168579102,0.2454994022846222
1750854079056621000,3.17662109375,0.18882179260253906,-0.1907893419265747,0.21789366006851196
1750854079075445800,3.19544580078125,-0.027711868286132812,-0.6244832873344421,0.5569915771484375
1750854079094270200,3.214270263671875,-0.26212501525878906,-0.8497573137283325,0.9325953125953674
1750854079113095000,3.233094970703125,-0.5293798446655273,-0.3743143081665039,0.5622618198394775
1750854079131919400,3.25191943359375,-0.07108592987060547,0.1061776876449585,-0.2195715755224228
1750854079150744000,3.270744140625,0.5576610565185547,0.1435760259628296,-0.7616254091262817
1750854079169568500,3.289568603515625,0.7047224044799805,0.0832817554473877,-0.3945469558238983
1750854079188393200,3.308393310546875,0.4112434387207031,-0.05618083477020264,-0.2978188395500183
1750854079207217700,3.3272177734375,0.11641979217529297,0.14322900772094727,-0.6877802610397339
1750854079226042400,3.34604248046875,-0.3156137466430664,0.4881230592727661,-1.0224798917770386
1750854079244866800,3.36486669921875,-0.26450443267822266,0.6403146982192993,-1.0166618824005127
1750854079263691500,3.38369140625,-0.008729934692382812,0.8606277704238892,-1.120635747909546
1750854079282516000,3.402515869140625,-0.03381156921386719,0.6868491172790527,-0.9690879583358765
1750854079301340700,3.421340576171875,-0.2618446350097656,0.6530460119247437,-1.0359479188919067
1750854079320165000,3.4401650390625,0.05119895935058594,0.6648861169815063,-1.1937623023986816
1750854079338989800,3.45898974609375,-0.10116195678710938,0.5730608701705933,-1.2979625463485718
1750854079357814300,3.477814208984375,-0.6859006881713867,0.4597736597061157,-1.0778107643127441
1750854079376638700,3.496638671875,-0.6767759323120117,0.2241891622543335,-0.9080432653427124
1750854079395463400,3.51546337890625,-0.2591543197631836,-0.03134763240814209,-0.6567596197128296
1750854079414288100,3.5342880859375,0.2018442153930664,-0.02797079086303711,-0.5020672678947449
1750854079433112600,3.553112548828125,0.45418357849121094,-0.04333198070526123,-0.3515515923500061
1750854079451937000,3.57193701171875,0.08195972442626953,-0.23473882675170898,-0.18307827413082123
1750854079470761700,3.59076171875,-0.22315597534179688,-0.48931270837783813,0.38242027163505554
1750854079489586200,3.609586181640625,-0.2714958190917969,-0.6414341926574707,0.8967269659042358
1750854079508411000,3.628410888671875,-0.158477783203125,-0.6909898519515991,1.0622025728225708
1750854079527235300,3.6472353515625,0.15009403228759766,-0.39733290672302246,0.7784497737884521
1750854079546060000,3.66606005859375,0.4350605010986328,-0.42275118827819824,0.5401732921600342
1750854079564884500,3.684884521484375,0.5196924209594727,-0.530888557434082,0.5129976272583008
1750854079583709200,3.703709228515625,0.28810596466064453,-0.4111153483390808,0.6163288354873657
1750854079602533600,3.72253369140625,-0.0970458984375,-0.5113718509674072,0.9090297222137451
1750854079621358300,3.7413583984375,-0.023889541625976562,-0.5675055980682373,0.8203504681587219
1750854079640182800,3.760182861328125,0.5174713134765625,-0.37934190034866333,0.2649267315864563
1750854079659007500,3.779007568359375,0.6344881057739258,-0.3527628183364868,-0.08490696549415588
1750854079677832000,3.79783203125,0.34694576263427734,-0.18665343523025513,0.06599932909011841
1750854079696656600,3.81665673828125,-0.1794118881225586,-0.19311779737472534,0.39978498220443726
1750854079715481000,3.835481201171875,-0.4013099670410156,-0.4424963593482971,0.6828631162643433
1750854079734305800,3.854305908203125,-0.13676929473876953,-0.4110555648803711,0.43307021260261536
1750854079753130200,3.873130126953125,0.19083690643310547,-0.16655945777893066,-0.022533923387527466
1750854079771955000,3.891954833984375,0.29532909393310547,-0.0033823251724243164,-0.2920176386833191
1750854079790779400,3.910779296875,-0.03820610046386719,0.04204142093658447,-0.6677443981170654
1750854079809603800,3.929603759765625,-0.5006189346313477,0.08703851699829102,-0.4272031784057617
1750854079828428500,3.948428466796875,-0.40672874450683594,0.1546655297279358,-0.1878209114074707
1750854079847253000,3.9672529296875,0.1910686492919922,0.09106111526489258,-0.20537057518959045
1750854079866077700,3.98607763671875,0.3448305130004883,0.07652997970581055,-0.2989278733730316
1750854079884902100,4.004902099609375,0.0019989013671875,0.07497662305831909,-0.41559967398643494
1750854079903726800,4.023726806640625,0.0051670074462890625,0.2245084047317505,-0.8907043933868408
1750854079922551300,4.04255126953125,0.2525911331176758,0.4117448925971985,-0.972899854183197
1750854079941376000,4.0613759765625,0.19098377227783203,0.518900990486145,-0.799333393573761
1750854079960200400,4.080200439453125,-0.11718559265136719,0.7275091409683228,-0.8259669542312622
1750854079979025200,4.099025146484375,-0.3464803695678711,0.7399981021881104,-0.9766111373901367
1750854079997849600,4.117849609375,-0.29775047302246094,0.566846489906311,-0.9567804336547852
1750854080016674300,4.13667431640625,-0.4455852508544922,0.678378701210022,-1.1740068197250366
1750854080035498800,4.155498779296875,-0.1131277084350586,0.5880763530731201,-1.0740513801574707
1750854080054323200,4.1743232421875,0.2939577102661133,0.14960193634033203,-0.6243866682052612
1750854080073148000,4.19314794921875,0.2628507614135742,-0.333437442779541,-0.11528652161359787
1750854080091972600,4.21197265625,0.03352165222167969,-0.4120331406593323,-0.07339343428611755
1750854080110797000,4.230797119140625,0.03847312927246094,-0.0540618896484375,-0.49701887369155884
1750854080129621500,4.24962158203125,0.21289920806884766,-0.10615372657775879,-0.389386385679245
1750854080148446200,4.2684462890625,0.299591064453125,-0.329558789730072,0.16284646093845367
1750854080167270700,4.287270751953125,0.10949993133544922,-0.5133025646209717,0.8692634105682373
1750854080186095400,4.306095458984375,-0.2124338150024414,-0.5783737301826477,1.0261564254760742
1750854080204919800,4.324919921875,-0.007069587707519531,-0.3875781297683716,0.5094030499458313
1750854080223744500,4.34374462890625,0.05041027069091797,-0.39482319355010986,0.37899619340896606
1750854080242569000,4.36256884765625,-0.01794147491455078,-0.6065893173217773,0.8028580546379089
1750854080261393700,4.3813935546875,-0.14269065856933594,-0.5520392656326294,1.0589320659637451
1750854080280218000,4.400218017578125,-0.19472026824951172,-0.5433143973350525,1.2074363231658936
1750854080299042800,4.419042724609375,-0.22400379180908203,-0.6207532286643982,1.0891578197479248
1750854080317867300,4.4378671875,-0.06636238098144531,-0.6964623928070068,0.7237544655799866
1750854080336692000,4.45669189453125,0.282928466796875,-0.6288014650344849,0.3366232216358185
1750854080355516400,4.475516357421875,0.3743104934692383,-0.3937872052192688,0.2855190336704254
1750854080374340900,4.4943408203125,-0.12220573425292969,-0.3790684938430786,0.6235557198524475
1750854080393165600,4.51316552734375,-0.43778038024902344,-0.38675498962402344,0.7389230728149414
1750854080411990000,4.531989990234375,-0.2524871826171875,-0.3551514744758606,0.4498223066329956
1750854080430814700,4.550814697265625,-0.05214214324951172,-0.20657306909561157,0.1613560914993286
1750854080449639200,4.56963916015625,0.12059593200683594,-0.12662500143051147,-0.18103519082069397
1750854080468463900,4.5884638671875,-0.3696613311767578,0.051617562770843506,-0.2994345426559448
1750854080487288300,4.607288330078125,-0.5919876098632812,0.32520216703414917,-0.6662273406982422
1750854080506113000,4.626113037109375,-0.11038017272949219,0.43579787015914917,-0.702396035194397
1750854080524937500,4.6449375,0.8357419967651367,0.1202194094657898,-0.33026090264320374
1750854080543762200,4.66376220703125,0.9504051208496094,-0.08608001470565796,-0.19087174534797668
1750854080562586600,4.682586669921875,0.32449913024902344,-0.012486398220062256,-0.1723869889974594
1750854080581411000,4.7014111328125,0.27161598205566406,0.1479535698890686,-0.6829631328582764
1750854080600235800,4.72023583984375,0.37292957305908203,0.518208384513855,-1.2863186597824097
1750854080619060200,4.739060302734375,0.5030221939086914,0.8808203935623169,-1.5376782417297363
1750854080637885000,4.757885009765625,0.4612464904785156,1.0137295722961426,-1.4816977977752686
1750854080656709400,4.77670947265625,0.516693115234375,0.8834750056266785,-1.1531169414520264
1750854080675534000,4.7955341796875,-0.01666259765625,0.5848068594932556,-0.9234211444854736
1750854080694358500,4.814358642578125,-0.7884988784790039,0.5464901924133301,-1.1008599996566772
1750854080713183200,4.833183349609375,-0.4998188018798828,0.4991840124130249,-1.397084355354309
1750854080732007700,4.852007568359375,-0.1868114471435547,0.4170255661010742,-1.2763104438781738
1750854080750832000,4.87083203125,-0.1158761978149414,0.04414093494415283,-0.7203317880630493
1750854080769656800,4.88965673828125,-0.35187625885009766,-0.49610841274261475,0.2533341348171234
1750854080788481300,4.908481201171875,-0.5646047592163086,-0.6172120571136475,0.5889917612075806
1750854080807306000,4.927305908203125,-0.320892333984375,-0.5364383459091187,0.40665268898010254
1750854080826130400,4.94613037109375,-0.10387897491455078,-0.3907482624053955,0.07898026704788208
1750854080844955100,4.964955078125,0.030030250549316406,-0.5351934432983398,0.4802083969116211
1750854080863779600,4.983779541015625,0.28252124786376953,-0.8612944483757019,0.9538302421569824
1750854080882604300,5.002604248046875,0.1716785430908203,-0.9143571853637695,1.4181785583496094
1750854080901428700,5.0214287109375,0.14736080169677734,-0.783798336982727,1.3700370788574219
1750854080920253400,5.04025341796875,-0.005898475646972656,-0.8271536231040955,1.079347014427185
1750854080939078000,5.059077880859375,-0.1442394256591797,-0.8784878253936768,1.0333434343338013
1750854080957902300,5.07790234375,-0.09540271759033203,-0.7735275030136108,1.1641700267791748
1750854080976727000,5.09672705078125,-0.0024585723876953125,-0.9401088953018188,1.4334980249404907
1750854080995551500,5.115551513671875,0.4552936553955078,-0.9872365593910217,1.3714959621429443
1750854081014376200,5.134376220703125,0.5557289123535156,-1.5264718532562256,1.2814967632293701
1750854081033200600,5.15320068359375,0.09622955322265625,-1.087928295135498,0.916060745716095
1750854081052025300,5.172025390625,0.1471271514892578,-0.1940249800682068,-0.34915482997894287
1750854081070849800,5.190849853515625,-0.3229207992553711,0.5130114555358887,-0.9326225519180298
1750854081089674200,5.20967431640625,-0.5605945587158203,0.557634711265564,-0.28345635533332825
1750854081108499000,5.2284990234375,-0.243133544921875,0.07844173908233643,0.4146171808242798
1750854081127323400,5.247323486328125,-0.07661247253417969,0.10342133045196533,-0.2442340850830078
1750854081146148000,5.266148193359375,0.3117408752441406,0.3174095153808594,-1.2481306791305542
1750854081164972500,5.28497265625,0.2704153060913086,0.47602367401123047,-1.2430272102355957
1750854081183797200,5.30379736328125,0.3550729751586914,0.4089851379394531,-0.5427100658416748
1750854081202621700,5.32262158203125,0.24025630950927734,0.5829759836196899,-0.36499202251434326
1750854081221446400,5.3414462890625,-0.059563636779785156,0.708946704864502,-0.8329307436943054
1750854081240270800,5.360270751953125,-0.3445549011230469,0.5230304002761841,-1.1980549097061157
1750854081259095300,5.37909521484375,-0.4809751510620117,0.5576592683792114,-1.313069224357605
1750854081277920000,5.397919921875,-0.2973976135253906,0.7587331533432007,-1.3005872964859009
1750854081296744400,5.416744384765625,0.30469799041748047,0.6912568807601929,-1.2815361022949219
1750854081315569200,5.435569091796875,0.4515218734741211,0.4786193370819092,-1.3442802429199219
1750854081334393600,5.4543935546875,0.0465087890625,0.24631977081298828,-1.283094882965088
1750854081353218300,5.47321826171875,-0.09726715087890625,0.20537471771240234,-1.1878230571746826
1750854081372042800,5.492042724609375,0.16469287872314453,0.06582581996917725,-0.8173098564147949
1750854081390867500,5.510867431640625,0.32831287384033203,-0.2735203504562378,-0.49376025795936584
1750854081409692000,5.52969189453125,0.017187118530273438,-0.5875020027160645,-0.003403782844543457
1750854081428516400,5.548516357421875,-0.14464569091796875,-0.7742960453033447,0.28649190068244934
1750854081447341000,5.567341064453125,-0.37592506408691406,-0.7386223077774048,0.2619650959968567
1750854081466165500,5.58616552734375,-0.32857227325439453,-0.6060341596603394,0.38290533423423767
1750854081484990200,5.604990234375,-0.2964019775390625,-0.47082632780075073,0.1827339231967926
1750854081503814700,5.623814697265625,0.07700157165527344,-0.41189420223236084,0.45693835616111755
1750854081522639400,5.642639404296875,-0.44020748138427734,-0.6409432888031006,1.2523751258850098
1750854081541463800,5.6614638671875,-0.5938644409179688,-0.6973118782043457,1.798094630241394
1750854081560288300,5.680288330078125,-0.3700542449951172,-0.5092204213142395,1.7201285362243652
1750854081579113000,5.699113037109375,-0.013370513916015625,-0.47694289684295654,1.2263717651367188
1750854081597937400,5.7179375,0.13624286651611328,-0.49478840827941895,0.7333555221557617
1750854081616762000,5.73676220703125,0.18876075744628906,-0.5537530183792114,0.4632319509983063
1750854081635586600,5.755586669921875,0.25440025329589844,-0.6575366258621216,0.39542895555496216
1750854081654411300,5.774411376953125,0.5970830917358398,-0.6944003105163574,0.3431868553161621
1750854081673235700,5.793235595703125,0.6825675964355469,-0.734079122543335,0.45485609769821167
1750854081692060400,5.812060302734375,0.4348335266113281,-0.5903444290161133,0.530162513256073
1750854081710884900,5.830884765625,-0.017264366149902344,-0.3018059730529785,0.019373878836631775
1750854081729709300,5.849709228515625,-0.29390621185302734,-0.1845906376838684,-0.45983439683914185
1750854081748534000,5.868533935546875,-0.27617454528808594,0.14044862985610962,-0.9613374471664429
1750854081767358500,5.8873583984375,0.09885883331298828,0.4944272041320801,-0.833190381526947
1750854081786183200,5.90618310546875,0.3168468475341797,0.621842622756958,-0.5436065196990967
1750854081805007600,5.925007568359375,0.5092983245849609,0.38653987646102905,-0.3041759133338928
1750854081823832300,5.943832275390625,0.5853109359741211,0.26211482286453247,-0.43474048376083374
1750854081842656800,5.96265673828125,0.12328243255615234,0.41946935653686523,-0.9674478769302368
1750854081861481500,5.9814814453125,-0.4949226379394531,0.6959136128425598,-1.179391622543335
1750854081880306000,6.000305908203125,-0.4254598617553711,0.9657649993896484,-0.8734645843505859
1750854081899130400,6.01913037109375,-0.27532482147216797,0.7571322321891785,-0.6073225736618042
1750854081917955000,6.037955078125,0.2629661560058594,0.7517328858375549,-0.7862014770507812
1750854081936779500,6.056779541015625,0.6227397918701172,0.584184467792511,-1.2710914611816406
1750854081955604200,6.075604248046875,0.0285797119140625,0.41870105266571045,-1.3784300088882446
1750854081974428700,6.0944287109375,-0.9117202758789062,0.34197473526000977,-0.7933772206306458
1750854081993253400,6.11325341796875,-1.2035942077636719,0.0960700511932373,-0.19202864170074463
1750854082012077800,6.132077880859375,-0.6539878845214844,-0.23717862367630005,0.17245158553123474
1750854082030902300,6.15090234375,0.1721506118774414,-0.41883230209350586,0.03756174445152283
1750854082049727000,6.16972705078125,0.2817707061767578,-0.4184647798538208,-0.34372714161872864
1750854082068551400,6.188551513671875,0.25618743896484375,-0.4469168186187744,-0.06056366115808487
1750854082087376100,6.207376220703125,0.14677715301513672,-0.7058218717575073,0.254046231508255
1750854082106200600,6.22620068359375,-0.1626119613647461,-0.6809886693954468,0.7453222274780273
1750854082125025000,6.24502490234375,-0.4916725158691406,-0.41393911838531494,0.8969005942344666
1750854082143849700,6.263849609375,-0.4499082565307617,-0.318132221698761,0.8769036531448364
1750854082162674200,6.282674072265625,-0.3522319793701172,-0.5253570079803467,0.7398717999458313
1750854082181499000,6.301498779296875,-0.011778831481933594,-0.7109817862510681,0.8526283502578735
1750854082200323300,6.3203232421875,0.3326892852783203,-0.6567299365997314,0.900232195854187
1750854082219148000,6.33914794921875,0.4147062301635742,-0.6021287441253662,0.9220210313796997
1750854082237972500,6.357972412109375,0.4168996810913086,-0.7799599170684814,0.983592689037323
1750854082256797200,6.376797119140625,0.6262378692626953,-0.8867645859718323,0.8592587113380432
1750854082275621600,6.39562158203125,0.5931758880615234,-0.880131721496582,0.47307220101356506
1750854082294446000,6.414446044921875,-0.1165475845336914,-0.5644906759262085,0.47285571694374084
1750854082313270800,6.433270751953125,-0.2093515396118164,-0.010761797428131104,0.370176762342453
1750854082332095200,6.45209521484375,-0.26163387298583984,0.05964171886444092,-0.0676266998052597
1750854082350920000,6.470919921875,-0.009972572326660156,0.12084603309631348,-0.2718437612056732
1750854082369744400,6.489744384765625,0.6759233474731445,-0.05908018350601196,-0.4946543872356415
1750854082388568800,6.50856884765625,0.2181224822998047,-0.35286837816238403,-0.3746263384819031
1750854082407393500,6.5273935546875,-0.0471343994140625,-0.30632805824279785,-0.02158115804195404
1750854082426218200,6.54621826171875,-0.2878704071044922,0.03622770309448242,-0.11981803178787231
1750854082445042700,6.565042724609375,-0.1845388412475586,0.5617961883544922,-0.8715879321098328
1750854082463867100,6.5838671875,-0.12073802947998047,0.7825311422348022,-1.1163382530212402
1750854082482691800,6.60269189453125,-0.13699626922607422,0.7546259164810181,-1.0808182954788208
1750854082501516300,6.621516357421875,-0.10518646240234375,0.9350172281265259,-1.1573410034179688
1750854082520341000,6.640341064453125,0.030946731567382812,0.7562041878700256,-1.048869252204895
1750854082539165400,6.65916552734375,0.29024314880371094,0.6740732192993164,-1.1584410667419434
1750854082557990000,6.677989990234375,0.23154258728027344,0.8910844326019287,-1.408970832824707
1750854082576814600,6.696814697265625,-0.4230947494506836,0.6785850524902344,-1.0924792289733887
1750854082595639000,6.71563916015625,-0.5949945449829102,0.20207881927490234,-0.7543092966079712
1750854082614463700,6.734463623046875,-0.1718921661376953,0.02383565902709961,-0.9844366312026978
1750854082633288200,6.7532880859375,0.10625648498535156,-0.14151179790496826,-1.017467737197876
1750854082652112600,6.772112548828125,0.3264341354370117,-0.5161840319633484,-0.5288869738578796
1750854082670937300,6.790937255859375,0.20608901977539062,-0.6044878363609314,0.1230131983757019
1750854082689761800,6.80976171875,-0.16382503509521484,-0.6793438792228699,0.4436247944831848
1750854082708586500,6.82858642578125,-0.48593807220458984,-0.6232697367668152,0.4519234001636505
1750854082727411000,6.847410888671875,-0.3109455108642578,-0.5623759031295776,0.48721882700920105
1750854082746235600,6.866235595703125,-0.2887916564941406,-0.5553815364837646,0.6776331067085266
1750854082765060000,6.88506005859375,0.19690990447998047,-0.6256107091903687,1.1126196384429932
1750854082783884800,6.903884765625,0.8490104675292969,-0.7924087047576904,1.1581766605377197
1750854082802709200,6.922709228515625,0.9098672866821289,-0.7808807492256165,1.2322611808776855
1750854082821533700,6.94153369140625,0.1475687026977539,-0.7059693336486816,1.4207684993743896
1750854082840358400,6.9603583984375,-0.25349903106689453,-0.6904276609420776,1.338881254196167
1750854082859182800,6.979182861328125,-0.061443328857421875,-0.9905794858932495,1.3612247705459595
1750854082878007600,6.998007568359375,0.4162139892578125,-1.0831446647644043,1.1433522701263428
1750854082896832000,7.01683203125,0.109344482421875,-0.7791262269020081,0.8408312797546387
1750854082915656400,7.035656494140625,-0.24028682708740234,-0.5892263650894165,0.41418343782424927
1750854082934481200,7.054481201171875,-0.4626798629760742,-0.7358830571174622,0.20873785018920898
1750854082953305600,7.0733056640625,-0.7397747039794922,-0.4675052762031555,0.05565880239009857
1750854082972130300,7.09213037109375,-0.5785360336303711,0.059977173805236816,-0.3018648624420166
1750854082990954800,7.110954833984375,-0.01834583282470703,0.180678129196167,-0.43885791301727295
1750854083009779200,7.129779296875,0.3012113571166992,0.15450739860534668,-0.4203740060329437
1750854083028604000,7.14860400390625,0.6390085220336914,0.5244860649108887,-1.026141881942749
1750854083047428400,7.167428466796875,0.3890199661254883,0.771213710308075,-1.3836760520935059
1750854083066253000,7.186253173828125,-0.0828704833984375,0.6824432611465454,-0.9669904708862305
1750854083085077500,7.205077392578125,-0.18907928466796875,0.5610451102256775,-0.5569592714309692
1750854083103902000,7.22390185546875,-0.06012916564941406,0.6996926069259644,-1.0402157306671143
1750854083122726700,7.2427265625,0.31227970123291016,0.8335647583007812,-1.7536540031433105
1750854083141551000,7.261551025390625,0.3420724868774414,0.6289734840393066,-1.5944960117340088
1750854083160375800,7.280375732421875,0.40731048583984375,0.7672411203384399,-1.6274179220199585
1750854083179200300,7.2992001953125,-0.04742145538330078,0.7285016775131226,-1.6129311323165894
1750854083198025000,7.31802490234375,-0.07755756378173828,0.5344353914260864,-1.327779769897461
1750854083216849400,7.336849365234375,0.1420459747314453,0.18059825897216797,-0.8848724365234375
1750854083235673900,7.355673828125,-0.2219676971435547,-0.16046077013015747,-0.5657627582550049
1750854083254498600,7.37449853515625,-0.7365322113037109,-0.24241280555725098,-0.35361167788505554
1750854083273323000,7.393322998046875,-0.6345500946044922,-0.24372762441635132,-0.196268230676651
1750854083292147700,7.412147705078125,-0.5256452560424805,-0.6492465734481812,0.12488801777362823
1750854083310972200,7.43097216796875,-0.09789657592773438,-1.0958338975906372,0.716682493686676
1750854083329796900,7.449796875,0.12473011016845703,-1.2738553285598755,1.2144864797592163
1750854083348621300,7.468621337890625,-0.11904621124267578,-1.006140112876892,1.1628440618515015
1750854083367445800,7.48744580078125,-0.00421905517578125,-0.4902306795120239,0.6464264988899231
1750854083386270500,7.5062705078125,0.10451316833496094,-0.597135066986084,0.8299461007118225
1750854083405095000,7.525094970703125,0.22199535369873047,-0.7420415878295898,1.042905569076538
1750854083423919600,7.543919677734375,0.46359920501708984,-0.6214081645011902,1.5484858751296997
1750854083442744000,7.562744140625,0.4333038330078125,-0.6686019897460938,1.7978496551513672
1750854083461568500,7.581568603515625,-0.044196128845214844,-0.9241902232170105,1.6865918636322021
1750854083480393200,7.600393310546875,-0.3718280792236328,-1.052731990814209,1.273301601409912
1750854083499217700,7.6192177734375,-0.20429229736328125,-0.8475538492202759,0.3455565869808197
1750854083518042400,7.63804248046875,0.3364734649658203,-0.7796112298965454,0.057397663593292236
1750854083536866800,7.65686669921875,0.7263689041137695,-0.7975465059280396,0.10522469878196716
1750854083555691500,7.67569140625,0.4970827102661133,-0.3863753378391266,0.17412596940994263
1750854083574516000,7.694515869140625,0.23942089080810547,-0.08566206693649292,0.4601811170578003
1750854083593340400,7.71334033203125,0.5169448852539062,-0.07918453216552734,0.1176234781742096
1750854083612165000,7.7321650390625,-0.01991748809814453,0.16446053981781006,-0.5940837860107422
1750854083630989600,7.750989501953125,-0.5547904968261719,0.45140814781188965,-1.7797255516052246
1750854083649814300,7.769814208984375,-0.5143117904663086,0.8159499168395996,-2.1025586128234863
1750854083668638700,7.788638671875,-0.244384765625,0.7005727291107178,-1.107869029045105
1750854083687463200,7.807463134765625,0.38957786560058594,0.6844327449798584,-0.47601932287216187
1750854083706287900,7.826287841796875,0.8258819580078125,0.6132258772850037,-0.8508762121200562
1750854083725112300,7.8451123046875,0.4681978225708008,0.6947824954986572,-1.53672194480896
1750854083743937000,7.86393701171875,-0.5980100631713867,0.6449337601661682,-1.5622987747192383
1750854083762761500,7.882761474609375,-0.6072301864624023,0.6659848690032959,-1.3087811470031738
1750854083781586000,7.9015859375,-0.08272647857666016,0.6428101062774658,-0.9975786209106445
1750854083800410600,7.92041064453125,0.44754886627197266,0.40522265434265137,-0.7878773212432861
1750854083819235000,7.939235107421875,0.4996185302734375,0.14987421035766602,-1.2120226621627808
1750854083838059800,7.958059814453125,0.09778499603271484,0.18206024169921875,-1.413657546043396
1750854083856884200,7.97688427734375,-0.3847522735595703,0.015700578689575195,-1.0137932300567627
1750854083875708700,7.995708740234375,-0.9393186569213867,-0.20245933532714844,-0.1210588812828064
1750854083894533400,8.014533447265626,-1.191422462463379,-0.24910283088684082,0.2880488634109497
1750854083913357800,8.03335791015625,-1.101872444152832,-0.32110148668289185,0.32353270053863525
1750854083932182500,8.0521826171875,-0.538020133972168,-0.6253473162651062,0.253814697265625
1750854083951007000,8.071007080078125,0.4183216094970703,-0.9400634169578552,-0.1091330349445343
1750854083969831700,8.089831787109375,1.7485027313232422,-1.3207148313522339,0.24638600647449493
1750854083988656000,8.10865625,1.8481979370117188,-1.4111515283584595,0.8994885683059692
1750854084007480600,8.12748046875,0.6772489547729492,-0.8729606866836548,1.125015139579773
1750854084026305300,8.14630517578125,-0.6812744140625,-0.5781570076942444,1.3096246719360352
1750854084045129700,8.165129638671875,-1.0702838897705078,-0.6267610788345337,1.5859087705612183
1750854084063954200,8.1839541015625,-0.7519874572753906,-0.3900073170661926,1.6289019584655762
1750854084082779000,8.20277880859375,0.029430389404296875,-0.44182288646698,1.2930281162261963
1750854084101603300,8.221603271484375,0.48413658142089844,-0.9053645133972168,1.3813905715942383
1750854084120428000,8.240427978515624,0.48651790618896484,-1.1163053512573242,1.112280011177063
1750854084139252500,8.25925244140625,0.19999217987060547,-0.6481508016586304,0.8005005121231079
1750854084158077000,8.278076904296874,-0.1367664337158203,-0.24427694082260132,0.6603785157203674
1750854084176901600,8.296901611328124,0.061196327209472656,-0.10375165939331055,0.41670092940330505
1750854084195726000,8.31572607421875,-0.612360954284668,-0.3075800836086273,0.527946949005127
1750854084214550800,8.33455078125,-0.5013208389282227,-0.395930677652359,-0.08038459718227386
1750854084233375200,8.353375244140626,0.058055877685546875,-0.35315120220184326,-0.20921970903873444
1750854084252199700,8.37219970703125,0.5642681121826172,-0.1449839174747467,-0.37560614943504333
1750854084271024400,8.3910244140625,0.7176637649536133,0.023070454597473145,-0.4667116105556488
1750854084289848800,8.409848876953125,0.31490325927734375,0.41417211294174194,-0.9214781522750854
1750854084308673500,8.428673583984375,0.015308380126953125,0.739963948726654,-1.581729531288147
1750854084327498000,8.447498046875,-0.17415237426757812,0.9062103033065796,-1.8346463441848755
1750854084346322400,8.466322509765625,-0.02553081512451172,0.9376274943351746,-1.342597484588623
1750854084365147100,8.485147216796875,0.08803367614746094,1.0133912563323975,-0.9720503687858582
1750854084383971600,8.5039716796875,0.1916818618774414,1.0222876071929932,-1.0756586790084839
1750854084402796300,8.52279638671875,0.5014705657958984,0.9217117428779602,-1.6130086183547974
1750854084421620700,8.541620849609375,0.9606075286865234,0.6981334090232849,-2.1396684646606445
1750854084440445200,8.560445068359375,1.0691890716552734,0.38249391317367554,-2.052072286605835
1750854084459270000,8.579269775390625,0.3077220916748047,0.008404970169067383,-1.2028740644454956
1750854084478094300,8.59809423828125,-0.8707799911499023,-0.2969573736190796,-0.4121813178062439
1750854084496919000,8.6169189453125,-1.2286376953125,-0.3153775930404663,0.09734237194061279
1750854084515743500,8.635743408203124,-0.7701044082641602,-0.12298506498336792,-0.10374534130096436
1750854084534568000,8.65456787109375,-0.36855030059814453,-0.17664885520935059,-0.3834090828895569
1750854084553392600,8.673392578125,-0.25442028045654297,-0.673251211643219,0.052000999450683594
1750854084572217000,8.692217041015626,-0.3155326843261719,-1.2271702289581299,0.5419974327087402
1750854084591041800,8.711041748046876,-0.20369815826416016,-1.0420167446136475,1.072887659072876
1750854084609866200,8.7298662109375,-0.30736827850341797,-0.49804258346557617,0.6755582690238953
1750854084628690700,8.748690673828126,-0.6277456283569336,-0.18372821807861328,0.3799635171890259
1750854084647515400,8.767515380859376,-0.3671407699584961,-0.14119303226470947,0.5861033797264099
1750854084666339800,8.78633984375,0.26405811309814453,-0.6512874364852905,1.1301878690719604
1750854084685164500,8.80516455078125,0.6597862243652344,-0.8459631204605103,1.406983494758606
1750854084703989000,8.823989013671875,0.3294525146484375,-1.0817922353744507,1.6330041885375977
1750854084722813400,8.8428134765625,0.08197021484375,-1.2190196514129639,1.4799683094024658
1750854084741638100,8.86163818359375,0.30316162109375,-1.24863862991333,1.0851032733917236
1750854084760462600,8.880462646484375,0.5242509841918945,-0.9020130038261414,0.7094963788986206
1750854084779287300,8.899287353515625,0.40713024139404297,-0.537514328956604,0.7385707497596741
1750854084798111700,8.91811181640625,0.058055877685546875,-0.38628387451171875,1.0833802223205566
1750854084816936200,8.936936279296875,-0.055123329162597656,-0.27658653259277344,0.21287021040916443
1750854084835761000,8.955760986328125,0.48524951934814453,0.07385355234146118,-1.201950192451477
1750854084854585300,8.97458544921875,0.2989206314086914,0.08566266298294067,-1.263271450996399
1750854084873409800,8.993409912109374,-0.40627479553222656,-0.04929310083389282,-0.5387858152389526
1750854084892234500,9.012234375,-0.8239097595214844,0.099007248878479,0.026246368885040283
1750854084911059000,9.031058837890624,-0.8936662673950195,0.5043757557868958,-0.23707298934459686
1750854084929883600,9.049883544921874,0.07539749145507812,0.7622769474983215,-1.683607816696167
1750854084948708000,9.0687080078125,0.22516345977783203,0.4969211220741272,-1.991593599319458
1750854084967532500,9.087532470703126,0.19820117950439453,0.41609323024749756,-1.0462183952331543
1750854084986357200,9.106357177734376,0.23874759674072266,0.7884231209754944,-0.5444574356079102
1750854085005181700,9.125181640625,0.07024955749511719,0.9113131761550903,-0.708530843257904
1750854085024006400,9.14400634765625,0.05117321014404297,0.547775387763977,-1.3905361890792847
1750854085042830800,9.162830810546875,0.17144107818603516,0.5006832480430603,-1.6885310411453247
1750854085061655300,9.1816552734375,0.5012187957763672,0.5968782901763916,-1.5944355726242065
1750854085080480000,9.20047998046875,0.12914085388183594,0.3409576416015625,-1.1336424350738525
1750854085099304400,9.219304443359375,-0.2836618423461914,0.17600399255752563,-1.088907241821289
1750854085118129000,9.23812890625,-0.16579437255859375,0.28104662895202637,-1.1992740631103516
1750854085136953600,9.25695361328125,-0.15785694122314453,0.10391336679458618,-1.1289421319961548
1750854085155778000,9.275778076171875,-0.8897809982299805,-0.1632888913154602,-0.6712324023246765
1750854085174602800,9.294602783203125,-0.6090908050537109,-0.488142192363739,-0.46311354637145996
1750854085193427200,9.31342724609375,-0.3585805892944336,-1.163428544998169,0.41629481315612793
1750854085212251600,9.332251708984375,-0.36206912994384766,-1.6209354400634766,1.195565938949585
1750854085231076400,9.351076416015625,-0.1607494354248047,-1.7696022987365723,1.1944494247436523
1750854085249900800,9.36990087890625,-0.14568138122558594,-1.4153779745101929,1.1932554244995117
1750854085268725500,9.3887255859375,0.0251007080078125,-0.8286560773849487,1.2192721366882324
1750854085287550000,9.407550048828124,-0.4213829040527344,-0.16015711426734924,1.2719353437423706
1750854085306374400,9.42637451171875,-0.12383842468261719,-0.5685978531837463,1.954708456993103
1750854085325199000,9.44519921875,0.7163295745849609,-0.6003140211105347,2.116952896118164
1750854085344023600,9.4640234375,0.9253768920898438,-0.5868693590164185,1.96255362033844
1750854085362848300,9.48284814453125,0.6588163375854492,-0.4330335259437561,1.2595778703689575
1750854085381672700,9.501672607421876,0.8046426773071289,-0.7652324438095093,0.8493138551712036
1750854085400497200,9.5204970703125,0.7977666854858398,-0.9500759840011597,1.0612728595733643
1750854085419321900,9.53932177734375,0.4574565887451172,-0.7651416659355164,0.895105242729187
1750854085438146300,9.558146240234375,-0.0812530517578125,-0.5735660195350647,0.3518795371055603
1750854085456970800,9.576970703125,-0.5792255401611328,-0.5006268620491028,0.11415398120880127
1750854085475795500,9.59579541015625,-0.5979337692260742,-0.3161385953426361,-1.1731138229370117
1750854085494620000,9.614619873046875,-0.12492847442626953,-0.037642598152160645,-2.050143241882324
1750854085513444600,9.633444580078125,0.017340660095214844,0.1430429220199585,-1.0930544137954712
1750854085532269000,9.65226904296875,-0.2281970977783203,0.5042309165000916,-0.1040886864066124
1750854085551093500,9.671093505859375,-0.3181724548339844,0.8618050813674927,-0.41356903314590454
1750854085569918200,9.689918212890625,0.2706441879272461,0.9973201751708984,-1.694972038269043
1750854085588742700,9.70874267578125,-0.09376811981201172,0.8062052726745605,-2.295311450958252
1750854085607567400,9.7275673828125,0.06133079528808594,0.6035341620445251,-1.699371337890625
1750854085626391800,9.746391845703124,0.5628604888916016,0.7409271001815796,-0.8406168222427368
1750854085645216300,9.76521630859375,0.43097496032714844,0.6476247906684875,-0.4090844392776489
1750854085664041000,9.784041015625,0.3874692916870117,0.48970144987106323,-0.9517956376075745
1750854085682865400,9.802865478515624,0.40781688690185547,0.2911908030509949,-1.517508864402771
1750854085701690000,9.821690185546874,-0.19940662384033203,0.11583530902862549,-1.4953932762145996
1750854085720514600,9.8405146484375,-0.7089662551879883,-0.1196746826171875,-1.1032522916793823
1750854085739339000,9.859339111328126,-0.5949077606201172,-0.05570197105407715,-0.8578842878341675
1750854085758163700,9.878163818359376,-0.20451831817626953,-0.08308327198028564,-0.2000581920146942
1750854085776988200,9.89698828125,-0.36614131927490234,-0.30032485723495483,0.22038519382476807
1750854085795812600,9.9158125,-0.6895895004272461,-0.5639811754226685,0.07440125942230225
1750854085814637300,9.93463720703125,-0.49268054962158203,-0.6343580484390259,-0.026444196701049805
1750854085833461800,9.953461669921875,-0.4550962448120117,-0.536311149597168,0.24856585264205933
1750854085852286500,9.972286376953125,0.26804447174072266,-0.6260881423950195,0.6786166429519653
1750854085871111000,9.99111083984375,0.8026647567749023,-0.7867347598075867,1.2675538063049316
1750854085889935400,10.009935302734375,-0.11353206634521484,-1.211796760559082,1.9151886701583862
1750854085908760000,10.028760009765625,-0.7072772979736328,-0.9346655607223511,2.1155803203582764
1750854085927584500,10.04758447265625,-0.05592155456542969,-0.4622640609741211,1.4644898176193237
1750854085946409000,10.066408935546875,0.5211448669433594,-0.2897960841655731,0.7325378656387329
1750854085965233700,10.085233642578125,0.43816089630126953,-0.4083327054977417,0.759059488773346
1750854085984058000,10.10405810546875,0.4794120788574219,-0.36730414628982544,0.9882832765579224
1750854086002882800,10.1228828125,0.5118169784545898,-0.6911559700965881,0.9391876459121704
1750854086021707300,10.141707275390624,0.4653329849243164,-0.7229825258255005,0.5015778541564941
1750854086040531700,10.16053173828125,-0.10364055633544922,-0.6042171120643616,0.1176925003528595
1750854086059356400,10.1793564453125,-0.4787864685058594,-0.46008968353271484,0.22613683342933655
1750854086078180900,10.198180908203126,-0.6002864837646484,-0.32620903849601746,0.32273805141448975
1750854086097005300,10.21700537109375,-0.24072265625,-0.04857224225997925,-0.2581885755062103
1750854086115830000,10.235830078125,-0.12313652038574219,0.08210188150405884,-0.7636468410491943
1750854086134654500,10.254654541015626,-0.3275594711303711,0.0014273524284362793,-0.7281703948974609
1750854086153479200,10.273479248046876,-0.3458986282348633,0.08184534311294556,-0.3872499465942383
1750854086172303600,10.2923037109375,0.5043497085571289,0.37288033962249756,-0.7887541055679321
1750854086191128000,10.311128173828125,1.1861352920532227,0.3635176420211792,-1.2806223630905151
1750854086209952800,10.329952880859375,0.9823846817016602,0.37431591749191284,-1.0218710899353027
1750854086228777200,10.348777099609375,0.035407066345214844,0.6196964979171753,-0.7945570945739746
1750854086247601700,10.3676015625,-0.6778326034545898,0.8714703321456909,-1.2021631002426147
1750854086266426400,10.38642626953125,-1.0150089263916016,0.8856199979782104,-0.9075725078582764
1750854086285250800,10.405250732421875,-0.19954872131347656,0.8894729614257812,-1.0439949035644531
1750854086304075500,10.424075439453125,0.6073827743530273,0.6194033622741699,-1.0898548364639282
1750854086322900000,10.44289990234375,0.7349977493286133,0.15832436084747314,-1.16034996509552
1750854086341724400,10.461724365234375,0.11495113372802734,-0.2582820653915405,-1.069561243057251
1750854086360549000,10.480549072265624,-0.3868551254272461,-0.2646585702896118,-1.0154460668563843
1750854086379373600,10.49937353515625,-0.21760845184326172,-0.07999497652053833,-0.6266462206840515
1750854086398198000,10.518197998046874,-0.4877595901489258,-0.048544347286224365,-0.29518431425094604
1750854086417022700,10.537022705078124,-0.30618953704833984,-0.007745265960693359,-0.243147611618042
1750854086435847200,10.55584716796875,-0.338470458984375,-0.2544872760772705,-0.09970682859420776
1750854086454672000,10.574671875,-0.5234613418579102,-0.7980667352676392,0.4087718725204468
1750854086473496300,10.593496337890626,-0.12467670440673828,-0.9165042638778687,0.607877254486084
1750854086492320800,10.61232080078125,0.5652284622192383,-0.693095326423645,0.39434027671813965
1750854086511145500,10.6311455078125,0.25603294372558594,-0.42359018325805664,0.45105940103530884
1750854086529970000,10.649969970703125,-0.34920501708984375,-0.2793194055557251,0.818186342716217
1750854086548794400,10.66879443359375,-0.3157024383544922,-0.3725443482398987,0.890531599521637
1750854086567619000,10.687619140625,-0.04659461975097656,-0.8193222880363464,1.4358118772506714
1750854086586443500,10.706443603515625,0.1388092041015625,-0.6034660935401917,1.6645632982254028
1750854086605268200,10.725268310546875,0.26157379150390625,-0.4561653435230255,1.9242314100265503
1750854086624092700,10.7440927734375,0.30429840087890625,-0.6955687403678894,1.7569493055343628
1750854086642917000,10.762917236328125,0.47683143615722656,-0.8767640590667725,1.0803673267364502
1750854086661741800,10.781741943359375,0.5301685333251953,-1.0383102893829346,0.5258204936981201
1750854086680566300,10.800566162109375,0.08266448974609375,-1.0408008098602295,0.5516456961631775
1750854086699390700,10.819390625,0.06229591369628906,-0.6582151651382446,0.5523293614387512
1750854086718215400,10.83821533203125,0.2616844177246094,-0.21341073513031006,0.10780471563339233
1750854086737040000,10.857039794921874,0.22196578979492188,-0.020577430725097656,-0.36473050713539124
1750854086755864300,10.8758642578125,0.044455528259277344,0.057286739349365234,-0.8660396337509155
1750854086774689000,10.89468896484375,-0.4431438446044922,0.13797461986541748,-1.0163333415985107
1750854086793513500,10.913513427734374,0.07705020904541016,0.6463736891746521,-1.091667652130127
1750854086812338200,10.932338134765626,0.2095623016357422,0.5375339388847351,-0.4829550087451935
1750854086831162600,10.95116259765625,-0.2534809112548828,0.33146870136260986,-0.4193155765533447
1750854086849987000,10.969987060546876,-0.46615123748779297,0.626319169998169,-1.423472285270691
1750854086868811800,10.988811767578126,-0.3826408386230469,1.1109490394592285,-2.0966930389404297
1750854086887636200,11.00763623046875,-0.3906745910644531,1.169960618019104,-1.8278453350067139
1750854086906460700,11.026460693359375,-0.44171619415283203,0.8135902881622314,-0.9749155044555664
1750854086925285400,11.045285400390625,-0.13441085815429688,0.4218120574951172,-0.3950170874595642
1750854086944109800,11.06410986328125,0.392059326171875,0.23832917213439941,-0.8355522751808167
1750854086962934500,11.0829345703125,0.2929697036743164,0.1608707308769226,-1.395735263824463
1750854086981759000,11.101759033203125,-0.04171562194824219,0.18108528852462769,-1.6577088832855225
1750854087000583400,11.12058349609375,-0.15881824493408203,0.09060400724411011,-1.3717784881591797
1750854087019408100,11.139408203125,-0.24759864807128906,-0.1696995496749878,-0.6688035726547241
1750854087038232600,11.158232666015625,-0.6243600845336914,-0.24230831861495972,0.025968343019485474
1750854087057057000,11.17705712890625,-0.5548543930053711,-0.3400533199310303,0.36605167388916016
1750854087075881700,11.1958818359375,-0.5697031021118164,-0.4985496401786804,0.12764322757720947
1750854087094706200,11.2147060546875,-0.5528430938720703,-0.804908037185669,0.05570852756500244
1750854087113530600,11.233530517578124,0.012516021728515625,-1.1224665641784668,0.3675612211227417
1750854087132355300,11.252355224609374,0.5944118499755859,-1.0550861358642578,1.4402849674224854
1750854087151179800,11.2711796875,0.9933280944824219,-0.7810019254684448,2.0025594234466553
1750854087170004500,11.29000439453125,1.1170825958251953,-0.7402588129043579,1.5606523752212524
1750854087188829000,11.308828857421876,0.513606071472168,-0.7174198627471924,1.3122620582580566
1750854087207653400,11.3276533203125,-0.2591819763183594,-0.5961119532585144,1.2834885120391846
1750854087226478000,11.34647802734375,-0.2828340530395508,-0.7349379062652588,1.2075669765472412
1750854087245302500,11.365302490234376,0.1922588348388672,-0.841957151889801,1.1315711736679077
1750854087264127000,11.384126953125,0.5701475143432617,-0.9514405727386475,1.086031436920166
1750854087282951700,11.40295166015625,0.8628711700439453,-0.874954104423523,1.236903429031372
1750854087301776100,11.421776123046875,0.3737201690673828,-0.8011462688446045,0.674543023109436
1750854087320600600,11.4406005859375,-0.30872058868408203,-0.5151057243347168,-0.11228755116462708
1750854087339425300,11.45942529296875,-0.7600288391113281,-0.18896186351776123,-0.49037402868270874
1750854087358249700,11.478249755859375,-0.7202892303466797,-0.23376864194869995,-0.17315755784511566
1750854087377074400,11.497074462890625,-0.46225738525390625,0.06604909896850586,0.13667386770248413
1750854087395899000,11.51589892578125,-0.014287948608398438,0.22169160842895508,-0.4145822525024414
1750854087414723300,11.534723388671875,0.6387748718261719,0.4505848288536072,-1.5012831687927246
1750854087433548000,11.553548095703125,0.3127279281616211,0.5991334319114685,-1.772648572921753
1750854087452372500,11.57237255859375,-0.21012115478515625,0.6795012354850769,-1.2866096496582031
1750854087471197000,11.591197021484374,-0.27202510833740234,0.6095367074012756,-0.5116294622421265
1750854087490021600,11.610021728515624,-0.2781562805175781,0.5281749367713928,-0.5689576864242554
1750854087508846000,11.62884619140625,-0.5259504318237305,0.6168402433395386,-1.1838170289993286
1750854087527670500,11.64767041015625,-0.31120967864990234,0.6446433067321777,-1.9335026741027832
1750854087546495200,11.6664951171875,0.3649282455444336,0.5886239409446716,-1.7300779819488525
1750854087565319700,11.685319580078126,0.4256258010864258,0.3590242266654968,-1.0428495407104492
1750854087584144400,11.704144287109376,0.39884471893310547,0.2258511185646057,-0.6597140431404114
1750854087602968800,11.72296875,0.33106327056884766,0.363553524017334,-1.0502984523773193
1750854087621793300,11.741793212890625,-0.4275379180908203,0.35400688648223877,-1.0355443954467773
1750854087640618000,11.760617919921875,-0.8022193908691406,-0.008989572525024414,-1.1192442178726196
1750854087659442400,11.7794423828125,-0.1743001937866211,-0.37059783935546875,-0.8887692093849182
1750854087678267000,11.798266845703125,0.5165729522705078,-0.746483325958252,-0.853056013584137
1750854087697091600,11.817091552734375,0.23363304138183594,-1.041135311126709,-0.19321715831756592
1750854087715916000,11.835916015625,-0.45532894134521484,-1.0170725584030151,0.7367414832115173
1750854087734740500,11.854740478515625,-0.8224382400512695,-1.0238064527511597,1.079432725906372
1750854087753565200,11.873565185546875,-1.2454967498779297,-1.1634002923965454,1.125490665435791
1750854087772389600,11.8923896484375,-0.9153451919555664,-0.9227563142776489,1.3478994369506836
1750854087791214300,11.91121435546875,-0.5561256408691406,-0.5765080451965332,1.4730316400527954
1750854087810038500,11.93003857421875,0.0196075439453125,-0.3288188576698303,1.6236262321472168
1750854087828863000,11.948863037109374,0.8687829971313477,-0.28204286098480225,1.6100270748138428
1750854087847687400,11.9676875,1.0512447357177734,-0.40428227186203003,1.9022736549377441
1750854087866512100,11.98651220703125,0.9520626068115234,-0.5984199643135071,1.6758993864059448
1750854087885336600,12.005336669921874,0.6757574081420898,-0.8575928211212158,1.2768715620040894
1750854087904161300,12.024161376953124,-0.11730194091796875,-0.6603764295578003,0.858748197555542
1750854087922985700,12.04298583984375,-0.20259571075439453,-0.6738088130950928,0.33602988719940186
1750854087941810200,12.06181005859375,0.07435035705566406,-0.5262001752853394,0.03870028257369995
1750854087960635000,12.080634765625,0.12185955047607422,-0.3026971220970154,-0.17940890789031982
1750854087979459300,12.099459228515625,0.11867618560791016,0.09482032060623169,0.09352850914001465
1750854087998283800,12.11828369140625,-0.4897899627685547,-0.05360531806945801,0.5002525448799133
1750854088017108500,12.1371083984375,-0.8884115219116211,-0.8068170547485352,0.4315943121910095
1750854088035933000,12.155932861328125,-0.36269092559814453,-0.40705958008766174,-0.6496472358703613
1750854088054757400,12.17475732421875,-0.30243396759033203,0.5040329694747925,-1.7009475231170654
1750854088073582000,12.19358203125,0.039116859436035156,1.0518614053726196,-2.542856454849243
1750854088092406500,12.212406494140625,0.571624755859375,0.41001561284065247,-1.1583421230316162
1750854088111231200,12.231231201171875,0.5360546112060547,-0.11752429604530334,-0.103429414331913
1750854088130055700,12.2500556640625,-0.2216777801513672,0.49512356519699097,-0.31673872470855713
1750854088148880100,12.268880126953125,-0.27780723571777344,0.708021342754364,-1.1074862480163574
1750854088167704800,12.287704833984375,-0.08902645111083984,0.6595298051834106,-1.2157418727874756
1750854088186529300,12.306529296875,0.18792152404785156,0.7825652360916138,-1.4682166576385498
1750854088205353700,12.325353759765624,0.13512611389160156,0.697360098361969,-1.6669089794158936
1750854088224178400,12.344178466796874,0.5265741348266602,0.37501877546310425,-1.808227300643921
1750854088243003000,12.3630029296875,1.0267333984375,0.15508919954299927,-1.2242400646209717
1750854088261827300,12.381827392578124,1.4458293914794922,-0.01917034387588501,-0.8271556496620178
1750854088280652000,12.400652099609376,-0.1838216781616211,-0.05815625190734863,-0.7139930725097656
1750854088299476500,12.4194765625,-1.025059700012207,-0.22036194801330566,-0.9989840388298035
1750854088318301000,12.438301025390626,-1.675490379333496,-0.41715383529663086,-0.6779739856719971
1750854088337125600,12.457125732421876,-2.0483431816101074,-0.3508741855621338,0.2166759967803955
1750854088355950000,12.4759501953125,-1.3255882263183594,-0.23447179794311523,0.8205088376998901
1750854088374774800,12.49477490234375,-0.6539621353149414,-0.09056329727172852,0.5902789831161499
1750854088393599200,12.51359912109375,0.07017135620117188,-0.38404911756515503,-0.012269675731658936
1750854088412423700,12.532423583984375,0.5687685012817383,-1.1510602235794067,0.29408758878707886
1750854088431248400,12.551248291015625,0.4818429946899414,-1.5605937242507935,1.1776700019836426
1750854088450072800,12.57007275390625,0.22093582153320312,-1.0290513038635254,1.8074872493743896
1750854088468897300,12.588897216796875,0.3823976516723633,-0.3850148916244507,1.6294467449188232
1750854088487721700,12.6077216796875,0.32427406311035156,-0.45106998085975647,1.8407248258590698
1750854088506546400,12.62654638671875,0.009263992309570312,-0.6171561479568481,1.768214225769043
1750854088525371000,12.645370849609375,0.05107593536376953,-0.7536194920539856,1.5793474912643433
1750854088544195600,12.664195556640625,0.6257915496826172,-0.9094513058662415,1.261293649673462
1750854088563020000,12.68302001953125,0.631800651550293,-0.9035197496414185,1.4230586290359497
1750854088581844500,12.701844482421874,0.21504592895507812,-0.7423064708709717,1.2871997356414795
1750854088600669200,12.720669189453124,-0.3279266357421875,-0.7351056337356567,1.0602691173553467
1750854088619493600,12.73949365234375,-0.6826133728027344,-0.2235526442527771,0.39559945464134216
1750854088638318000,12.758318115234376,-0.8175573348999023,0.06257051229476929,-0.31291207671165466
1750854088657142800,12.777142822265626,-0.5293722152709961,0.13740026950836182,-1.504980444908142
1750854088675967200,12.79596728515625,-0.0048046112060546875,-0.004461884498596191,-1.9381104707717896
1750854088694791700,12.814791748046876,0.7245235443115234,0.20076203346252441,-1.3131147623062134
1750854088713616400,12.833616455078126,0.5248069763183594,-0.013818860054016113,-0.0003432929515838623
1750854088732440800,12.85244091796875,0.0977783203125,0.17157983779907227,0.06409986317157745
1750854088751265300,12.871265380859375,0.005211830139160156,0.40173059701919556,-0.9396835565567017
1750854088770090000,12.890090087890625,-0.14428329467773438,0.5014939904212952,-1.5231473445892334
1750854088788914400,12.90891455078125,-0.31104278564453125,0.8637216687202454,-1.5376825332641602
1750854088807739000,12.92773876953125,-0.2904348373413086,0.8554171919822693,-1.401353120803833
1750854088826563600,12.9465634765625,0.20934772491455078,0.6992761492729187,-1.5988786220550537
1750854088845388000,12.965387939453125,0.8161497116088867,0.5683165788650513,-1.683929443359375
1750854088864212700,12.984212646484375,1.1016464233398438,0.4580641984939575,-1.3412318229675293
1750854088883037200,13.003037109375,0.8201150894165039,0.28783220052719116,-1.1864596605300903
1750854088901861600,13.021861572265625,-0.14444541931152344,0.020741283893585205,-1.0644334554672241
1750854088920686300,13.040686279296875,-1.2214288711547852,-0.03770732879638672,-0.6768325567245483
1750854088939510800,13.0595107421875,-0.9527177810668945,0.11885213851928711,-0.3133709132671356
1750854088958335200,13.078335205078124,-0.25063323974609375,0.04059803485870361,-0.81011563539505
1750854088977160000,13.097159912109374,-0.34917449951171875,-0.23096424341201782,-0.9630522727966309
1750854088995984400,13.115984375,-1.1919355392456055,-0.8020530939102173,-0.26427769660949707
1750854089014808800,13.134808837890626,-1.282867431640625,-1.2637262344360352,0.6440580487251282
1750854089033633500,13.153633544921876,-0.23246479034423828,-1.270094394683838,1.0861974954605103
1750854089052458000,13.1724580078125,0.3447237014770508,-0.8598067164421082,0.8444153070449829
1750854089071282400,13.191282470703126,0.6954574584960938,-0.3651430606842041,1.1277657747268677
1750854089090107100,13.210107177734375,-0.10232257843017578,-0.07398039102554321,1.1768463850021362
1750854089108931600,13.228931640625,0.1171121597290039,-0.20674335956573486,1.4105064868927002
1750854089127756000,13.247756103515625,0.7725963592529297,-0.4623926877975464,1.7921504974365234
1750854089146580700,13.266580810546875,0.6192245483398438,-0.6723677515983582,1.9809038639068604
1750854089165405200,13.2854052734375,0.0823526382446289,-0.873009979724884,1.9578990936279297
1750854089184230000,13.30422998046875,0.10334300994873047,-1.0405594110488892,1.4583795070648193
1750854089203054300,13.323054443359375,0.01798248291015625,-1.0524259805679321,1.373248815536499
1750854089221878800,13.341878662109375,-0.06402111053466797,-0.6572018265724182,1.0909403562545776
1750854089240703500,13.360703369140625,-0.5879993438720703,-0.3638956844806671,0.8096745014190674
1750854089259528000,13.37952783203125,-0.3734874725341797,-0.38165444135665894,-0.3120884299278259
1750854089278352400,13.398352294921875,0.3086071014404297,-0.34808242321014404,-1.2645328044891357
1750854089297176800,13.4171767578125,0.8407754898071289,-0.44137388467788696,-0.9203896522521973
1750854089316001500,13.43600146484375,0.6410007476806641,-0.31966733932495117,-0.04245123267173767
1750854089334826000,13.454825927734374,0.2540578842163086,0.10093998908996582,0.23943956196308136
1750854089353650400,13.473650390625,-0.4859609603881836,0.6355698704719543,-0.08430904150009155
1750854089372475100,13.49247509765625,-1.013875961303711,0.6404034495353699,-1.00191068649292
1750854089391299600,13.511299560546876,-0.2844123840332031,0.474820077419281,-2.0088090896606445
1750854089410124300,13.530124267578126,0.5919990539550781,0.6254932284355164,-1.8184293508529663
1750854089428948700,13.54894873046875,0.6190681457519531,0.7182104587554932,-1.0005189180374146
1750854089447773200,13.567773193359375,0.1872386932373047,0.8514383435249329,-0.9143675565719604
1750854089466598000,13.586597900390625,-0.18214702606201172,0.7416307330131531,-1.320746898651123
1750854089485422300,13.60542236328125,0.1803150177001953,0.6887531280517578,-2.063228130340576
1750854089504246800,13.624246826171875,0.1801748275756836,0.379580020904541,-1.8448350429534912
1750854089523071500,13.643071533203125,0.011716842651367188,0.09657669067382812,-1.0536885261535645
1750854089541896000,13.66189599609375,-0.5522298812866211,-0.07902836799621582,-0.3704221844673157
1750854089560720400,13.680720458984375,-0.8889999389648438,-0.19024276733398438,-0.19517892599105835
1750854089579545000,13.699545166015625,-0.7719612121582031,-0.2514265179634094,-0.4352834224700928
1750854089598369500,13.71836962890625,-0.4639892578125,-0.3532155156135559,-0.5134875178337097
1750854089617194000,13.737194091796875,-0.12105941772460938,-0.5145142078399658,-0.24331194162368774
1750854089636018700,13.756018798828125,-0.058150291442871094,-0.5988483428955078,0.7185682058334351
1750854089654843100,13.774843017578124,-0.14673519134521484,-0.8252568244934082,0.9528723955154419
1750854089673667600,13.79366748046875,0.23397254943847656,-1.0410676002502441,1.0546724796295166
1750854089692492300,13.8124921875,0.2369556427001953,-1.4733104705810547,1.8877744674682617
1750854089711316700,13.831316650390624,0.1393880844116211,-1.1017179489135742,1.5054152011871338
1750854089730141200,13.85014111328125,0.6945915222167969,-0.18635743856430054,0.6271669864654541
1750854089748966000,13.8689658203125,0.6437501907348633,-0.3941054344177246,0.8982012271881104
1750854089767790300,13.887790283203126,0.16472911834716797,-0.7698449492454529,1.108818531036377
1750854089786614800,13.90661474609375,0.08847618103027344,-0.7424155473709106,0.9580084085464478
1750854089805439500,13.925439453125,0.5413894653320312,-0.8133134245872498,0.7410332560539246
1750854089824264000,13.944263916015625,0.4902963638305664,-0.9457583427429199,0.7585897445678711
1750854089843088600,13.963088623046875,0.18916606903076172,-0.948797881603241,1.2130368947982788
1750854089861913000,13.9819130859375,0.05517005920410156,-0.4812001883983612,1.10032320022583
1750854089880737500,14.000737548828125,0.3040008544921875,0.17642515897750854,-0.54791259765625
1750854089899562200,14.019562255859375,0.5948648452758789,0.32949674129486084,-1.2985395193099976
1750854089918386700,14.03838671875,-0.0584869384765625,-0.02502262592315674,-0.6763043999671936
1750854089937211100,14.057211181640625,-0.2538261413574219,0.15852123498916626,-0.533168613910675
1750854089956035600,14.07603564453125,-0.44720935821533203,0.8521191477775574,-0.4335838854312897
1750854089974860300,14.0948603515625,-0.8501749038696289,0.8689870238304138,-0.1574292778968811
1750854089993684700,14.113684814453125,-0.6906290054321289,0.4679749608039856,-0.8139060735702515
1750854090012509200,14.13250927734375,0.2587118148803711,0.49159514904022217,-2.2285046577453613
1750854090031334000,14.151333984375,0.881068229675293,0.8347750306129456,-2.110727071762085
1750854090050158300,14.170158447265624,0.7509651184082031,0.8341054320335388,-1.2598274946212769
1750854090068982800,14.188982666015624,-0.037606239318847656,0.6920884847640991,-0.7173447608947754
1750854090087807500,14.207807373046874,-0.3865776062011719,0.8738600611686707,-1.1369905471801758
1750854090106632000,14.2266318359375,-0.2420520782470703,0.7221195697784424,-1.473275065422058
1750854090125456400,14.245456298828126,-0.2403402328491211,0.4952174425125122,-1.48615562915802
1750854090144281000,14.264281005859376,-0.7261791229248047,0.19438552856445312,-1.5222357511520386
1750854090163105500,14.28310546875,-0.9132146835327148,-0.1844010353088379,-1.2050330638885498
1750854090181930200,14.30193017578125,-0.6363525390625,-0.43488073348999023,-0.29765990376472473
1750854090200754700,14.320754638671875,0.028057098388671875,-0.6097842454910278,0.07543735206127167
1750854090219579100,14.3395791015625,0.15900421142578125,-0.9651403427124023,0.30263134837150574
1750854090238403800,14.35840380859375,-0.5084419250488281,-1.1719008684158325,0.7413005828857422
1750854090257228300,14.377228271484375,-0.06259918212890625,-1.0337448120117188,0.5341705083847046
1750854090276052700,14.396052734375,0.6397905349731445,-0.7200595140457153,0.06600171327590942
1750854090294877400,14.41487744140625,0.7356386184692383,-0.612770676612854,0.6131179332733154
1750854090313702000,14.433701904296875,0.5090398788452148,-0.7171071767807007,1.3097121715545654
1750854090332526300,14.4525263671875,0.35671520233154297,-0.7157114744186401,1.8537272214889526
1750854090351351000,14.47135107421875,-0.06302356719970703,-0.5592387914657593,2.0925498008728027
1750854090370175500,14.490175537109375,0.14554786682128906,-0.6726170182228088,1.4309529066085815
1750854090389000000,14.509,0.24060440063476562,-0.8746892809867859,0.9421541690826416
1750854090407824400,14.527824462890624,0.24360179901123047,-0.9721088409423828,0.9068159461021423
1750854090426649000,14.546649169921874,0.31914806365966797,-0.9606122970581055,0.8818266987800598
1750854090445473500,14.5654736328125,0.3246574401855469,-0.9927462339401245,1.1951801776885986
1750854090464298000,14.584298095703126,0.10335826873779297,-0.7876885533332825,1.3395025730133057
1750854090483122700,14.603122802734376,-0.08677387237548828,-0.5166885852813721,0.26767414808273315
1750854090501947100,14.621947021484376,0.11460494995117188,0.2809355854988098,-1.5238550901412964
1750854090520771600,14.640771484375,-0.6260738372802734,0.6623591184616089,-1.4448325634002686
1750854090539596300,14.65959619140625,-1.0867156982421875,0.34072333574295044,-0.21103283762931824
1750854090558420700,14.678420654296875,-0.529444694519043,0.09255635738372803,0.23583999276161194
1750854090577245400,14.697245361328125,0.03818702697753906,0.23204416036605835,-0.3821924924850464
1750854090596070000,14.71606982421875,0.3622312545776367,0.3656553030014038,-0.9362426996231079
1750854090614894300,14.734894287109375,0.8369779586791992,0.24054476618766785,-1.375741958618164
1750854090633719000,14.753718994140625,1.030137062072754,0.5190550088882446,-1.3426258563995361
1750854090652543500,14.77254345703125,0.6269903182983398,0.8017246723175049,-0.7640062570571899
1750854090671368000,14.791367919921875,0.05875587463378906,0.7569395899772644,-0.5921247601509094
1750854090690192600,14.810192626953125,-0.02265167236328125,1.011310338973999,-1.2021539211273193
1750854090709017000,14.82901708984375,0.2208690643310547,0.928987979888916,-1.690845012664795
1750854090727841500,14.847841552734375,0.2851085662841797,0.6684776544570923,-1.4391851425170898
1750854090746666200,14.866666259765625,-0.25669002532958984,0.18288755416870117,-0.926957368850708
1750854090765490700,14.88549072265625,-0.6953611373901367,-0.38193023204803467,-0.6236504316329956
1750854090784315100,14.904315185546874,-0.8054180145263672,-0.6611917614936829,-0.4364047646522522
1750854090803139800,14.923139892578124,-0.6534929275512695,-0.43598103523254395,-0.4988555312156677
1750854090821964300,14.94196435546875,-0.7829113006591797,-0.29215502738952637,-0.347743958234787
1750854090840788700,14.960788818359376,-0.6601419448852539,-0.47719407081604004,-0.25218477845191956
1750854090859613200,14.97961328125,-0.11575698852539062,-0.4191402196884155,-0.23380547761917114
1750854090878438000,14.99843798828125,0.16712188720703125,-0.20947039127349854,0.3171204626560211
1750854090897262300,15.017262451171876,-0.1267833709716797,-0.4728545546531677,1.0411248207092285
1750854090916086800,15.036086669921875,-0.012210845947265625,-0.9506691694259644,1.6776361465454102
1750854090934911500,15.054911376953125,0.17652606964111328,-0.8275532722473145,1.6159346103668213
1750854090953736000,15.07373583984375,0.5894403457641602,-0.48493292927742004,0.926806628704071
1750854090972560400,15.092560302734375,0.956263542175293,-0.36993080377578735,0.5153952240943909
1750854090991385000,15.111385009765625,0.9915904998779297,-0.44085535407066345,0.8025303483009338
1750854091010209500,15.13020947265625,0.4425029754638672,-0.4589200019836426,1.1090211868286133
1750854091029034000,15.149033935546875,0.47469234466552734,-0.7568613290786743,1.0015490055084229
1750854091047858700,15.167858642578125,0.866063117980957,-0.8264156579971313,0.7824586033821106
1750854091066683100,15.18668310546875,1.038161277770996,-0.7015562057495117,0.5742534399032593
1750854091085507600,15.205507568359375,0.3586854934692383,-0.5520545244216919,0.4552942216396332
1750854091104332300,15.224332275390625,-0.5307273864746094,-0.2841840386390686,0.6736922264099121
1750854091123156700,15.24315673828125,-0.8626213073730469,-0.030533194541931152,0.2454814314842224
1750854091141981200,15.261981201171874,0.1753997802734375,0.2944781184196472,-1.6652600765228271
1750854091160806000,15.280805908203124,0.3067789077758789,0.27880436182022095,-1.6815050840377808
1750854091179630300,15.29963037109375,-0.3070993423461914,0.1824641227722168,-0.6030756235122681
1750854091198454800,15.318454833984376,-0.6191740036010742,0.49421048164367676,0.18542072176933289
1750854091217279500,15.337279541015626,-0.7207469940185547,0.694682776927948,0.010898590087890625
1750854091236104000,15.35610400390625,-0.6311264038085938,0.6654238700866699,-0.9295659065246582
1750854091254928400,15.374928466796876,-0.23183727264404297,0.5863165855407715,-1.1868739128112793
1750854091273753000,15.393753173828125,-0.005505561828613281,0.34944140911102295,-0.9689754247665405
1750854091292577500,15.41257763671875,0.4440326690673828,0.3414585590362549,-1.4280147552490234
1750854091311402000,15.431402099609375,0.6671638488769531,0.46983468532562256,-1.8059282302856445
1750854091330226700,15.450226806640625,0.5877113342285156,0.19389063119888306,-1.2187670469284058
1750854091349051100,15.469051025390625,0.6119794845581055,-0.2991500496864319,-0.39078953862190247
1750854091367875600,15.48787548828125,-0.05541706085205078,-0.36783891916275024,-0.019508570432662964
1750854091396112400,15.5161123046875,-0.8168754577636719,-0.08853352069854736,-1.1275497674942017
1750854091414936800,15.534936767578126,-1.132669448852539,0.1984623670578003,-0.5590373277664185
1750854091433761500,15.553761474609376,-1.2925186157226562,0.2931097745895386,0.3341507911682129
1750854091452586000,15.5725859375,-1.132547378540039,0.0827021598815918,0.8570739030838013
1750854091471410700,15.59141064453125,-0.5985527038574219,-0.267244815826416,0.5785929560661316
1750854091490235100,15.610235107421875,-0.0778665542602539,-0.2856975793838501,0.032179296016693115
1750854091509059600,15.6290595703125,0.7150077819824219,-0.41994011402130127,0.04983162879943848
1750854091527884000,15.647884033203125,1.1755561828613281,-0.5072275400161743,0.4695398807525635
1750854091546708700,15.666708740234375,0.9283533096313477,-0.5791431665420532,1.1822919845581055
1750854091565533200,15.685533203125,0.4554786682128906,-0.8461055755615234,1.629323959350586
1750854091584357600,15.704357666015625,-0.04480171203613281,-0.8667520880699158,1.2290072441101074
1750854091603182300,15.723182373046875,-0.06828022003173828,-0.8047608733177185,0.6020152568817139
1750854091622006800,15.7420068359375,0.1982555389404297,-0.5964431762695312,0.2928558588027954
1750854091640831500,15.76083154296875,0.2582864761352539,-0.5334868431091309,0.4866521656513214
1750854091659656000,15.779656005859374,0.11420154571533203,-0.6143538355827332,0.7872521877288818
1750854091678480400,15.79848046875,-0.20421600341796875,-0.41725295782089233,0.630001425743103
1750854091697304800,15.817304931640624,0.057234764099121094,-0.4335085451602936,0.2804749310016632
1750854091716129500,15.836129638671874,-0.025632858276367188,-0.5453568696975708,0.7605392932891846
1750854091734954000,15.8549541015625,-0.6859245300292969,-0.14169937372207642,0.9940515756607056
1750854091753778400,15.8737783203125,-0.9297313690185547,0.0838385820388794,0.97784423828125
1750854091772603100,15.89260302734375,-1.1835317611694336,0.4418736696243286,-0.6698703765869141
1750854091791427600,15.911427490234376,-1.298842430114746,0.9843052625656128,-1.3948529958724976
1750854091810252000,15.930251953125,-0.4070701599121094,0.8562307953834534,-0.8983116745948792
1750854091829076700,15.94907666015625,0.20977401733398438,0.5607150197029114,-0.3259921669960022
1750854091847901200,15.967901123046875,0.6350107192993164,0.05279594659805298,-0.39539796113967896
1750854091866725600,15.9867255859375,1.556340217590332,-0.13709022104740143,-1.2053827047348022
1750854091885550300,16.00555029296875,1.9452428817749023,0.23003050684928894,-1.695962905883789
1750854091904374800,16.024374755859377,0.9948291778564453,0.7315196394920349,-1.6901156902313232
1750854091923199200,16.04319921875,1.2536020278930664,0.9300028681755066,-1.1323548555374146
1750854091942024000,16.06202392578125,1.5249137878417969,0.7154342532157898,-1.496331810951233
1750854091960848400,16.080848388671875,0.8033370971679688,0.2274712324142456,-1.1147079467773438
1750854091979672800,16.0996728515625,-0.9430551528930664,-0.17021417617797852,-0.5954354405403137
1750854091998497500,16.11849755859375,-2.1913366317749023,-0.20344972610473633,-0.20850135385990143
1750854092017322000,16.137322021484376,-1.4748096466064453,0.12304127216339111,-0.27564093470573425
1750854092036146400,16.156146484375,-0.04399299621582031,0.0999981164932251,-0.3885387182235718
1750854092054971100,16.17497119140625,-0.5501413345336914,-0.20863360166549683,-0.14916788041591644
1750854092073795600,16.193795654296874,-1.4034786224365234,-0.5624714493751526,0.1972041130065918
1750854092092620000,16.2126201171875,-1.4809589385986328,-1.1373711824417114,0.5332334637641907
1750854092111444700,16.23144482421875,-0.5909662246704102,-1.3105745315551758,1.2373312711715698
1750854092130269200,16.250269287109376,-0.4336090087890625,-1.2109782695770264,1.128166913986206
1750854092149093600,16.26909375,-0.3955831527709961,-0.7232503294944763,0.8225210905075073
1750854092167918000,16.28791796875,-0.2143716812133789,-0.675087571144104,1.1237187385559082
1750854092186742800,16.30674267578125,0.6717777252197266,-0.8229293823242188,1.4708837270736694
1750854092205567200,16.325567138671875,0.9806051254272461,-0.9587225317955017,1.7093784809112549
1750854092224391700,16.3443916015625,0.5738029479980469,-0.9233382344245911,1.6318275928497314
1750854092243216400,16.36321630859375,0.6442737579345703,-1.071669101715088,0.8387364149093628
1750854092262040800,16.382040771484377,1.130387306213379,-1.0401475429534912,-0.12529480457305908
1750854092280865300,16.400865234375,1.268986701965332,-0.6550240516662598,-0.4665883779525757
1750854092299690000,16.41968994140625,0.8680648803710938,-0.35673874616622925,0.1406346559524536
1750854092318514400,16.438514404296875,0.6145448684692383,-0.31342053413391113,0.4690885543823242
1750854092337339000,16.4573388671875,0.4890565872192383,-0.8918396234512329,0.5316745042800903
1750854092356163600,16.47616357421875,0.7614469528198242,-0.9122384786605835,-0.2513171434402466
1750854092374988000,16.494988037109376,0.15281009674072266,-0.23569728434085846,-0.3876301050186157
1750854092393812500,16.5138125,-0.8100309371948242,0.5685856342315674,-0.8648228645324707
1750854092412637200,16.53263720703125,-0.6462917327880859,1.0875484943389893,-1.52399480342865
1750854092431461600,16.551461669921874,-0.6781854629516602,1.416806936264038,-1.3236325979232788
1750854092450286000,16.5702861328125,-0.6452741622924805,1.2683777809143066,-1.3346478939056396
1750854092469110800,16.58911083984375,-0.618992805480957,1.242116928100586,-0.7964739799499512
1750854092487935200,16.607935302734376,-0.6297178268432617,1.2100023031234741,-0.9139450788497925
1750854092506759700,16.626759765625,-0.28627681732177734,1.2071295976638794,-1.60531485080719
1750854092525584100,16.645584228515624,0.6031255722045898,0.9072197079658508,-1.5378198623657227
1750854092544408800,16.664408935546874,0.7402610778808594,0.46926528215408325,-1.07163405418396
1750854092563233300,16.6832333984375,-0.44379520416259766,0.2459908127784729,-1.0904392004013062
1750854092582057700,16.7020576171875,-1.2055044174194336,0.41370201110839844,-0.7547259330749512
1750854092600882400,16.72088232421875,-2.022336959838867,0.19311010837554932,-0.34976038336753845
1750854092619707000,16.739706787109377,-1.4234695434570312,-0.4836387634277344,-0.027159854769706726
1750854092638531300,16.75853125,-0.7569961547851562,-0.6477693319320679,0.47274476289749146
1750854092657356000,16.77735595703125,-0.7559299468994141,-0.4616806209087372,-0.10297121107578278
1750854092676180500,16.796180419921875,-0.33632659912109375,-0.16311430931091309,-0.5982729196548462
1750854092695005000,16.8150048828125,0.7497854232788086,-0.13179218769073486,-0.1900053322315216
1750854092713829600,16.83382958984375,0.5744199752807617,-0.8864231109619141,0.6884371042251587
1750854092732654000,16.852654052734376,0.2922353744506836,-1.2975777387619019,1.4348739385604858
1750854092751478500,16.871478515625,0.10750579833984375,-1.1861066818237305,1.2617260217666626
1750854092770303200,16.89030322265625,0.14291763305664062,-0.9195644855499268,0.6878069639205933
1750854092789127700,16.909127685546874,0.25922489166259766,-0.591173529624939,0.4384129047393799
1750854092807952100,16.9279521484375,0.14174365997314453,-0.4769689440727234,0.7014811038970947
1750854092826776800,16.94677685546875,-0.039803504943847656,-0.7920032143592834,1.4691365957260132
1750854092845601300,16.965601318359376,0.5821743011474609,-1.74257230758667,1.9364593029022217
1750854092864425700,16.98442578125,2.50467586517334,-2.8768882751464844,2.2782528400421143
1750854092883250400,17.00325048828125,2.0678462982177734,-3.430267333984375,3.0269625186920166
1750854092902075000,17.022074951171874,0.17185592651367188,-3.4127771854400635,1.7491178512573242
1750854092920899300,17.0408994140625,0.34220218658447266,-1.9459834098815918,-0.45378226041793823
1750854092939724000,17.05972412109375,0.29312896728515625,-0.25265103578567505,-1.7331117391586304
1750854092958548500,17.078548583984375,-0.5850076675415039,2.697840690612793,-2.0485153198242188
1750854092977373000,17.097373046875,-0.49132537841796875,2.8713929653167725,-0.7094602584838867
1750854092996197400,17.116197265625,-0.169097900390625,1.383092999458313,-1.7830454111099243
1750854093015022000,17.13502197265625,0.8814554214477539,1.6201841831207275,-2.637611150741577
1750854093033846500,17.153846435546875,0.5638809204101562,2.217592477798462,-1.704542875289917
1750854093052671000,17.1726708984375,0.2343006134033203,1.6350154876708984,-1.2654337882995605
1750854093071495700,17.19149560546875,0.5303878784179688,1.0707721710205078,-1.1514674425125122
1750854093090320100,17.210320068359376,0.8250436782836914,0.8162674903869629,-0.9282299280166626
1750854093109144600,17.22914453125,0.7195234298706055,0.6498613953590393,-0.8807722330093384
1750854093127969300,17.24796923828125,-0.4884061813354492,0.5217519402503967,-1.2333447933197021
1750854093146793700,17.266793701171874,-1.245100975036621,0.7427839636802673,-1.322272777557373
1750854093165618200,17.2856181640625,-1.0955724716186523,0.9280304312705994,-1.1437969207763672
1750854093184443000,17.30444287109375,-1.4616975784301758,0.6839607357978821,-0.8352283835411072
1750854093203267300,17.323267333984376,-1.8926830291748047,0.23944902420043945,-0.24704091250896454
1750854093222091800,17.342091796875,-1.0595521926879883,-0.09862780570983887,-0.18381521105766296
1750854093240916500,17.36091650390625,0.5291318893432617,-0.37678274512290955,-0.9434176683425903
1750854093259741000,17.379740966796874,0.6863946914672852,-0.3902311325073242,-1.4857630729675293
1750854093278565400,17.3985654296875,0.5042924880981445,-0.7285788059234619,-1.0631422996520996
1750854093297389800,17.417389892578125,0.10972881317138672,-1.2691638469696045,-0.017181694507598877
1750854093316214500,17.436214599609375,-0.5433111190795898,-1.2528284788131714,0.8648991584777832
1750854093335039000,17.4550390625,-0.5791711807250977,-0.9222743511199951,0.9145491123199463
1750854093353863400,17.473863525390627,-0.14433860778808594,-0.5122492909431458,0.23706501722335815
1750854093372688100,17.492688232421877,0.6608142852783203,-0.7008006572723389,-0.11886116862297058
1750854093391512600,17.5115126953125,0.6202926635742188,-1.220520257949829,0.38886865973472595
1750854093410337000,17.5303369140625,-0.15247726440429688,-1.5852339267730713,1.3157875537872314
1750854093429161700,17.54916162109375,-0.31580543518066406,-1.4052797555923462,1.4807212352752686
1750854093447986200,17.567986083984376,0.026876449584960938,-0.935182511806488,1.0859726667404175
1750854093466810600,17.586810546875,0.5438327789306641,-0.6364521980285645,0.023728609085083008
1750854093485635300,17.60563525390625,0.6861200332641602,-0.701400101184845,-0.1488059163093567
1750854093504459800,17.624459716796874,0.21701526641845703,-0.9151836037635803,0.5397385358810425
1750854093523284200,17.6432841796875,-0.30841064453125,-1.0031471252441406,1.2007994651794434
1750854093542109000,17.66210888671875,-0.47056102752685547,-0.9077959656715393,1.2809653282165527
1750854093560933400,17.680933349609376,0.21646881103515625,-0.7478477954864502,0.6034636497497559
1750854093579757800,17.6997578125,1.401942253112793,-0.37599220871925354,-0.8014787435531616
1750854093598582500,17.71858251953125,1.9224557876586914,-0.12736481428146362,-0.6135036945343018
1750854093617407000,17.737406982421874,1.1616582870483398,0.1416177749633789,0.2332788109779358
1750854093636231400,17.7562314453125,-0.047865867614746094,0.22250080108642578,0.47486042976379395
1750854093655056000,17.775055908203125,-0.25249195098876953,0.4903606176376343,-0.35018670558929443
1750854093673880600,17.793880615234375,0.17239665985107422,0.8545353412628174,-0.9229459762573242
1750854093692705000,17.812705078125,0.01428985595703125,0.9977006316184998,-0.7512483596801758
1750854093711529500,17.831529541015627,-0.3580808639526367,0.9769660830497742,-0.31624436378479004
1750854093730354200,17.850354248046877,-0.6065406799316406,0.742446780204773,-0.31631702184677124
1750854093749178600,17.8691787109375,-0.5407743453979492,0.40811192989349365,-0.46346569061279297
1750854093768003000,17.888003173828125,-0.18926048278808594,0.20811933279037476,-0.3556424379348755
1750854093786827800,17.906827880859375,0.028688430786132812,0.1578628420829773,-0.45326632261276245
1750854093805652200,17.92565234375,0.1906566619873047,0.17286378145217896,-0.2546951174736023
1750854093824476700,17.9444765625,-0.1287975311279297,0.13306009769439697,0.10542678833007812
1750854093843301400,17.96330126953125,-0.4904460906982422,-0.15828371047973633,0.15480726957321167
1750854093862125800,17.982125732421874,-0.3176279067993164,-0.3919253349304199,-0.013840734958648682
1750854093880950300,18.0009501953125,-0.04084968566894531,-0.5140960216522217,0.24808168411254883
1750854093899774700,18.019774658203126,-0.22770404815673828,-0.5150529742240906,0.4726964831352234
1750854093918599400,18.038599365234376,-0.41082286834716797,-0.5388609766960144,0.4479876756668091
1750854093937424000,18.057423828125,-0.13251018524169922,-0.5250837206840515,0.2485312819480896
1750854093956248300,18.076248291015624,-0.17959880828857422,-0.6436771154403687,0.6000461578369141
1750854093975073000,18.095072998046874,-1.0386323928833008,-0.5156000852584839,1.0297267436981201
1750854093993897500,18.1138974609375,-0.9672956466674805,-0.006130337715148926,-0.17861294746398926
1750854094012722000,18.132721923828125,-0.3112211227416992,0.8917386531829834,-0.9765519499778748
1750854094031546600,18.151546630859375,-0.7511558532714844,1.5201659202575684,-0.8012799620628357
1750854094050371000,18.17037109375,-1.1011934280395508,0.5647951364517212,0.17290356755256653
1750854094069195500,18.189195556640627,-0.2565641403198242,-0.26607340574264526,-0.04364335536956787
1750854094088020200,18.208020263671877,0.791539192199707,-0.01322704553604126,-0.8606714606285095
1750854094106844700,18.2268447265625,1.112417221069336,0.7927546501159668,-1.3563156127929688
1750854094125669000,18.245669189453125,0.3884468078613281,1.286881685256958,-1.3578475713729858
1750854094144493600,18.26449365234375,-0.5413284301757812,1.3268810510635376,-1.2765052318572998
1750854094163318300,18.283318359375,-0.3584728240966797,1.4001771211624146,-1.334532618522644
1750854094182142700,18.302142822265626,0.5826654434204102,1.3472003936767578,-1.5207806825637817
1750854094200967200,18.32096728515625,0.9024209976196289,0.9258236885070801,-1.2419558763504028
1750854094219792000,18.3397919921875,-0.3333883285522461,0.35535526275634766,-0.983036994934082
1750854094238616300,18.3586162109375,-1.205235481262207,0.3060537576675415,-1.3344670534133911
1750854094257440800,18.377440673828126,-1.3451147079467773,0.5140113830566406,-0.9522666335105896
1750854094276265500,18.396265380859376,-1.088007926940918,0.09127819538116455,-0.24583394825458527
1750854094295090000,18.41508984375,-1.277073860168457,-0.7469820380210876,0.5401753783226013
1750854094313914400,18.433914306640624,-1.1405267715454102,-1.3118553161621094,1.20938241481781
1750854094332738800,18.45273876953125,-0.038779258728027344,-1.5154563188552856,1.278637170791626
1750854094351563500,18.4715634765625,0.5755462646484375,-1.2769579887390137,0.47287750244140625
1750854094370388000,18.490387939453125,0.7086877822875977,-1.0157806873321533,0.2880251407623291
1750854094389212400,18.50921240234375,0.6003751754760742,-0.8087542057037354,0.614116907119751
1750854094408037000,18.528037109375,0.13559722900390625,-0.8441066145896912,0.7714939117431641
1750854094426861600,18.546861572265627,0.5498428344726562,-0.7903568744659424,0.43561291694641113
1750854094445686000,18.56568603515625,0.8903608322143555,-0.8232935667037964,0.43465283513069153
1750854094464510700,18.5845107421875,0.585820198059082,-1.2995991706848145,0.9495396614074707
1750854094483335200,18.603335205078125,0.39715003967285156,-2.026294231414795,1.8376986980438232
1750854094502159600,18.62215966796875,0.5291290283203125,-2.8495240211486816,2.5322649478912354
1750854094520984300,18.640984375,1.3434362411499023,-2.008986234664917,1.1612026691436768
1750854094539808800,18.659808837890626,1.8562555313110352,-1.8829277753829956,0.715117871761322
1750854094558633200,18.67863330078125,1.1924285888671875,-1.7330530881881714,0.8656445145606995
1750854094577457700,18.697457763671874,0.11818981170654297,-1.1868995428085327,0.82718825340271
1750854094596282400,18.716282470703124,-0.6818819046020508,-0.6407356262207031,0.3942413926124573
1750854094615106800,18.73510693359375,-0.4555625915527344,-0.19579562544822693,-0.25334012508392334
1750854094633931300,18.75393115234375,-0.43934154510498047,0.46896135807037354,-0.0989542007446289
1750854094652756000,18.772755859375,-0.6845474243164062,0.9298400282859802,-0.610397219657898
1750854094671580400,18.791580322265624,-0.7491979598999023,1.6967699527740479,-2.4683101177215576
1750854094690404900,18.81040478515625,-0.23346614837646484,2.096433639526367,-2.405776023864746
1750854094709229600,18.8292294921875,0.03131580352783203,1.3933738470077515,-0.9151116609573364
1750854094728054000,18.848053955078125,0.1244964599609375,0.2405616044998169,-0.46963852643966675
1750854094746878500,18.86687841796875,0.08553695678710938,-0.15869545936584473,-0.6048355102539062
1750854094765703200,18.885703125,0.4815044403076172,0.3880131244659424,-1.4758819341659546
1750854094784527600,18.904527587890627,0.4125947952270508,1.248914361000061,-2.397059202194214
1750854094803352000,18.92335205078125,0.44454383850097656,1.7801213264465332,-2.2016780376434326
1750854094822176800,18.9421767578125,-0.021244049072265625,1.2265290021896362,-1.1509720087051392
1750854094841001200,18.961001220703125,-1.1791601181030273,0.8322947025299072,-1.0380988121032715
1750854094859825700,18.97982568359375,-2.079800605773926,1.010272741317749,-1.1562095880508423
1750854094878650000,18.998650146484376,-2.134805679321289,1.1562128067016602,-1.2530564069747925
1750854094897474800,19.017474853515626,-1.0299186706542969,0.5580465793609619,-0.8430674076080322
1750854094916299300,19.03629931640625,0.09733009338378906,0.0972665548324585,-0.4114258885383606
1750854094935123700,19.055123779296874,0.4935131072998047,0.05090928077697754,-0.8251105546951294
1750854094953948400,19.073948486328124,0.9938430786132812,-0.2646254301071167,-0.866353452205658
1750854094972772900,19.09277294921875,0.9011383056640625,-0.9248992204666138,-0.19927501678466797
1750854094991597300,19.111597412109376,-0.15937519073486328,-1.4923937320709229,0.6306024193763733
1750854095010422000,19.130422119140626,-0.6905183792114258,-1.7736055850982666,1.3291077613830566
1750854095029246500,19.14924658203125,-0.4690103530883789,-2.0143215656280518,2.2460334300994873
1750854095048071000,19.16807080078125,-0.12774944305419922,-2.01257061958313,1.6449923515319824
1750854095066895600,19.1868955078125,0.092437744140625,-1.9087997674942017,1.4541441202163696
1750854095085720000,19.205719970703125,0.3708009719848633,-1.2026517391204834,1.3293213844299316
1750854095104544500,19.22454443359375,0.6884450912475586,-1.112380027770996,1.1501541137695312
1750854095123369000,19.243368896484377,0.5828142166137695,-1.9064326286315918,0.9862609505653381
1750854095142193700,19.262193603515627,0.8285951614379883,-2.3688864707946777,1.0983119010925293
1750854095161018000,19.28101806640625,0.7376441955566406,-2.005655288696289,1.1197519302368164
1750854095179842600,19.299842529296875,0.8814678192138672,-1.1697546243667603,0.21570026874542236
1750854095198667300,19.318667236328125,1.316147804260254,-0.5604007244110107,-0.5987948179244995
1750854095217491700,19.33749169921875,1.442061424255371,-0.04292982816696167,-0.715396523475647
1750854095236316200,19.356316162109376,0.8930749893188477,0.6774104833602905,-0.28522729873657227
1750854095255140600,19.375140625,-0.5526304244995117,0.22537648677825928,0.7023922204971313
1750854095273965300,19.39396533203125,-1.2555227279663086,-0.22775113582611084,-0.44234389066696167
1750854095292789800,19.412789794921874,-0.4957151412963867,0.6224644184112549,-1.6383726596832275
1750854095311614200,19.4316142578125,-0.6137924194335938,1.7373453378677368,-1.9739854335784912
1750854095330439000,19.45043896484375,-0.8370723724365234,1.0540473461151123,-0.8235036730766296
1750854095349263400,19.469263427734376,0.18131542205810547,0.7250609397888184,-1.5404516458511353
1750854095368087800,19.488087890625,0.5295333862304688,1.7018717527389526,-1.6959129571914673
1750854095386912500,19.50691259765625,-0.5346822738647461,1.8706717491149902,-1.9399363994598389
1750854095405737000,19.525737060546874,-0.36374568939208984,1.2664995193481445,-1.5821430683135986
1750854095424561400,19.5445615234375,-0.08111763000488281,0.8851159811019897,-1.2980549335479736
1750854095443385900,19.5633857421875,-0.2686891555786133,1.101220965385437,-1.474987506866455
1750854095462210600,19.58221044921875,-0.8275356292724609,1.5393235683441162,-1.686149001121521
1750854095481035000,19.601034912109377,-0.5862140655517578,1.2733551263809204,-1.776511788368225
1750854095499859500,19.619859375,0.107421875,0.7099877595901489,-1.7578935623168945
1750854095518684200,19.63868408203125,0.5875368118286133,0.05541491508483887,-1.0273057222366333
1750854095537508600,19.657508544921875,-0.35669612884521484,-0.7582043409347534,-0.21056750416755676
1750854095556333000,19.6763330078125,-1.287322998046875,-1.6956087350845337,0.5282652378082275
1750854095575157800,19.69515771484375,-1.915532112121582,-2.1162893772125244,1.5823957920074463
1750854095593982200,19.713982177734376,-0.7899274826049805,-1.797316551208496,1.0048418045043945
1750854095612806700,19.732806640625,0.18188762664794922,-1.315048336982727,0.8113455772399902
1750854095631631000,19.751631103515624,-0.07660961151123047,-0.9085859060287476,1.2113286256790161
1750854095650455800,19.770455810546874,-0.6237678527832031,-0.7350804805755615,1.5969412326812744
1750854095669280300,19.7892802734375,-0.18212318420410156,-0.825089693069458,1.0564727783203125
1750854095688104700,19.808104736328126,0.1197957992553711,-0.8929998278617859,0.6335527300834656
1750854095706929400,19.826929443359376,-0.2415924072265625,-1.0088955163955688,1.0760388374328613
1750854095725753900,19.84575390625,-0.27413177490234375,-1.1753861904144287,1.854873538017273
1750854095744578300,19.864578369140624,0.10596656799316406,-1.7849390506744385,2.4581193923950195
1750854095763403000,19.883403076171874,0.6312065124511719,-2.3082056045532227,2.501218557357788
1750854095782227500,19.9022275390625,0.8352785110473633,-2.181506395339966,1.9585729837417603
1750854095801052000,19.921052001953125,1.4841489791870117,-1.6116740703582764,0.23878055810928345
1750854095819876600,19.939876708984375,1.1927013397216797,-0.6204282641410828,-1.7658066749572754
1750854095838701000,19.958701171875,1.3130598068237305,-0.3850206732749939,-0.31803983449935913
1750854095857525500,19.977525390625,1.086435317993164,0.16381776332855225,-0.2031271606683731
1750854095876350200,19.99635009765625,0.1379690170288086,0.40362393856048584,-0.19866593182086945
1750854095895174700,20.015174560546875,0.020402908325195312,0.3917276859283447,-1.0511707067489624
1750854095913999000,20.0339990234375,0.23600196838378906,0.46258699893951416,-1.8007524013519287
1750854095932823600,20.052823486328126,0.5083713531494141,0.5041882991790771,-0.8102498650550842
1750854095951648300,20.071648193359376,0.21303749084472656,0.7879241704940796,-0.027181491255760193
1750854095970472700,20.09047265625,-0.22761249542236328,0.37998807430267334,-0.6557462215423584
1750854095989297200,20.109297119140624,-0.28027820587158203,0.2764456272125244,-1.5360362529754639
1750854096008121900,20.128121826171874,-0.7053899765014648,1.0689398050308228,-1.385590672492981
1750854096026946300,20.1469462890625,-0.4811697006225586,1.0948097705841064,-1.2320070266723633
1750854096045770800,20.165770751953126,-0.10399913787841797,0.9584678411483765,-1.9898103475570679
1750854096064595200,20.18459521484375,-0.08282947540283203,1.0245732069015503,-2.3034908771514893
1750854096083420000,20.203419921875,-0.024320602416992188,0.6484524011611938,-1.7270634174346924
1750854096102244400,20.222244384765624,-0.24338626861572266,0.3127284049987793,-0.6598516702651978
1750854096121068800,20.24106884765625,-0.45158863067626953,0.5151612758636475,-0.08241826295852661
1750854096139893500,20.2598935546875,-0.2199258804321289,0.3341273069381714,-0.5748966932296753
1750854096158718000,20.278718017578125,-0.3133230209350586,-0.12859785556793213,-0.9971279501914978
1750854096177542400,20.29754248046875,-0.6855897903442383,-0.7245301008224487,-0.586092472076416
1750854096196366800,20.316366943359377,-1.0402164459228516,-0.9577825665473938,0.22587475180625916
1750854096215191600,20.335191650390627,-0.6483774185180664,-0.9136409163475037,0.5896166563034058
1750854096234016000,20.35401611328125,-0.17618942260742188,-0.7697100043296814,0.8619564771652222
1750854096252840400,20.37284033203125,0.49069786071777344,-0.5763351917266846,0.4490927755832672
1750854096271665200,20.3916650390625,1.0165281295776367,-0.7027056217193604,0.07099786400794983
1750854096290489600,20.410489501953126,0.5335206985473633,-1.0515562295913696,0.9912928938865662
1750854096309314000,20.42931396484375,-0.5576286315917969,-0.9890906810760498,1.6562976837158203
1750854096328138800,20.448138671875,-0.19511127471923828,-0.7437285780906677,1.9297139644622803
1750854096346963200,20.466963134765624,0.47848987579345703,-0.6418696641921997,1.5554821491241455
1750854096365787600,20.48578759765625,0.9973545074462891,-0.4111438989639282,0.8740918040275574
1750854096384612000,20.504612060546876,0.9799442291259766,-0.2453075647354126,0.379163920879364
1750854096403436800,20.523436767578126,0.4578208923339844,-0.5181958079338074,0.5177565813064575
1750854096422261200,20.54226123046875,0.7075414657592773,-0.5880342721939087,0.6384091377258301
1750854096441085700,20.561085693359374,0.9701061248779297,-0.6641039848327637,0.9148906469345093
1750854096459910400,20.579910400390624,0.3204355239868164,-0.47757774591445923,1.1610229015350342
1750854096478734800,20.59873486328125,0.06886005401611328,-0.0209503173828125,0.019795358180999756
1750854096497559300,20.617559326171875,0.5596342086791992,0.304276704788208,-1.2000141143798828
1750854096516384000,20.636384033203125,0.08557510375976562,0.9339655637741089,-1.4476885795593262
1750854096535208400,20.65520849609375,-0.9081258773803711,0.8833431005477905,-0.27732187509536743
1750854096554033000,20.674032958984377,-1.6022090911865234,0.14513933658599854,0.8055538535118103
1750854096572857600,20.692857666015627,-0.9658060073852539,-0.3454189896583557,0.14924639463424683
1750854096591682000,20.71168212890625,0.48039722442626953,0.17826521396636963,-1.8073598146438599
1750854096610506500,20.730506591796875,0.8660707473754883,0.7300224304199219,-2.075228214263916
1750854096629331000,20.7493310546875,0.2433013916015625,0.625841498374939,-1.025916576385498
1750854096648155600,20.76815576171875,-0.4698829650878906,0.43590056896209717,-0.6690390706062317
1750854096666980000,20.78697998046875,-1.1901960372924805,0.3489673137664795,-0.47219666838645935
1750854096685804500,20.805804443359374,-1.0861988067626953,0.17580866813659668,-0.7275846004486084
1750854096704629200,20.824629150390624,-0.6539134979248047,0.03727424144744873,-0.7947357296943665
1750854096723453700,20.84345361328125,0.01617145538330078,0.0888664722442627,-0.811485767364502
1750854096742278100,20.862278076171876,0.5912361145019531,-0.14438533782958984,0.045355260372161865
1750854096761102800,20.881102783203126,0.5491132736206055,-0.3445635437965393,0.5930591821670532
1750854096779927300,20.89992724609375,0.035778045654296875,-0.24221348762512207,0.5054444074630737
1750854096798751700,20.918751708984374,0.006839752197265625,-0.35724347829818726,0.03779405355453491
1750854096817576200,20.937576171875,0.48010921478271484,-0.3330758810043335,-0.34791088104248047
1750854096836401000,20.95640087890625,0.590357780456543,-0.06773483753204346,-0.0712820291519165
1750854096855225300,20.975225341796875,0.2099437713623047,0.10058653354644775,0.4116170108318329
1750854096874049800,20.9940498046875,-0.026001930236816406,0.02496659755706787,0.6033183336257935
1750854096892874500,21.01287451171875,-0.06545543670654297,0.010376214981079102,0.38681986927986145
1750854096911699000,21.031698974609377,0.09641742706298828,-0.08938109874725342,0.06919047236442566
1750854096930523400,21.0505234375,0.2397165298461914,-0.17635589838027954,0.05443713068962097
1750854096949348000,21.06934814453125,0.24987316131591797,-0.02384805679321289,0.2649908661842346
1750854096968172500,21.088172607421875,0.16984176635742188,0.13642621040344238,0.2106318175792694
1750854096986997000,21.1069970703125,-0.09604454040527344,0.006039142608642578,0.2897018790245056
1750854097005821400,21.125821533203126,-0.061387062072753906,-0.00015866756439208984,-0.010633781552314758
1750854097024646100,21.144646240234376,-0.21897602081298828,-0.13009274005889893,-0.1455926150083542
1750854097043470600,21.163470703125,-0.09175872802734375,-0.09363329410552979,-0.03919358551502228
1750854097062295000,21.182294921875,0.10606002807617188,0.00844717025756836,0.0228661447763443
1750854097081119700,21.20111962890625,0.3085346221923828,-0.02590787410736084,0.14567503333091736
1750854097099944200,21.219944091796876,0.3160839080810547,-0.008188128471374512,0.1541397124528885
1750854097118768600,21.2387685546875,-0.09442138671875,0.03610122203826904,0.1103736162185669
1750854097137593300,21.25759326171875,-0.3547019958496094,0.09072589874267578,0.06600672006607056
1750854097156417800,21.276417724609374,-0.42584705352783203,0.09109139442443848,0.0023423582315444946
1750854097175242200,21.2952421875,-0.3952159881591797,0.13529086112976074,-0.07043437659740448
1750854097194066700,21.314066650390625,-0.3428802490234375,0.1615513563156128,0.21771898865699768
1750854097212891400,21.332891357421875,-0.10579204559326172,0.18794989585876465,0.08363045752048492
1750854097231715800,21.3517158203125,0.060695648193359375,0.04921591281890869,-0.0909157246351242
1750854097250540300,21.370540283203123,0.03301811218261719,-0.09169036149978638,0.025056496262550354
1750854097269365000,21.389364990234377,0.21724605560302734,-0.10402774810791016,-0.13739950954914093
1750854097288189400,21.408189453125,0.24526309967041016,-0.17053008079528809,-0.15278127789497375
1750854097307014000,21.427013916015625,0.02608013153076172,-0.22411179542541504,0.07966163754463196
1750854097325838600,21.445838623046875,0.07594013214111328,-0.07129532098770142,-0.030182987451553345
1750854097344663000,21.4646630859375,0.12233257293701172,-0.03233522176742554,-0.025568410754203796
1750854097363487500,21.483487548828126,0.010096549987792969,0.07001346349716187,-0.06111334264278412
1750854097382312000,21.50231201171875,0.009280204772949219,0.014381945133209229,-0.09367057681083679
1750854097401136600,21.52113671875,-0.030137062072753906,-0.019098281860351562,-0.0757213681936264
1750854097419961000,21.539961181640624,0.02132415771484375,-0.0481487512588501,-0.08309556543827057
1750854097438785500,21.55878564453125,0.05241107940673828,-0.04848635196685791,-0.02314382791519165
1750854097457610200,21.5776103515625,0.13874244689941406,-0.03159594535827637,-0.06726033985614777
1750854097476434700,21.5964345703125,0.15719985961914062,-0.0530543327331543,0.020377814769744873
1750854097495259100,21.615259033203124,0.029979705810546875,-0.036572039127349854,-0.03355488181114197
1750854097514083800,21.634083740234374,-0.012804031372070312,-0.11909216642379761,-0.11330372840166092
1750854097532908300,21.652908203125,0.019852638244628906,-0.0913933515548706,0.07100380957126617
1750854097551732700,21.671732666015625,-0.12651729583740234,-0.04358762502670288,0.23557353019714355
1750854097570557400,21.690557373046875,-0.0810995101928711,0.0725049376487732,0.16840918362140656
1750854097589382000,21.7093818359375,0.0932760238647461,0.03523421287536621,-0.05143621563911438
1750854097608206300,21.728206298828123,0.14496803283691406,0.047656118869781494,-0.14433756470680237
1750854097627030800,21.74703076171875,-0.05140972137451172,-0.02147209644317627,0.05424275994300842
1750854097645855500,21.76585546875,-0.0817422866821289,0.0610465407371521,0.029534056782722473
1750854097674092300,21.79409228515625,-0.08324050903320312,-0.0068669915199279785,0.10185085237026215
1750854097692916700,21.812916748046874,-0.11021900177001953,-0.09316778182983398,0.09402349591255188
1750854097711741200,21.8317412109375,-0.10311412811279297,-0.06130266189575195,0.08928115665912628
1750854097730565600,21.850565673828125,0.10907936096191406,0.08883190155029297,-0.0874118059873581
1750854097749390300,21.869390380859375,0.1416492462158203,0.07787513732910156,-0.07973311841487885
1750854097768214800,21.88821484375,0.10411739349365234,0.06262403726577759,0.008842796087265015
1750854097787039200,21.907039306640623,-0.044281959533691406,0.02324497699737549,0.005710110068321228
1750854097805864000,21.925864013671877,-0.12711524963378906,-0.0002238154411315918,0.03389620780944824
1750854097824688400,21.9446884765625,-0.19361114501953125,0.07030421495437622,0.01921425759792328
1750854097843512800,21.963512939453125,-0.10964202880859375,0.08861726522445679,0.05620074272155762
1750854097862337500,21.982337646484375,-0.014783859252929688,0.031913578510284424,0.13194167613983154
1750854097881162000,22.001161865234376,0.0873403549194336,-0.011649549007415771,0.001746848225593567
1750854097899986400,22.019986328125,0.16334915161132812,-0.07073670625686646,-0.07500351965427399
1750854097918811100,22.03881103515625,0.17659950256347656,0.09463697671890259,-0.20641863346099854
1750854097937635600,22.057635498046874,0.16126060485839844,0.04294407367706299,-0.05697798728942871
1750854097956460000,22.0764599609375,0.10002613067626953,0.01111680269241333,-0.005544871091842651
1750854097975284700,22.09528466796875,-0.025083541870117188,-0.02946096658706665,0.051397889852523804
1750854097994109200,22.114109130859376,0.050528526306152344,-0.0019037723541259766,0.07384105026721954
1750854098012933600,22.13293359375,0.27716636657714844,-0.03242677450180054,0.04161256551742554
1750854098031758300,22.15175830078125,0.29168701171875,-0.12896019220352173,0.1023443192243576
1750854098050582800,22.170582763671874,0.2361917495727539,-0.08035749197006226,0.1072404533624649
1750854098069407200,22.1894072265625,0.061206817626953125,0.12695157527923584,0.011660732328891754
1750854098088231700,22.208231689453125,-0.09008026123046875,0.11736571788787842,-0.062764972448349
1750854098107056400,22.227056396484375,-0.11501216888427734,-0.014003098011016846,0.016466841101646423
1750854098125880800,22.245880859375,0.1080169677734375,-0.03356361389160156,-0.06420508027076721
1750854098144705300,22.264705322265623,0.12767791748046875,-0.023125171661376953,-0.025269240140914917
1750854098163530000,22.283530029296877,-0.058104515075683594,0.018748760223388672,0.027912288904190063
1750854098182354400,22.3023544921875,-0.17677974700927734,0.029180943965911865,0.05931738018989563
1750854098201179000,22.321178955078125,-0.0673208236694336,-0.02467268705368042,-0.016564905643463135
1750854098220003300,22.34000341796875,0.028493881225585938,-0.10861146450042725,-0.0629158765077591
1750854098238828000,22.358828125,0.0654439926147461,-0.07175332307815552,-0.048696354031562805
1750854098257652500,22.377652587890626,0.0034570693969726562,-0.03733748197555542,-0.019472956657409668
1750854098276477000,22.396476806640624,-0.04264259338378906,0.02425408363342285,-0.060358673334121704
1750854098295301600,22.415301513671874,-0.10109519958496094,0.002667725086212158,-0.006393849849700928
1750854098314126000,22.4341259765625,0.03392505645751953,-0.0132981538772583,-0.04273279011249542
1750854098332950500,22.452950439453126,-0.01704883575439453,-0.002324342727661133,-0.0419083833694458
1750854098351775000,22.47177490234375,-0.024875640869140625,0.0007296204566955566,-0.05646227300167084
1750854098370599700,22.490599609375,0.05668449401855469,0.020794212818145752,-0.039484694600105286
1750854098389424000,22.509424072265624,-0.024451255798339844,0.02307915687561035,0.02962430566549301
1750854098408248600,22.52824853515625,-0.13970375061035156,0.03871637582778931,0.04238009452819824
1750854098427073300,22.5470732421875,-0.25145435333251953,-0.0004979968070983887,0.004785016179084778
1750854098445897700,22.565897705078125,-0.1858053207397461,0.05719715356826782,-0.06400503218173981
1750854098464722200,22.58472216796875,0.12464237213134766,-0.025877833366394043,-0.08764813840389252
1750854098483547000,22.603546875,0.23230838775634766,-0.1605076789855957,-0.0012627765536308289
1750854098502371300,22.622371337890623,0.03818702697753906,-0.07833433151245117,-0.1008245050907135
1750854098521195800,22.64119580078125,-0.015081405639648438,0.0017565488815307617,-0.14535945653915405
1750854098540020200,22.660020263671875,-0.03875255584716797,0.03148573637008667,0.014534614980220795
1750854098558845000,22.678844970703125,-0.056243896484375,0.04210847616195679,0.10102056711912155
1750854098577669400,22.69766943359375,-0.016272544860839844,0.03084099292755127,0.12023694068193436
1750854098596493800,22.716493896484376,0.05463695526123047,-0.021925806999206543,0.07210002094507217
1750854098615318500,22.735318603515626,-0.1102752685546875,0.037973880767822266,0.10154448449611664
1750854098634143000,22.75414306640625,-0.22794628143310547,0.10896128416061401,0.05672889202833176
1750854098652967400,22.772967529296874,-0.18413925170898438,0.08644288778305054,0.029008984565734863
1750854098671792000,22.791792236328124,-0.10979747772216797,0.019292235374450684,0.010763406753540039
1750854098690616600,22.810616455078126,-0.06510162353515625,-0.06281322240829468,0.10750894993543625
1750854098709441000,22.82944091796875,0.15649795532226562,-0.04407048225402832,0.08431946486234665
1750854098728265700,22.848265625,0.21155929565429688,-0.07158041000366211,0.006942279636859894
1750854098747090200,22.867090087890624,-0.0013189315795898438,0.010663390159606934,-0.04923781007528305
1750854098765914600,22.88591455078125,-0.0997467041015625,0.03479421138763428,-0.035186879336833954
1750854098784739000,22.904739013671875,-0.008877754211425781,0.016762733459472656,-0.0018020719289779663
1750854098803563800,22.923563720703125,0.06108283996582031,0.01931864023208618,0.06139598786830902
1750854098822388200,22.94238818359375,0.040454864501953125,-0.014699757099151611,0.12584610283374786
1750854098841212700,22.961212646484373,0.025035858154296875,-0.01823347806930542,-0.012177787721157074
1750854098860037400,22.980037353515623,0.21621322631835938,-0.05991566181182861,-0.12561708688735962
1750854098878861800,22.99886181640625,0.09206771850585938,0.007449090480804443,-0.02203647792339325
1750854098897686300,23.017686279296875,-0.12090396881103516,0.0975082516670227,0.06412027776241302
1750854098916511000,23.036510986328125,-0.2153635025024414,0.03045034408569336,0.0731230080127716
1750854098935335400,23.05533544921875,-0.11086368560791016,-0.07352602481842041,0.055007606744766235
1750854098954159900,23.074159912109376,0.16309547424316406,-0.022785425186157227,-0.06479965150356293
1750854098972984300,23.092984375,0.15761947631835938,-0.057740747928619385,-0.005814351141452789
1750854098991809000,23.11180908203125,0.15294933319091797,-0.01821523904800415,0.03590790182352066
1750854099010633500,23.130633544921874,-0.03864288330078125,-0.004543721675872803,-0.0020891204476356506
1750854099029458000,23.1494580078125,-0.06549263000488281,-0.019247889518737793,0.008588247001171112
1750854099048282600,23.16828271484375,-0.03126239776611328,-0.0579950213432312,0.07674902677536011
1750854099067107000,23.187107177734376,0.03958892822265625,0.019325315952301025,0.04553312063217163
1750854099085931500,23.205931640625,0.14105224609375,0.03967100381851196,-0.11219841241836548
1750854099104756000,23.224755859375,0.16410541534423828,-0.0010721087455749512,-0.10537833720445633
1750854099123580700,23.24358056640625,0.05556011199951172,0.011878609657287598,-0.024630039930343628
1750854099142405000,23.262405029296875,-0.13223934173583984,0.031794071197509766,0.03401836007833481
1750854099161229600,23.2812294921875,-0.1182241439819336,0.0006605386734008789,0.060070157051086426
1750854099180054300,23.30005419921875,-0.09104251861572266,0.02448558807373047,0.028002507984638214
1750854099198878700,23.318878662109373,-0.0738840103149414,0.0314098596572876,-0.02619589865207672
1750854099217703200,23.337703125,0.02658557891845703,0.05223160982131958,-0.08363838493824005
