time,seconds_elapsed,z,y,x
1750854075988213800,0.1082138671875,9.604202270507812,1.9365628957748413,-0.42356809973716736
1750854076007038200,0.1270380859375,9.612801551818848,1.8912670612335205,-0.43306252360343933
1750854076044687600,0.1646875,9.62885570526123,1.8182357549667358,-0.3867194652557373
1750854076082336800,0.202336669921875,9.627281188964844,1.826640248298645,-0.386325478553772
1750854076101161200,0.2211611328125,9.622868537902832,1.852373719215393,-0.37351053953170776
1750854076119986000,0.23998583984375,9.623859405517578,1.8487602472305298,-0.3657793700695038
1750854076138810600,0.258810546875,9.628072738647461,1.8305083513259888,-0.3461804687976837
1750854076157635000,0.277635009765625,9.629912376403809,1.8227026462554932,-0.3360455334186554
1750854076176459800,0.296459716796875,9.629669189453125,1.8244965076446533,-0.33327069878578186
1750854076195284200,0.3152841796875,9.629573822021484,1.825416922569275,-0.33099228143692017
1750854076214109000,0.33410888671875,9.629836082458496,1.8245577812194824,-0.32808631658554077
1750854076232933400,0.352933349609375,9.629776000976562,1.8256866931915283,-0.3235568404197693
1750854076251758000,0.371758056640625,9.63082504272461,1.821373462677002,-0.31654077768325806
1750854076270582500,0.39058251953125,9.631915092468262,1.817096471786499,-0.30783140659332275
1750854076289407200,0.4094072265625,9.633988380432129,1.807808518409729,-0.297478586435318
1750854076308232000,0.42823193359375,9.636787414550781,1.794691562652588,-0.28602835536003113
1750854076327056400,0.447056396484375,9.639294624328613,1.7832940816879272,-0.2724790871143341
1750854076345881000,0.465881103515625,9.641082763671875,1.7754902839660645,-0.25987085700035095
1750854076364705500,0.48470556640625,9.642292022705078,1.7709360122680664,-0.245689257979393
1750854076383530200,0.5035302734375,9.642622947692871,1.7702471017837524,-0.23758985102176666
1750854076402355000,0.52235498046875,9.643125534057617,1.7676244974136353,-0.23668447136878967
1750854076421179400,0.541179443359375,9.644452095031738,1.7609407901763916,-0.23242247104644775
1750854076440004000,0.560004150390625,9.645471572875977,1.7560653686523438,-0.22690171003341675
1750854076458828500,0.57882861328125,9.646356582641602,1.7514194250106812,-0.2252064049243927
1750854076477653200,0.5976533203125,9.647296905517578,1.746478796005249,-0.22328655421733856
1750854076496477700,0.616477783203125,9.647771835327148,1.744902491569519,-0.21491198241710663
1750854076515302400,0.635302490234375,9.647664070129395,1.7466166019439697,-0.20564952492713928
1750854076534126800,0.654126953125,9.647701263427734,1.7473829984664917,-0.1972607672214508
1750854076552951600,0.67295166015625,9.648215293884277,1.7444562911987305,-0.1980103850364685
1750854076571776300,0.6917763671875,9.650653839111328,1.7297857999801636,-0.20765075087547302
1750854076590600700,0.7106005859375,9.653302192687988,1.7135515213012695,-0.21887820959091187
1750854076609425400,0.72942529296875,9.655729293823242,1.69929039478302,-0.22293822467327118
1750854076628249900,0.748249755859375,9.659146308898926,1.6800543069839478,-0.22070279717445374
1750854076647074600,0.767074462890625,9.661150932312012,1.6682239770889282,-0.22268879413604736
1750854076665899000,0.78589892578125,9.660914421081543,1.6694387197494507,-0.22381213307380676
1750854076684723700,0.8047236328125,9.658475875854492,1.6831494569778442,-0.22637437283992767
1750854076703548200,0.823548095703125,9.655159950256348,1.7013189792633057,-0.23194226622581482
1750854076722372900,0.842372802734375,9.652000427246094,1.7186520099639893,-0.2356126606464386
1750854076741197600,0.861197509765625,9.650507926940918,1.7285537719726562,-0.22404442727565765
1750854076760022000,0.88002197265625,9.651081085205078,1.728097677230835,-0.20173151791095734
1750854076778846700,0.8988466796875,9.653606414794922,1.7167012691497803,-0.17664992809295654
1750854076797671200,0.917671142578125,9.655720710754395,1.706796646118164,-0.15583549439907074
1750854076816495900,0.936495849609375,9.655695915222168,1.7073582410812378,-0.15115727484226227
1750854076835320300,0.9553203125,9.654654502868652,1.7133722305297852,-0.14966614544391632
1750854076854145000,0.97414501953125,9.653428077697754,1.7206305265426636,-0.1454411745071411
1750854076872969700,0.9929697265625,9.65326976776123,1.7222086191177368,-0.13697302341461182
1750854076891794200,1.011794189453125,9.653108596801758,1.7235820293426514,-0.1309422105550766
1750854076910619000,1.030618896484375,9.651774406433105,1.7312774658203125,-0.12772686779499054
1750854076929443300,1.049443359375,9.649385452270508,1.744944453239441,-0.12212597578763962
1750854076948268000,1.06826806640625,9.645805358886719,1.7646673917770386,-0.12155277281999588
1750854076967092500,1.087092529296875,9.641884803771973,1.7857664823532104,-0.12435908615589142
1750854076985917200,1.105917236328125,9.640372276306152,1.7940164804458618,-0.12296975404024124
1750854077004742000,1.124741943359375,9.641448020935059,1.7889001369476318,-0.11277883499860764
1750854077023566300,1.14356640625,9.644139289855957,1.7753040790557861,-0.09625251591205597
1750854077042391000,1.16239111328125,9.646882057189941,1.760873794555664,-0.08591262996196747
1750854077061215500,1.181215576171875,9.6483793258667,1.7528703212738037,-0.08118019998073578
1750854077080040200,1.200040283203125,9.648110389709473,1.7544689178466797,-0.07869094610214233
1750854077098864600,1.21886474609375,9.647537231445312,1.7575808763504028,-0.07952571660280228
1750854077117689300,1.237689453125,9.64881706237793,1.7506979703903198,-0.07597127556800842
1750854077136513800,1.256513671875,9.650856971740723,1.7392637729644775,-0.07939396053552628
1750854077155338500,1.27533837890625,9.652670860290527,1.7290241718292236,-0.0825205072760582
1750854077174163000,1.294162841796875,9.653070449829102,1.7269140481948853,-0.07991939783096313
1750854077192987600,1.312987548828125,9.652199745178223,1.7319072484970093,-0.07698458433151245
1750854077211812400,1.331812255859375,9.651361465454102,1.7366855144500732,-0.07431646436452866
1750854077230636800,1.35063671875,9.651859283447266,1.734110951423645,-0.06973543763160706
1750854077249461500,1.36946142578125,9.654169082641602,1.7214291095733643,-0.06387399882078171
1750854077268286000,1.388285888671875,9.656685829162598,1.7074511051177979,-0.058435965329408646
1750854077287110700,1.407110595703125,9.657540321350098,1.7027857303619385,-0.05312013626098633
1750854077305935000,1.42593505859375,9.656298637390137,1.710026502609253,-0.04577161371707916
1750854077324759800,1.444759765625,9.653914451599121,1.7236377000808716,-0.037348005920648575
1750854077343584300,1.463584228515625,9.652017593383789,1.7343635559082031,-0.030524298548698425
1750854077362409000,1.482408935546875,9.651453971862793,1.737586259841919,-0.024792620912194252
1750854077381233400,1.5012333984375,9.652310371398926,1.7328521013259888,-0.022988637909293175
1750854077400058000,1.52005810546875,9.653153419494629,1.7281389236450195,-0.0231186430901289
1750854077418882800,1.5388828125,9.653258323669434,1.7275333404541016,-0.025169219821691513
1750854077437707300,1.557707275390625,9.653244018554688,1.727581262588501,-0.027224639430642128
1750854077456532000,1.576531982421875,9.652843475341797,1.7297476530075073,-0.031246770173311234
1750854077475356400,1.5953564453125,9.652249336242676,1.7330092191696167,-0.034079134464263916
1750854077494181000,1.61418115234375,9.652331352233887,1.7325751781463623,-0.03286014869809151
1750854077513005600,1.633005615234375,9.653056144714355,1.728601098060608,-0.02883852832019329
1750854077531830300,1.651830322265625,9.653707504272461,1.7250165939331055,-0.025509554892778397
1750854077550654700,1.67065478515625,9.65395736694336,1.7236831188201904,-0.020077992230653763
1750854077569479400,1.6894794921875,9.653657913208008,1.7254154682159424,-0.014809721149504185
1750854077588304000,1.708303955078125,9.653748512268066,1.7249480485916138,-0.009289529174566269
1750854077607128600,1.727128662109375,9.654539108276367,1.7205204963684082,-0.008072140626609325
1750854077625953000,1.745953125,9.654170036315918,1.7225944995880127,-0.0076010278426110744
1750854077644777700,1.76477783203125,9.652569770812988,1.7315431833267212,-0.006143214181065559
1750854077663602200,1.783602294921875,9.650476455688477,1.743155598640442,-0.010261558927595615
1750854077682427000,1.802427001953125,9.648390769958496,1.7546474933624268,-0.012567424215376377
1750854077701251300,1.821251220703125,9.645875930786133,1.768452763557434,-0.00577612454071641
1750854077720076000,1.840075927734375,9.643627166748047,1.7806639671325684,0.008906582370400429
1750854077738900700,1.858900634765625,9.64193058013916,1.789665699005127,0.025776460766792297
1750854077757725200,1.87772509765625,9.640957832336426,1.7946627140045166,0.03865751251578331
1750854077776550000,1.8965498046875,9.641279220581055,1.7926695346832275,0.049614276736974716
1750854077795374300,1.915374267578125,9.642448425292969,1.786063313484192,0.05959185212850571
1750854077814199000,1.934198974609375,9.643771171569824,1.7786383628845215,0.06712320446968079
1750854077833023500,1.9530234375,9.644259452819824,1.775680422782898,0.07493763417005539
1750854077851848200,1.97184814453125,9.644251823425293,1.7754489183425903,0.08115127682685852
1750854077870672600,1.990672607421875,9.643796920776367,1.7778517007827759,0.08255967497825623
1750854077889497300,2.009497314453125,9.643227577209473,1.780943512916565,0.08249901235103607
1750854077908321800,2.02832177734375,9.642939567565918,1.7824808359146118,0.08283071964979172
1750854077927146500,2.047146484375,9.643254280090332,1.7810288667678833,0.07725740969181061
1750854077945971000,2.065970947265625,9.643857955932617,1.7779620885849,0.07232138514518738
1750854077964795600,2.084795654296875,9.644715309143066,1.7735027074813843,0.0673975944519043
1750854077983620000,2.1036201171875,9.645185470581055,1.7710731029510498,0.06399370729923248
1750854078002444800,2.12244482421875,9.645951271057129,1.7668222188949585,0.06601659208536148
1750854078021269200,2.141269287109375,9.647540092468262,1.7579597234725952,0.07030335068702698
1750854078040094000,2.160093994140625,9.649490356445312,1.7470836639404297,0.07354531437158585
1750854078058918700,2.178918701171875,9.651121139526367,1.7380025386810303,0.07474716752767563
1750854078077743000,2.1977431640625,9.651939392089844,1.7334022521972656,0.07585533708333969
1750854078096567800,2.21656787109375,9.652420043945312,1.7307672500610352,0.07491669803857803
1750854078115392300,2.235392333984375,9.653166770935059,1.7266334295272827,0.07409579306840897
1750854078134217000,2.254217041015625,9.654372215270996,1.719822645187378,0.0755353718996048
1750854078153041400,2.27304150390625,9.65601634979248,1.7105520963668823,0.07577653974294662
1750854078171866000,2.2918662109375,9.657363891601562,1.702792763710022,0.07875827699899673
1750854078190690600,2.310690673828125,9.65813159942627,1.698195219039917,0.08381278067827225
1750854078209515300,2.329515380859375,9.658316612243652,1.6969321966171265,0.0879286676645279
1750854078228339700,2.348339599609375,9.658401489257812,1.6963030099868774,0.09072136133909225
1750854078247164400,2.367164306640625,9.658462524414062,1.695923924446106,0.09126724302768707
1750854078265988900,2.38598876953125,9.658474922180176,1.6959582567214966,0.08936338871717453
1750854078284813600,2.4048134765625,9.658137321472168,1.6977342367172241,0.09207667410373688
1750854078303638000,2.423637939453125,9.657613754272461,1.7005048990249634,0.09569914638996124
1750854078322462700,2.442462646484375,9.657132148742676,1.702895164489746,0.1017281636595726
1750854078341287200,2.461287109375,9.65753173828125,1.7000571489334106,0.11075785011053085
1750854078360111900,2.48011181640625,9.658427238464355,1.6944907903671265,0.11773977428674698
1750854078378936300,2.498936279296875,9.659370422363281,1.6890473365783691,0.11861767619848251
1750854078397761000,2.517760986328125,9.659295082092285,1.6899983882904053,0.11093660444021225
1750854078416585500,2.53658544921875,9.658205032348633,1.6969916820526123,0.09832747280597687
1750854078435410200,2.55541015625,9.657941818237305,1.6990506649017334,0.08824386447668076
1750854078454234600,2.574234619140625,9.660001754760742,1.687626600265503,0.08170460164546967
1750854078473059300,2.593059326171875,9.66390609741211,1.6652488708496094,0.07919884473085403
1750854078491883800,2.6118837890625,9.667366027832031,1.6450741291046143,0.07833021134138107
1750854078510708500,2.63070849609375,9.668878555297852,1.6362851858139038,0.07583045959472656
1750854078529533000,2.649532958984375,9.669185638427734,1.6344953775405884,0.07526110857725143
1750854078548357600,2.668357666015625,9.669414520263672,1.632837176322937,0.08158616721630096
1750854078567182000,2.68718212890625,9.670649528503418,1.6254289150238037,0.08321140706539154
1750854078586006800,2.7060068359375,9.672883987426758,1.6123528480529785,0.07765820622444153
1750854078604831200,2.724831298828125,9.674980163574219,1.6002154350280762,0.06671330332756042
1750854078623656000,2.743656005859375,9.67567253112793,1.5965756177902222,0.05188800394535065
1750854078642480400,2.76248046875,9.674971580505371,1.601414442062378,0.028052229434251785
1750854078661305000,2.78130517578125,9.673604965209961,1.609875202178955,-0.0062495130114257336
1750854078680129500,2.800129638671875,9.672320365905762,1.6170995235443115,-0.04006728157401085
1750854078698954200,2.818954345703125,9.671733856201172,1.6196951866149902,-0.06747022271156311
1750854078717778700,2.83777880859375,9.673014640808105,1.6110858917236328,-0.08701616525650024
1750854078736603400,2.856603271484375,9.67595100402832,1.593065619468689,-0.09215332567691803
1750854078755427800,2.875427734375,9.678016662597656,1.5809993743896484,-0.08268747478723526
1750854078774252500,2.89425244140625,9.678092002868652,1.5814687013626099,-0.062225859612226486
1750854078793077000,2.913076904296875,9.676558494567871,1.5917325019836426,-0.0315660685300827
1750854078811901700,2.931901611328125,9.675395011901855,1.5990585088729858,0.01136795338243246
1750854078830726100,2.95072607421875,9.675541877746582,1.597118616104126,0.059171516448259354
1750854078849550800,2.96955078125,9.676981925964355,1.586429476737976,0.09822665899991989
1750854078868375300,2.988375244140625,9.678852081298828,1.5722627639770508,0.13481777906417847
1750854078887200000,3.007199951171875,9.67983341217041,1.5611759424209595,0.18425190448760986
1750854078906024400,3.0260244140625,9.68049144744873,1.5498852729797363,0.2373572736978531
1750854078924849200,3.04484912109375,9.68061637878418,1.5427110195159912,0.2758634686470032
1750854078943673600,3.063673583984375,9.67947769165039,1.543987512588501,0.3069024682044983
1750854078962498300,3.082498291015625,9.679576873779297,1.5358906984329224,0.3423870801925659
1750854078981322800,3.10132275390625,9.68397331237793,1.503675937652588,0.3605620563030243
1750854079000147500,3.1201474609375,9.69250774383545,1.4463104009628296,0.3658924102783203
1750854079018972000,3.138971923828125,9.702973365783691,1.3746180534362793,0.3648662269115448
1750854079037796600,3.157796630859375,9.711727142333984,1.314630389213562,0.3528362810611725
1750854079056621000,3.17662109375,9.718396186828613,1.272264838218689,0.3232611417770386
1750854079075445800,3.19544580078125,9.724348068237305,1.2373182773590088,0.2765530049800873
1750854079094270200,3.214270263671875,9.730635643005371,1.1999560594558716,0.2126866728067398
1750854079113095000,3.233094970703125,9.73797607421875,1.151308536529541,0.1292431354522705
1750854079131919400,3.25191943359375,9.744990348815918,1.0973786115646362,0.03618421033024788
1750854079150744000,3.270744140625,9.750139236450195,1.0505696535110474,-0.038406625390052795
1750854079169568500,3.289568603515625,9.752120018005371,1.0292810201644897,-0.08437218517065048
1750854079188393200,3.308393310546875,9.750831604003906,1.039128303527832,-0.10903759300708771
1750854079207217700,3.3272177734375,9.747979164123535,1.0642768144607544,-0.12093587219715118
1750854079226042400,3.34604248046875,9.745326042175293,1.0877212285995483,-0.12597478926181793
1750854079244866800,3.36486669921875,9.743329048156738,1.1030097007751465,-0.14596246182918549
1750854079263691500,3.38369140625,9.740864753723145,1.1217477321624756,-0.16620370745658875
1750854079282516000,3.402515869140625,9.736764907836914,1.1563293933868408,-0.16935540735721588
1750854079301340700,3.421340576171875,9.73105525970459,1.2040855884552002,-0.16476772725582123
1750854079320165000,3.4401650390625,9.724143981933594,1.2586605548858643,-0.16487465798854828
1750854079338989800,3.45898974609375,9.718071937561035,1.3068469762802124,-0.14698992669582367
1750854079357814300,3.477814208984375,9.716864585876465,1.3198652267456055,-0.10439720004796982
1750854079376638700,3.496638671875,9.720884323120117,1.2929883003234863,-0.05454328656196594
1750854079395463400,3.51546337890625,9.726341247558594,1.2524616718292236,-0.004810592159628868
1750854079414288100,3.5342880859375,9.729039192199707,1.2300915718078613,0.05528279021382332
1750854079433112600,3.553112548828125,9.728120803833008,1.2308070659637451,0.1384451687335968
1750854079451937000,3.57193701171875,9.726235389709473,1.2306820154190063,0.23699234426021576
1750854079470761700,3.59076171875,9.72620964050293,1.2127912044525146,0.3168126046657562
1750854079489586200,3.609586181640625,9.728235244750977,1.1835309267044067,0.3620475232601166
1750854079508411000,3.628410888671875,9.731182098388672,1.1569044589996338,0.36883386969566345
1750854079527235300,3.6472353515625,9.733498573303223,1.145687222480774,0.3417681157588959
1750854079546060000,3.66606005859375,9.733522415161133,1.1563928127288818,0.30277684330940247
1750854079564884500,3.684884521484375,9.732665061950684,1.1731553077697754,0.26326918601989746
1750854079583709200,3.703709228515625,9.732815742492676,1.1775569915771484,0.2367282658815384
1750854079602533600,3.72253369140625,9.735358238220215,1.15839684009552,0.22648954391479492
1750854079621358300,3.7413583984375,9.739544868469238,1.1240410804748535,0.2195436805486679
1750854079640182800,3.760182861328125,9.742005348205566,1.1033855676651,0.21505369246006012
1750854079659007500,3.779007568359375,9.741581916809082,1.1051563024520874,0.22493618726730347
1750854079677832000,3.79783203125,9.739862442016602,1.1157599687576294,0.24603915214538574
1750854079696656600,3.81665673828125,9.740089416503906,1.1079834699630737,0.2709203362464905
1750854079715481000,3.835481201171875,9.743858337402344,1.0708426237106323,0.28446826338768005
1750854079734305800,3.854305908203125,9.748330116271973,1.030363917350769,0.28069189190864563
1750854079753130200,3.873130126953125,9.750603675842285,1.0109610557556152,0.2721675932407379
1750854079771955000,3.891954833984375,9.75,1.0150928497314453,0.27833715081214905
1750854079790779400,3.910779296875,9.748270034790039,1.026942491531372,0.29495784640312195
1750854079809603800,3.929603759765625,9.748541831970215,1.0205148458480835,0.30798450112342834
1750854079828428500,3.948428466796875,9.752623558044434,0.9822269082069397,0.30321937799453735
1750854079847253000,3.9672529296875,9.7576265335083,0.9362102150917053,0.2874240577220917
1750854079866077700,3.98607763671875,9.759810447692871,0.9168037176132202,0.27562543749809265
1750854079884902100,4.004902099609375,9.759465217590332,0.9227572679519653,0.26786065101623535
1750854079903726800,4.023726806640625,9.7581148147583,0.945431649684906,0.23608331382274628
1750854079922551300,4.04255126953125,9.756510734558105,0.9682121872901917,0.20844539999961853
1750854079941376000,4.0613759765625,9.754559516906738,0.9898862838745117,0.19768399000167847
1750854079960200400,4.080200439453125,9.75166130065918,1.0202120542526245,0.18616268038749695
1750854079979025200,4.099025146484375,9.747795104980469,1.0600528717041016,0.16478857398033142
1750854079997849600,4.117849609375,9.743338584899902,1.1036325693130493,0.14046229422092438
1750854080016674300,4.13667431640625,9.739962577819824,1.1355355978012085,0.11867190152406693
1750854080035498800,4.155498779296875,9.738564491271973,1.1492165327072144,0.10028181970119476
1750854080054323200,4.1743232421875,9.737105369567871,1.1614961624145508,0.10045385360717773
1750854080073148000,4.19314794921875,9.733481407165527,1.1894375085830688,0.12230485677719116
1750854080091972600,4.21197265625,9.72811508178711,1.2292735576629639,0.15186454355716705
1750854080110797000,4.230797119140625,9.72330379486084,1.2633576393127441,0.1779925376176834
1750854080129621500,4.24962158203125,9.72039794921875,1.281641960144043,0.2040518969297409
1750854080148446200,4.2684462890625,9.718660354614258,1.289445400238037,0.23528899252414703
1750854080167270700,4.287270751953125,9.716752052307129,1.2959669828414917,0.2749669849872589
1750854080186095400,4.306095458984375,9.714385986328125,1.3036701679229736,0.3186104893684387
1750854080204919800,4.324919921875,9.710709571838379,1.318577527999878,0.36586278676986694
1750854080223744500,4.34374462890625,9.706034660339355,1.339955449104309,0.4096425175666809
1750854080242569000,4.36256884765625,9.702567100524902,1.355327844619751,0.4400732219219208
1750854080261393700,4.3813935546875,9.703583717346191,1.3488054275512695,0.4376969039440155
1750854080280218000,4.400218017578125,9.708795547485352,1.3213920593261719,0.4044634699821472
1750854080299042800,4.419042724609375,9.715291976928711,1.284541368484497,0.365292489528656
1750854080317867300,4.4378671875,9.721161842346191,1.2506604194641113,0.32438981533050537
1750854080336692000,4.45669189453125,9.72547435760498,1.2262721061706543,0.2859986126422882
1750854080355516400,4.475516357421875,9.728178024291992,1.211360216140747,0.25602975487709045
1750854080374340900,4.4943408203125,9.73169231414795,1.1873297691345215,0.23408621549606323
1750854080393165600,4.51316552734375,9.738288879394531,1.1383801698684692,0.20048926770687103
1750854080411990000,4.531989990234375,9.745888710021973,1.078876256942749,0.15510915219783783
1750854080430814700,4.550814697265625,9.751983642578125,1.0266422033309937,0.12328466773033142
1750854080449639200,4.56963916015625,9.75584602355957,0.9901071190834045,0.11639149487018585
1750854080468463900,4.5884638671875,9.759029388427734,0.9559038877487183,0.1341194361448288
1750854080487288300,4.607288330078125,9.764073371887207,0.8985428214073181,0.16089844703674316
1750854080506113000,4.626113037109375,9.771764755249023,0.8081138134002686,0.17303718626499176
1750854080524937500,4.6449375,9.779664993286133,0.7081282138824463,0.16464461386203766
1750854080543762200,4.66376220703125,9.784467697143555,0.6372753381729126,0.16869813203811646
1750854080562586600,4.682586669921875,9.785922050476074,0.6116727590560913,0.1787755936384201
1750854080581411000,4.7014111328125,9.784913063049316,0.6280389428138733,0.1772814244031906
1750854080600235800,4.72023583984375,9.782293319702148,0.6687664985656738,0.17287716269493103
1750854080619060200,4.739060302734375,9.77891731262207,0.7169830799102783,0.17057962715625763
1750854080637885000,4.757885009765625,9.775070190429688,0.7651621103286743,0.18142332136631012
1750854080656709400,4.77670947265625,9.76969051361084,0.8274496793746948,0.19716739654541016
1750854080675534000,4.7955341796875,9.761213302612305,0.9143784642219543,0.23025034368038177
1750854080694358500,4.814358642578125,9.751368522644043,1.0045381784439087,0.26851704716682434
1750854080713183200,4.833183349609375,9.743243217468262,1.070510983467102,0.30595698952674866
1750854080732007700,4.852007568359375,9.737879753112793,1.1045606136322021,0.35218527913093567
1750854080750832000,4.87083203125,9.73465347290039,1.1137070655822754,0.4081483483314514
1750854080769656800,4.88965673828125,9.732869148254395,1.1038882732391357,0.47229960560798645
1750854080788481300,4.908481201171875,9.732961654663086,1.0772409439086914,0.5285723209381104
1750854080807306000,4.927305908203125,9.735556602478027,1.0307230949401855,0.5717813968658447
1750854080826130400,4.94613037109375,9.739572525024414,0.9766413569450378,0.5977333784103394
1750854080844955100,4.964955078125,9.744524002075195,0.9254390001296997,0.5984992384910583
1750854080863779600,4.983779541015625,9.749422073364258,0.8786740303039551,0.589126467704773
1750854080882604300,5.002604248046875,9.753722190856934,0.8363792300224304,0.5794475078582764
1750854080901428700,5.0214287109375,9.758101463317871,0.7971175909042358,0.5607520937919617
1750854080920253400,5.04025341796875,9.762645721435547,0.7642417550086975,0.5263817310333252
1750854080939078000,5.059077880859375,9.767635345458984,0.7440685629844666,0.4583175778388977
1750854080957902300,5.07790234375,9.772007942199707,0.7397014498710632,0.362073689699173
1750854080976727000,5.09672705078125,9.77493667602539,0.7482773661613464,0.2471502274274826
1750854080995551500,5.115551513671875,9.775376319885254,0.7711302042007446,0.133311465382576
1750854081014376200,5.134376220703125,9.773292541503906,0.8072935342788696,0.03771940991282463
1750854081033200600,5.15320068359375,9.768145561218262,0.8657535314559937,-0.06467927992343903
1750854081052025300,5.172025390625,9.759913444519043,0.9424192309379578,-0.16225838661193848
1750854081070849800,5.190849853515625,9.751932144165039,1.0099345445632935,-0.22415822744369507
1750854081089674200,5.20967431640625,9.747929573059082,1.0417715311050415,-0.2509472668170929
1750854081108499000,5.2284990234375,9.747859954833984,1.0425556898117065,-0.2503626346588135
1750854081127323400,5.247323486328125,9.749783515930176,1.027415156364441,-0.23773525655269623
1750854081146148000,5.266148193359375,9.752163887023926,1.009658694267273,-0.21510446071624756
1750854081164972500,5.28497265625,9.753523826599121,0.9993424415588379,-0.2011842280626297
1750854081183797200,5.30379736328125,9.753022193908691,1.0039116144180298,-0.20273852348327637
1750854081202621700,5.32262158203125,9.751424789428711,1.0162559747695923,-0.2175409197807312
1750854081221446400,5.3414462890625,9.749250411987305,1.0335988998413086,-0.23276402056217194
1750854081240270800,5.360270751953125,9.747946739196777,1.047163486480713,-0.2266532927751541
1750854081259095300,5.37909521484375,9.747347831726074,1.0556975603103638,-0.21234075725078583
1750854081277920000,5.397919921875,9.746968269348145,1.060497760772705,-0.20578274130821228
1750854081296744400,5.416744384765625,9.746612548828125,1.0655665397644043,-0.1962021291255951
1750854081315569200,5.435569091796875,9.745476722717285,1.081514596939087,-0.16250884532928467
1750854081334393600,5.4543935546875,9.742691993713379,1.1123394966125488,-0.1141728013753891
1750854081353218300,5.47321826171875,9.73839282989502,1.1528373956680298,-0.07116634398698807
1750854081372042800,5.492042724609375,9.734554290771484,1.186664342880249,-0.025856999680399895
1750854081390867500,5.510867431640625,9.732282638549805,1.2049853801727295,0.03275323659181595
1750854081409692000,5.52969189453125,9.732041358947754,1.2030993700027466,0.10149840265512466
1750854081428516400,5.548516357421875,9.732139587402344,1.1939113140106201,0.1744612753391266
1750854081447341000,5.567341064453125,9.730944633483887,1.1920055150985718,0.24132001399993896
1750854081466165500,5.58616552734375,9.728767395019531,1.1983833312988281,0.29213643074035645
1750854081484990200,5.604990234375,9.727154731750488,1.2068748474121094,0.3103048801422119
1750854081503814700,5.623814697265625,9.727078437805176,1.2053927183151245,0.31836485862731934
1750854081522639400,5.642639404296875,9.729020118713379,1.1860005855560303,0.33160871267318726
1750854081541463800,5.6614638671875,9.732522964477539,1.1569077968597412,0.33155640959739685
1750854081560288300,5.680288330078125,9.735871315002441,1.1320582628250122,0.3188059628009796
1750854081579113000,5.699113037109375,9.738631248474121,1.1143854856491089,0.29596903920173645
1750854081597937400,5.7179375,9.74174976348877,1.0941147804260254,0.2676348090171814
1750854081616762000,5.73676220703125,9.745984077453613,1.0671507120132446,0.21762903034687042
1750854081635586600,5.755586669921875,9.75136661529541,1.0324410200119019,0.12369941174983978
1750854081654411300,5.774411376953125,9.755764961242676,0.9976610541343689,0.00965005625039339
1750854081673235700,5.793235595703125,9.758183479309082,0.9703384637832642,-0.08186107873916626
1750854081692060400,5.812060302734375,9.759525299072266,0.9510205984115601,-0.1326427310705185
1750854081710884900,5.830884765625,9.761640548706055,0.9259670972824097,-0.15282955765724182
1750854081729709300,5.849709228515625,9.766494750976562,0.8716764450073242,-0.16167382895946503
1750854081748534000,5.868533935546875,9.774091720581055,0.7775273323059082,-0.18160903453826904
1750854081767358500,5.8873583984375,9.781684875488281,0.6688157916069031,-0.20421764254570007
1750854081786183200,5.90618310546875,9.78685188293457,0.5805663466453552,-0.22552867233753204
1750854081805007600,5.925007568359375,9.788040161132812,0.5433658957481384,-0.2634643316268921
1750854081823832300,5.943832275390625,9.785659790039062,0.5668489336967468,-0.2998851537704468
1750854081842656800,5.96265673828125,9.781782150268555,0.6240580081939697,-0.3125353157520294
1750854081861481500,5.9814814453125,9.779255867004395,0.6630891561508179,-0.31121957302093506
1750854081880306000,6.000305908203125,9.778560638427734,0.6755637526512146,-0.30619457364082336
1750854081899130400,6.01913037109375,9.778044700622559,0.6879287362098694,-0.29493921995162964
1750854081917955000,6.037955078125,9.774894714355469,0.7357767820358276,-0.283662885427475
1750854081936779500,6.056779541015625,9.766021728515625,0.8490680456161499,-0.27258792519569397
1750854081955604200,6.075604248046875,9.750883102416992,1.012408971786499,-0.2563275694847107
1750854081974428700,6.0944287109375,9.737506866455078,1.1405975818634033,-0.22449658811092377
1750854081993253400,6.11325341796875,9.733613967895508,1.1809301376342773,-0.18041175603866577
1750854082012077800,6.132077880859375,9.73853588104248,1.1465705633163452,-0.1291753351688385
1750854082030902300,6.15090234375,9.74520492553711,1.094314694404602,-0.062014512717723846
1750854082049727000,6.16972705078125,9.749114036560059,1.060672402381897,0.012187549844384193
1750854082068551400,6.188551513671875,9.74987506866455,1.0508517026901245,0.07765126973390579
1750854082087376100,6.207376220703125,9.748618125915527,1.0559942722320557,0.14040470123291016
1750854082106200600,6.22620068359375,9.74759292602539,1.0551679134368896,0.203574538230896
1750854082125025000,6.24502490234375,9.748854637145996,1.0326915979385376,0.25251510739326477
1750854082143849700,6.263849609375,9.752591133117676,0.9902362823486328,0.2771022319793701
1750854082162674200,6.282674072265625,9.757360458374023,0.9397612810134888,0.28489774465560913
1750854082181499000,6.301498779296875,9.762104988098145,0.8914514780044556,0.2775210738182068
1750854082200323300,6.3203232421875,9.765862464904785,0.8566047549247742,0.25405824184417725
1750854082219148000,6.33914794921875,9.768144607543945,0.8403016328811646,0.21824400126934052
1750854082237972500,6.357972412109375,9.768856048583984,0.840896487236023,0.18096014857292175
1750854082256797200,6.376797119140625,9.767723083496094,0.8611322045326233,0.1429564207792282
1750854082275621600,6.39562158203125,9.764511108398438,0.9016502499580383,0.10835597664117813
1750854082294446000,6.414446044921875,9.761299133300781,0.9397253394126892,0.0659809485077858
1750854082313270800,6.433270751953125,9.759519577026367,0.9601525664329529,0.01608436554670334
1750854082332095200,6.45209521484375,9.760273933410645,0.9521611928939819,-0.028962302953004837
1750854082350920000,6.470919921875,9.762673377990723,0.9248015284538269,-0.0731138288974762
1750854082369744400,6.489744384765625,9.763385772705078,0.9131941795349121,-0.11304479837417603
1750854082388568800,6.50856884765625,9.75993537902832,0.9432525634765625,-0.15598860383033752
1750854082407393500,6.5273935546875,9.75270938873291,1.0060842037200928,-0.20695848762989044
1750854082426218200,6.54621826171875,9.745870590209961,1.064979910850525,-0.23288045823574066
1750854082445042700,6.565042724609375,9.743908882141113,1.0848448276519775,-0.22301654517650604
1750854082463867100,6.5838671875,9.747198104858398,1.0606075525283813,-0.193949356675148
1750854082482691800,6.60269189453125,9.753938674926758,1.0030301809310913,-0.15808898210525513
1750854082501516300,6.621516357421875,9.760348320007324,0.9429537057876587,-0.12974052131175995
1750854082520341000,6.640341064453125,9.76258659362793,0.9209793210029602,-0.11869023740291595
1750854082539165400,6.65916552734375,9.76031494140625,0.9452714920043945,-0.11443369090557098
1750854082557990000,6.677989990234375,9.755009651184082,1.0002261400222778,-0.09856253117322922
1750854082576814600,6.696814697265625,9.750035285949707,1.0495234727859497,-0.07554575800895691
1750854082595639000,6.71563916015625,9.747729301452637,1.0714528560638428,-0.06450922787189484
1750854082614463700,6.734463623046875,9.747096061706543,1.0774916410446167,-0.059372879564762115
1750854082633288200,6.7532880859375,9.746377944946289,1.0848153829574585,-0.04090272635221481
1750854082652112600,6.772112548828125,9.74525260925293,1.095536231994629,0.015453445725142956
1750854082670937300,6.790937255859375,9.7450590133667,1.0928419828414917,0.09959080070257187
1750854082689761800,6.80976171875,9.746953010559082,1.0628070831298828,0.1942707747220993
1750854082708586500,6.82858642578125,9.75084114074707,1.0076076984405518,0.27604949474334717
1750854082727411000,6.847410888671875,9.754981994628906,0.9475786089897156,0.3358818590641022
1750854082746235600,6.866235595703125,9.758235931396484,0.8981851935386658,0.3748173117637634
1750854082765060000,6.88506005859375,9.760601043701172,0.8634946942329407,0.39425867795944214
1750854082783884800,6.903884765625,9.760845184326172,0.8530475497245789,0.4106031060218811
1750854082802709200,6.922709228515625,9.757619857788086,0.8743716478347778,0.4412579834461212
1750854082821533700,6.94153369140625,9.752562522888184,0.9231670498847961,0.4535280466079712
1750854082840358400,6.9603583984375,9.747838020324707,0.9883195161819458,0.4162467420101166
1750854082859182800,6.979182861328125,9.743403434753418,1.0533267259597778,0.35634180903434753
1750854082878007600,6.998007568359375,9.738510131835938,1.1163358688354492,0.29255762696266174
1750854082896832000,7.01683203125,9.733548164367676,1.170517086982727,0.24150899052619934
1750854082915656400,7.035656494140625,9.7303466796875,1.2052958011627197,0.1949441283941269
1750854082934481200,7.054481201171875,9.730250358581543,1.2133796215057373,0.14260157942771912
1750854082953305600,7.0733056640625,9.733366012573242,1.194511890411377,0.07157976180315018
1750854082972130300,7.09213037109375,9.738247871398926,1.1559945344924927,-0.02449803799390793
1750854082990954800,7.110954833984375,9.743257522583008,1.1076483726501465,-0.11152233928442001
1750854083009779200,7.129779296875,9.747925758361816,1.0576465129852295,-0.17242035269737244
1750854083028604000,7.14860400390625,9.751564025878906,1.017973780632019,-0.20275840163230896
1750854083047428400,7.167428466796875,9.754448890686035,0.98663729429245,-0.21826843917369843
1750854083066253000,7.186253173828125,9.756689071655273,0.9560471177101135,-0.25171181559562683
1750854083085077500,7.205077392578125,9.7581148147583,0.9294390082359314,-0.2928013205528259
1750854083103902000,7.22390185546875,9.758545875549316,0.9153921008110046,-0.3212953805923462
1750854083122726700,7.2427265625,9.757641792297363,0.9200827479362488,-0.3350600302219391
1750854083141551000,7.261551025390625,9.754228591918945,0.951798677444458,-0.3456583023071289
1750854083160375800,7.280375732421875,9.748647689819336,1.008808970451355,-0.34140780568122864
1750854083179200300,7.2992001953125,9.742851257324219,1.0706132650375366,-0.31785085797309875
1750854083198025000,7.31802490234375,9.739660263061523,1.106339931488037,-0.2922467887401581
1750854083216849400,7.336849365234375,9.739439964294434,1.1201432943344116,-0.24280641973018646
1750854083235673900,7.355673828125,9.740046501159668,1.1308989524841309,-0.1514577567577362
1750854083254498600,7.37449853515625,9.740964889526367,1.131856918334961,-0.0537356361746788
1750854083273323000,7.393322998046875,9.743072509765625,1.114644169807434,0.022533198818564415
1750854083292147700,7.412147705078125,9.747137069702148,1.0758631229400635,0.07882873713970184
1750854083310972200,7.43097216796875,9.751725196838379,1.0302097797393799,0.11358990520238876
1750854083329796900,7.449796875,9.754145622253418,1.0027618408203125,0.14663590490818024
1750854083348621300,7.468621337890625,9.754627227783203,0.9936495423316956,0.17406654357910156
1750854083367445800,7.48744580078125,9.755045890808105,0.9851498603820801,0.19732026755809784
1750854083386270500,7.5062705078125,9.756205558776855,0.9677971005439758,0.22407840192317963
1750854083405095000,7.525094970703125,9.75766372680664,0.9501150846481323,0.23590072989463806
1750854083423919600,7.543919677734375,9.75831127166748,0.9442256093025208,0.23280344903469086
1750854083442744000,7.562744140625,9.757719039916992,0.9480941891670227,0.24171237647533417
1750854083461568500,7.581568603515625,9.756424903869629,0.9547305703163147,0.26654335856437683
1750854083480393200,7.600393310546875,9.755744934082031,0.9542502164840698,0.29196715354919434
1750854083499217700,7.6192177734375,9.757392883300781,0.9313423037528992,0.3102911114692688
1750854083518042400,7.63804248046875,9.761699676513672,0.8830275535583496,0.31602028012275696
1750854083536866800,7.65686669921875,9.765992164611816,0.8342427015304565,0.3159542381763458
1750854083555691500,7.67569140625,9.76763916015625,0.8154800534248352,0.31398749351501465
1750854083574516000,7.694515869140625,9.765871047973633,0.8445530533790588,0.29137226939201355
1750854083593340400,7.71334033203125,9.758784294128418,0.9278059005737305,0.27512669563293457
1750854083612165000,7.7321650390625,9.74941635131836,1.01800537109375,0.28795477747917175
1750854083630989600,7.750989501953125,9.745824813842773,1.0468103885650635,0.3057578206062317
1750854083649814300,7.769814208984375,9.751106262207031,0.9942315220832825,0.31274479627609253
1750854083668638700,7.788638671875,9.759921073913574,0.9096957445144653,0.29457277059555054
1750854083687463200,7.807463134765625,9.765924453735352,0.8592963814735413,0.2423449456691742
1750854083706287900,7.826287841796875,9.765871047973633,0.8725640177726746,0.19177766144275665
1750854083725112300,7.8451123046875,9.761541366577148,0.9240984916687012,0.16955627501010895
1750854083743937000,7.86393701171875,9.757341384887695,0.9687702655792236,0.16175372898578644
1750854083762761500,7.882761474609375,9.755416870117188,0.9908490180969238,0.14300431311130524
1750854083781586000,7.9015859375,9.753373146057129,1.0138386487960815,0.11922766268253326
1750854083800410600,7.92041064453125,9.74771499633789,1.0687308311462402,0.10114233195781708
1750854083819235000,7.939235107421875,9.736166954040527,1.169429898262024,0.0993589535355568
1750854083838059800,7.958059814453125,9.720919609069824,1.2888243198394775,0.11416447907686234
1750854083856884200,7.97688427734375,9.706971168518066,1.3871408700942993,0.14465336501598358
1750854083875708700,7.995708740234375,9.701009750366211,1.4236098527908325,0.18471579253673553
1750854083894533400,8.014533447265626,9.705329895019531,1.3901320695877075,0.2109256237745285
1750854083913357800,8.03335791015625,9.71725845336914,1.3059238195419312,0.19961565732955933
1750854083932182500,8.0521826171875,9.731260299682617,1.2049014568328857,0.14552514255046844
1750854083951007000,8.071007080078125,9.741323471069336,1.1279430389404297,0.06895921379327774
1750854083969831700,8.089831787109375,9.744596481323242,1.1013479232788086,0.015462561510503292
1750854083988656000,8.10865625,9.741528511047363,1.1282762289047241,-0.0009724565898068249
1750854084007480600,8.12748046875,9.735684394836426,1.1776180267333984,0.0078913988545537
1750854084026305300,8.14630517578125,9.732501983642578,1.2034095525741577,0.024089114740490913
1750854084045129700,8.165129638671875,9.734620094299316,1.1858986616134644,0.0348365418612957
1750854084063954200,8.1839541015625,9.741528511047363,1.1274093389511108,0.04439908638596535
1750854084082779000,8.20277880859375,9.750530242919922,1.0461971759796143,0.05474254488945007
1750854084101603300,8.221603271484375,9.758399963378906,0.9696252942085266,0.06200559437274933
1750854084120428000,8.240427978515624,9.763440132141113,0.9177215099334717,0.0583612434566021
1750854084139252500,8.25925244140625,9.766502380371094,0.8853214979171753,0.04486123472452164
1750854084158077000,8.278076904296874,9.768829345703125,0.8598498106002808,0.03198825940489769
1750854084176901600,8.296901611328124,9.772151947021484,0.8202899098396301,0.05053615942597389
1750854084195726000,8.31572607421875,9.77768611907959,0.7475121021270752,0.09199075400829315
1750854084214550800,8.33455078125,9.784418106079102,0.6504759192466736,0.11150988191366196
1750854084233375200,8.353375244140626,9.790292739868164,0.5560858845710754,0.10640741884708405
1750854084252199700,8.37219970703125,9.79395866394043,0.4920523762702942,0.08161050826311111
1750854084271024400,8.3910244140625,9.794891357421875,0.47712382674217224,0.05335819348692894
1750854084289848800,8.409848876953125,9.79352855682373,0.5067200064659119,0.020350323989987373
1750854084308673500,8.428673583984375,9.790992736816406,0.5536406636238098,-0.01767132617533207
1750854084327498000,8.447498046875,9.789379119873047,0.5785563588142395,-0.060974203050136566
1750854084346322400,8.466322509765625,9.789188385009766,0.5758876204490662,-0.10270003229379654
1750854084365147100,8.485147216796875,9.789841651916504,0.5624532103538513,-0.11418627947568893
1750854084383971600,8.5039716796875,9.790264129638672,0.5583205819129944,-0.09690458327531815
1750854084402796300,8.52279638671875,9.789139747619629,0.5819108486175537,-0.06715914607048035
1750854084421620700,8.541620849609375,9.784927368164062,0.6512303352355957,-0.0385255366563797
1750854084440445200,8.560445068359375,9.776094436645508,0.7735020518302917,-0.006863722112029791
1750854084459270000,8.579269775390625,9.764509201049805,0.9063553810119629,0.05716044828295708
1750854084478094300,8.59809423828125,9.75467586517334,0.9955196976661682,0.1600884199142456
1750854084496919000,8.6169189453125,9.75040054321289,1.0143556594848633,0.2667246162891388
1750854084515743500,8.635743408203124,9.751130104064941,0.9807624816894531,0.3520900309085846
1750854084534568000,8.65456787109375,9.75388240814209,0.9204936027526855,0.42995378375053406
1750854084553392600,8.673392578125,9.756021499633789,0.8485493063926697,0.5200146436691284
1750854084572217000,8.692217041015626,9.756919860839844,0.7765192985534668,0.608214259147644
1750854084591041800,8.711041748046876,9.756446838378906,0.7212834358215332,0.6796162724494934
1750854084609866200,8.7298662109375,9.755997657775879,0.6897988319396973,0.7176921963691711
1750854084628690700,8.748690673828126,9.758284568786621,0.6678221225738525,0.7073041796684265
1750854084647515400,8.767515380859376,9.763151168823242,0.6400875449180603,0.6644846796989441
1750854084666339800,8.78633984375,9.767813682556152,0.6096808314323425,0.6232799291610718
1750854084685164500,8.80516455078125,9.770818710327148,0.589021623134613,0.5954293012619019
1750854084703989000,8.823989013671875,9.773348808288574,0.5807315707206726,0.5610664486885071
1750854084722813400,8.8428134765625,9.776298522949219,0.5791667103767395,0.5088674426078796
1750854084741638100,8.86163818359375,9.7789306640625,0.5799991488456726,0.4544289708137512
1750854084760462600,8.880462646484375,9.780487060546875,0.5872945785522461,0.4093044698238373
1750854084779287300,8.899287353515625,9.780571937561035,0.5958468317985535,0.3946647644042969
1750854084798111700,8.91811181640625,9.779306411743164,0.6071358323097229,0.40857648849487305
1750854084816936200,8.936936279296875,9.778009414672852,0.62171870470047,0.41758090257644653
1750854084835761000,8.955760986328125,9.77684211730957,0.6347336769104004,0.42526349425315857
1750854084854585300,8.97458544921875,9.774738311767578,0.6513221859931946,0.44794946908950806
1750854084873409800,8.993409912109374,9.773032188415527,0.6712772846221924,0.4556388854980469
1750854084892234500,9.012234375,9.7731294631958,0.676307201385498,0.4460194408893585
1750854084911059000,9.031058837890624,9.775547981262207,0.6590747833251953,0.417927086353302
1750854084929883600,9.049883544921874,9.778694152832031,0.6312392354011536,0.3860771656036377
1750854084948708000,9.0687080078125,9.781203269958496,0.6049060225486755,0.3640623390674591
1750854084967532500,9.087532470703126,9.783242225646973,0.5948578715324402,0.32358667254447937
1750854084986357200,9.106357177734376,9.784463882446289,0.6004529595375061,0.27221035957336426
1750854085005181700,9.125181640625,9.78462028503418,0.6113854646682739,0.24040840566158295
1750854085024006400,9.14400634765625,9.783978462219238,0.6206439137458801,0.24281053245067596
1750854085042830800,9.162830810546875,9.783026695251465,0.6293306350708008,0.258267879486084
1750854085061655300,9.1816552734375,9.7813081741333,0.642907977104187,0.28819403052330017
1750854085080480000,9.20047998046875,9.778914451599121,0.6545438170433044,0.3388340473175049
1750854085108716800,9.228716796875,9.775712013244629,0.6442843079566956,0.4367247521877289
1750854085127541200,9.247541259765624,9.77386474609375,0.6215217709541321,0.5056261420249939
1750854085146366000,9.266365966796876,9.771571159362793,0.5974751114845276,0.5742978453636169
1750854085165190400,9.2851904296875,9.771530151367188,0.560708224773407,0.6108953952789307
1750854085184014800,9.304014892578126,9.772476196289062,0.5154303312301636,0.6351597905158997
1750854085202839600,9.322839599609376,9.772737503051758,0.4822848439216614,0.6567970514297485
1750854085221664000,9.3416640625,9.773308753967285,0.47516223788261414,0.6534998416900635
1750854085240488700,9.36048876953125,9.77414608001709,0.4875302016735077,0.6314806342124939
1750854085259313200,9.379313232421875,9.775059700012207,0.4999542236328125,0.6071621179580688
1750854085278137600,9.3981376953125,9.776689529418945,0.4950399100780487,0.5845301151275635
1750854085296962300,9.41696240234375,9.780746459960938,0.4538540542125702,0.5490002036094666
1750854085315786800,9.435786865234375,9.785538673400879,0.39438751339912415,0.5080088376998901
1750854085334611500,9.454611572265625,9.788113594055176,0.35363271832466125,0.4880255460739136
1750854085353436000,9.473435791015625,9.788376808166504,0.3493993282318115,0.48577332496643066
1750854085372260400,9.49226025390625,9.787347793579102,0.37730273604393005,0.48564818501472473
1750854085391085000,9.5110849609375,9.785563468933105,0.4290449917316437,0.4785970449447632
1750854085409909500,9.529909423828125,9.78333854675293,0.5039921402931213,0.4501931071281433
1750854085428734000,9.54873388671875,9.781119346618652,0.5877760648727417,0.39319923520088196
1750854085447558700,9.56755859375,9.778858184814453,0.6610914468765259,0.32754650712013245
1750854085466383000,9.586383056640624,9.776976585388184,0.7194659113883972,0.25194716453552246
1750854085485207800,9.605207763671874,9.775076866149902,0.7717287540435791,0.15071380138397217
1750854085504032300,9.6240322265625,9.771961212158203,0.8224890232086182,0.05165626481175423
1750854085522856700,9.642856689453126,9.768511772155762,0.8632166981697083,-0.03790700435638428
1750854085541681400,9.661681396484376,9.767252922058105,0.8706085085868835,-0.11487825214862823
1750854085560505900,9.680505859375,9.769179344177246,0.8399766087532043,-0.16721273958683014
1750854085579330300,9.699330322265626,9.773550033569336,0.7862420678138733,-0.17300665378570557
1750854085598155000,9.718155029296875,9.777634620666504,0.7347248792648315,-0.1686200350522995
1750854085616979500,9.7369794921875,9.778209686279297,0.7221633195877075,-0.18835806846618652
1750854085635804200,9.75580419921875,9.774650573730469,0.7631179690361023,-0.2103222906589508
1750854085654628600,9.774628662109375,9.768985748291016,0.8338380455970764,-0.20498354732990265
1750854085673453000,9.793453125,9.761673927307129,0.9225866794586182,-0.17004559934139252
1750854085692277800,9.81227783203125,9.752367973327637,1.0244990587234497,-0.11002199351787567
1750854085711102200,9.831102294921875,9.742384910583496,1.1202527284622192,-0.0369112491607666
1750854085729927000,9.849927001953125,9.734965324401855,1.182906150817871,0.03980272263288498
1750854085748751400,9.86875146484375,9.731876373291016,1.201998233795166,0.1272295117378235
1750854085767575800,9.887575927734375,9.731794357299805,1.1843091249465942,0.24488522112369537
1750854085786400500,9.906400390625,9.732720375061035,1.1421350240707397,0.3742731511592865
1750854085805225000,9.925224853515624,9.734586715698242,1.084154725074768,0.482510507106781
1750854085824049400,9.94404931640625,9.737298011779785,1.0193616151809692,0.5624231100082397
1750854085842874000,9.9628740234375,9.741113662719727,0.9599319696426392,0.599680483341217
1750854085861698600,9.981698486328124,9.744728088378906,0.9148331880569458,0.6113446354866028
1750854085880523300,10.000523193359374,9.746103286743164,0.8872940540313721,0.6297346949577332
1750854085899347700,10.01934765625,9.748106956481934,0.860149621963501,0.6363567113876343
1750854085918172200,10.038172119140626,9.752754211425781,0.8224620819091797,0.6145851016044617
1750854085936996900,10.056996826171876,9.757807731628418,0.7810873985290527,0.5877816081047058
1750854085955821300,10.0758212890625,9.761957168579102,0.7473450303077698,0.5622004270553589
1750854085974645800,10.094645751953125,9.766057968139648,0.7214607000350952,0.5234569311141968
1750854085993470500,10.113470458984375,9.769953727722168,0.7042348980903625,0.47164368629455566
1750854086012295000,10.132294921875,9.77221393585205,0.701557993888855,0.42664575576782227
1750854086031119600,10.15111962890625,9.772135734558105,0.7190327644348145,0.3984256386756897
1750854086049944000,10.169944091796875,9.77134895324707,0.7468840479850769,0.36510351300239563
1750854086068768500,10.1887685546875,9.770994186401367,0.7721163630485535,0.3192124366760254
1750854086087593200,10.20759326171875,9.77156925201416,0.7829008102416992,0.2718193233013153
1750854086106417700,10.226417724609375,9.773397445678711,0.7692193984985352,0.24369235336780548
1750854086125242000,10.2452421875,9.777161598205566,0.7226045727729797,0.23524652421474457
1750854086144066800,10.26406689453125,9.782648086547852,0.647512674331665,0.22561930119991302
1750854086162891300,10.282891357421875,9.788434982299805,0.5621249675750732,0.2023230940103531
1750854086181716000,10.301716064453124,9.792121887207031,0.5100849270820618,0.15663139522075653
1750854086200540400,10.32054052734375,9.791951179504395,0.5296822190284729,0.08672667294740677
1750854086219364900,10.33936474609375,9.7869234085083,0.6216931939125061,-0.0022523892112076283
1750854086238189600,10.358189453125,9.779296875,0.7264243960380554,-0.08963557332754135
1750854086257014000,10.377013916015626,9.773992538452148,0.7856799960136414,-0.14889192581176758
1750854086275838500,10.39583837890625,9.772958755493164,0.7914453148841858,-0.1824534386396408
1750854086294663200,10.4146630859375,9.772851943969727,0.7912540435791016,-0.18888238072395325
1750854086313487600,10.433487548828126,9.771322250366211,0.817305326461792,-0.153787299990654
1750854086332312300,10.452312255859376,9.768245697021484,0.8641740679740906,-0.07044640928506851
1750854086351136800,10.47113671875,9.764607429504395,0.9062567949295044,0.03913502395153046
1750854086369961200,10.489961181640625,9.76050090789795,0.9366260170936584,0.16047558188438416
1750854086388786000,10.508785888671875,9.75485610961914,0.9677714109420776,0.27673470973968506
1750854086407610400,10.5276103515625,9.750712394714355,0.9812756776809692,0.36206284165382385
1750854086426434800,10.546434814453125,9.749847412109375,0.9634531140327454,0.42735588550567627
1750854086445259500,10.565259521484375,9.750903129577637,0.9254268407821655,0.48359790444374084
1750854086464084000,10.584083984375,9.751768112182617,0.8908398747444153,0.5289676785469055
1750854086482908700,10.60290869140625,9.750749588012695,0.8778154850006104,0.5680667757987976
1750854086501733000,10.621733154296875,9.747292518615723,0.8775721192359924,0.6249290704727173
1750854086520557600,10.6405576171875,9.744318962097168,0.8579400777816772,0.6946795582771301
1750854086539382300,10.65938232421875,9.744490623474121,0.813626766204834,0.7438437342643738
1750854086558206700,10.678206787109374,9.747342109680176,0.765474259853363,0.757470428943634
1750854086577031200,10.69703125,9.752195358276367,0.7334184050559998,0.7260740995407104
1750854086595856000,10.71585595703125,9.757314682006836,0.7153340578079224,0.6734075546264648
1750854086614680300,10.734680419921874,9.761372566223145,0.706440806388855,0.62203449010849
1750854086633505000,10.753505126953126,9.76413345336914,0.7047055959701538,0.5791921019554138
1750854086652329500,10.77232958984375,9.765918731689453,0.7020713686943054,0.5516452193260193
1750854086671154000,10.79115380859375,9.76736831665039,0.6927673816680908,0.5375838875770569
1750854086689978600,10.809978515625,9.768795013427734,0.6807851195335388,0.5268468856811523
1750854086708803000,10.828802978515625,9.769757270812988,0.6758827567100525,0.5151840448379517
1750854086727627500,10.84762744140625,9.770246505737305,0.6807790994644165,0.49919450283050537
1750854086746452200,10.8664521484375,9.770301818847656,0.6912529468536377,0.48347949981689453
1750854086765276700,10.885276611328125,9.770848274230957,0.7052976489067078,0.4510672092437744
1750854086784101000,10.90410107421875,9.772905349731445,0.723243236541748,0.3709770441055298
1750854086802925800,10.92292578125,9.774078369140625,0.7509797811508179,0.2716803550720215
1750854086821750300,10.941750244140625,9.773601531982422,0.7833585739135742,0.18291246891021729
1750854086840575000,10.960574951171875,9.772890090942383,0.8057546615600586,0.10848125070333481
1750854086859399400,10.9793994140625,9.772428512573242,0.8172486424446106,0.04630240797996521
1750854086878224000,10.998223876953125,9.77204704284668,0.8230792880058289,-0.004742278717458248
1750854086897048600,11.017048583984375,9.771971702575684,0.8235428333282471,-0.02712211385369301
1750854086915873000,11.035873046875,9.77226448059082,0.8202700614929199,-0.01969863288104534
1750854086934697500,11.054697509765624,9.771746635437012,0.8265992403030396,0.0090176435187459
1750854086953522200,11.073522216796874,9.769425392150879,0.8506067991256714,0.07198863476514816
1750854086972346600,11.0923466796875,9.765314102172852,0.8819407224655151,0.1766323745250702
1750854086991171000,11.111171142578126,9.759428024291992,0.9144389629364014,0.29624244570732117
1750854087009995800,11.129995849609376,9.753149032592773,0.9455736875534058,0.39032483100891113
1750854087028820200,11.1488203125,9.748445510864258,0.9613325595855713,0.4626408815383911
1750854087047645000,11.16764501953125,9.747017860412598,0.9432372450828552,0.5256751775741577
1750854087066469400,11.186469482421876,9.74893569946289,0.8787810802459717,0.5969753265380859
1750854087085293800,11.2052939453125,9.753551483154297,0.7670892477035522,0.6709702014923096
1750854087104118500,11.224118408203125,9.759099960327148,0.6341899633407593,0.7267436981201172
1750854087122943000,11.24294287109375,9.763856887817383,0.5245976448059082,0.7498716115951538
1750854087141767400,11.261767333984375,9.767409324645996,0.46795743703842163,0.741020679473877
1750854087160592100,11.280592041015625,9.768614768981934,0.472511887550354,0.722004771232605
1750854087179416600,11.29941650390625,9.766397476196289,0.5231530666351318,0.717073380947113
1750854087198241300,11.3182412109375,9.763081550598145,0.5869801640510559,0.7127951979637146
1750854087217065700,11.337065673828125,9.76250171661377,0.6266075968742371,0.6865172386169434
1750854087235890200,11.35589013671875,9.764932632446289,0.6390001177787781,0.6388753056526184
1750854087254715000,11.37471484375,9.767916679382324,0.6457226276397705,0.5841503143310547
1750854087273539300,11.393539306640625,9.769143104553223,0.6702775955200195,0.5338068604469299
1750854087292363800,11.41236376953125,9.768013000488281,0.7193699479103088,0.4886861741542816
1750854087311188500,11.4311884765625,9.766597747802734,0.7728259563446045,0.43207818269729614
1750854087330013000,11.450012939453124,9.766237258911133,0.8132671117782593,0.36000752449035645
1750854087348837400,11.46883740234375,9.767640113830566,0.8254780173301697,0.2866654396057129
1750854087367662000,11.487662109375,9.770687103271484,0.8123612403869629,0.2100919783115387
1750854087386486500,11.506486572265626,9.773504257202148,0.7965503931045532,0.12041555345058441
1750854087405311200,11.525311279296876,9.77457046508789,0.7921135425567627,0.026625091210007668
1750854087424135700,11.5441357421875,9.773375511169434,0.805151104927063,-0.05693334341049194
1750854087442960100,11.562960205078125,9.770606994628906,0.8276592493057251,-0.1435852199792862
1750854087461784800,11.581784912109375,9.766666412353516,0.8520199060440063,-0.23807969689369202
1750854087480609300,11.600609375,9.763031959533691,0.8690476417541504,-0.313597708940506
1750854087499433700,11.619433837890625,9.762171745300293,0.8698461651802063,-0.33728253841400146
1750854087518258400,11.638258544921875,9.76392936706543,0.8576677441596985,-0.3169752061367035
1750854087537083000,11.657082763671875,9.766218185424805,0.8498550653457642,-0.26291126012802124
1750854087555907300,11.6759072265625,9.766613006591797,0.8657163977622986,-0.1848951280117035
1750854087574732000,11.69473193359375,9.764167785644531,0.9057278037071228,-0.10518099367618561
1750854087593556500,11.713556396484375,9.759037971496582,0.9648364186286926,-0.025892863050103188
1750854087612381200,11.732381103515625,9.75277328491211,1.023281216621399,0.08184093236923218
1750854087631205600,11.75120556640625,9.74759292602539,1.0559903383255005,0.19927020370960236
1750854087650030000,11.770030029296874,9.744199752807617,1.0651110410690308,0.2941019535064697
1750854087668854800,11.788854736328124,9.739253044128418,1.0807307958602905,0.3864530920982361
1750854087687679200,11.80767919921875,9.72795295715332,1.1280441284179688,0.5146307349205017
1750854087706503700,11.826503662109374,9.71094799041748,1.1911593675613403,0.6700954437255859
1750854087725328400,11.845328369140624,9.695430755615234,1.2348695993423462,0.8025598526000977
1750854087744152800,11.86415283203125,9.688403129577637,1.2379978895187378,0.8789678812026978
1750854087762977300,11.882977294921876,9.691040992736816,1.193090796470642,0.9114012122154236
1750854087781802000,11.901802001953126,9.697457313537598,1.1178719997406006,0.9381264448165894
1750854087800626400,11.92062646484375,9.70531940460205,1.0196574926376343,0.9682248830795288
1750854087819451000,11.939450927734375,9.713386535644531,0.9083425402641296,0.9977121949195862
1750854087838275300,11.958275390625,9.721506118774414,0.8061350584030151,1.0064070224761963
1750854087857099800,11.977099853515625,9.72946548461914,0.7282357215881348,0.9887160062789917
1750854087875924500,11.995924560546875,9.735357284545898,0.689776599407196,0.9578179121017456
1750854087894749000,12.0147490234375,9.73797607421875,0.6862809658050537,0.9333946704864502
1750854087913573400,12.033573486328125,9.741913795471191,0.6889294981956482,0.8893172740936279
1750854087932398000,12.052398193359375,9.747396469116211,0.6704624891281128,0.8420952558517456
1750854087951222500,12.071222412109375,9.752419471740723,0.6281442642211914,0.8161652088165283
1750854087970047000,12.090046875,9.755720138549805,0.5862835049629211,0.8078253269195557
1750854087988871700,12.10887158203125,9.757269859313965,0.5741457343101501,0.7977550625801086
1750854088007696100,12.127696044921874,9.76057243347168,0.5776649713516235,0.753598153591156
1750854088026520600,12.1465205078125,9.767931938171387,0.5621337294578552,0.6647531390190125
1750854088045345300,12.16534521484375,9.776135444641113,0.5178406238555908,0.5739353895187378
1750854088064169700,12.184169677734374,9.784693717956543,0.4607992470264435,0.46672406792640686
1750854088082994200,12.202994140625,9.79233455657959,0.43151819705963135,0.30719131231307983
1750854088101819000,12.22181884765625,9.795120239257812,0.4653030037879944,0.09753048419952393
1750854088120643300,12.240643310546876,9.790631294250488,0.544022262096405,-0.13402123749256134
1750854088139467800,12.2594677734375,9.781206130981445,0.6150103807449341,-0.34662407636642456
1750854088158292500,12.27829248046875,9.772558212280273,0.6510252952575684,-0.4936150312423706
1750854088177117000,12.297116943359375,9.768840789794922,0.6573700308799744,-0.5549662709236145
1750854088195941600,12.315941650390625,9.770880699157715,0.6476329565048218,-0.5299534797668457
1750854088214766000,12.33476611328125,9.7748441696167,0.6439471244812012,-0.456229567527771
1750854088233590500,12.353590576171875,9.775912284851074,0.6791128516197205,-0.3751433491706848
1750854088252415200,12.372415283203125,9.769728660583496,0.7936059832572937,-0.30493074655532837
1750854088271239700,12.39123974609375,9.755707740783691,0.9806137681007385,-0.1869163066148758
1750854088290064100,12.410064208984375,9.736008644104004,1.1744674444198608,-0.033850036561489105
1750854088308888800,12.428888916015625,9.716428756713867,1.3203147649765015,0.13475888967514038
1750854088327713300,12.44771337890625,9.705294609069824,1.374086856842041,0.2991926372051239
1750854088346537700,12.466537841796875,9.707645416259766,1.319695234298706,0.4363590478897095
1750854088365362400,12.485362548828125,9.717906951904297,1.1974343061447144,0.5466509461402893
1750854088384187000,12.504186767578124,9.72851276397705,1.0540701150894165,0.6444960236549377
1750854088403011300,12.52301123046875,9.733723640441895,0.9243622422218323,0.7553643584251404
1750854088421836000,12.5418359375,9.733109474182129,0.8333712816238403,0.861661434173584
1750854088440660500,12.560660400390624,9.731955528259277,0.7824500799179077,0.920433759689331
1750854088459485200,12.579485107421876,9.734740257263184,0.7533295154571533,0.9152676463127136
1750854088478309600,12.5983095703125,9.738476753234863,0.7375076413154602,0.8880035877227783
1750854088497134000,12.617134033203126,9.741097450256348,0.7317221760749817,0.8637053966522217
1750854088515958800,12.635958740234376,9.745210647583008,0.7343055605888367,0.8136729001998901
1750854088534783200,12.654783203125,9.751734733581543,0.7464985847473145,0.7188851237297058
1750854088553607700,12.673607666015625,9.757688522338867,0.7667038440704346,0.6083269715309143
1750854088572432400,12.692432373046875,9.761760711669922,0.7889973521232605,0.5058534145355225
1750854088591256800,12.7112568359375,9.764875411987305,0.8058561682701111,0.41011425852775574
1750854088610081300,12.730081298828125,9.768192291259766,0.8109093308448792,0.308615118265152
1750854088628906000,12.748906005859375,9.772316932678223,0.7932688593864441,0.20719273388385773
1750854088647730400,12.76773046875,9.77813720703125,0.7351682186126709,0.13398143649101257
1750854088666555000,12.786554931640625,9.785473823547363,0.6394647359848022,0.07730653882026672
1750854088685379600,12.805379638671875,9.7919340133667,0.5369672179222107,0.00955002848058939
1750854088713616400,12.833616455078126,9.794283866882324,0.47114062309265137,-0.14287850260734558
1750854088732440800,12.85244091796875,9.789750099182129,0.4959959387779236,-0.2918268144130707
1750854088751265300,12.871265380859375,9.781468391418457,0.5476109981536865,-0.43975186347961426
1750854088770090000,12.890090087890625,9.773153305053711,0.5909444689750671,-0.5537461638450623
1750854088788914400,12.90891455078125,9.768219947814941,0.6066442728042603,-0.6198775172233582
1750854088807739000,12.92773876953125,9.76778793334961,0.5912504196166992,-0.6411870121955872
1750854088826563600,12.9465634765625,9.769451141357422,0.5752204060554504,-0.6303521990776062
1750854088845388000,12.965387939453125,9.771119117736816,0.5861750841140747,-0.5933135151863098
1750854088864212700,12.984212646484375,9.771783828735352,0.6380378603935242,-0.5249095559120178
1750854088883037200,13.003037109375,9.770709037780762,0.7302255034446716,-0.4128052890300751
1750854088901861600,13.021861572265625,9.76759147644043,0.8379660844802856,-0.249690979719162
1750854088920686300,13.040686279296875,9.76323127746582,0.9197847843170166,-0.0606253556907177
1750854088939510800,13.0595107421875,9.758459091186523,0.9642280340194702,0.11465056240558624
1750854088958335200,13.078335205078124,9.752439498901367,0.9897583723068237,0.2840922176837921
1750854088977160000,13.097159912109374,9.742536544799805,1.0123705863952637,0.47799551486968994
1750854088995984400,13.115984375,9.729171752929688,1.0144803524017334,0.6960172057151794
1750854089014808800,13.134808837890626,9.717161178588867,0.984260082244873,0.882265031337738
1750854089033633500,13.153633544921876,9.70792293548584,0.9434247612953186,1.0181244611740112
1750854089052458000,13.1724580078125,9.698771476745605,0.916104257106781,1.1247103214263916
1750854089071282400,13.191282470703126,9.688862800598145,0.895069420337677,1.2227736711502075
1750854089090107100,13.210107177734375,9.686314582824707,0.8578210473060608,1.2687898874282837
1750854089108931600,13.228931640625,9.695891380310059,0.8091773390769958,1.2269082069396973
1750854089127756000,13.247756103515625,9.710942268371582,0.7918897271156311,1.1139549016952515
1750854089146580700,13.266580810546875,9.72596263885498,0.8146296143531799,0.9552052021026611
1750854089165405200,13.2854052734375,9.739620208740234,0.8472860455513,0.7695986032485962
1750854089184230000,13.30422998046875,9.751521110534668,0.8662244081497192,0.572611927986145
1750854089203054300,13.323054443359375,9.760066986083984,0.8684808611869812,0.3965241611003876
1750854089221878800,13.341878662109375,9.766118049621582,0.8563068509101868,0.2450767308473587
1750854089240703500,13.360703369140625,9.77070140838623,0.8314723372459412,0.11152547597885132
1750854089259528000,13.37952783203125,9.774165153503418,0.7971851229667664,-0.02384599670767784
1750854089278352400,13.398352294921875,9.775676727294922,0.7639151215553284,-0.1515687108039856
1750854089297176800,13.4171767578125,9.775666236877441,0.7375624179840088,-0.250471830368042
1750854089316001500,13.43600146484375,9.775754928588867,0.7116079330444336,-0.3140239715576172
1750854089334826000,13.454825927734374,9.777960777282715,0.6741586327552795,-0.32769760489463806
1750854089353650400,13.473650390625,9.78203010559082,0.6235453486442566,-0.30573770403862
1750854089372475100,13.49247509765625,9.787881851196289,0.5385921001434326,-0.2787078022956848
1750854089391299600,13.511299560546876,9.792914390563965,0.43268704414367676,-0.28634926676750183
1750854089410124300,13.530124267578126,9.794580459594727,0.35930055379867554,-0.3278355300426483
1750854089428948700,13.54894873046875,9.792607307434082,0.3573991656303406,-0.38405337929725647
1750854089447773200,13.567773193359375,9.787102699279785,0.41957879066467285,-0.454935759305954
1750854089466598000,13.586597900390625,9.778756141662598,0.5091975927352905,-0.535750687122345
1750854089485422300,13.60542236328125,9.769254684448242,0.613408088684082,-0.5964638590812683
1750854089504246800,13.624246826171875,9.758283615112305,0.7391019463539124,-0.6324649453163147
1750854089523071500,13.643071533203125,9.744359970092773,0.8862646222114563,-0.6575577855110168
1750854089541896000,13.66189599609375,9.731112480163574,1.0221120119094849,-0.6566036939620972
1750854089560720400,13.680720458984375,9.72274112701416,1.113558292388916,-0.6314185261726379
1750854089579545000,13.699545166015625,9.719962120056152,1.1556075811386108,-0.597741961479187
1750854089598369500,13.71836962890625,9.720978736877441,1.1666724681854248,-0.5584170818328857
1750854089617194000,13.737194091796875,9.72361946105957,1.165397047996521,-0.5132845640182495
1750854089636018700,13.756018798828125,9.728453636169434,1.1447622776031494,-0.46594059467315674
1750854089654843100,13.774843017578124,9.737147331237793,1.0895806550979614,-0.413729190826416
1750854089673667600,13.79366748046875,9.748812675476074,1.0095301866531372,-0.3345097303390503
1750854089692492300,13.8124921875,9.759781837463379,0.9257752895355225,-0.24491554498672485
1750854089711316700,13.831316650390624,9.766435623168945,0.8658877015113831,-0.19331085681915283
1750854089730141200,13.85014111328125,9.768627166748047,0.8454412817955017,-0.17187471687793732
1750854089748966000,13.8689658203125,9.768340110778809,0.8518377542495728,-0.15589025616645813
1750854089767790300,13.887790283203126,9.767719268798828,0.8589087128639221,-0.15592145919799805
1750854089786614800,13.90661474609375,9.767574310302734,0.8554611206054688,-0.18189196288585663
1750854089805439500,13.925439453125,9.76754093170166,0.849700391292572,-0.20864737033843994
1750854089824264000,13.944263916015625,9.768542289733887,0.8385125398635864,-0.20703263580799103
1750854089843088600,13.963088623046875,9.771738052368164,0.8083051443099976,-0.1737096607685089
1750854089861913000,13.9819130859375,9.77624797821045,0.7623660564422607,-0.11906243115663528
1750854089880737500,14.000737548828125,9.78016185760498,0.7177655100822449,-0.060346003621816635
1750854089899562200,14.019562255859375,9.783059120178223,0.679796576499939,0.005156307946890593
1750854089918386700,14.03838671875,9.784801483154297,0.6517555117607117,0.05706251412630081
1750854089937211100,14.057211181640625,9.785124778747559,0.6454368233680725,0.07168319821357727
1750854089956035600,14.07603564453125,9.783856391906738,0.6647712588310242,0.06786821037530899
1750854089974860300,14.0948603515625,9.783387184143066,0.6719748973846436,0.06455698609352112
1750854089993684700,14.113684814453125,9.785614013671875,0.6381382346153259,0.07014891505241394
1750854090012509200,14.13250927734375,9.7885103225708,0.5911121368408203,0.07768278568983078
1750854090031334000,14.151333984375,9.789067268371582,0.5827825665473938,0.07003238052129745
1750854090050158300,14.170158447265624,9.785675048828125,0.6399334073066711,0.03783530369400978
1750854090068982800,14.188982666015624,9.778870582580566,0.7376229166984558,-0.0016780891455709934
1750854090087807500,14.207807373046874,9.770424842834473,0.8418431878089905,-0.022066624835133553
1750854090106632000,14.2266318359375,9.761038780212402,0.9445915818214417,-0.016065480187535286
1750854090125456400,14.245456298828126,9.750711441040039,1.0459486246109009,-0.0033368768636137247
1750854090144281000,14.264281005859376,9.741789817810059,1.1260218620300293,-0.0007867275271564722
1750854090163105500,14.28310546875,9.737189292907715,1.1651173830032349,-0.006855606101453304
1750854090181930200,14.30193017578125,9.736933708190918,1.167178988456726,-0.014449132606387138
1750854090200754700,14.320754638671875,9.738869667053223,1.1509672403335571,-0.009534028358757496
1750854090219579100,14.3395791015625,9.741460800170898,1.1284451484680176,0.030840294435620308
1750854090238403800,14.35840380859375,9.746025085449219,1.0870555639266968,0.06086070090532303
1750854090257228300,14.377228271484375,9.751681327819824,1.0357542037963867,0.04799284785985947
1750854090276052700,14.396052734375,9.755523681640625,0.9997972249984741,0.023485025390982628
1750854090294877400,14.41487744140625,9.756738662719727,0.9879974126815796,0.017205918207764626
1750854090313702000,14.433701904296875,9.755892753601074,0.996273934841156,0.019288601353764534
1750854090332526300,14.4525263671875,9.753619194030762,1.0184078216552734,0.01135143730789423
1750854090351351000,14.47135107421875,9.752476692199707,1.0293365716934204,-0.007125653326511383
1750854090370175500,14.490175537109375,9.754576683044434,1.0089565515518188,-0.024892745539546013
1750854090389000000,14.509,9.759260177612305,0.962620735168457,-0.02423555962741375
1750854090407824400,14.527824462890624,9.764988899230957,0.9027121663093567,-0.02241537906229496
1750854090426649000,14.546649169921874,9.769775390625,0.8486698269844055,-0.040291447192430496
1750854090445473500,14.5654736328125,9.772542953491211,0.814092755317688,-0.07093425840139389
1750854090464298000,14.584298095703126,9.773303985595703,0.800584077835083,-0.10952430963516235
1750854090483122700,14.603122802734376,9.772736549377441,0.7976728081703186,-0.1664634346961975
1750854090501947100,14.621947021484376,9.771797180175781,0.7944563627243042,-0.22627989947795868
1750854090520771600,14.640771484375,9.772156715393066,0.7723265886306763,-0.28078797459602356
1750854090539596300,14.65959619140625,9.773763656616211,0.7169075012207031,-0.360531747341156
1750854090558420700,14.678420654296875,9.775042533874512,0.650173544883728,-0.44295722246170044
1750854090577245400,14.697245361328125,9.777276039123535,0.5831968188285828,-0.4849230945110321
1750854090596070000,14.71606982421875,9.781670570373535,0.5077128410339355,-0.4811764061450958
1750854090614894300,14.734894287109375,9.786395072937012,0.4324568808078766,-0.4580943286418915
1750854090633719000,14.753718994140625,9.788532257080078,0.39816153049468994,-0.44326040148735046
1750854090652543500,14.77254345703125,9.785660743713379,0.44024521112442017,-0.46628475189208984
1750854090671368000,14.791367919921875,9.778254508972168,0.5411652326583862,-0.513100802898407
1750854090690192600,14.810192626953125,9.768526077270508,0.6633518934249878,-0.5534105896949768
1750854090709017000,14.82901708984375,9.758062362670898,0.7965639233589172,-0.5622287392616272
1750854090727841500,14.847841552734375,9.744281768798828,0.9543951153755188,-0.555414080619812
1750854090746666200,14.866666259765625,9.72666072845459,1.122052550315857,-0.5508649945259094
1750854090765490700,14.88549072265625,9.708999633789062,1.269046425819397,-0.5433598756790161
1750854090784315100,14.904315185546874,9.694168090820312,1.3847672939300537,-0.5252692699432373
1750854090803139800,14.923139892578124,9.684992790222168,1.4607341289520264,-0.4873896837234497
1750854090821964300,14.94196435546875,9.684122085571289,1.4846984148025513,-0.42876774072647095
1750854090840788700,14.960788818359376,9.689506530761719,1.4647479057312012,-0.37196028232574463
1750854090859613200,14.97961328125,9.696940422058105,1.4264730215072632,-0.3239052891731262
1750854090878438000,14.99843798828125,9.70565128326416,1.3752338886260986,-0.28184643387794495
1750854090897262300,15.017262451171876,9.717792510986328,1.2949929237365723,-0.24060018360614777
1750854090916086800,15.036086669921875,9.733298301696777,1.1807085275650024,-0.19801636040210724
1750854090934911500,15.054911376953125,9.750186920166016,1.0399106740951538,-0.1511574685573578
1750854090953736000,15.07373583984375,9.765670776367188,0.8900726437568665,-0.09903862327337265
1750854090972560400,15.092560302734375,9.777297019958496,0.7570044994354248,-0.042346205562353134
1750854090991385000,15.111385009765625,9.784953117370605,0.6517013311386108,0.01918349787592888
1750854091010209500,15.13020947265625,9.790513038635254,0.5558608770370483,0.08519012480974197
1750854091029034000,15.149033935546875,9.794683456420898,0.4623919427394867,0.14408448338508606
1750854091047858700,15.167858642578125,9.796891212463379,0.38911110162734985,0.19972330331802368
1750854091066683100,15.18668310546875,9.796578407287598,0.35067829489707947,0.2728802561759949
1750854091085507600,15.205507568359375,9.793911933898926,0.3494540750980377,0.3571590185165405
1750854091104332300,15.224332275390625,9.789933204650879,0.3779754340648651,0.42979520559310913
1750854091123156700,15.24315673828125,9.786157608032227,0.43010690808296204,0.46531441807746887
1750854091141981200,15.261981201171874,9.782939910888672,0.4967341125011444,0.4666178524494171
1750854091160806000,15.280805908203124,9.779243469238281,0.5593926906585693,0.47313398122787476
1750854091179630300,15.29963037109375,9.776618003845215,0.6120476722717285,0.4620814025402069
1750854091198454800,15.318454833984376,9.77564525604248,0.6588258147239685,0.4160566031932831
1750854091217279500,15.337279541015626,9.775120735168457,0.7115771770477295,0.3332776725292206
1750854091236104000,15.35610400390625,9.774803161621094,0.7549194693565369,0.23175854980945587
1750854091254928400,15.374928466796876,9.774286270141602,0.78593510389328,0.12659934163093567
1750854091273753000,15.393753173828125,9.772860527038574,0.8119410276412964,0.04838060960173607
1750854091292577500,15.41257763671875,9.771504402160645,0.8291548490524292,0.024341201409697533
1750854091311402000,15.431402099609375,9.770044326782227,0.8438942432403564,0.06674376875162125
1750854091330226700,15.450226806640625,9.765113830566406,0.8893027901649475,0.14854693412780762
1750854091349051100,15.469051025390625,9.752469062805176,1.0025886297225952,0.23351463675498962
1750854091367875600,15.48787548828125,9.730389595031738,1.1790521144866943,0.31581440567970276
1750854091396112400,15.5161123046875,9.693147659301758,1.4332373142242432,0.3988754451274872
1750854091414936800,15.534936767578126,9.679178237915039,1.5098098516464233,0.4520869255065918
1750854091433761500,15.553761474609376,9.677663803100586,1.5023401975631714,0.5061479806900024
1750854091452586000,15.5725859375,9.685790061950684,1.43197762966156,0.5525192618370056
1750854091471410700,15.59141064453125,9.70075511932373,1.3098984956741333,0.5915278196334839
1750854091490235100,15.610235107421875,9.717172622680664,1.176705241203308,0.6019236445426941
1750854091509059600,15.6290595703125,9.730588912963867,1.072441816329956,0.5795677304267883
1750854091527884000,15.647884033203125,9.738511085510254,1.0209215879440308,0.5380588173866272
1750854091546708700,15.666708740234375,9.741541862487793,1.0158151388168335,0.4907730221748352
1750854091565533200,15.685533203125,9.742401123046875,1.0239448547363281,0.4555602967739105
1750854091584357600,15.704357666015625,9.744879722595215,1.0112313032150269,0.43024343252182007
1750854091603182300,15.723182373046875,9.749788284301758,0.9689326882362366,0.41614800691604614
1750854091622006800,15.7420068359375,9.755582809448242,0.909613847732544,0.41424593329429626
1750854091640831500,15.76083154296875,9.760892868041992,0.8425055146217346,0.430757611989975
1750854091659656000,15.779656005859374,9.765585899353027,0.7804823517799377,0.44107934832572937
1750854091678480400,15.79848046875,9.768692016601562,0.7465352416038513,0.4309762716293335
1750854091697304800,15.817304931640624,9.77049732208252,0.7436866760253906,0.3933073878288269
1750854091716129500,15.836129638671874,9.772053718566895,0.7407187819480896,0.3587135076522827
1750854091734954000,15.8549541015625,9.774398803710938,0.7156027555465698,0.3455822169780731
1750854091753778400,15.8737783203125,9.778508186340332,0.658510148525238,0.34283313155174255
1750854091772603100,15.89260302734375,9.783797264099121,0.5792168974876404,0.3349778652191162
1750854091791427600,15.911427490234376,9.790619850158691,0.47368887066841125,0.2996080815792084
1750854091810252000,15.930251953125,9.797330856323242,0.35420623421669006,0.23923784494400024
1750854091829076700,15.94907666015625,9.802021026611328,0.24870316684246063,0.17005042731761932
1750854091847901200,15.967901123046875,9.805024147033691,0.16870084404945374,0.058638449758291245
1750854091866725600,15.9867255859375,9.805365562438965,0.14337964355945587,-0.06808899343013763
1750854091885550300,16.00555029296875,9.803885459899902,0.19191473722457886,-0.13185052573680878
1750854091904374800,16.024374755859377,9.800686836242676,0.301553875207901,-0.16119199991226196
1750854091923199200,16.04319921875,9.79438304901123,0.4550867974758148,-0.1825915277004242
1750854091942024000,16.06202392578125,9.783548355102539,0.6475787162780762,-0.18218623101711273
1750854091960848400,16.080848388671875,9.76738452911377,0.8641365170478821,-0.14783184230327606
1750854091979672800,16.0996728515625,9.750611305236816,1.0442179441452026,-0.07472573220729828
1750854091998497500,16.11849755859375,9.740768432617188,1.1347957849502563,-0.007948111742734909
1750854092017322000,16.137322021484376,9.741293907165527,1.130022644996643,0.025292465463280678
1750854092036146400,16.156146484375,9.747735023498535,1.0678377151489258,0.10851238667964935
1750854092054971100,16.17497119140625,9.75284481048584,0.9898926615715027,0.2693067193031311
1750854092073795600,16.193795654296874,9.755800247192383,0.9050084352493286,0.4191912114620209
1750854092092620000,16.2126201171875,9.75986385345459,0.8163319826126099,0.4990558922290802
1750854092111444700,16.23144482421875,9.764183044433594,0.7370097637176514,0.5365892648696899
1750854092130269200,16.250269287109376,9.767106056213379,0.6669613718986511,0.5737526416778564
1750854092149093600,16.26909375,9.769377708435059,0.5868833661079407,0.6206645965576172
1750854092167918000,16.28791796875,9.771212577819824,0.4633360505104065,0.692179799079895
1750854092186742800,16.30674267578125,9.767868995666504,0.30148959159851074,0.8174501061439514
1750854092205567200,16.325567138671875,9.755200386047363,0.14197251200675964,0.9931225776672363
1750854092224391700,16.3443916015625,9.73673152923584,0.007409239653497934,1.1689255237579346
1750854092243216400,16.36321630859375,9.720327377319336,-0.09205799549818039,1.2950457334518433
1750854092262040800,16.382040771484377,9.707792282104492,-0.14211472868919373,1.381654143333435
1750854092280865300,16.400865234375,9.69729995727539,-0.14427314698696136,1.453251600265503
1750854092299690000,16.41968994140625,9.68667984008789,-0.12684719264507294,1.523987889289856
1750854092318514400,16.438514404296875,9.678441047668457,-0.10341759026050568,1.5771719217300415
1750854092337339000,16.4573388671875,9.676614761352539,-0.06150234118103981,1.590509295463562
1750854092356163600,16.47616357421875,9.683277130126953,0.02949356846511364,1.5503751039505005
1750854092374988000,16.494988037109376,9.69196605682373,0.16468945145606995,1.4862921237945557
1750854092393812500,16.5138125,9.705873489379883,0.3108994960784912,1.367384910583496
1750854092412637200,16.53263720703125,9.723149299621582,0.4459952414035797,1.1966005563735962
1750854092431461600,16.551461669921874,9.739232063293457,0.5652840733528137,0.9990984797477722
1750854092450286000,16.5702861328125,9.752554893493652,0.655402421951294,0.792778491973877
1750854092469110800,16.58911083984375,9.762571334838867,0.6910157799720764,0.620555579662323
1750854092487935200,16.607935302734376,9.771352767944336,0.6709243059158325,0.49083125591278076
1750854092506759700,16.626759765625,9.779129028320312,0.6313017010688782,0.3748176693916321
1750854092525584100,16.645584228515624,9.782817840576172,0.6296199560165405,0.2654220163822174
1750854092544408800,16.664408935546874,9.780266761779785,0.688543438911438,0.206592857837677
1750854092563233300,16.6832333984375,9.773457527160645,0.7862967252731323,0.17789140343666077
1750854092582057700,16.7020576171875,9.764891624450684,0.8953281044960022,0.12520959973335266
1750854092600882400,16.72088232421875,9.758293151855469,0.972405195236206,0.022905515506863594
1750854092619707000,16.739706787109377,9.756295204162598,0.9893940091133118,-0.07858210802078247
1750854092638531300,16.75853125,9.759757995605469,0.9485884308815002,-0.13297538459300995
1750854092657356000,16.77735595703125,9.767271041870117,0.8640927076339722,-0.15532724559307098
1750854092676180500,16.796180419921875,9.775958061218262,0.7580447793006897,-0.16249783337116241
1750854092695005000,16.8150048828125,9.782925605773926,0.6650888919830322,-0.14969199895858765
1750854092713829600,16.83382958984375,9.787618637084961,0.5969799757003784,-0.12857258319854736
1750854092732654000,16.852654052734376,9.790810585021973,0.5443164110183716,-0.1189456582069397
1750854092751478500,16.871478515625,9.793354988098145,0.4954833984375,-0.122827909886837
1750854092770303200,16.89030322265625,9.79581069946289,0.439993679523468,-0.13740593194961548
1750854092789127700,16.909127685546874,9.798168182373047,0.3706217408180237,-0.1700516790151596
1750854092807952100,16.9279521484375,9.799884796142578,0.28114137053489685,-0.2315371185541153
1750854092826776800,16.94677685546875,9.79997444152832,0.16179519891738892,-0.3235761821269989
1750854092845601300,16.965601318359376,9.798555374145508,0.022519543766975403,-0.397726833820343
1750854092864425700,16.98442578125,9.799564361572266,-0.09105917811393738,-0.36143097281455994
1750854092883250400,17.00325048828125,9.803285598754883,-0.1305304616689682,-0.22120042145252228
1750854092902075000,17.022074951171874,9.80559253692627,-0.09575030207633972,-0.10755158215761185
1750854092920899300,17.0408994140625,9.806472778320312,-0.0035263642203062773,-0.05876902490854263
1750854092939724000,17.05972412109375,9.805830955505371,0.1154434084892273,-0.052486926317214966
1750854092958548500,17.078548583984375,9.804783821105957,0.17915214598178864,-0.06712301075458527
1750854092977373000,17.097373046875,9.804533004760742,0.17794303596019745,-0.09933192282915115
1750854092996197400,17.116197265625,9.804219245910645,0.15428011119365692,-0.1545243263244629
1750854093015022000,17.13502197265625,9.802865982055664,0.17530162632465363,-0.20851995050907135
1750854093033846500,17.153846435546875,9.800683975219727,0.24691741168498993,-0.23666541278362274
1750854093052671000,17.1726708984375,9.798287391662598,0.3259536921977997,-0.2401926964521408
1750854093071495700,17.19149560546875,9.796278953552246,0.4009999632835388,-0.206179678440094
1750854093090320100,17.210320068359376,9.794243812561035,0.4772469997406006,-0.12414701282978058
1750854093109144600,17.22914453125,9.790567398071289,0.5609499216079712,0.02263324148952961
1750854093127969300,17.24796923828125,9.78358268737793,0.6354258060455322,0.2193651795387268
1750854093146793700,17.266793701171874,9.775586128234863,0.6821454167366028,0.3781179189682007
1750854093165618200,17.2856181640625,9.770492553710938,0.7122638821601868,0.44783473014831543
1750854093184443000,17.30444287109375,9.769577980041504,0.7316311597824097,0.43639838695526123
1750854093203267300,17.323267333984376,9.774177551269531,0.7222951650619507,0.3378402590751648
1750854093222091800,17.342091796875,9.780546188354492,0.6879525184631348,0.19496744871139526
1750854093240916500,17.36091650390625,9.784131050109863,0.6552889347076416,0.10838796198368073
1750854093259741000,17.379740966796874,9.786399841308594,0.6210380792617798,0.10516954958438873
1750854093278565400,17.3985654296875,9.789033889770508,0.5579351782798767,0.1841472089290619
1750854093297389800,17.417389892578125,9.79014778137207,0.4772246778011322,0.3092615306377411
1750854093316214500,17.436214599609375,9.789639472961426,0.3996223211288452,0.41670477390289307
1750854093335039000,17.4550390625,9.790193557739258,0.3425758183002472,0.45293986797332764
1750854093353863400,17.473863525390627,9.792341232299805,0.306262731552124,0.43200793862342834
1750854093372688100,17.492688232421877,9.793682098388672,0.2796727120876312,0.41947314143180847
1750854093391512600,17.5115126953125,9.79258918762207,0.25874924659729004,0.45675352215766907
1750854093410337000,17.5303369140625,9.789881706237793,0.23133622109889984,0.524491012096405
1750854093429161700,17.54916162109375,9.787111282348633,0.19064107537269592,0.5886428952217102
1750854093447986200,17.567986083984376,9.784199714660645,0.14220739901065826,0.6477500796318054
1750854093466810600,17.586810546875,9.782089233398438,0.10704832524061203,0.6853148937225342
1750854093485635300,17.60563525390625,9.78007984161377,0.1049845963716507,0.7137230038642883
1750854093504459800,17.624459716796874,9.778258323669434,0.13652540743350983,0.7330859303474426
1750854093523284200,17.6432841796875,9.778020858764648,0.17618459463119507,0.7277764678001404
1750854093542109000,17.66210888671875,9.779383659362793,0.1907724291086197,0.7054367065429688
1750854093560933400,17.680933349609376,9.781332969665527,0.18403899669647217,0.6797313094139099
1750854093579757800,17.6997578125,9.782166481018066,0.19953608512878418,0.6631655693054199
1750854093598582500,17.71858251953125,9.779096603393555,0.2657274305820465,0.6848689913749695
1750854093617407000,17.737406982421874,9.771997451782227,0.37788286805152893,0.731869101524353
1750854093636231400,17.7562314453125,9.764720916748047,0.4963219165802002,0.7578269839286804
1750854093655056000,17.775055908203125,9.760169982910156,0.6003983020782471,0.7409330010414124
1750854093673880600,17.793880615234375,9.756158828735352,0.6943485736846924,0.7110830545425415
1750854093692705000,17.812705078125,9.751069068908691,0.7749685049057007,0.6974574327468872
1750854093711529500,17.831529541015627,9.746556282043457,0.8332875967025757,0.6932980418205261
1750854093730354200,17.850354248046877,9.743881225585938,0.8713014721870422,0.6840972900390625
1750854093749178600,17.8691787109375,9.743154525756836,0.8945193886756897,0.6642046570777893
1750854093768003000,17.888003173828125,9.74246597290039,0.9172850251197815,0.6428965926170349
1750854093786827800,17.906827880859375,9.740020751953125,0.948015570640564,0.6353409886360168
1750854093805652200,17.92565234375,9.735247611999512,0.9851006865501404,0.6518588066101074
1750854093824476700,17.9444765625,9.72933292388916,1.0243946313858032,0.6790218353271484
1750854093843301400,17.96330126953125,9.724593162536621,1.0571131706237793,0.6965603232383728
1750854093862125800,17.982125732421874,9.721444129943848,1.0848572254180908,0.697847306728363
1750854093880950300,18.0009501953125,9.718050003051758,1.1110519170761108,0.7038862705230713
1750854093899774700,18.019774658203126,9.714478492736816,1.1357417106628418,0.7137160897254944
1750854093918599400,18.038599365234376,9.71307373046875,1.1500505208969116,0.7099114060401917
1750854093937424000,18.057423828125,9.713555335998535,1.1554968357086182,0.6942911744117737
1750854093956248300,18.076248291015624,9.71358871459961,1.1592847108840942,0.6874811053276062
1750854093975073000,18.095072998046874,9.715102195739746,1.1514064073562622,0.6793081164360046
1750854093993897500,18.1138974609375,9.72099494934082,1.1214816570281982,0.6441498398780823
1750854094012722000,18.132721923828125,9.72727108001709,1.0856441259384155,0.6098868250846863
1750854094031546600,18.151546630859375,9.73402214050293,1.0465267896652222,0.5691890120506287
1750854094050371000,18.17037109375,9.744317054748535,0.9979270696640015,0.4720362424850464
1750854094069195500,18.189195556640627,9.754067420959473,0.9679400324821472,0.3027176856994629
1750854094088020200,18.208020263671877,9.756171226501465,0.9874215722084045,0.1117987260222435
1750854094106844700,18.2268447265625,9.75009822845459,1.051155924797058,-0.03237529098987579
1750854094125669000,18.245669189453125,9.743063926696777,1.1111116409301758,-0.09238681942224503
1750854094144493600,18.26449365234375,9.74047565460205,1.1331778764724731,-0.09711496531963348
1750854094163318300,18.283318359375,9.741031646728516,1.1271275281906128,-0.11074188351631165
1750854094182142700,18.302142822265626,9.74010944366455,1.1318985223770142,-0.13950294256210327
1750854094200967200,18.32096728515625,9.735795974731445,1.169382095336914,-0.1312093436717987
1750854094219792000,18.3397919921875,9.731693267822266,1.2081384658813477,-0.07018940895795822
1750854094238616300,18.3586162109375,9.73284912109375,1.2007265090942383,0.017030106857419014
1750854094257440800,18.377440673828126,9.740378379821777,1.1330580711364746,0.10767953842878342
1750854094276265500,18.396265380859376,9.751848220825195,1.0167913436889648,0.1948690116405487
1750854094295090000,18.41508984375,9.764707565307617,0.8664108514785767,0.2649591267108917
1750854094313914400,18.433914306640624,9.778084754943848,0.6915794610977173,0.2848900854587555
1750854094332738800,18.45273876953125,9.788213729858398,0.5329213738441467,0.2779560089111328
1750854094351563500,18.4715634765625,9.793938636779785,0.4102221727371216,0.2843998074531555
1750854094370388000,18.490387939453125,9.796273231506348,0.31249165534973145,0.3252228796482086
1750854094389212400,18.50921240234375,9.796065330505371,0.22580567002296448,0.3955807685852051
1750854094408037000,18.528037109375,9.795368194580078,0.14227190613746643,0.44822654128074646
1750854094426861600,18.546861572265627,9.795453071594238,0.07004331797361374,0.4632326662540436
1750854094445686000,18.56568603515625,9.795178413391113,0.026812730357050896,0.4734567701816559
1750854094464510700,18.5845107421875,9.794658660888672,0.010358380153775215,0.48470166325569153
1750854094483335200,18.603335205078125,9.79409408569336,0.009640134871006012,0.49599453806877136
1750854094502159600,18.62215966796875,9.793380737304688,0.023936521261930466,0.5094180703163147
1750854094520984300,18.640984375,9.791574478149414,0.0634867325425148,0.5398434400558472
1750854094539808800,18.659808837890626,9.786681175231934,0.13271848857402802,0.6112625002861023
1750854094558633200,18.67863330078125,9.778244972229004,0.2350357472896576,0.7078668475151062
1750854094577457700,18.697457763671874,9.76898193359375,0.3619072437286377,0.7787226438522339
1750854094596282400,18.716282470703124,9.763016700744629,0.4936726987361908,0.7811416387557983
1750854094615106800,18.73510693359375,9.75965690612793,0.6262326836585999,0.7261620163917542
1750854094633931300,18.75393115234375,9.754945755004883,0.7638428211212158,0.6541829705238342
1750854094652756000,18.772755859375,9.749460220336914,0.8855338096618652,0.5781250596046448
1750854094671580400,18.791580322265624,9.745580673217773,0.9839129447937012,0.4753504693508148
1750854094690404900,18.81040478515625,9.742941856384277,1.052524447441101,0.3710387051105499
1750854094709229600,18.8292294921875,9.74070930480957,1.1040438413619995,0.2646762728691101
1750854094728054000,18.848053955078125,9.737586975097656,1.1507049798965454,0.16022281348705292
1750854094746878500,18.86687841796875,9.73323917388916,1.195250153541565,0.07629302144050598
1750854094765703200,18.885703125,9.727733612060547,1.241146206855774,0.033789560198783875
1750854094784527600,18.904527587890627,9.722095489501953,1.2838314771652222,0.05498801916837692
1750854094803352000,18.92335205078125,9.71577262878418,1.3259378671646118,0.12665705382823944
1750854094822176800,18.9421767578125,9.706374168395996,1.3808937072753906,0.22321994602680206
1750854094841001200,18.961001220703125,9.695694923400879,1.4399160146713257,0.30087098479270935
1750854094859825700,18.97982568359375,9.691121101379395,1.4686859846115112,0.30908751487731934
1750854094878650000,18.998650146484376,9.698638916015625,1.4299665689468384,0.24897576868534088
1750854094897474800,19.017474853515626,9.71493148803711,1.3266173601150513,0.1748940795660019
1750854094916299300,19.03629931640625,9.731986045837402,1.200131893157959,0.13607868552207947
1750854094935123700,19.055123779296874,9.745160102844238,1.0894442796707153,0.12393669784069061
1750854094953948400,19.073948486328124,9.752817153930664,1.0176620483398438,0.1315479874610901
1750854094972772900,19.09277294921875,9.754517555236816,0.993354856967926,0.18169036507606506
1750854094991597300,19.111597412109376,9.752690315246582,1.0008503198623657,0.23181253671646118
1750854095010422000,19.130422119140626,9.751555442810059,1.0048316717147827,0.26050350069999695
1750854095029246500,19.14924658203125,9.753735542297363,0.9734610915184021,0.2956499457359314
1750854095048071000,19.16807080078125,9.758546829223633,0.9008264541625977,0.3600843548774719
1750854095066895600,19.1868955078125,9.763555526733398,0.7981365919113159,0.4542675018310547
1750854095085720000,19.205719970703125,9.766221046447754,0.6959337592124939,0.5540667772293091
1750854095104544500,19.22454443359375,9.765968322753906,0.6205936074256897,0.6411900520324707
1750854095123369000,19.243368896484377,9.763277053833008,0.5774389505386353,0.7178952693939209
1750854095142193700,19.262193603515627,9.758091926574707,0.5754985213279724,0.7866567969322205
1750854095161018000,19.28101806640625,9.749716758728027,0.6183243989944458,0.8550409078598022
1750854095179842600,19.299842529296875,9.741106033325195,0.6905864477157593,0.8968467116355896
1750854095198667300,19.318667236328125,9.731635093688965,0.7689706683158875,0.9350640177726746
1750854095217491700,19.33749169921875,9.718916893005371,0.8528450727462769,0.9928287267684937
1750854095236316200,19.356316162109376,9.702895164489746,0.9396035671234131,1.0683428049087524
1750854095255140600,19.375140625,9.689440727233887,1.0220229625701904,1.113820195198059
1750854095273965300,19.39396533203125,9.685332298278809,1.106170892715454,1.0682270526885986
1750854095292789800,19.412789794921874,9.685775756835938,1.1980173587799072,0.9596267342567444
1750854095311614200,19.4316142578125,9.686274528503418,1.297685146331787,0.8139373064041138
1750854095330439000,19.45043896484375,9.687983512878418,1.3916449546813965,0.6137595772743225
1750854095349263400,19.469263427734376,9.684782028198242,1.4945313930511475,0.3765200972557068
1750854095368087800,19.488087890625,9.672842979431152,1.6021405458450317,0.19908304512500763
1750854095386912500,19.50691259765625,9.664990425109863,1.6575356721878052,0.1045171469449997
1750854095405737000,19.525737060546874,9.667536735534668,1.6447309255599976,0.0631076917052269
1750854095424561400,19.5445615234375,9.671886444091797,1.6196309328079224,0.042487580329179764
1750854095443385900,19.5633857421875,9.672820091247559,1.61416494846344,0.037626415491104126
1750854095462210600,19.58221044921875,9.67395305633545,1.6072263717651367,0.042948342859745026
1750854095481035000,19.601034912109377,9.678893089294434,1.5772209167480469,0.04240058362483978
1750854095499859500,19.619859375,9.683770179748535,1.5475053787231445,0.014546811580657959
1750854095518684200,19.63868408203125,9.684022903442383,1.545987606048584,0.0019569897558540106
1750854095537508600,19.657508544921875,9.681662559509277,1.5603766441345215,0.03191031143069267
1750854095556333000,19.6763330078125,9.680573463439941,1.5655289888381958,0.07741452008485794
1750854095575157800,19.69515771484375,9.682638168334961,1.5525299310684204,0.08095730096101761
1750854095593982200,19.713982177734376,9.684038162231445,1.5458405017852783,0.013174950145184994
1750854095612806700,19.732806640625,9.679875373840332,1.570753812789917,-0.0558665432035923
1750854095631631000,19.751631103515624,9.675745964050293,1.594854474067688,-0.08231651782989502
1750854095650455800,19.770455810546874,9.680557250976562,1.5657278299331665,-0.07559669762849808
1750854095669280300,19.7892802734375,9.695767402648926,1.4703456163406372,-0.023753751069307327
1750854095688104700,19.808104736328126,9.71448802947998,1.3384811878204346,0.08709295094013214
1750854095706929400,19.826929443359376,9.7323637008667,1.183152437210083,0.22721238434314728
1750854095725753900,19.84575390625,9.747488021850586,1.0258232355117798,0.3233521282672882
1750854095744578300,19.864578369140624,9.760078430175781,0.8947832584381104,0.33260074257850647
1750854095763403000,19.883403076171874,9.768790245056152,0.815585196018219,0.2755865156650543
1750854095782227500,19.9022275390625,9.771966934204102,0.8035778999328613,0.18250983953475952
1750854095801052000,19.921052001953125,9.769119262695312,0.8549789190292358,0.060924384742975235
1750854095819876600,19.939876708984375,9.759567260742188,0.9577438831329346,-0.06283428519964218
1750854095838701000,19.958701171875,9.748702049255371,1.0509583950042725,-0.1693858653306961
1750854095857525500,19.977525390625,9.739519119262695,1.1274607181549072,-0.20244160294532776
1750854095876350200,19.99635009765625,9.733739852905273,1.1787304878234863,-0.18789519369602203
1750854095895174700,20.015174560546875,9.731374740600586,1.2046310901641846,-0.13995403051376343
1750854095913999000,20.0339990234375,9.729763984680176,1.2242863178253174,-0.05658011510968208
1750854095932823600,20.052823486328126,9.72789192199707,1.2396304607391357,0.04281466081738472
1750854095951648300,20.071648193359376,9.724898338317871,1.2569594383239746,0.12962597608566284
1750854095970472700,20.09047265625,9.721206665039062,1.2818180322647095,0.1596159040927887
1750854095989297200,20.109297119140624,9.717562675476074,1.308597207069397,0.16409458220005035
1750854096008121900,20.128121826171874,9.71456241607666,1.3297483921051025,0.17152760922908783
1750854096026946300,20.1469462890625,9.712494850158691,1.3422846794128418,0.19003960490226746
1750854096045770800,20.165770751953126,9.70889663696289,1.3635503053665161,0.22006924450397491
1750854096064595200,20.18459521484375,9.70218563079834,1.406996488571167,0.24156779050827026
1750854096083420000,20.203419921875,9.691598892211914,1.4807270765304565,0.2252550721168518
1750854096102244400,20.222244384765624,9.676762580871582,1.5808207988739014,0.17796140909194946
1750854096121068800,20.24106884765625,9.661948204040527,1.6742795705795288,0.11811494082212448
1750854096139893500,20.2598935546875,9.651666641235352,1.7351562976837158,0.07038617134094238
1750854096158718000,20.278718017578125,9.646073341369629,1.7670656442642212,0.03362943232059479
1750854096177542400,20.29754248046875,9.643792152404785,1.7796485424041748,-0.02262844145298004
1750854096196366800,20.316366943359377,9.64501667022705,1.7699567079544067,-0.10630489140748978
1750854096215191600,20.335191650390627,9.650510787963867,1.7318953275680542,-0.19641239941120148
1750854096234016000,20.35401611328125,9.65829849243164,1.6796764135360718,-0.2576074004173279
1750854096252840400,20.37284033203125,9.66479206085205,1.634875774383545,-0.2989291548728943
1750854096271665200,20.3916650390625,9.666519165039062,1.6219826936721802,-0.31299808621406555
1750854096290489600,20.410489501953126,9.663379669189453,1.6446912288665771,-0.290668785572052
1750854096309314000,20.42931396484375,9.661203384399414,1.6590816974639893,-0.28107497096061707
1750854096328138800,20.448138671875,9.665077209472656,1.6345760822296143,-0.29125627875328064
1750854096346963200,20.466963134765624,9.675065040588379,1.5762741565704346,-0.2808206379413605
1750854096365787600,20.48578759765625,9.68814754486084,1.5036120414733887,-0.22207637131214142
1750854096384612000,20.504612060546876,9.700441360473633,1.4334982633590698,-0.13005539774894714
1750854096403436800,20.523436767578126,9.712788581848145,1.3528203964233398,-0.04466484487056732
1750854096422261200,20.54226123046875,9.723373413085938,1.2748279571533203,0.03476410731673241
1750854096441085700,20.561085693359374,9.729368209838867,1.221783995628357,0.13038960099220276
1750854096459910400,20.579910400390624,9.730544090270996,1.197960376739502,0.2275894731283188
1750854096478734800,20.59873486328125,9.728469848632812,1.2054436206817627,0.27234983444213867
1750854096497559300,20.617559326171875,9.723604202270508,1.2431665658950806,0.27648913860321045
1750854096516384000,20.636384033203125,9.717503547668457,1.2827485799789429,0.30835485458374023
1750854096535208400,20.65520849609375,9.71396541595459,1.295314073562622,0.36253005266189575
1750854096554033000,20.674032958984377,9.71640682220459,1.264338493347168,0.40405789017677307
1750854096572857600,20.692857666015627,9.722390174865723,1.210706114768982,0.4239015281200409
1750854096591682000,20.71168212890625,9.726162910461426,1.1802780628204346,0.42318543791770935
1750854096610506500,20.730506591796875,9.724092483520508,1.197323203086853,0.4228845238685608
1750854096629331000,20.7493310546875,9.717777252197266,1.2479894161224365,0.42154771089553833
1750854096648155600,20.76815576171875,9.709540367126465,1.3128894567489624,0.41415682435035706
1750854096666980000,20.78697998046875,9.702674865722656,1.3711282014846802,0.38534462451934814
1750854096685804500,20.805804443359374,9.70007610321045,1.4011988639831543,0.3399416506290436
1750854096704629200,20.824629150390624,9.702252388000488,1.3967548608779907,0.2928493320941925
1750854096723453700,20.84345361328125,9.707932472229004,1.3647780418395996,0.2526087462902069
1750854096742278100,20.862278076171876,9.714290618896484,1.3205866813659668,0.24286608397960663
1750854096761102800,20.881102783203126,9.720075607299805,1.2720487117767334,0.26909196376800537
1750854096779927300,20.89992724609375,9.725378036499023,1.2227753400802612,0.30367594957351685
1750854096798751700,20.918751708984374,9.730624198913574,1.1756322383880615,0.32129722833633423
1750854096817576200,20.937576171875,9.734525680541992,1.142091989517212,0.32407593727111816
1750854096836401000,20.95640087890625,9.736117362976074,1.1254374980926514,0.33437177538871765
1750854096855225300,20.975225341796875,9.73697566986084,1.1149888038635254,0.34423238039016724
1750854096874049800,20.9940498046875,9.738174438476562,1.1045576333999634,0.3439517617225647
1750854096892874500,21.01287451171875,9.739665031433105,1.095361590385437,0.33089786767959595
1750854096911699000,21.031698974609377,9.740166664123535,1.0945916175842285,0.3184468150138855
1750854096930523400,21.0505234375,9.739459991455078,1.1047698259353638,0.3046114146709442
1750854096949348000,21.06934814453125,9.737811088562012,1.1241992712020874,0.28566718101501465
1750854096968172500,21.088172607421875,9.735274314880371,1.1501209735870361,0.268405556678772
1750854096986997000,21.1069970703125,9.733560562133789,1.170249581336975,0.2422901690006256
1750854097005821400,21.125821533203126,9.732723236083984,1.1811447143554688,0.2222268432378769
1750854097024646100,21.144646240234376,9.73338508605957,1.1772475242614746,0.213736429810524
1750854097043470600,21.163470703125,9.736018180847168,1.155473232269287,0.21264861524105072
1750854097062295000,21.182294921875,9.738874435424805,1.1302165985107422,0.21752598881721497
1750854097081119700,21.20111962890625,9.740936279296875,1.1119977235794067,0.21909843385219574
1750854097099944200,21.219944091796876,9.741480827331543,1.1079695224761963,0.21532459557056427
1750854097118768600,21.2387685546875,9.740188598632812,1.1209219694137573,0.20655015110969543
1750854097137593300,21.25759326171875,9.737792015075684,1.1437727212905884,0.1938447803258896
1750854097156417800,21.276417724609374,9.736209869384766,1.1591869592666626,0.1813279390335083
1750854097175242200,21.2952421875,9.736886978149414,1.1547596454620361,0.17304600775241852
1750854097194066700,21.314066650390625,9.740250587463379,1.1254260540008545,0.17701315879821777
1750854097212891400,21.332891357421875,9.744661331176758,1.0857412815093994,0.18198473751544952
1750854097231715800,21.3517158203125,9.748806953430176,1.0474810600280762,0.18420256674289703
1750854097250540300,21.370540283203123,9.752131462097168,1.016270399093628,0.18308572471141815
1750854097269365000,21.389364990234377,9.754528045654297,0.9947647452354431,0.17323964834213257
1750854097288189400,21.408189453125,9.756255149841309,0.9791675209999084,0.16461148858070374
1750854097307014000,21.427013916015625,9.758036613464355,0.9609118700027466,0.16661426424980164
1750854097325838600,21.445838623046875,9.759869575500488,0.9421587586402893,0.16637511551380157
1750854097344663000,21.4646630859375,9.761256217956543,0.9267951846122742,0.1712062507867813
1750854097363487500,21.483487548828126,9.762213706970215,0.9153628349304199,0.1779554933309555
1750854097382312000,21.50231201171875,9.76327896118164,0.9041204452514648,0.17702624201774597
1750854097401136600,21.52113671875,9.764302253723145,0.8946061730384827,0.16872118413448334
1750854097419961000,21.539961181640624,9.765332221984863,0.88544100522995,0.15705537796020508
1750854097438785500,21.55878564453125,9.76628303527832,0.8761605024337769,0.14978888630867004
1750854097457610200,21.5776103515625,9.767087936401367,0.8685742616653442,0.14128637313842773
1750854097476434700,21.5964345703125,9.767849922180176,0.8609769344329834,0.13499920070171356
1750854097495259100,21.615259033203124,9.768448829650879,0.8539451360702515,0.13624678552150726
1750854097514083800,21.634083740234374,9.769121170043945,0.8457061052322388,0.1394067257642746
1750854097532908300,21.652908203125,9.769750595092773,0.837218165397644,0.14645038545131683
1750854097551732700,21.671732666015625,9.770415306091309,0.8280163407325745,0.1541277915239334
1750854097570557400,21.690557373046875,9.771215438842773,0.817575216293335,0.15908105671405792
1750854097589382000,21.7093818359375,9.772027015686035,0.8069365620613098,0.16349878907203674
1750854097608206300,21.728206298828123,9.77256965637207,0.7989541888237,0.17010372877120972
1750854097627030800,21.74703076171875,9.773039817810059,0.7916126847267151,0.17723830044269562
1750854097645855500,21.76585546875,9.77356243133545,0.786018967628479,0.17333869636058807
1750854097664680000,21.784679931640625,9.774243354797363,0.7793653011322021,0.1647171974182129
1750854097683504400,21.80350439453125,9.775391578674316,0.7645808458328247,0.1658933013677597
1750854097702329000,21.8223291015625,9.776802062988281,0.7435404658317566,0.1779690831899643
1750854097721153500,21.841153564453126,9.778057098388672,0.7233851552009583,0.19156858325004578
1750854097739978000,21.85997802734375,9.778848648071289,0.7114241719245911,0.19592906534671783
1750854097758802700,21.878802734375,9.779163360595703,0.707122266292572,0.19575932621955872
1750854097777627100,21.897627197265624,9.778944969177246,0.7114728093147278,0.19087104499340057
1750854097796451600,21.91645166015625,9.778746604919434,0.7157469987869263,0.18494738638401031
1750854097815276000,21.935276123046876,9.779242515563965,0.7094228267669678,0.18306168913841248
1750854097834100700,21.954100830078126,9.780509948730469,0.6912198662757874,0.18498556315898895
1750854097852925200,21.97292529296875,9.782275199890137,0.6661233305931091,0.18378910422325134
1750854097871749600,21.99174951171875,9.783738136291504,0.6463823318481445,0.17624321579933167
1750854097890574300,22.01057421875,9.784602165222168,0.6378798484802246,0.15832656621932983
1750854097909398800,22.029398681640625,9.784734725952148,0.6401371359825134,0.13993756473064423
1750854097928223200,22.04822314453125,9.784475326538086,0.6466308832168579,0.12765756249427795
1750854097947048000,22.0670478515625,9.784478187561035,0.6467392444610596,0.12687110900878906
1750854097965872400,22.085872314453123,9.784767150878906,0.6421765685081482,0.12773722410202026
1750854097984696800,22.10469677734375,9.785326957702637,0.6337946057319641,0.12677185237407684
1750854098003521300,22.123521240234375,9.785820007324219,0.6271106004714966,0.12185370922088623
1750854098022346000,22.142345947265625,9.785869598388672,0.627612292766571,0.11505944281816483
1750854098041170400,22.16117041015625,9.785369873046875,0.6371492743492126,0.1047094538807869
1750854098059995000,22.179994873046876,9.784475326538086,0.6514159440994263,0.1004243865609169
1750854098078819600,22.198819580078126,9.783845901489258,0.6584634780883789,0.11470939964056015
1750854098097644000,22.21764404296875,9.783967971801758,0.6517248153686523,0.14008258283138275
1750854098116468500,22.236468505859374,9.784422874450684,0.6393976211547852,0.1631854623556137
1750854098135293000,22.25529296875,9.784431457519531,0.6357516646385193,0.1764240860939026
1750854098154117600,22.27411767578125,9.783658981323242,0.6465717554092407,0.17987236380577087
1750854098172942000,22.292942138671876,9.782637596130371,0.6624447107315063,0.17761585116386414
1750854098191766500,22.3117666015625,9.781996726989746,0.6723289489746094,0.17574402689933777
1750854098210591200,22.33059130859375,9.78174114227295,0.675778329372406,0.1767716258764267
1750854098229415700,22.349415771484374,9.78138256072998,0.679612398147583,0.1818106472492218
1750854098248240000,22.368240234375,9.780808448791504,0.6871349811553955,0.184440016746521
1750854098267064800,22.38706494140625,9.780230522155762,0.6963294744491577,0.18053339421749115
1750854098285889300,22.40588916015625,9.77961254119873,0.7071611285209656,0.17168009281158447
1750854098304713700,22.424713623046873,9.778779983520508,0.7213679552078247,0.15965694189071655
1750854098323538400,22.443538330078123,9.777685165405273,0.7382309436798096,0.14931175112724304
1750854098342363000,22.46236279296875,9.776510238647461,0.7557822465896606,0.1379747986793518
1750854098361187300,22.481187255859375,9.775639533996582,0.769753634929657,0.12141486257314682
1750854098380012000,22.500011962890625,9.774779319763184,0.7826884388923645,0.10720080882310867
1750854098398836500,22.51883642578125,9.77407455444336,0.7926580309867859,0.09767929464578629
1750854098417661000,22.537660888671876,9.773550987243652,0.7999848127365112,0.09009736776351929
1750854098436485400,22.5564853515625,9.773090362548828,0.807165801525116,0.07461164146661758
1750854098455310000,22.57531005859375,9.772331237792969,0.8182321786880493,0.04922004044055939
1750854098474134500,22.594134521484374,9.771615028381348,0.8275695443153381,0.0326983742415905
1750854098492959000,22.612958984375,9.771657943725586,0.8268069624900818,0.038386423140764236
1750854098511783700,22.63178369140625,9.772428512573242,0.8166264891624451,0.05616578832268715
1750854098530608000,22.650608154296876,9.773353576660156,0.8036752939224243,0.07786423712968826
1750854098549432600,22.6694326171875,9.773646354675293,0.7979674339294434,0.09731161594390869
1750854098568257300,22.68825732421875,9.773321151733398,0.801144003868103,0.10365571081638336
1750854098587081700,22.707081787109374,9.7726469039917,0.8097903728485107,0.09997638314962387
1750854098605906200,22.72590625,9.771920204162598,0.8188848495483398,0.09679647535085678
1750854098624730600,22.744730712890625,9.771656036376953,0.8219162225723267,0.09775962680578232
1750854098643555300,22.763555419921875,9.772456169128418,0.8120171427726746,0.10042866319417953
1750854098662379800,22.7823798828125,9.773918151855469,0.7936418652534485,0.1050485223531723
1750854098681204200,22.801204345703123,9.775208473205566,0.7773317694664001,0.10691045969724655
1750854098700029000,22.82002880859375,9.775957107543945,0.7684926986694336,0.10231661051511765
1750854098718853400,22.838853271484375,9.77616024017334,0.766272783279419,0.09951881319284439
1750854098737677800,22.857677734375,9.776331901550293,0.7634447813034058,0.10432098060846329
1750854098756502300,22.876502197265626,9.77700424194336,0.7533239126205444,0.11439401656389236
1750854098775327000,22.895326904296876,9.7781343460083,0.7372779846191406,0.12204298377037048
1750854098794151400,22.9141513671875,9.779017448425293,0.7251524329185486,0.12391247600317001
1750854098812975900,22.932975830078124,9.779248237609863,0.7224001288414001,0.12176528573036194
1750854098831800600,22.951800537109374,9.779099464416504,0.7249377369880676,0.11860723793506622
1750854098850625000,22.970625,9.778940200805664,0.7282808423042297,0.11100134998559952
1750854098869449500,22.989449462890626,9.77873420715332,0.731354296207428,0.1088576465845108
1750854098888274000,23.00827392578125,9.778402328491211,0.7352257370948792,0.11267002671957016
1750854098907098600,23.0270986328125,9.778620719909668,0.7314646244049072,0.11802645027637482
1750854098925923000,23.045923095703124,9.779545783996582,0.7181842923164368,0.12288783490657806
1750854098944747500,23.06474755859375,9.780463218688965,0.7052593231201172,0.12467097491025925
1750854098963572200,23.083572265625,9.780693054199219,0.7021739482879639,0.12401275336742401
1750854098982396700,23.102396728515625,9.780378341674805,0.7070185542106628,0.1212870255112648
1750854099001221000,23.12122119140625,9.779829025268555,0.7152957916259766,0.11701662093400955
1750854099020045800,23.1400458984375,9.779837608337402,0.7161059975624084,0.11122877895832062
1750854099038870300,23.158870361328123,9.780440330505371,0.7084275484085083,0.10720140486955643
1750854099057694700,23.17769482421875,9.780998229980469,0.7004616856575012,0.10869425535202026
1750854099076519400,23.19651953125,9.781227111816406,0.6970059275627136,0.11034265160560608
1750854099095343900,23.21534375,9.78122329711914,0.6972889304161072,0.10887236893177032
1750854099114168300,23.234168212890626,9.780957221984863,0.7014660239219666,0.10583239793777466
1750854099132992800,23.25299267578125,9.7805814743042,0.707464873790741,0.10044794529676437
1750854099151817500,23.2718173828125,9.78052806854248,0.7088950276374817,0.09553670138120651
1750854099170642000,23.290641845703124,9.780837059020996,0.7044739127159119,0.09663186967372894
1750854099189466400,23.30946630859375,9.78102970123291,0.7010096311569214,0.1021139994263649
1750854099208291000,23.328291015625,9.7809476852417,0.7015087008476257,0.10647238045930862
1750854099227115500,23.347115478515626,9.7805757522583,0.7073150873184204,0.1020931527018547
1750854099245940000,23.36593994140625,9.7802095413208,0.7136111259460449,0.09307612478733063
1750854099264764700,23.3847646484375,9.78018569946289,0.7149221301078796,0.08503690361976624
1750854099283589000,23.403589111328124,9.780797958374023,0.7069480419158936,0.08130708336830139
1750854099302413600,23.42241357421875,9.78159236907959,0.6965161561965942,0.07560379803180695
1750854099321238000,23.441238037109375,9.781885147094727,0.6930897235870361,0.06891174614429474
1750854099340062700,23.460062744140625,9.78148365020752,0.6986131072044373,0.07008665055036545
1750854099358887200,23.47888720703125,9.78071403503418,0.7084983587265015,0.07777048647403717
1750854099377711600,23.497711669921873,9.780509948730469,0.7095376253128052,0.09259190410375595
1750854099396536300,23.516536376953123,9.780842781066895,0.7017457485198975,0.1142038106918335
1750854099415360800,23.53536083984375,9.781118392944336,0.6927019953727722,0.14237916469573975
1750854099434185200,23.554185302734375,9.780590057373047,0.6952244639396667,0.1646672785282135
1750854099453009700,23.573009765625,9.7797269821167,0.7059992551803589,0.16997067630290985
1750854099471834400,23.59183447265625,9.778873443603516,0.7181525826454163,0.16816766560077667
1750854099490658800,23.610658935546876,9.778299331665039,0.726544201374054,0.1654985398054123
1750854099509483300,23.629483154296874,9.778226852416992,0.7269048094749451,0.16810110211372375
1750854099528308000,23.648307861328124,9.77832317352295,0.7235448956489563,0.17686328291893005
1750854099547132400,23.66713232421875,9.778435707092285,0.7183725237846375,0.19108690321445465
1750854099565956900,23.685956787109376,9.778459548950195,0.7158706188201904,0.1991385668516159
1750854099584781300,23.70478125,9.777935028076172,0.7244234681129456,0.19386890530586243
1750854099603606000,23.72360595703125,9.77690315246582,0.7413075566291809,0.1817152351140976
1750854099622430500,23.742430419921874,9.776206970214844,0.7537034749984741,0.16765525937080383
1750854099641255000,23.7612548828125,9.776135444641113,0.7579874992370605,0.15165366232395172
1750854099660079600,23.78007958984375,9.776373863220215,0.7562281489372253,0.14496523141860962
1750854099678904000,23.798904052734375,9.775714874267578,0.7637194395065308,0.15008486807346344
1750854099697728500,23.817728515625,9.774173736572266,0.7822226881980896,0.15503524243831635
1750854099716553200,23.83655322265625,9.773063659667969,0.7971711754798889,0.14869508147239685
1750854099735377700,23.855377685546873,9.772828102111816,0.8004739284515381,0.14650626480579376
1750854099754202000,23.8742021484375,9.772822380065918,0.8000025749206543,0.14942865073680878
1750854099773026800,23.89302685546875,9.772660255432129,0.8015844225883484,0.15151841938495636
1750854099791851300,23.911851318359375,9.771797180175781,0.8133714199066162,0.14424431324005127
1750854099810675700,23.93067578125,9.77005672454834,0.8359940052032471,0.13221892714500427
1750854099829500200,23.949500244140626,9.768321990966797,0.8569105267524719,0.126393124461174
1750854099848324900,23.968324951171876,9.767621994018555,0.8651800155639648,0.12408754974603653
1750854099867149300,23.9871494140625,9.768070220947266,0.8605193495750427,0.12123694270849228
1750854099885973800,24.005973876953124,9.769002914428711,0.8496319055557251,0.12292323261499405
1750854099904798500,24.024798583984374,9.76962947845459,0.8418840169906616,0.1262923628091812
1750854099923623000,24.043622802734376,9.769777297973633,0.8396887183189392,0.1294298768043518
1750854099942447400,24.062447265625,9.769363403320312,0.8444174528121948,0.12996481359004974
1750854099961271800,24.081271728515624,9.768747329711914,0.8520053029060364,0.12666913866996765
1750854099980096500,24.100096435546874,9.768699645996094,0.8527463674545288,0.12537071108818054
1750854099998921000,24.1189208984375,9.769417762756348,0.8433988094329834,0.13242977857589722
1750854100017745400,24.137745361328125,9.770339965820312,0.831642746925354,0.13862565159797668
