time,seconds_elapsed,z,y,x
1750854075959976700,0.079976806640625,-0.12064579129219055,-0.05558869615197182,0.2412915825843811
1750854076007038200,0.1270380859375,-0.054672397673130035,-0.06780599057674408,-0.05803215503692627
1750854076044687600,0.1646875,-0.05711585655808449,-0.007941242307424545,-0.014049889519810677
1750854076082336800,0.202336669921875,-0.03634645417332649,-0.0824667438864708,0.020158538594841957
1750854076101161200,0.2211611328125,-0.022907428443431854,-0.0616973415017128,0.01282816007733345
1750854076119986000,0.23998583984375,-0.021685699000954628,-0.039706211537122726,-0.017715077847242355
1750854076138810600,0.258810546875,-0.054672397673130035,-0.027488915249705315,-0.033597562462091446
1750854076157635000,0.277635009765625,-0.06566796451807022,-0.01893680728971958,-0.03481929376721382
1750854076176459800,0.296459716796875,-0.038789913058280945,-0.006719512399286032,-0.006719512399286032
1750854076195284200,0.3152841796875,-0.01435532234609127,-0.025045456364750862,0.03848448023200035
1750854076214109000,0.33410888671875,-0.00946840364485979,-0.0616973415017128,0.04459312930703163
1750854076232933400,0.352933349609375,-0.008246674202382565,-0.027488915249705315,0.031154103577136993
1750854076251758000,0.371758056640625,-0.02412915788590908,-0.02626718580722809,-0.0054977829568088055
1750854076270582500,0.39058251953125,-0.021685699000954628,-0.047036588191986084,-0.05803215503692627
1750854076289407200,0.4094072265625,-0.015577051788568497,-0.06414080411195755,-0.09957095980644226
1750854076308232000,0.42823193359375,-0.007024944759905338,-0.05803215503692627,-0.09346231073141098
1750854076327056400,0.447056396484375,-0.005803215317428112,-0.053145237267017365,-0.047036588191986084
1750854076345881000,0.465881103515625,-0.019242240116000175,-0.047036588191986084,-0.009162971749901772
1750854076364705500,0.48470556640625,-0.032681263983249664,-0.08002328872680664,0.014049889519810677
1750854076383530200,0.5035302734375,-0.03634645417332649,-0.033597562462091446,-0.000610864779446274
1750854076402355000,0.52235498046875,-0.02412915788590908,-0.014049889519810677,-0.023823726922273636
1750854076421179400,0.541179443359375,-0.00946840364485979,-0.03848448023200035,-0.020158538594841957
1750854076440004000,0.560004150390625,-0.004581485874950886,-0.01893680728971958,-0.011606430634856224
1750854076458828500,0.57882861328125,-0.02412915788590908,0.0054977829568088055,-0.023823726922273636
1750854076477653200,0.5976533203125,-0.035124726593494415,-0.020158538594841957,-0.01893680728971958
1750854076496477700,0.616477783203125,-0.032681263983249664,-0.05070177838206291,-0.001832594396546483
1750854076515302400,0.635302490234375,-0.01802051067352295,-0.06536252796649933,-0.000610864779446274
1750854076534126800,0.654126953125,0.012522728182375431,-0.0360410213470459,-0.017715077847242355
1750854076552951600,0.67295166015625,0.024740023538470268,0.025045456364750862,-0.02871064469218254
1750854076571776300,0.6917763671875,0.000305432389723137,0.08491020649671555,-0.07269290834665298
1750854076590600700,0.7106005859375,-0.06444623321294785,0.07269290834665298,-0.09834922850131989
1750854076609425400,0.72942529296875,-0.0668896958231926,-0.006719512399286032,-0.10201441496610641
1750854076628249900,0.748249755859375,-0.048563748598098755,-0.014049889519810677,-0.08857539296150208
1750854076647074600,0.767074462890625,-0.03145953640341759,0.011606430634856224,-0.029932374134659767
1750854076665899000,0.78589892578125,0.013744457624852657,0.0054977829568088055,0.03848448023200035
1750854076684723700,0.8047236328125,0.0565049909055233,0.023823726922273636,0.08124501258134842
1750854076703548200,0.823548095703125,0.07360920310020447,0.047036588191986084,0.08979712426662445
1750854076722372900,0.842372802734375,0.03940077871084213,0.01649334840476513,0.0873536616563797
1750854076741197600,0.861197509765625,0.011300998739898205,-0.07269290834665298,0.0409279391169548
1750854076760022000,0.88002197265625,0.000305432389723137,-0.11911863088607788,-0.017715077847242355
1750854076778846700,0.8988466796875,-0.029016077518463135,-0.13133592903614044,-0.05436696484684944
1750854076797671200,0.917671142578125,-0.02779434807598591,-0.10934479534626007,-0.0360410213470459
1750854076816495900,0.936495849609375,0.006414080038666725,-0.020158538594841957,0.01282816007733345
1750854076835320300,0.9553203125,0.011300998739898205,-0.006719512399286032,0.04581485688686371
1750854076854145000,0.97414501953125,0.000305432389723137,-0.007941242307424545,0.029932374134659767
1750854076872969700,0.9929697265625,-0.010690134018659592,-0.033597562462091446,-0.009162971749901772
1750854076891794200,1.011794189453125,-0.010690134018659592,-0.029932374134659767,0.007941242307424545
1750854076910619000,1.030618896484375,0.007635809946805239,-0.029932374134659767,0.05925388261675835
1750854076929443300,1.049443359375,-0.0021380267571657896,-0.01893680728971958,0.10567960888147354
1750854076948268000,1.06826806640625,-0.0021380267571657896,0.010384701192378998,0.1288924664258957
1750854076967092500,1.087092529296875,0.01740964688360691,0.025045456364750862,0.10079269111156464
1750854076985917200,1.105917236328125,0.012522728182375431,-0.004276053514331579,0.02871064469218254
1750854077004742000,1.124741943359375,-0.0204639695584774,-0.07147117704153061,-0.04214967042207718
1750854077023566300,1.14356640625,-0.04734202101826668,-0.09101885557174683,-0.0873536616563797
1750854077042391000,1.16239111328125,-0.03756818547844887,-0.05925388261675835,-0.0873536616563797
1750854077061215500,1.181215576171875,-0.0204639695584774,-0.033597562462091446,-0.031154103577136993
1750854077080040200,1.200040283203125,-0.013133592903614044,-0.010384701192378998,0.014049889519810677
1750854077098864600,1.21886474609375,-0.008246674202382565,-0.004276053514331579,-0.010384701192378998
1750854077117689300,1.237689453125,-0.016798781231045723,0.009162971749901772,-0.06291907280683517
1750854077136513800,1.256513671875,-0.005803215317428112,0.017715077847242355,-0.08002328872680664
1750854077155338500,1.27533837890625,-0.0009162971982732415,-0.000610864779446274,-0.03481929376721382
1750854077174163000,1.294162841796875,-0.008246674202382565,-0.02871064469218254,0.021380268037319183
1750854077192987600,1.312987548828125,-0.004581485874950886,-0.01282816007733345,0.039706211537122726
1750854077211812400,1.331812255859375,-0.0009162971982732415,-0.020158538594841957,0.015271619893610477
1750854077230636800,1.35063671875,-0.00946840364485979,-0.02260199747979641,-0.03481929376721382
1750854077249461500,1.36946142578125,-0.022907428443431854,-0.027488915249705315,-0.07757982611656189
1750854077268286000,1.388285888671875,-0.035124726593494415,-0.02626718580722809,-0.06047561392188072
1750854077287110700,1.407110595703125,-0.03756818547844887,-0.043371398001909256,0.000610864779446274
1750854077305935000,1.42593505859375,-0.03390299528837204,-0.053145237267017365,0.05803215503692627
1750854077324759800,1.444759765625,-0.021685699000954628,-0.05070177838206291,0.07269290834665298
1750854077343584300,1.463584228515625,-0.010690134018659592,-0.04581485688686371,0.043371398001909256
1750854077362409000,1.482408935546875,-0.010690134018659592,-0.02260199747979641,-0.0030543238390237093
1750854077381233400,1.5012333984375,-0.013133592903614044,-0.007941242307424545,-0.029932374134659767
1750854077400058000,1.52005810546875,-0.026572618633508682,-0.004276053514331579,-0.021380268037319183
1750854077418882800,1.5388828125,-0.02779434807598591,-0.011606430634856224,-0.007941242307424545
1750854077437707300,1.557707275390625,-0.010690134018659592,0.021380268037319183,-0.000610864779446274
1750854077456532000,1.576531982421875,0.0015271619195118546,0.02260199747979641,0.011606430634856224
1750854077475356400,1.5953564453125,0.0027488914784044027,0.009162971749901772,0.015271619893610477
1750854077494181000,1.61418115234375,-0.0021380267571657896,-0.0054977829568088055,-0.004276053514331579
1750854077513005600,1.633005615234375,-0.003359756199643016,-0.015271619893610477,-0.025045456364750862
1750854077531830300,1.651830322265625,-0.0009162971982732415,-0.014049889519810677,-0.01282816007733345
1750854077550654700,1.67065478515625,-0.003359756199643016,-0.025045456364750862,0.010384701192378998
1750854077569479400,1.6894794921875,0.007635809946805239,-0.027488915249705315,0.010384701192378998
1750854077588304000,1.708303955078125,0.010079269297420979,-0.02626718580722809,-0.015271619893610477
1750854077607128600,1.727128662109375,0.003970621153712273,0.001832594396546483,-0.017715077847242355
1750854077625953000,1.745953125,-0.0009162971982732415,-0.004276053514331579,0.02626718580722809
1750854077644777700,1.76477783203125,-0.0009162971982732415,0.000610864779446274,0.056810423731803894
1750854077663602200,1.783602294921875,-0.0021380267571657896,0.03237583488225937,0.0616973415017128
1750854077682427000,1.802427001953125,-0.01435532234609127,-0.0030543238390237093,0.06291907280683517
1750854077701251300,1.821251220703125,-0.019242240116000175,-0.06414080411195755,0.07757982611656189
1750854077720076000,1.840075927734375,-0.021685699000954628,-0.08368847519159317,0.06780599057674408
1750854077738900700,1.858900634765625,-0.00946840364485979,-0.09101885557174683,0.049480047076940536
1750854077757725200,1.87772509765625,0.01740964688360691,-0.0665842592716217,0.021380268037319183
1750854077776550000,1.8965498046875,0.02718348242342472,-0.05070177838206291,-0.015271619893610477
1750854077795374300,1.915374267578125,0.019853105768561363,-0.047036588191986084,-0.033597562462091446
1750854077814199000,1.934198974609375,0.013744457624852657,-0.037262752652168274,-0.0409279391169548
1750854077833023500,1.9530234375,0.010079269297420979,-0.04825831577181816,-0.017715077847242355
1750854077851848200,1.97184814453125,0.0015271619195118546,-0.023823726922273636,-0.001832594396546483
1750854077870672600,1.990672607421875,-0.004581485874950886,0.010384701192378998,0.001832594396546483
1750854077889497300,2.009497314453125,-0.008246674202382565,-0.010384701192378998,0.007941242307424545
1750854077908321800,2.02832177734375,-0.01435532234609127,0.004276053514331579,0.000610864779446274
1750854077927146500,2.047146484375,-0.01802051067352295,0.033597562462091446,-0.01282816007733345
1750854077945971000,2.065970947265625,-0.010690134018659592,0.01649334840476513,-0.017715077847242355
1750854077964795600,2.084795654296875,-0.007024944759905338,0.023823726922273636,-0.017715077847242355
1750854077983620000,2.1036201171875,-0.01435532234609127,0.0030543238390237093,-0.007941242307424545
1750854078002444800,2.12244482421875,-0.011911863461136818,-0.023823726922273636,-0.02871064469218254
1750854078021269200,2.141269287109375,-0.010690134018659592,-0.025045456364750862,-0.05925388261675835
1750854078040094000,2.160093994140625,-0.013133592903614044,-0.01649334840476513,-0.06780599057674408
1750854078058918700,2.178918701171875,-0.01435532234609127,-0.010384701192378998,-0.047036588191986084
1750854078077743000,2.1977431640625,-0.0204639695584774,-0.006719512399286032,-0.023823726922273636
1750854078096567800,2.21656787109375,-0.01435532234609127,0.007941242307424545,-0.01649334840476513
1750854078115392300,2.235392333984375,-0.005803215317428112,0.004276053514331579,-0.02626718580722809
1750854078134217000,2.254217041015625,-0.007024944759905338,-0.0054977829568088055,-0.0409279391169548
1750854078153041400,2.27304150390625,-0.005803215317428112,-0.007941242307424545,-0.04459312930703163
1750854078171866000,2.2918662109375,-0.00946840364485979,-0.02260199747979641,-0.029932374134659767
1750854078190690600,2.310690673828125,-0.008246674202382565,-0.027488915249705315,-0.01282816007733345
1750854078209515300,2.329515380859375,0.0027488914784044027,-0.02626718580722809,-0.001832594396546483
1750854078228339700,2.348339599609375,-0.0021380267571657896,-0.007941242307424545,-0.000610864779446274
1750854078247164400,2.367164306640625,-0.00946840364485979,0.0030543238390237093,-0.000610864779446274
1750854078265988900,2.38598876953125,-0.0021380267571657896,0.0054977829568088055,0.0054977829568088055
1750854078284813600,2.4048134765625,-0.005803215317428112,-0.006719512399286032,0.017715077847242355
1750854078303638000,2.423637939453125,-0.011911863461136818,-0.027488915249705315,0.01893680728971958
1750854078322462700,2.442462646484375,-0.007024944759905338,-0.03848448023200035,0.001832594396546483
1750854078341287200,2.461287109375,-0.013133592903614044,-0.04581485688686371,-0.02626718580722809
1750854078360111900,2.48011181640625,-0.021685699000954628,-0.03237583488225937,-0.03848448023200035
1750854078378936300,2.498936279296875,-0.026572618633508682,0.001832594396546483,-0.02626718580722809
1750854078397761000,2.517760986328125,-0.015577051788568497,0.047036588191986084,0.01893680728971958
1750854078416585500,2.53658544921875,0.019853105768561363,0.07147117704153061,0.03481929376721382
1750854078435410200,2.55541015625,0.03695731982588768,0.05558869615197182,-0.01893680728971958
1750854078454234600,2.574234619140625,0.0308486707508564,0.023823726922273636,-0.09712749719619751
1750854078473059300,2.593059326171875,0.010079269297420979,0.004276053514331579,-0.13255766034126282
1750854078491883800,2.6118837890625,0.013744457624852657,0.001832594396546483,-0.0922405794262886
1750854078510708500,2.63070849609375,0.051618073135614395,0.0054977829568088055,-0.027488915249705315
1750854078529533000,2.649532958984375,0.07360920310020447,-0.010384701192378998,0.010384701192378998
1750854078548357600,2.668357666015625,0.07971785217523575,-0.033597562462091446,-0.0054977829568088055
1750854078567182000,2.68718212890625,0.10048725455999374,0.0054977829568088055,-0.05803215503692627
1750854078586006800,2.7060068359375,0.15179990231990814,0.0360410213470459,-0.08857539296150208
1750854078604831200,2.724831298828125,0.22388194501399994,0.07391463965177536,-0.06536252796649933
1750854078623656000,2.743656005859375,0.2776380479335785,0.12522727251052856,-0.006719512399286032
1750854078642480400,2.76248046875,0.2861901521682739,0.21319180727005005,0.033597562462091446
1750854078661305000,2.78130517578125,0.2556469142436981,0.24251331388950348,0.037262752652168274
1750854078680129500,2.800129638671875,0.2263254076242447,0.20341797173023224,0.02260199747979641
1750854078698954200,2.818954345703125,0.21899501979351044,0.16676609218120575,-0.014049889519810677
1750854078717778700,2.83777880859375,0.24220788478851318,0.1081230640411377,-0.08613193035125732
1750854078736603400,2.856603271484375,0.2617555558681488,0.039706211537122726,-0.10201441496610641
1750854078755427800,2.875427734375,0.2935205399990082,-0.037262752652168274,-0.04825831577181816
1750854078774252500,2.89425244140625,0.33628106117248535,-0.10690133273601532,0.02626718580722809
1750854078793077000,2.913076904296875,0.43401941657066345,-0.17531819641590118,0.053145237267017365
1750854078811901700,2.931901611328125,0.5732966065406799,-0.21441353857517242,-0.004276053514331579
1750854078830726100,2.95072607421875,0.7284562587738037,-0.21319180727005005,-0.06414080411195755
1750854078849550800,2.96955078125,0.8897245526313782,-0.1130099818110466,-0.07391463965177536
1750854078868375300,2.988375244140625,1.025336503982544,-0.05558869615197182,-0.025045456364750862
1750854078887200000,3.007199951171875,1.063210129737854,-0.05558869615197182,0.031154103577136993
1750854078906024400,3.0260244140625,0.9654718041419983,-0.05192350596189499,0.0409279391169548
1750854078924849200,3.04484912109375,0.8090903759002686,-0.0030543238390237093,0.047036588191986084
1750854078943673600,3.063673583984375,0.5940660238265991,-0.01649334840476513,0.07635809481143951
1750854078962498300,3.082498291015625,0.23487751185894012,0.01893680728971958,0.037262752652168274
1750854078981322800,3.10132275390625,-0.23915356397628784,0.13622283935546875,-0.14110976457595825
1750854079000147500,3.1201474609375,-0.6814196705818176,0.10567960888147354,-0.34147340059280396
1750854079018972000,3.138971923828125,-0.999069333076477,-0.08368847519159317,-0.4172206521034241
1750854079037796600,3.157796630859375,-1.2079850435256958,-0.06902772188186646,-0.3390299379825592
1750854079056621000,3.17662109375,-1.3448188304901123,0.014049889519810677,-0.2510654330253601
1750854079075445800,3.19544580078125,-1.5280781984329224,0.10690133273601532,-0.21319180727005005
1750854079094270200,3.214270263671875,-1.778532862663269,0.17653992772102356,-0.2315177470445633
1750854079113095000,3.233094970703125,-1.934914231300354,0.2706131041049957,-0.29993459582328796
1750854079131919400,3.25191943359375,-1.9031492471694946,0.27550002932548523,-0.31093016266822815
1750854079150744000,3.270744140625,-1.710115909576416,0.15699224174022675,-0.23273947834968567
1750854079169568500,3.289568603515625,-1.4828742742538452,0.04581485688686371,-0.05803215503692627
1750854079188393200,3.308393310546875,-1.302058219909668,-0.037262752652168274,0.10323614627122879
1750854079207217700,3.3272177734375,-1.1261292695999146,-0.09957095980644226,0.1545487940311432
1750854079226042400,3.34604248046875,-0.8573487401008606,-0.0873536616563797,0.1130099818110466
1750854079244866800,3.36486669921875,-0.5238165259361267,0.0360410213470459,0.06047561392188072
1750854079263691500,3.38369140625,-0.13775001466274261,0.04214967042207718,0.09590577334165573
1750854079282516000,3.402515869140625,0.2458730787038803,-0.006719512399286032,0.18631376326084137
1750854079301340700,3.421340576171875,0.5830704569816589,0.01893680728971958,0.24251331388950348
1750854079320165000,3.4401650390625,0.9104939699172974,0.07757982611656189,0.26939135789871216
1750854079338989800,3.45898974609375,1.2061525583267212,-0.01649334840476513,0.19730933010578156
1750854079357814300,3.477814208984375,1.4407246112823486,-0.09346231073141098,-0.02260199747979641
1750854079376638700,3.496638671875,1.6019928455352783,-0.0824667438864708,-0.20952661335468292
1750854079395463400,3.51546337890625,1.7156137228012085,-0.07391463965177536,-0.21685700118541718
1750854079414288100,3.5342880859375,1.775478482246399,-0.13988803327083588,-0.07513637095689774
1750854079433112600,3.553112548828125,1.7437134981155396,-0.2828303873538971,0.04581485688686371
1750854079451937000,3.57193701171875,1.6545273065567017,-0.3292561173439026,0.025045456364750862
1750854079470761700,3.59076171875,1.5238021612167358,-0.19608759880065918,-0.06536252796649933
1750854079489586200,3.609586181640625,1.3222168684005737,-0.001832594396546483,-0.09712749719619751
1750854079508411000,3.628410888671875,1.044884204864502,0.17287473380565643,-0.07513637095689774
1750854079527235300,3.6472353515625,0.7370083332061768,0.28527384996414185,0.006719512399286032
1750854079546060000,3.66606005859375,0.40225446224212646,0.2877173125743866,0.10934479534626007
1750854079564884500,3.684884521484375,0.051618073135614395,0.22418737411499023,0.10201441496610641
1750854079583709200,3.703709228515625,-0.22815799713134766,0.11056652665138245,0.0054977829568088055
1750854079602533600,3.72253369140625,-0.46028661727905273,0.010384701192378998,-0.13622283935546875
1750854079621358300,3.7413583984375,-0.6887500286102295,-0.017715077847242355,-0.18875721096992493
1750854079640182800,3.760182861328125,-0.8414662480354309,-0.07635809481143951,-0.08613193035125732
1750854079659007500,3.779007568359375,-0.9379828572273254,-0.18264856934547424,0.02626718580722809
1750854079677832000,3.79783203125,-0.9868520498275757,-0.23762640357017517,0.033597562462091446
1750854079696656600,3.81665673828125,-1.028390884399414,-0.23884813487529755,-0.1081230640411377
1750854079715481000,3.835481201171875,-1.1236857175827026,-0.15577052533626556,-0.25350889563560486
1750854079734305800,3.854305908203125,-1.2055416107177734,-0.07391463965177536,-0.22785256803035736
1750854079753130200,3.873130126953125,-1.2165372371673584,-0.09346231073141098,-0.09834922850131989
1750854079771955000,3.891954833984375,-1.2116502523422241,-0.1899789422750473,0.015271619893610477
1750854079790779400,3.910779296875,-1.1811070442199707,-0.23762640357017517,0.021380268037319183
1750854079809603800,3.929603759765625,-1.1346813440322876,-0.185092031955719,-0.11667517572641373
1750854079828428500,3.948428466796875,-1.0772600173950195,-0.06047561392188072,-0.28405213356018066
1750854079847253000,3.9672529296875,-0.9844086170196533,-0.015271619893610477,-0.2632827162742615
1750854079866077700,3.98607763671875,-0.8854485154151917,-0.06414080411195755,-0.09101885557174683
1750854079884902100,4.004902099609375,-0.7632755637168884,-0.09346231073141098,0.03237583488225937
1750854079903726800,4.023726806640625,-0.5934551358222961,-0.015271619893610477,0.08002328872680664
1750854079922551300,4.04255126953125,-0.3381136655807495,0.015271619893610477,0.08368847519159317
1750854079941376000,4.0613759765625,-0.02412915788590908,0.031154103577136993,0.11178825795650482
1750854079960200400,4.080200439453125,0.28496840596199036,0.07635809481143951,0.16554436087608337
1750854079979025200,4.099025146484375,0.6087267398834229,0.17287473380565643,0.21807873249053955
1750854079997849600,4.117849609375,0.9190460443496704,0.20219624042510986,0.2315177470445633
1750854080016674300,4.13667431640625,1.2281436920166016,0.23029601573944092,0.14477495849132538
1750854080035498800,4.155498779296875,1.5079196691513062,0.23396120965480804,0.056810423731803894
1750854080054323200,4.1743232421875,1.7107268571853638,0.15210533142089844,0.09590577334165573
1750854080073148000,4.19314794921875,1.7644829750061035,0.0665842592716217,0.205861434340477
1750854080091972600,4.21197265625,1.6594141721725464,0.04825831577181816,0.258395791053772
1750854080110797000,4.230797119140625,1.5787800550460815,0.05192350596189499,0.19608759880065918
1750854080129621500,4.24962158203125,1.5311325788497925,0.04214967042207718,0.1130099818110466
1750854080148446200,4.2684462890625,1.4016292095184326,0.014049889519810677,0.08002328872680664
1750854080167270700,4.287270751953125,1.1939351558685303,-0.04825831577181816,0.0824667438864708
1750854080186095400,4.306095458984375,0.9850194454193115,-0.08124501258134842,0.09346231073141098
1750854080204919800,4.324919921875,0.8323032855987549,-0.1386663019657135,0.13500112295150757
1750854080223744500,4.34374462890625,0.6588176488876343,-0.13011419773101807,0.15821397304534912
1750854080242569000,4.36256884765625,0.3912588953971863,-0.05436696484684944,0.09712749719619751
1750854080261393700,4.3813935546875,0.10537417232990265,0.11178825795650482,-0.049480047076940536
1750854080289630500,4.40963037109375,-0.3393353819847107,0.19730933010578156,-0.19608759880065918
1750854080308455000,4.428454833984375,-0.6472112536430359,0.16554436087608337,-0.2009745091199875
1750854080327279600,4.447279541015625,-0.9294307827949524,0.11056652665138245,-0.16065743565559387
1750854080346104000,4.46610400390625,-1.128572702407837,0.047036588191986084,-0.10445787757635117
1750854080364928800,4.4849287109375,-1.2360849380493164,-0.025045456364750862,-0.12156209349632263
1750854080383753200,4.503753173828125,-1.3374884128570557,0.01282816007733345,-0.25961753726005554
1750854080402578000,4.522577880859375,-1.4315615892410278,0.10079269111156464,-0.3426951467990875
1750854080421402400,4.54140234375,-1.48776113986969,0.05192350596189499,-0.3182605504989624
1750854080440226800,4.560226806640625,-1.517082691192627,-0.08613193035125732,-0.23273947834968567
1750854080459051500,4.579051513671875,-1.5280781984329224,-0.23029601573944092,-0.18875721096992493
1750854080477876000,4.5978759765625,-1.4865394830703735,-0.3023780584335327,-0.29504770040512085
1750854080496700700,4.61670068359375,-1.3484840393066406,-0.24984370172023773,-0.49052441120147705
1750854080515525000,4.635525146484375,-1.1310161352157593,-0.06047561392188072,-0.5858193039894104
1750854080534349800,4.654349853515625,-0.9392045736312866,-0.06780599057674408,-0.45509424805641174
1750854080553174300,4.67317431640625,-0.7718276381492615,-0.12156209349632263,-0.21441353857517242
1750854080571999000,4.6919990234375,-0.6447677612304688,-0.053145237267017365,0.029932374134659767
1750854080590823400,4.710823486328125,-0.43829548358917236,-0.033597562462091446,0.185092031955719
1750854080609648000,4.729648193359375,-0.10109812021255493,-0.02260199747979641,0.24006985127925873
1750854080628472600,4.74847265625,0.2922987937927246,-0.06414080411195755,0.23762640357017517
1750854080647297000,4.767297119140625,0.6832522749900818,-0.05436696484684944,0.2926042377948761
1750854080666121700,4.786121826171875,1.0473276376724243,-0.0922405794262886,0.4514290690422058
1750854080684946200,4.8049462890625,1.3674207925796509,-0.11423171311616898,0.5247328281402588
1750854080703771000,4.82377099609375,1.6789618730545044,-0.047036588191986084,0.4379900395870209
1750854080722595300,4.84259521484375,1.9562944173812866,-0.06414080411195755,0.2730565667152405
1750854080741420000,4.861419921875,2.1688754558563232,-0.07024945318698883,0.1533270627260208
1750854080760244500,4.880244384765625,2.2360706329345703,-0.09834922850131989,0.07269290834665298
1750854080779069200,4.899069091796875,2.08457612991333,-0.07757982611656189,-0.000610864779446274
1750854080797893600,4.9178935546875,1.8060216903686523,-0.03481929376721382,-0.11667517572641373
1750854080816718300,4.93671826171875,1.5567889213562012,-0.0030543238390237093,-0.19120067358016968
1750854080835542800,4.955542724609375,1.375972867012024,0.10445787757635117,-0.1899789422750473
1750854080854367200,4.9743671875,1.1621702909469604,0.1802051067352295,-0.17165300250053406
1750854080873192000,4.99319189453125,0.8225294351577759,0.15088360011577606,-0.1594357043504715
1750854080892016400,5.012016357421875,0.39370235800743103,0.16065743565559387,-0.17287473380565643
1750854080910841000,5.030841064453125,-0.0204639695584774,0.18387030065059662,-0.17165300250053406
1750854080929665500,5.04966552734375,-0.3955349326133728,0.31581708788871765,-0.12767073512077332
1750854080948490200,5.068490234375,-0.72173672914505,0.47097674012184143,-0.05436696484684944
1750854080967314700,5.087314697265625,-0.990517258644104,0.5613847374916077,0.01893680728971958
1750854080986139100,5.10613916015625,-1.2409718036651611,0.5907062292098999,0.10201441496610641
1750854081004963800,5.1249638671875,-1.5121957063674927,0.4453204274177551,0.19242240488529205
1750854081023788500,5.14378857421875,-1.7858631610870361,0.4221075773239136,0.32070401310920715
1750854081042613000,5.162613037109375,-1.9361358880996704,0.3964512348175049,0.4416552484035492
1750854081061437400,5.1814375,-1.8848233222961426,0.18387030065059662,0.43310311436653137
1750854081080262100,5.20026220703125,-1.7357722520828247,-0.01649334840476513,0.24984370172023773
1750854081099086600,5.219086669921875,-1.6673554182052612,-0.14599667489528656,0.06902772188186646
1750854081117911300,5.237911376953125,-1.6942334175109863,-0.2315177470445633,-0.03237583488225937
1750854081136735700,5.25673583984375,-1.6307035684585571,-0.3072649836540222,-0.06291907280683517
1750854081155560400,5.275560546875,-1.332601547241211,-0.2767217457294464,-0.05803215503692627
1750854081174385000,5.294385009765625,-0.9465349912643433,-0.1288924664258957,0.01649334840476513
1750854081193209300,5.313209228515625,-0.6288852691650391,-0.004276053514331579,0.06291907280683517
1750854081212034000,5.332033935546875,-0.3381136655807495,0.049480047076940536,0.08124501258134842
1750854081230858500,5.3508583984375,-0.0766635313630104,-0.043371398001909256,0.06780599057674408
1750854081249683200,5.36968310546875,0.1591302752494812,-0.10079269111156464,0.033597562462091446
1750854081268507600,5.388507568359375,0.42424559593200684,-0.037262752652168274,0.0030543238390237093
1750854081287332400,5.407332275390625,0.7492256760597229,0.01893680728971958,-0.015271619893610477
1750854081306156800,5.42615673828125,1.0668753385543823,-0.06902772188186646,0.031154103577136993
1750854081324981500,5.4449814453125,1.3405427932739258,-0.14599667489528656,0.12034036219120026
1750854081343806000,5.463805908203125,1.5885539054870605,-0.09834922850131989,0.1948658674955368
1750854081362630400,5.48263037109375,1.7999130487442017,-0.037262752652168274,0.18631376326084137
1750854081381455000,5.501455078125,1.9013166427612305,-0.09101885557174683,0.12767073512077332
1750854081400279600,5.520279541015625,1.9013166427612305,-0.13500112295150757,0.037262752652168274
1750854081419104300,5.539104248046875,1.8292346000671387,-0.1692095398902893,-0.015271619893610477
1750854081437928700,5.5579287109375,1.685070514678955,-0.16187916696071625,0.031154103577136993
1750854081456753400,5.57675341796875,1.4834851026535034,-0.12156209349632263,0.08124501258134842
1750854081475577900,5.595577880859375,1.248913049697876,0.020158538594841957,0.10323614627122879
1750854081494402600,5.614402587890625,1.0571014881134033,0.10445787757635117,0.05803215503692627
1750854081513227000,5.63322705078125,0.8836159110069275,0.05192350596189499,-0.0409279391169548
1750854081532051500,5.652051513671875,0.6050615906715393,0.09590577334165573,-0.1178968995809555
1750854081550876200,5.670876220703125,0.25809037685394287,0.13622283935546875,-0.12522727251052856
1750854081569700600,5.68970068359375,-0.10354158282279968,0.14233149588108063,-0.09101885557174683
1750854081588525300,5.708525390625,-0.4663952589035034,0.11667517572641373,-0.10201441496610641
1750854081607349800,5.727349853515625,-0.8255837559700012,0.14477495849132538,-0.143553227186203
1750854081626174500,5.746174560546875,-1.1688897609710693,0.337808221578598,-0.18875721096992493
1750854081644999000,5.7649990234375,-1.4327833652496338,0.4880809485912323,-0.1899789422750473
1750854081663823400,5.7838232421875,-1.6074906587600708,0.3952295184135437,-0.13744457066059113
1750854081682648000,5.80264794921875,-1.738215684890747,0.17531819641590118,-0.07391463965177536
1750854081701472500,5.821472412109375,-1.8261802196502686,-0.031154103577136993,-0.07635809481143951
1750854081720297200,5.840297119140625,-1.8652756214141846,-0.13622283935546875,-0.2009745091199875
1750854081739121700,5.85912158203125,-1.8200715780258179,-0.08979712426662445,-0.4379900395870209
1750854081757946400,5.8779462890625,-1.7174463272094727,-0.023823726922273636,-0.5699368119239807
1750854081776770800,5.896770751953125,-1.5134174823760986,-0.01893680728971958,-0.5149590373039246
1750854081795595500,5.915595458984375,-1.1884374618530273,0.10445787757635117,-0.2718348205089569
1750854081814420000,5.934419921875,-0.8512400984764099,0.1692095398902893,0.06902772188186646
1750854081833244400,5.953244384765625,-0.582459568977356,0.04825831577181816,0.31459537148475647
1750854081852069000,5.972069091796875,-0.2965748608112335,-0.053145237267017365,0.25350889563560486
1750854081870893600,5.9908935546875,0.03329212963581085,-0.04581485688686371,0.06291907280683517
1750854081889718300,6.00971826171875,0.3399462401866913,-0.05192350596189499,0.010384701192378998
1750854081908542700,6.028542724609375,0.629496157169342,-0.03481929376721382,0.1484401375055313
1750854081927367200,6.0473671875,0.9764673709869385,-0.010384701192378998,0.47097674012184143
1750854081946192000,6.06619189453125,1.3942989110946655,0.017715077847242355,0.8240565657615662
1750854081965016300,6.085016357421875,1.7547091245651245,0.007941242307424545,0.7422007322311401
1750854081983841000,6.103841064453125,1.9330816268920898,-0.014049889519810677,0.29504770040512085
1750854082002665500,6.12266552734375,1.9746203422546387,-0.025045456364750862,-0.15577052533626556
1750854082021490200,6.141490234375,1.8927645683288574,-0.12156209349632263,-0.3121519088745117
1750854082040314600,6.160314697265625,1.7803653478622437,-0.2156352698802948,-0.20952661335468292
1750854082059139300,6.179139404296875,1.7033964395523071,-0.1899789422750473,-0.06902772188186646
1750854082077963800,6.1979638671875,1.599549412727356,-0.16676609218120575,0.053145237267017365
1750854082096788200,6.216788330078125,1.4395028352737427,-0.17776164412498474,0.06047561392188072
1750854082115613000,6.235613037109375,1.2122611999511719,-0.14599667489528656,-0.04825831577181816
1750854082134437400,6.254437255859375,0.9471458196640015,-0.0360410213470459,-0.1802051067352295
1750854082153262000,6.273261962890625,0.6319395899772644,0.021380268037319183,-0.24373504519462585
1750854082172086500,6.29208642578125,0.2715294063091278,0.06414080411195755,-0.24862197041511536
1750854082190911200,6.3109111328125,-0.0925460159778595,0.12522727251052856,-0.19608759880065918
1750854082209735700,6.329735595703125,-0.37354379892349243,0.17531819641590118,-0.10690133273601532
1750854082228560100,6.34856005859375,-0.610559344291687,0.17776164412498474,-0.011606430634856224
1750854082247384800,6.367384765625,-0.9294307827949524,0.15210533142089844,0.08368847519159317
1750854082266209300,6.386209228515625,-1.3069452047348022,0.09346231073141098,0.21197007596492767
1750854082285034000,6.405033935546875,-1.6453642845153809,0.0665842592716217,0.2315177470445633
1750854082303858400,6.4238583984375,-1.878714680671692,0.10567960888147354,0.13744457066059113
1750854082322683100,6.44268310546875,-1.9092578887939453,0.07024945318698883,-0.0030543238390237093
1750854082341507600,6.461507568359375,-1.8225150108337402,0.053145237267017365,-0.13988803327083588
1750854082360332000,6.48033203125,-1.7186681032180786,0.06047561392188072,-0.09712749719619751
1750854082379156700,6.49915673828125,-1.5769474506378174,0.047036588191986084,0.13133592903614044
1750854082397981200,6.517981201171875,-1.4608831405639648,0.14233149588108063,0.3500255048274994
1750854082416806000,6.536805908203125,-1.388801097869873,0.04581485688686371,0.39278605580329895
1750854082435630300,6.55563037109375,-1.2812888622283936,-0.16554436087608337,0.1948658674955368
1750854082454455000,6.574455078125,-1.017395257949829,-0.2864955961704254,-0.07635809481143951
1750854082473279500,6.593279541015625,-0.685084879398346,-0.2974911332130432,-0.29016077518463135
1750854082492104000,6.61210400390625,-0.30634868144989014,-0.23762640357017517,-0.3744601011276245
1750854082510928600,6.6309287109375,0.17256930470466614,-0.09590577334165573,-0.21197007596492767
1750854082529753000,6.649753173828125,0.6136136651039124,0.01282816007733345,0.05192350596189499
1750854082548577800,6.668577880859375,0.9825760126113892,-0.0054977829568088055,0.24495677649974823
1750854082567402200,6.68740234375,1.3295471668243408,-0.025045456364750862,0.268169641494751
1750854082586226700,6.706226806640625,1.609323263168335,0.06780599057674408,0.12767073512077332
1750854082605051400,6.725051513671875,1.813352108001709,0.1533270627260208,0.027488915249705315
1750854082623875800,6.743875732421875,2.0014984607696533,0.13011419773101807,0.01893680728971958
1750854082642700500,6.762700439453125,2.1468842029571533,-0.033597562462091446,0.0665842592716217
1750854082661525000,6.78152490234375,2.1077890396118164,-0.20341797173023224,0.039706211537122726
1750854082680349700,6.800349609375,1.9440771341323853,-0.29138249158859253,-0.08002328872680664
1750854082699174100,6.819174072265625,1.7253875732421875,-0.27550002932548523,-0.22296564280986786
1750854082717998600,6.83799853515625,1.5140283107757568,-0.185092031955719,-0.27550002932548523
1750854082736823300,6.8568232421875,1.3539817333221436,-0.09834922850131989,-0.22418737411499023
1750854082755647700,6.875647705078125,1.1389573812484741,0.0030543238390237093,-0.15577052533626556
1750854082774472400,6.894472412109375,0.8029817342758179,0.029932374134659767,-0.043371398001909256
1750854082793297000,6.913296875,0.37659814953804016,-0.09101885557174683,0.1130099818110466
1750854082812121600,6.93212158203125,-0.11209368705749512,-0.10445787757635117,0.2510654330253601
1750854082830946000,6.950946044921875,-0.6056724190711975,0.12767073512077332,0.33536475896835327
1750854082849770500,6.9697705078125,-1.0882556438446045,0.23396120965480804,0.33536475896835327
1750854082868595200,6.98859521484375,-1.5671736001968384,0.2205221801996231,0.32192572951316833
1750854082887419600,7.007419677734375,-1.9703443050384521,0.08979712426662445,0.2877173125743866
1750854082906244400,7.026244384765625,-2.2000296115875244,0.0054977829568088055,0.185092031955719
1750854082925068800,7.04506884765625,-2.3063199520111084,-0.009162971749901772,0.056810423731803894
1750854082943893500,7.0638935546875,-2.396728038787842,0.05558869615197182,-0.08613193035125732
1750854082962718000,7.082718017578125,-2.3991713523864746,0.21197007596492767,-0.2009745091199875
1750854082981542400,7.10154248046875,-2.272111654281616,0.22907429933547974,-0.24740023910999298
1750854083000367000,7.1203671875,-2.101069450378418,0.12522727251052856,-0.25473061203956604
1750854083019191600,7.139191650390625,-1.905592679977417,-0.01893680728971958,-0.20830489695072174
1750854083038016300,7.158016357421875,-1.581834316253662,-0.12034036219120026,-0.15577052533626556
1750854083056840700,7.1768408203125,-1.1542290449142456,0.0054977829568088055,-0.16065743565559387
1750854083075665200,7.1956650390625,-0.7657189965248108,0.13744457066059113,-0.1533270627260208
1750854083094489900,7.21448974609375,-0.4260781705379486,0.11911863088607788,-0.09957095980644226
1750854083113314300,7.233314208984375,-0.05589412897825241,0.043371398001909256,-0.027488915249705315
1750854083132139000,7.252138916015625,0.3448331654071808,0.04581485688686371,0.10445787757635117
1750854083150963500,7.27096337890625,0.7553343176841736,0.04581485688686371,0.23884813487529755
1750854083169788000,7.289787841796875,1.1939351558685303,-0.037262752652168274,0.29626941680908203
1750854083188612600,7.308612548828125,1.6508620977401733,0.01282816007733345,0.16798780858516693
1750854083207437000,7.32743701171875,2.0467023849487305,-0.009162971749901772,0.01893680728971958
1750854083226261800,7.34626171875,2.3399174213409424,-0.205861434340477,0.009162971749901772
1750854083245086200,7.365086181640625,2.4828598499298096,-0.28038692474365234,0.000610864779446274
1750854083263911000,7.383910888671875,2.495077133178711,-0.15699224174022675,-0.07147117704153061
1750854083282735400,7.4027353515625,2.444986343383789,-0.07269290834665298,-0.16676609218120575
1750854083301560000,7.42156005859375,2.3289220333099365,0.0665842592716217,-0.21319180727005005
1750854083320384500,7.440384521484375,2.058919668197632,0.06291907280683517,-0.12522727251052856
1750854083339209000,7.459208984375,1.6410882472991943,0.04214967042207718,-0.004276053514331579
1750854083358033700,7.47803369140625,1.1939351558685303,0.02260199747979641,0.0030543238390237093
1750854083376858000,7.496858154296875,0.7516691088676453,-0.05803215503692627,-0.05558869615197182
1750854083395682800,7.515682861328125,0.31551164388656616,-0.03848448023200035,-0.08002328872680664
1750854083414507300,7.53450732421875,-0.06200277432799339,0.04214967042207718,-0.033597562462091446
1750854083433331700,7.553331787109375,-0.448069304227829,-0.015271619893610477,0.021380268037319183
1750854083452156400,7.572156494140625,-0.8768963813781738,-0.16310089826583862,0.03481929376721382
1750854083470980900,7.59098095703125,-1.4450006484985352,-0.24740023910999298,0.004276053514331579
1750854083489805600,7.6098056640625,-2.0082180500030518,-0.28405213356018066,-0.12034036219120026
1750854083508630000,7.628630126953125,-2.3881759643554688,-0.2718348205089569,-0.29626941680908203
1750854083527454500,7.647454345703125,-2.567770004272461,-0.22174391150474548,-0.34636032581329346
1750854083546279200,7.666279052734375,-2.5641047954559326,-0.21930044889450073,-0.22418737411499023
1750854083565103600,7.685103515625,-2.437045097351074,-0.09834922850131989,0.006719512399286032
1750854083583928300,7.70392822265625,-2.319758892059326,-0.06902772188186646,0.33169957995414734
1750854083602752800,7.722752685546875,-2.2146902084350586,-0.2608392536640167,0.47097674012184143
1750854083621577200,7.7415771484375,-2.098625898361206,-0.3610210716724396,0.20219624042510986
1750854083640402000,7.76040185546875,-1.8151847124099731,-0.3084867000579834,-0.27550002932548523
1750854083659226400,7.779226318359375,-1.349705696105957,-0.13255766034126282,-0.5271763205528259
1750854083678051000,7.798051025390625,-0.8390227556228638,0.1594357043504715,-0.4001164436340332
1750854083696875500,7.81687548828125,-0.37843072414398193,0.2571740746498108,-0.031154103577136993
1750854083715700200,7.8357001953125,-0.005803215317428112,0.13011419773101807,0.24373504519462585
1750854083734524700,7.854524658203125,0.30573782324790955,0.01893680728971958,0.2632827162742615
1750854083753349000,7.87334912109375,0.6282744407653809,0.11423171311616898,0.13133592903614044
1750854083772173800,7.892173828125,1.0143409967422485,0.19853104650974274,0.09712749719619751
1750854083790998300,7.910998291015625,1.396742343902588,0.24006985127925873,0.23884813487529755
1750854083809823000,7.929822998046875,1.6862921714782715,0.19608759880065918,0.5076286196708679
1750854083828647400,7.9486474609375,1.9733986854553223,0.14721840620040894,0.6713404059410095
1750854083847471900,7.967471923828125,2.251953125,0.12278381735086441,0.6212494969367981
1750854083866296600,7.986296630859375,2.383899688720703,0.1081230640411377,0.3390299379825592
1750854083885121000,8.00512109375,2.2983787059783936,0.16554436087608337,-0.04825831577181816
1750854083903945700,8.02394580078125,2.1077890396118164,0.30604326725006104,-0.3634645342826843
1750854083922770200,8.042770263671875,1.9562944173812866,0.5100721120834351,-0.5100721120834351
1750854083941594600,8.0615947265625,1.832899808883667,0.6407971382141113,-0.4318813979625702
1750854083960419300,8.08041943359375,1.7229441404342651,0.5381718873977661,-0.18142683804035187
1750854083979243800,8.099243896484374,1.4187334775924683,0.31459537148475647,0.13255766034126282
1750854083998068500,8.118068359375,1.0143409967422485,0.12522727251052856,0.30970844626426697
1750854084016893000,8.136892822265626,0.6600393652915955,0.01649334840476513,0.21197007596492767
1750854084035717400,8.15571728515625,0.32650721073150635,0.023823726922273636,-0.01893680728971958
1750854084054542000,8.1745419921875,-0.06933315098285675,-0.015271619893610477,-0.2620609998703003
1750854084073366500,8.193366455078126,-0.4944950342178345,-0.07635809481143951,-0.42332929372787476
1750854084092191200,8.212191162109375,-0.9648609161376953,-0.11545344442129135,-0.42943793535232544
1750854084111015700,8.231015625,-1.4938697814941406,-0.10934479534626007,-0.2974911332130432
1750854084129840000,8.249840087890625,-1.9410228729248047,-0.08613193035125732,-0.17776164412498474
1750854084148664800,8.268664794921875,-2.1780383586883545,-0.09712749719619751,-0.13744457066059113
1750854084167489300,8.2874892578125,-2.266002893447876,-0.20952661335468292,-0.17898337543010712
1750854084186313700,8.306313720703125,-2.3478586673736572,-0.4269944727420807,-0.3634645342826843
1750854084205138400,8.325138427734375,-2.385732412338257,-0.30604326725006104,-0.5222893953323364
1750854084223963000,8.343962890625,-2.2757766246795654,-0.1594357043504715,-0.5540543794631958
1750854084242787600,8.36278759765625,-2.048535108566284,-0.0030543238390237093,-0.4221075773239136
1750854084261612000,8.381612060546875,-1.7797545194625854,0.053145237267017365,-0.16065743565559387
1750854084280436700,8.400436767578125,-1.5292999744415283,0.07757982611656189,0.09834922850131989
1750854084299261200,8.41926123046875,-1.2385283708572388,0.10201441496610641,0.24373504519462585
1750854084318085600,8.438085693359374,-0.859792172908783,0.12644900381565094,0.1594357043504715
1750854084336910300,8.456910400390624,-0.39797839522361755,0.18387030065059662,-0.010384701192378998
1750854084355734800,8.47573486328125,0.0772743970155716,0.0873536616563797,-0.09590577334165573
1750854084374559500,8.4945595703125,0.5073232054710388,-0.06291907280683517,-0.0824667438864708
1750854084393384000,8.513384033203126,0.9092722535133362,-0.14110976457595825,0.04581485688686371
1750854084412208400,8.53220849609375,1.306334376335144,-0.13011419773101807,0.2718348205089569
1750854084431033000,8.551033203125,1.7437134981155396,-0.09346231073141098,0.593149721622467
1750854084449857500,8.569857421875,2.1591014862060547,-0.1496618688106537,0.7446441650390625
1750854084468682200,8.58868212890625,2.3765695095062256,-0.3194822669029236,0.6004800796508789
1750854084487506700,8.607506591796875,2.338695764541626,-0.36224281787872314,0.24373504519462585
1750854084506331100,8.6263310546875,2.2030837535858154,-0.2620609998703003,-0.06291907280683517
1750854084525155800,8.64515576171875,2.104123830795288,-0.21197007596492767,-0.22418737411499023
1750854084543980300,8.663980224609375,2.039371967315674,-0.30115634202957153,-0.28038692474365234
1750854084562804700,8.6828046875,1.8622212409973145,-0.3182605504989624,-0.2718348205089569
1750854084581629400,8.70162939453125,1.6068798303604126,-0.27550002932548523,-0.19853104650974274
1750854084600454000,8.720453857421875,1.2269219160079956,-0.1496618688106537,-0.08979712426662445
1750854084619278600,8.739278564453125,0.8542944192886353,0.0616973415017128,-0.04825831577181816
1750854084638103000,8.75810302734375,0.5867356061935425,0.2706131041049957,-0.09712749719619751
1750854084656927500,8.776927490234375,0.31551164388656616,0.28527384996414185,-0.13988803327083588
1750854084675752200,8.795752197265625,-0.01435532234609127,0.1948658674955368,-0.10934479534626007
1750854084694576600,8.81457666015625,-0.33689191937446594,0.1802051067352295,-0.053145237267017365
1750854084713401300,8.8334013671875,-0.6863065958023071,0.27427828311920166,-0.01893680728971958
1750854084732225800,8.852225830078124,-1.0809252262115479,0.2657261788845062,-0.02260199747979641
1750854084751050200,8.87105029296875,-1.5329651832580566,0.20708316564559937,-0.0054977829568088055
1750854084769875000,8.889875,-1.904370903968811,0.033597562462091446,-0.010384701192378998
1750854084788699400,8.908699462890626,-2.2024729251861572,-0.16676609218120575,-0.023823726922273636
1750854084807524000,8.927524169921876,-2.4822490215301514,-0.20708316564559937,-0.015271619893610477
1750854084826348500,8.9463486328125,-2.5579962730407715,-0.1948658674955368,-0.033597562462091446
1750854084845173000,8.965173095703125,-2.4187190532684326,-0.32070401310920715,-0.031154103577136993
1750854084863997700,8.983997802734375,-2.2000296115875244,-0.24373504519462585,0.014049889519810677
1750854084882822100,9.002822265625,-1.9691226482391357,-0.10690133273601532,-0.033597562462091446
1750854084901646600,9.021646484375,-1.8005239963531494,0.001832594396546483,-0.1594357043504715
1750854084920471300,9.04047119140625,-1.5891647338867188,0.06536252796649933,-0.23029601573944092
1750854084939295700,9.059295654296875,-1.2531890869140625,-0.021380268037319183,-0.22418737411499023
1750854084958120400,9.078120361328125,-0.8475748896598816,0.08857539296150208,-0.12156209349632263
1750854084976945000,9.09694482421875,-0.38698282837867737,0.24984370172023773,-0.011606430634856224
1750854084995769300,9.115769287109375,0.07849612087011337,0.2009745091199875,0.0360410213470459
1750854085014594000,9.134593994140625,0.44868019223213196,0.023823726922273636,0.047036588191986084
1750854085033418500,9.15341845703125,0.7626646757125854,-0.06536252796649933,0.049480047076940536
1750854085052243200,9.1722431640625,1.0766491889953613,-0.1130099818110466,0.0824667438864708
1750854085071067600,9.191067626953124,1.3869684934616089,-0.19120067358016968,0.10567960888147354
1750854085089892400,9.209892333984374,1.665522813796997,-0.25961753726005554,0.06536252796649933
1750854085108716800,9.228716796875,1.9379684925079346,-0.2620609998703003,-0.007941242307424545
1750854085127541200,9.247541259765624,2.262948513031006,-0.27550002932548523,-0.02260199747979641
1750854085146366000,9.266365966796876,2.5720460414886475,-0.20952661335468292,0.011606430634856224
1750854085165190400,9.2851904296875,2.7308709621429443,-0.011606430634856224,-0.04581485688686371
1750854085184014800,9.304014892578126,2.6697845458984375,0.007941242307424545,-0.053145237267017365
1750854085202839600,9.322839599609376,2.4291038513183594,0.04825831577181816,0.05070177838206291
1750854085221664000,9.3416640625,2.1786491870880127,0.1899789422750473,0.19120067358016968
1750854085240488700,9.36048876953125,1.9294164180755615,0.27550002932548523,0.24495677649974823
1750854085259313200,9.379313232421875,1.470046043395996,0.22785256803035736,0.18264856934547424
1750854085278137600,9.3981376953125,0.8567378520965576,0.20952661335468292,-0.004276053514331579
1750854085296962300,9.41696240234375,0.17256930470466614,0.2657261788845062,-0.2559523284435272
1750854085315786800,9.435786865234375,-0.5421425104141235,0.24373504519462585,-0.33169957995414734
1750854085334611500,9.454611572265625,-1.1212422847747803,0.08491020649671555,-0.21685700118541718
1750854085353436000,9.473435791015625,-1.5280781984329224,-0.0054977829568088055,-0.031154103577136993
1750854085372260400,9.49226025390625,-1.787084937095642,-0.04581485688686371,0.11178825795650482
1750854085391085000,9.5110849609375,-2.0460915565490723,-0.0054977829568088055,0.2412915825843811
1750854085409909500,9.529909423828125,-2.30265474319458,0.10934479534626007,0.3488037884235382
1750854085428734000,9.54873388671875,-2.4883577823638916,0.20830489695072174,0.3659079968929291
1750854085447558700,9.56755859375,-2.6105306148529053,0.19120067358016968,0.29993459582328796
1750854085466383000,9.586383056640624,-2.7033820152282715,0.24373504519462585,0.2364046722650528
1750854085485207800,9.605207763671874,-2.612974166870117,0.3133736252784729,0.23762640357017517
1750854085504032300,9.6240322265625,-2.3063199520111084,0.29138249158859253,0.25350889563560486
1750854085522856700,9.642856689453126,-2.0155482292175293,0.2816086709499359,0.185092031955719
1750854085541681400,9.661681396484376,-1.749211311340332,0.24251331388950348,-0.01649334840476513
1750854085560505900,9.680505859375,-1.407127022743225,0.08124501258134842,-0.21197007596492767
1750854085579330300,9.699330322265626,-0.9489784240722656,-0.16187916696071625,-0.32070401310920715
1750854085598155000,9.718155029296875,-0.41874781250953674,-0.0873536616563797,-0.2608392536640167
1750854085616979500,9.7369794921875,0.1701258420944214,0.11545344442129135,-0.015271619893610477
1750854085635804200,9.75580419921875,0.7003564834594727,0.13500112295150757,0.24862197041511536
1750854085654628600,9.774628662109375,1.0888664722442627,0.001832594396546483,0.3756818473339081
1750854085673453000,9.793453125,1.443168044090271,-0.12767073512077332,0.46975502371788025
1750854085692277800,9.81227783203125,1.7327179908752441,-0.21807873249053955,0.5381718873977661
1750854085711102200,9.831102294921875,1.9672900438308716,-0.22418737411499023,0.48075059056282043
1750854085729927000,9.849927001953125,2.151771068572998,-0.18753549456596375,0.29138249158859253
1750854085748751400,9.86875146484375,2.3154828548431396,-0.23884813487529755,0.06902772188186646
1750854085767575800,9.887575927734375,2.3484697341918945,-0.39278605580329895,-0.08124501258134842
1750854085786400500,9.906400390625,2.238513946533203,-0.42088583111763,-0.1692095398902893
1750854085805225000,9.925224853515624,2.1004586219787598,-0.3170388340950012,-0.21807873249053955
1750854085824049400,9.94404931640625,1.989281177520752,-0.17287473380565643,-0.22907429933547974
1750854085842874000,9.9628740234375,1.8817689418792725,0.05558869615197182,-0.18142683804035187
1750854085861698600,9.981698486328124,1.6117666959762573,0.1178968995809555,-0.09957095980644226
1750854085880523300,10.000523193359374,1.1365139484405518,0.037262752652168274,-0.03237583488225937
1750854085899347700,10.01934765625,0.5378664135932922,0.11178825795650482,-0.09590577334165573
1750854085918172200,10.038172119140626,-0.08888082206249237,0.19120067358016968,-0.20830489695072174
1750854085936996900,10.056996826171876,-0.5934551358222961,0.11423171311616898,-0.24740023910999298
1750854085955821300,10.0758212890625,-0.9685261249542236,0.09346231073141098,-0.21685700118541718
1750854085974645800,10.094645751953125,-1.273958444595337,0.16310089826583862,-0.19120067358016968
1750854085993470500,10.113470458984375,-1.56350839138031,0.1997527778148651,-0.143553227186203
1750854086012295000,10.132294921875,-1.8322888612747192,0.10934479534626007,-0.04825831577181816
1750854086031119600,10.15111962890625,-2.020435333251953,-0.000610864779446274,0.05436696484684944
1750854086049944000,10.169944091796875,-2.0961825847625732,0.04825831577181816,0.08857539296150208
1750854086068768500,10.1887685546875,-2.0949606895446777,0.10323614627122879,0.06291907280683517
1750854086087593200,10.20759326171875,-2.0265438556671143,0.08979712426662445,-0.020158538594841957
1750854086106417700,10.226417724609375,-1.9092578887939453,-0.05192350596189499,-0.16676609218120575
1750854086125242000,10.2452421875,-1.7931935787200928,-0.12522727251052856,-0.3439168632030487
1750854086144066800,10.26406689453125,-1.6795727014541626,-0.06414080411195755,-0.47952884435653687
1750854086162891300,10.282891357421875,-1.5280781984329224,0.047036588191986084,-0.4917461574077606
1750854086181716000,10.301716064453124,-1.1859939098358154,0.18875721096992493,-0.23396120965480804
1750854086200540400,10.32054052734375,-0.6899717450141907,0.34147340059280396,0.20341797173023224
1750854086219364900,10.33936474609375,-0.28069236874580383,0.46364638209342957,0.555276095867157
1750854086238189600,10.358189453125,0.06750056147575378,0.42455101013183594,0.5161807537078857
1750854086257014000,10.377013916015626,0.3484983444213867,0.2779434621334076,0.20708316564559937
1750854086275838500,10.39583837890625,0.6368265151977539,0.17653992772102356,-0.053145237267017365
1750854086294663200,10.4146630859375,1.0192278623580933,0.04459312930703163,-0.017715077847242355
1750854086313487600,10.433487548828126,1.3906337022781372,-0.1740964651107788,0.1496618688106537
1750854086332312300,10.452312255859376,1.6728532314300537,-0.3915643095970154,0.25350889563560486
1750854086351136800,10.47113671875,1.823125958442688,-0.48075059056282043,0.21807873249053955
1750854086369961200,10.489961181640625,1.9294164180755615,-0.5064069032669067,0.1899789422750473
1750854086388786000,10.508785888671875,2.0161592960357666,-0.42088583111763,0.21930044889450073
1750854086407610400,10.5276103515625,2.07846736907959,-0.21319180727005005,0.10567960888147354
1750854086426434800,10.546434814453125,2.056476354598999,-0.1496618688106537,-0.049480047076940536
1750854086445259500,10.565259521484375,1.9233077764511108,-0.10079269111156464,-0.11423171311616898
1750854086464084000,10.584083984375,1.685070514678955,-0.05436696484684944,-0.053145237267017365
1750854086482908700,10.60290869140625,1.432172417640686,-0.07635809481143951,0.06536252796649933
1750854086501733000,10.621733154296875,1.2220350503921509,-0.22418737411499023,0.0873536616563797
1750854086520557600,10.6405576171875,0.9288198947906494,-0.2730565667152405,-0.07513637095689774
1750854086539382300,10.65938232421875,0.5684096813201904,-0.1545487940311432,-0.21685700118541718
1750854086558206700,10.678206787109374,0.25320345163345337,0.037262752652168274,-0.2107483446598053
1750854086577031200,10.69703125,-0.0461202897131443,0.26450446248054504,-0.1337793916463852
1750854086595856000,10.71585595703125,-0.37843072414398193,0.3133736252784729,-0.09712749719619751
1750854086614680300,10.734680419921874,-0.7913753390312195,0.26450446248054504,-0.07269290834665298
1750854086633505000,10.753505126953126,-1.2544108629226685,0.16676609218120575,-0.05436696484684944
1750854086652329500,10.77232958984375,-1.6856813430786133,0.02260199747979641,-0.09101885557174683
1750854086671154000,10.79115380859375,-2.0241005420684814,-0.06780599057674408,-0.14110976457595825
1750854086689978600,10.809978515625,-2.2672245502471924,-0.0873536616563797,-0.1594357043504715
1750854086708803000,10.828802978515625,-2.3955061435699463,-0.0824667438864708,-0.13011419773101807
1750854086727627500,10.84762744140625,-2.374736785888672,-0.08368847519159317,-0.0824667438864708
1750854086746452200,10.8664521484375,-2.22690749168396,-0.0824667438864708,-0.047036588191986084
1750854086765276700,10.885276611328125,-1.9520183801651,0.05558869615197182,-0.017715077847242355
1750854086784101000,10.90410107421875,-1.534186840057373,0.3549124300479889,0.033597562462091446
1750854086802925800,10.92292578125,-1.1334595680236816,0.42943793535232544,0.11423171311616898
1750854086821750300,10.941750244140625,-0.9355394244194031,0.3805687427520752,0.14233149588108063
1750854086840575000,10.960574951171875,-0.7840449213981628,0.29504770040512085,0.08002328872680664
1750854086859399400,10.9793994140625,-0.41386088728904724,0.24495677649974823,0.025045456364750862
1750854086878224000,10.998223876953125,0.1383608728647232,0.205861434340477,-0.009162971749901772
1750854086897048600,11.017048583984375,0.6575959324836731,0.08979712426662445,-0.0360410213470459
1750854086915873000,11.035873046875,0.9825760126113892,-0.0030543238390237093,-0.0360410213470459
1750854086934697500,11.054697509765624,1.1804962158203125,-0.10079269111156464,0.05070177838206291
1750854086953522200,11.073522216796874,1.3918553590774536,-0.31581708788871765,0.1533270627260208
1750854086972346600,11.0923466796875,1.665522813796997,-0.5064069032669067,0.1948658674955368
1750854086991171000,11.111171142578126,2.0039420127868652,-0.4978547990322113,0.22907429933547974
1750854087009995800,11.129995849609376,2.3814563751220703,-0.2657261788845062,0.2522871494293213
1750854087028820200,11.1488203125,2.603811025619507,-0.12400554865598679,0.17653992772102356
1750854087047645000,11.16764501953125,2.5024075508117676,-0.09468404203653336,-0.01893680728971958
1750854087066469400,11.186469482421876,2.182314395904541,-0.19364413619041443,-0.28038692474365234
1750854087085293800,11.2052939453125,1.8060216903686523,-0.23884813487529755,-0.5271763205528259
1750854087104118500,11.224118408203125,1.5164718627929688,-0.16310089826583862,-0.5845975875854492
1750854087122943000,11.24294287109375,1.3258819580078125,0.02626718580722809,-0.4098902642726898
1750854087141767400,11.261767333984375,0.9483675956726074,0.1740964651107788,-0.12156209349632263
1750854087160592100,11.280592041015625,0.49144071340560913,0.164322629570961,0.15821397304534912
1750854087179416600,11.29941650390625,0.06994401663541794,0.04581485688686371,0.347582072019577
1750854087198241300,11.3182412109375,-0.32589635252952576,0.05925388261675835,0.33047783374786377
1750854087217065700,11.337065673828125,-0.7229584455490112,0.16676609218120575,0.1337793916463852
1750854087245302500,11.365302490234376,-1.388801097869873,0.23396120965480804,-0.039706211537122726
1750854087264127000,11.384126953125,-1.8322888612747192,0.19853104650974274,0.01893680728971958
1750854087282951700,11.40295166015625,-2.1670427322387695,0.1178968995809555,0.15088360011577606
1750854087301776100,11.421776123046875,-2.357632637023926,0.12767073512077332,0.20830489695072174
1750854087320600600,11.4406005859375,-2.3991713523864746,0.1740964651107788,0.15699224174022675
1750854087339425300,11.45942529296875,-2.319758892059326,0.1997527778148651,0.03237583488225937
1750854087358249700,11.478249755859375,-2.2562291622161865,0.1997527778148651,-0.10934479534626007
1750854087377074400,11.497074462890625,-2.1474950313568115,0.29993459582328796,-0.1386663019657135
1750854087395899000,11.51589892578125,-1.9581270217895508,0.347582072019577,-0.07757982611656189
1750854087414723300,11.534723388671875,-1.6331470012664795,0.2987128794193268,0.04214967042207718
1750854087433548000,11.553548095703125,-1.13712477684021,0.31093016266822815,0.10690133273601532
1750854087452372500,11.57237255859375,-0.6459894776344299,0.4269944727420807,0.1288924664258957
1750854087471197000,11.591197021484374,-0.37232208251953125,0.4172206521034241,0.10323614627122879
1750854087490021600,11.610021728515624,-0.25381430983543396,0.17165300250053406,0.02260199747979641
1750854087508846000,11.62884619140625,-0.08399390429258347,-0.11178825795650482,-0.07147117704153061
1750854087527670500,11.64767041015625,0.2715294063091278,-0.2730565667152405,-0.09346231073141098
1750854087546495200,11.6664951171875,0.7040216326713562,-0.38789913058280945,0.020158538594841957
1750854087565319700,11.685319580078126,1.1035271883010864,-0.379347026348114,0.15821397304534912
1750854087584144400,11.704144287109376,1.405294418334961,-0.2889390289783478,0.2877173125743866
1750854087602968800,11.72296875,1.6581923961639404,-0.41233372688293457,0.33169957995414734
1750854087621793300,11.741793212890625,1.9049818515777588,-0.4868592321872711,0.2315177470445633
1750854087640618000,11.760617919921875,2.137110471725464,-0.3390299379825592,0.11423171311616898
1750854087659442400,11.7794423828125,2.344804525375366,-0.24740023910999298,0.13622283935546875
1750854087678267000,11.798266845703125,2.5683810710906982,-0.37201663851737976,0.347582072019577
1750854087697091600,11.817091552734375,2.7320926189422607,-0.5283980369567871,0.5320632457733154
1750854087715916000,11.835916015625,2.5867068767547607,-0.44409868121147156,0.49418962001800537
1750854087734740500,11.854740478515625,2.179871082305908,-0.1899789422750473,0.2974911332130432
1750854087753565200,11.873565185546875,1.6862921714782715,0.0409279391169548,-0.007941242307424545
1750854087772389600,11.8923896484375,1.1597267389297485,0.0360410213470459,-0.24862197041511536
1750854087791214300,11.91121435546875,0.5598575472831726,-0.053145237267017365,-0.4367683231830597
1750854087810038500,11.93003857421875,-0.016798781231045723,-0.12522727251052856,-0.6029235124588013
1750854087828863000,11.948863037109374,-0.43951719999313354,-0.08979712426662445,-0.6126973628997803
1750854087847687400,11.9676875,-0.796262264251709,0.049480047076940536,-0.5406153202056885
1750854087866512100,11.98651220703125,-1.2104285955429077,0.12644900381565094,-0.37201663851737976
1750854087885336600,12.005336669921874,-1.6942334175109863,0.043371398001909256,-0.19120067358016968
1750854087904161300,12.024161376953124,-2.072969675064087,0.08368847519159317,-0.15088360011577606
1750854087922985700,12.04298583984375,-2.305098295211792,0.12767073512077332,-0.2510654330253601
1750854087941810200,12.06181005859375,-2.424827814102173,0.007941242307424545,-0.4062250852584839
1750854087960635000,12.080634765625,-2.3674063682556152,-0.08857539296150208,-0.4416552484035492
1750854087979459300,12.099459228515625,-2.1242823600769043,-0.09468404203653336,-0.2877173125743866
1750854087998283800,12.11828369140625,-1.972787857055664,0.07391463965177536,-0.13500112295150757
1750854088017108500,12.1371083984375,-2.061974048614502,0.337808221578598,-0.17776164412498474
1750854088035933000,12.155932861328125,-2.083965301513672,0.3756818473339081,-0.33536475896835327
1750854088054757400,12.17475732421875,-1.8298454284667969,0.37690356373786926,-0.42943793535232544
1750854088073582000,12.19358203125,-1.2006547451019287,0.6713404059410095,-0.3121519088745117
1750854088092406500,12.212406494140625,-0.620333194732666,1.0244202613830566,0.06536252796649933
1750854088111231200,12.231231201171875,-0.3491092324256897,1.2247838973999023,0.4062250852584839
1750854088130055700,12.2500556640625,-0.19150610268115997,1.2003493309020996,0.41233372688293457
1750854088148880100,12.268880126953125,-0.016798781231045723,0.8741474747657776,0.2254091054201126
1750854088167704800,12.287704833984375,0.11026109009981155,0.43432486057281494,0.04214967042207718
1750854088186529300,12.306529296875,0.3326158821582794,-0.05803215503692627,-0.08002328872680664
1750854088205353700,12.325353759765624,0.6453786492347717,-0.3646862804889679,-0.10079269111156464
1750854088224178400,12.344178466796874,1.043662428855896,-0.4428769648075104,0.05558869615197182
1750854088243003000,12.3630029296875,1.5115848779678345,-0.2779434621334076,0.4367683231830597
1750854088261827300,12.381827392578124,1.9220860004425049,-0.42821621894836426,0.9095776677131653
1750854088280652000,12.400652099609376,2.2250750064849854,-0.5821541547775269,1.0598503351211548
1750854088299476500,12.4194765625,2.455981731414795,-0.6310232877731323,0.8924734592437744
1750854088318301000,12.438301025390626,2.5805983543395996,-0.5882627964019775,0.5015199780464172
1750854088337125600,12.457125732421876,2.536616086959839,-0.4269944727420807,-0.07757982611656189
1750854088355950000,12.4759501953125,2.316704750061035,-0.30115634202957153,-0.5015199780464172
1750854088374774800,12.49477490234375,2.0723588466644287,-0.258395791053772,-0.656679630279541
1750854088393599200,12.51359912109375,1.8842123746871948,-0.3915643095970154,-0.6078104376792908
1750854088412423700,12.532423583984375,1.5934407711029053,-0.46364638209342957,-0.4013381600379944
1750854088431248400,12.551248291015625,1.1328487396240234,-0.27916520833969116,-0.17165300250053406
1750854088450072800,12.57007275390625,0.5781835317611694,0.053145237267017365,-0.09712749719619751
1750854088468897300,12.588897216796875,0.10170898586511612,0.20341797173023224,-0.08002328872680664
1750854088487721700,12.6077216796875,-0.31612253189086914,0.1484401375055313,-0.05925388261675835
1750854088506546400,12.62654638671875,-0.713184654712677,0.20708316564559937,-0.04214967042207718
1750854088525371000,12.645370849609375,-1.0955859422683716,0.42943793535232544,-0.015271619893610477
1750854088544195600,12.664195556640625,-1.469435214996338,0.5210676789283752,0.023823726922273636
1750854088563020000,12.68302001953125,-1.857945203781128,0.46486809849739075,0.039706211537122726
1750854088581844500,12.701844482421874,-2.1865904331207275,0.37812530994415283,0.015271619893610477
1750854088600669200,12.720669189453124,-2.4382667541503906,0.3659079968929291,-0.02871064469218254
1750854088619493600,12.73949365234375,-2.593426465988159,0.36835145950317383,-0.12034036219120026
1750854088638318000,12.758318115234376,-2.656956434249878,0.22296564280986786,-0.30970844626426697
1750854088657142800,12.777142822265626,-2.520122766494751,0.0873536616563797,-0.5137372612953186
1750854088675967200,12.79596728515625,-2.1450517177581787,0.15210533142089844,-0.6017017960548401
1750854088694791700,12.814791748046876,-1.6429208517074585,0.3341430425643921,-0.39889469742774963
1750854088713616400,12.833616455078126,-1.2360849380493164,0.5968148708343506,-0.06291907280683517
1750854088732440800,12.85244091796875,-0.9343177080154419,0.7959567904472351,0.21441353857517242
1750854088751265300,12.871265380859375,-0.6484329700469971,0.7128791809082031,0.3072649836540222
1750854088770090000,12.890090087890625,-0.3601047992706299,0.4978547990322113,0.21319180727005005
1750854088788914400,12.90891455078125,-0.0461202897131443,0.24740023910999298,0.01649334840476513
1750854088807739000,12.92773876953125,0.29596397280693054,0.043371398001909256,-0.15210533142089844
1750854088826563600,12.9465634765625,0.6404917240142822,-0.10201441496610641,-0.12522727251052856
1750854088845388000,12.965387939453125,0.9984585046768188,-0.21930044889450073,0.03481929376721382
1750854088864212700,12.984212646484375,1.3380992412567139,-0.379347026348114,0.2559523284435272
1750854088883037200,13.003037109375,1.638644814491272,-0.5809323787689209,0.46975502371788025
1750854088901861600,13.021861572265625,1.8573343753814697,-0.8313869833946228,0.5174024701118469
1750854088920686300,13.040686279296875,1.951407551765442,-0.8643736839294434,0.3695732057094574
1750854088939510800,13.0595107421875,2.0100505352020264,-0.7434224486351013,0.20830489695072174
1750854088958335200,13.078335205078124,2.165210247039795,-0.7373138070106506,0.18142683804035187
1750854088977160000,13.097159912109374,2.388786792755127,-0.8875865340232849,0.2254091054201126
1750854088995984400,13.115984375,2.4523167610168457,-0.9376774430274963,0.14599667489528656
1750854089014808800,13.134808837890626,2.2421791553497314,-0.6908880472183228,0.023823726922273636
1750854089033633500,13.153633544921876,1.8781037330627441,-0.46975502371788025,0.010384701192378998
1750854089052458000,13.1724580078125,1.5152500867843628,-0.3903425931930542,0.06536252796649933
1750854089071282400,13.191282470703126,1.112079381942749,-0.38789913058280945,0.029932374134659767
1750854089090107100,13.210107177734375,0.6637045741081238,-0.043371398001909256,-0.15088360011577606
1750854089108931600,13.228931640625,0.2360992431640625,0.4001164436340332,-0.21807873249053955
1750854089127756000,13.247756103515625,-0.12064579129219055,0.7373138070106506,-0.029932374134659767
1750854089146580700,13.266580810546875,-0.4211912751197815,0.9266818761825562,0.13744457066059113
1750854089165405200,13.2854052734375,-0.8206968307495117,1.028085470199585,0.12522727251052856
1750854089184230000,13.30422998046875,-1.3093886375427246,0.9902117848396301,0.025045456364750862
1750854089203054300,13.323054443359375,-1.7931935787200928,0.7971785664558411,-0.0616973415017128
1750854089221878800,13.341878662109375,-2.123060464859009,0.6310232877731323,-0.12522727251052856
1750854089240703500,13.360703369140625,-2.2928810119628906,0.5393936038017273,-0.1802051067352295
1750854089259528000,13.37952783203125,-2.32464599609375,0.545502245426178,-0.18264856934547424
1750854089278352400,13.398352294921875,-2.2232422828674316,0.4526508152484894,-0.13744457066059113
1750854089297176800,13.4171767578125,-2.1218388080596924,0.3121519088745117,-0.07024945318698883
1750854089316001500,13.43600146484375,-2.050978422164917,0.12767073512077332,-0.0824667438864708
1750854089334826000,13.454825927734374,-1.9898920059204102,-0.12034036219120026,-0.15210533142089844
1750854089353650400,13.473650390625,-1.8591669797897339,-0.2730565667152405,-0.26450446248054504
1750854089372475100,13.49247509765625,-1.6099340915679932,-0.2461785078048706,-0.48563748598098755
1750854089391299600,13.511299560546876,-1.2165372371673584,-0.009162971749901772,-0.5491674542427063
1750854089410124300,13.530124267578126,-0.6435460448265076,0.1802051067352295,-0.3121519088745117
1750854089428948700,13.54894873046875,-0.06322450190782547,0.2926042377948761,0.07635809481143951
1750854089447773200,13.567773193359375,0.4523453712463379,0.39889469742774963,0.3585776388645172
1750854089466598000,13.586597900390625,0.906828761100769,0.4465421438217163,0.4355465769767761
1750854089485422300,13.60542236328125,1.3588687181472778,0.3121519088745117,0.4917461574077606
1750854089504246800,13.624246826171875,1.8011348247528076,0.2571740746498108,0.5955931544303894
1750854089523071500,13.643071533203125,2.1639885902404785,0.27427828311920166,0.6701186895370483
1750854089541896000,13.66189599609375,2.37534761428833,0.18387030065059662,0.5381718873977661
1750854089560720400,13.680720458984375,2.462090492248535,0.11056652665138245,0.268169641494751
1750854089579545000,13.699545166015625,2.486525058746338,0.08979712426662445,0.020158538594841957
1750854089598369500,13.71836962890625,2.383899688720703,0.04581485688686371,-0.09590577334165573
1750854089617194000,13.737194091796875,2.1358888149261475,0.0030543238390237093,-0.12522727251052856
1750854089636018700,13.756018798828125,1.7486004829406738,-0.04581485688686371,-0.22296564280986786
1750854089654843100,13.774843017578124,1.3405427932739258,-0.11667517572641373,-0.3842339515686035
1750854089673667600,13.79366748046875,0.9862411618232727,-0.3500255048274994,-0.4685332775115967
1750854089692492300,13.8124921875,0.41813695430755615,-0.3695732057094574,-0.41355544328689575
1750854089711316700,13.831316650390624,-0.11087195575237274,-0.185092031955719,-0.24495677649974823
1750854089730141200,13.85014111328125,-0.3808741867542267,-0.1178968995809555,-0.04459312930703163
1750854089748966000,13.8689658203125,-0.6386591196060181,-0.10934479534626007,0.07513637095689774
1750854089767790300,13.887790283203126,-0.9367611408233643,-0.01649334840476513,0.06047561392188072
1750854089786614800,13.90661474609375,-1.21287202835083,0.08491020649671555,0.011606430634856224
1750854089805439500,13.925439453125,-1.5097522735595703,0.01282816007733345,0.027488915249705315
1750854089824264000,13.944263916015625,-1.8102977275848389,-0.1948658674955368,-0.01649334840476513
1750854089843088600,13.963088623046875,-2.1560473442077637,-0.3585776388645172,-0.12644900381565094
1750854089861913000,13.9819130859375,-2.4321582317352295,-0.4831940531730652,-0.21441353857517242
1750854089880737500,14.000737548828125,-2.4162757396698,-0.5100721120834351,-0.2156352698802948
1750854089899562200,14.019562255859375,-2.1389429569244385,-0.5564978122711182,-0.20341797173023224
1750854089918386700,14.03838671875,-1.897040605545044,-0.3756818473339081,-0.14233149588108063
1750854089937211100,14.057211181640625,-1.6062688827514648,-0.15821397304534912,-0.009162971749901772
1750854089956035600,14.07603564453125,-1.2177588939666748,-0.05803215503692627,0.09101885557174683
1750854089974860300,14.0948603515625,-0.9929606914520264,-0.06780599057674408,-0.04214967042207718
1750854089993684700,14.113684814453125,-0.8744529485702515,-0.11911863088607788,-0.2522871494293213
1750854090012509200,14.13250927734375,-0.5299251675605774,-0.1288924664258957,-0.25473061203956604
1750854090031334000,14.151333984375,0.04917461425065994,0.023823726922273636,0.017715077847242355
1750854090050158300,14.170158447265624,0.601396381855011,0.20219624042510986,0.37323838472366333
1750854090068982800,14.188982666015624,0.9447023868560791,0.2559523284435272,0.5406153202056885
1750854090087807500,14.207807373046874,1.248913049697876,0.14721840620040894,0.5381718873977661
1750854090106632000,14.2266318359375,1.5946625471115112,0.05192350596189499,0.5369501113891602
1750854090125456400,14.245456298828126,1.961181402206421,0.09957095980644226,0.5259546041488647
1750854090144281000,14.264281005859376,2.369239091873169,0.23396120965480804,0.38179048895835876
1750854090163105500,14.28310546875,2.692997455596924,0.3243691921234131,0.15577052533626556
1750854090181930200,14.30193017578125,2.766301155090332,0.3695732057094574,-0.021380268037319183
1750854090200754700,14.320754638671875,2.5915937423706055,0.23884813487529755,-0.0873536616563797
1750854090219579100,14.3395791015625,2.2898266315460205,0.01893680728971958,-0.1081230640411377
1750854090238403800,14.35840380859375,1.8267911672592163,0.12278381735086441,-0.21319180727005005
1750854090257228300,14.377228271484375,1.3637555837631226,0.27916520833969116,-0.23884813487529755
1750854090276052700,14.396052734375,1.099861979484558,0.23273947834968567,-0.13988803327083588
1750854090294877400,14.41487744140625,0.8823941946029663,0.11667517572641373,-0.011606430634856224
1750854090313702000,14.433701904296875,0.6356047987937927,0.0922405794262886,0.08979712426662445
1750854090332526300,14.4525263671875,0.27397283911705017,0.1386663019657135,0.15088360011577606
1750854090351351000,14.47135107421875,-0.24404047429561615,0.14233149588108063,0.0360410213470459
1750854090370175500,14.490175537109375,-0.7535017132759094,0.037262752652168274,-0.13255766034126282
1750854090389000000,14.509,-1.173776626586914,-0.11545344442129135,-0.25350889563560486
1750854090407824400,14.527824462890624,-1.536630392074585,-0.11178825795650482,-0.3023780584335327
1750854090426649000,14.546649169921874,-1.8176281452178955,-0.014049889519810677,-0.24251331388950348
1750854090445473500,14.5654736328125,-2.0473132133483887,0.037262752652168274,-0.11545344442129135
1750854090464298000,14.584298095703126,-2.291659116744995,0.07269290834665298,-0.004276053514331579
1750854090483122700,14.603122802734376,-2.4187190532684326,0.143553227186203,0.0409279391169548
1750854090501947100,14.621947021484376,-2.2330162525177,0.08491020649671555,0.015271619893610477
1750854090520771600,14.640771484375,-1.886044979095459,0.12522727251052856,-0.13255766034126282
1750854090539596300,14.65959619140625,-1.7137811183929443,0.3329212963581085,-0.2877173125743866
1750854090558420700,14.678420654296875,-1.6563597917556763,0.30970844626426697,-0.2938259541988373
1750854090577245400,14.697245361328125,-1.5610649585723877,0.05558869615197182,-0.2974911332130432
1750854090596070000,14.71606982421875,-1.3387101888656616,-0.16798780858516693,-0.36835145950317383
1750854090614894300,14.734894287109375,-1.010064959526062,-0.21807873249053955,-0.3439168632030487
1750854090633719000,14.753718994140625,-0.457843154668808,-0.09468404203653336,-0.09101885557174683
1750854090652543500,14.77254345703125,0.1432477980852127,0.16187916696071625,0.30970844626426697
1750854090671368000,14.791367919921875,0.5635227560997009,0.28405213356018066,0.5479456782341003
1750854090690192600,14.810192626953125,0.9092722535133362,0.205861434340477,0.6004800796508789
1750854090709017000,14.82901708984375,1.2916735410690308,0.06902772188186646,0.648127555847168
1750854090727841500,14.847841552734375,1.694844365119934,0.08124501258134842,0.7861829996109009
1750854090746666200,14.866666259765625,2.0467023849487305,0.17531819641590118,0.7800742983818054
1750854090765490700,14.88549072265625,2.291048288345337,0.22174391150474548,0.6432406306266785
1750854090784315100,14.904315185546874,2.3875648975372314,0.20463970303535461,0.4734202027320862
1750854090803139800,14.923139892578124,2.3655738830566406,0.09101885557174683,0.23884813487529755
1750854090821964300,14.94196435546875,2.2959353923797607,0.010384701192378998,-0.04214967042207718
1750854090840788700,14.960788818359376,2.22385311126709,0.02871064469218254,-0.23029601573944092
1750854090859613200,14.97961328125,2.0882413387298584,0.053145237267017365,-0.2828303873538971
1750854090878438000,14.99843798828125,1.813352108001709,0.03848448023200035,-0.35735589265823364
1750854090897262300,15.017262451171876,1.4260637760162354,-0.001832594396546483,-0.5112938284873962
1750854090916086800,15.036086669921875,0.85918128490448,-0.0824667438864708,-0.6591231226921082
1750854090934911500,15.054911376953125,0.16768237948417664,-0.2009745091199875,-0.7751874327659607
1750854090953736000,15.07373583984375,-0.46028661727905273,-0.3084867000579834,-0.7922916412353516
1750854090972560400,15.092560302734375,-0.8903354406356812,-0.3659079968929291,-0.6652317643165588
1750854090991385000,15.111385009765625,-1.2018764019012451,-0.41355544328689575,-0.5320632457733154
1750854091010209500,15.13020947265625,-1.4376702308654785,-0.40744680166244507,-0.5174024701118469
1750854091029034000,15.149033935546875,-1.6563597917556763,-0.36835145950317383,-0.4978547990322113
1750854091047858700,15.167858642578125,-1.9092578887939453,-0.36712974309921265,-0.3695732057094574
1750854091066683100,15.18668310546875,-2.115730047225952,-0.4917461574077606,-0.1899789422750473
1750854091085507600,15.205507568359375,-2.1536037921905518,-0.5235111117362976,-0.020158538594841957
1750854091104332300,15.224332275390625,-2.1083998680114746,-0.42088583111763,0.1081230640411377
1750854091123156700,15.24315673828125,-2.0522003173828125,-0.205861434340477,0.21441353857517242
1750854091141981200,15.261981201171874,-1.8078542947769165,-0.13133592903614044,0.2767217457294464
1750854091160806000,15.280805908203124,-1.4547744989395142,-0.164322629570961,0.24740023910999298
1750854091179630300,15.29963037109375,-1.0980294942855835,0.02260199747979641,0.21441353857517242
1750854091198454800,15.318454833984376,-0.7486147880554199,0.258395791053772,0.2107483446598053
1750854091217279500,15.337279541015626,-0.5115992426872253,0.4563159942626953,0.24984370172023773
1750854091236104000,15.35610400390625,-0.2257145345211029,0.5222893953323364,0.18875721096992493
1750854091254928400,15.374928466796876,0.13591741025447845,0.5430588126182556,0.14599667489528656
1750854091273753000,15.393753173828125,0.44868019223213196,0.37812530994415283,0.12522727251052856
1750854091292577500,15.41257763671875,0.7296779751777649,0.0616973415017128,0.07391463965177536
1750854091311402000,15.431402099609375,1.1145228147506714,-0.2620609998703003,0.09101885557174683
1750854091330226700,15.450226806640625,1.59832763671875,-0.3549124300479889,0.3341430425643921
1750854091349051100,15.469051025390625,1.9465205669403076,-0.28405213356018066,0.7764091491699219
1750854091367875600,15.48787548828125,2.050367593765259,-0.18753549456596375,1.0891718864440918
1750854091386700300,15.5067001953125,2.093128204345703,-0.0360410213470459,1.0390809774398804
1750854091405524700,15.525524658203125,2.204305648803711,0.02260199747979641,0.6359102129936218
1750854091424349200,15.54434912109375,2.1981968879699707,0.04214967042207718,0.1496618688106537
1750854091443174000,15.563173828125,1.9318598508834839,0.053145237267017365,-0.2107483446598053
1750854091461998300,15.581998291015625,1.5128066539764404,0.007941242307424545,-0.5320632457733154
1750854091480822800,15.60082275390625,1.1438442468643188,0.05070177838206291,-0.6688969135284424
1750854091499647500,15.6196474609375,0.926376461982727,0.19364413619041443,-0.5626064538955688
1750854091518472000,15.638471923828124,0.7944296598434448,0.30115634202957153,-0.29504770040512085
1750854091537296400,15.65729638671875,0.6514872908592224,0.35613417625427246,-0.021380268037319183
1750854091556121000,15.67612109375,0.32650721073150635,0.28038692474365234,0.0922405794262886
1750854091574945500,15.694945556640626,-0.13164135813713074,0.1802051067352295,-0.009162971749901772
1750854091593770000,15.71377001953125,-0.6239983439445496,0.04825831577181816,-0.2009745091199875
1750854091612594700,15.7325947265625,-1.017395257949829,-0.053145237267017365,-0.3341430425643921
1750854091631419100,15.751419189453125,-1.2263110876083374,-0.19242240488529205,-0.39889469742774963
1750854091650243600,15.77024365234375,-1.3900227546691895,-0.16798780858516693,-0.4062250852584839
1750854091669068000,15.789068115234375,-1.5280781984329224,-0.08857539296150208,-0.2864955961704254
1750854091687892700,15.807892822265625,-1.5671736001968384,0.06414080411195755,-0.10201441496610641
1750854091706717200,15.82671728515625,-1.6624685525894165,0.1081230640411377,-0.047036588191986084
1750854091725541600,15.845541748046875,-1.8139629364013672,-0.02260199747979641,-0.15210533142089844
1750854091744366300,15.864366455078125,-1.9178099632263184,-0.07880155742168427,-0.3426951467990875
1750854091763190800,15.883190673828125,-1.9104795455932617,-0.10567960888147354,-0.47097674012184143
1750854091782015200,15.90201513671875,-1.663690209388733,0.01282816007733345,-0.6175842881202698
1750854091800840000,15.92083984375,-1.2470804452896118,0.23762640357017517,-0.7141009569168091
1750854091819664400,15.939664306640625,-0.878118097782135,0.29016077518463135,-0.6407971382141113
1750854091838488800,15.95848876953125,-0.6423243284225464,0.5259546041488647,-0.500298261642456
1750854091857313500,15.9773134765625,-0.4761691093444824,0.6835576891899109,-0.22907429933547974
1750854091876138000,15.996137939453124,-0.2782489061355591,0.41355544328689575,0.16676609218120575
1750854091894962400,16.01496240234375,0.11759147047996521,0.1130099818110466,0.5100721120834351
1750854091913787100,16.033787109375,0.601396381855011,0.13011419773101807,0.7507528066635132
1750854091932611600,16.052611572265626,1.0693187713623047,0.049480047076940536,0.9462295174598694
1750854091951436000,16.07143603515625,1.561675786972046,-0.053145237267017365,1.1404845714569092
1750854091970260500,16.090260498046874,1.8854341506958008,-0.205861434340477,1.0476330518722534
1750854091989085200,16.109085205078124,1.9575161933898926,-0.20830489695072174,0.6236929297447205
1750854092007909600,16.12790966796875,1.9110904932022095,0.02260199747979641,0.0824667438864708
1750854092026734000,16.146734130859375,1.9379684925079346,-0.10201441496610641,-0.29626941680908203
1750854092045558800,16.165558837890625,2.0247113704681396,-0.6236929297447205,-0.3854556679725647
1750854092064383200,16.18438330078125,2.0100505352020264,-0.6823359727859497,-0.3805687427520752
1750854092083207700,16.203207763671877,1.821904182434082,-0.3610210716724396,-0.38301220536231995
1750854092102032400,16.222032470703127,1.444389820098877,-0.07757982611656189,-0.3426951467990875
1750854092120856800,16.24085693359375,0.8298597931861877,-0.09590577334165573,-0.3072649836540222
1750854092139681300,16.259681396484375,0.2519817352294922,-0.19364413619041443,-0.35735589265823364
1750854092158506000,16.278506103515625,-0.17806708812713623,-0.32192572951316833,-0.5943714380264282
1750854092177330400,16.297330322265626,-0.5604684352874756,-0.5821541547775269,-0.8765909671783447
1750854092196155000,16.31615478515625,-0.9831868410110474,-0.896138608455658,-0.9547816514968872
1750854092214979600,16.3349794921875,-1.4034618139266968,-0.9792162179946899,-0.8973603844642639
1750854092233804000,16.353803955078124,-1.6710206270217896,-0.721431314945221,-0.7812960743904114
1750854092252628500,16.37262841796875,-1.8212933540344238,-0.48563748598098755,-0.5662716627120972
1750854092271453200,16.391453125,-1.8432844877243042,-0.38301220536231995,-0.3035998046398163
1750854092290277600,16.410277587890626,-1.7956370115280151,-0.38179048895835876,-0.1740964651107788
1750854092309102000,16.42910205078125,-1.7919718027114868,-0.2974911332130432,-0.16065743565559387
1750854092327926800,16.4479267578125,-1.8249585628509521,-0.11911863088607788,-0.09957095980644226
1750854092346751200,16.466751220703124,-1.8848233222961426,0.1802051067352295,0.14110976457595825
1750854092365575700,16.48557568359375,-1.8029674291610718,0.29016077518463135,0.43432486057281494
1750854092384400400,16.504400390625,-1.5598431825637817,0.5076286196708679,0.565049946308136
1750854092403224800,16.523224853515625,-1.1640028953552246,0.8191696405410767,0.5760455131530762
1750854092422049300,16.54204931640625,-0.6459894776344299,0.9767727851867676,0.5662716627120972
1750854092440874000,16.5608740234375,-0.17562362551689148,1.0916153192520142,0.49418962001800537
1750854092459698400,16.579698486328127,0.14202606678009033,0.988990068435669,0.2559523284435272
1750854092478523000,16.59852294921875,0.314289927482605,0.749531090259552,-0.06291907280683517
1750854092497347600,16.61734765625,0.5830704569816589,0.6359102129936218,-0.2364046722650528
1750854092516172000,16.636172119140625,1.0106757879257202,0.6493492722511292,-0.08491020649671555
1750854092534996500,16.65499658203125,1.4272855520248413,0.45998117327690125,0.2669478952884674
1750854092553821200,16.6738212890625,1.6936225891113281,0.24740023910999298,0.5235111117362976
1750854092572645600,16.692645751953126,1.8939862251281738,0.3585776388645172,0.6273581385612488
1750854092591470000,16.711469970703124,2.0882413387298584,0.6835576891899109,0.49663305282592773
1750854092610294800,16.730294677734374,2.2165229320526123,0.8191696405410767,0.17776164412498474
1750854092629119200,16.749119140625,2.056476354598999,0.5772672295570374,-0.15699224174022675
1750854092647943700,16.767943603515626,1.6997312307357788,0.31581708788871765,-0.42332929372787476
1750854092666768100,16.78676806640625,1.471267819404602,0.17165300250053406,-0.5845975875854492
1750854092685592800,16.8055927734375,1.423620343208313,0.05436696484684944,-0.56382817029953
1750854092704417300,16.824417236328124,1.3429862260818481,-0.02871064469218254,-0.40255987644195557
1750854092723241700,16.84324169921875,0.9544762372970581,0.017715077847242355,-0.27916520833969116
1750854092742066400,16.86206640625,0.32528549432754517,0.0616973415017128,-0.2315177470445633
1750854092760891000,16.880890869140625,-0.2098320573568344,0.08002328872680664,-0.25473061203956604
1750854092779715300,16.89971533203125,-0.5421425104141235,0.13011419773101807,-0.32681265473365784
1750854092798540000,16.9185400390625,-0.7180715203285217,0.2828303873538971,-0.4221075773239136
1750854092817364500,16.937364501953127,-0.8390227556228638,0.472198486328125,-0.5699368119239807
1750854092836189000,16.95618896484375,-1.0992511510849,0.5222893953323364,-0.676227331161499
1750854092855013600,16.975013671875,-1.5512911081314087,0.05803215503692627,-0.565049946308136
1750854092873838000,16.993838134765625,-2.272111654281616,-0.6053670048713684,-0.16676609218120575
1750854092892662500,17.01266259765625,-3.090670347213745,-0.6114756464958191,0.26450446248054504
1750854092911487200,17.0314873046875,-3.6172358989715576,-0.2877173125743866,0.5332849621772766
1750854092930311700,17.050311767578126,-3.607461929321289,-0.13011419773101807,0.7092140316963196
1750854092949136100,17.06913623046875,-2.774242401123047,-0.03237583488225937,0.4428769648075104
1750854092967960800,17.0879609375,-1.6099340915679932,0.0873536616563797,-0.02260199747979641
1750854092986785300,17.106785400390624,-1.1615593433380127,0.21685700118541718,-0.18264856934547424
1750854093005609700,17.125609619140626,-0.7535017132759094,0.2461785078048706,-0.001832594396546483
1750854093024434200,17.14443408203125,-0.1646280586719513,0.12522727251052856,0.3023780584335327
1750854093043259000,17.1632587890625,0.2776380479335785,0.02626718580722809,0.37323838472366333
1750854093062083300,17.182083251953124,0.5305360555648804,-0.1337793916463852,0.3646862804889679
1750854093080907800,17.20090771484375,0.6551524996757507,-0.37812530994415283,0.36835145950317383
1750854093099732500,17.219732421875,0.7846558094024658,-0.6701186895370483,0.42088583111763
1750854093118557000,17.238556884765625,0.926376461982727,-1.028085470199585,0.4318813979625702
1750854093137381400,17.25738134765625,1.10230553150177,-0.9364557266235352,0.2974911332130432
1750854093156206000,17.2762060546875,1.4028509855270386,-0.42332929372787476,0.2107483446598053
1750854093175030500,17.295030517578127,1.8548909425735474,0.04825831577181816,0.1899789422750473
1750854093193855000,17.31385498046875,2.2091925144195557,0.5907062292098999,0.07513637095689774
1750854093212679700,17.3326796875,2.2983787059783936,0.9388991594314575,-0.10567960888147354
1750854093231504100,17.351504150390625,2.2727224826812744,0.7348703145980835,-0.14110976457595825
1750854093250328600,17.37032861328125,2.2947134971618652,0.24740023910999298,-0.13011419773101807
1750854093269153300,17.3891533203125,2.347247838973999,-0.2254091054201126,-0.25473061203956604
1750854093287977700,17.407977783203126,2.2336270809173584,-0.5430588126182556,-0.35246896743774414
1750854093306802200,17.42680224609375,1.8585560321807861,-0.5577195286750793,-0.337808221578598
1750854093325626600,17.445626708984374,1.3185516595840454,-0.22296564280986786,-0.25961753726005554
1750854093344451300,17.464451416015624,0.8604030609130859,0.12278381735086441,-0.15699224174022675
1750854093363275800,17.48327587890625,0.581848680973053,0.13744457066059113,-0.11545344442129135
1750854093382100200,17.502100341796876,0.3582721948623657,-0.12034036219120026,-0.07269290834665298
1750854093400925000,17.520925048828126,-0.0925460159778595,-0.34147340059280396,-0.09712749719619751
1750854093419749400,17.539749267578124,-0.6496546864509583,-0.32559093832969666,-0.19730933010578156
1750854093438573800,17.55857373046875,-1.0613775253295898,-0.32681265473365784,-0.2974911332130432
1750854093457398500,17.5773984375,-1.1517854928970337,-0.2254091054201126,-0.2828303873538971
1750854093476223000,17.596222900390625,-0.999069333076477,-0.17898337543010712,-0.1178968995809555
1750854093495047400,17.61504736328125,-0.9001092314720154,-0.13622283935546875,0.09468404203653336
1750854093513872100,17.6338720703125,-1.0772600173950195,0.0054977829568088055,0.17531819641590118
1750854093532696600,17.652696533203127,-1.368031620979309,0.1178968995809555,0.05070177838206291
1750854093551521000,17.67152099609375,-1.6087124347686768,0.1386663019657135,-0.12644900381565094
1750854093570345700,17.690345703125,-1.700342059135437,0.08613193035125732,-0.07391463965177536
1750854093589170200,17.709170166015625,-1.581834316253662,-0.12278381735086441,0.18264856934547424
1750854093607994600,17.72799462890625,-1.3936879634857178,-0.2987128794193268,0.47097674012184143
1750854093626819000,17.746819091796876,-1.2764019966125488,-0.24006985127925873,0.5589412450790405
1750854093645643800,17.765643798828126,-1.21287202835083,-0.017715077847242355,0.4819723069667816
1750854093664468200,17.78446826171875,-1.0235038995742798,0.08979712426662445,0.4269944727420807
1750854093683292700,17.803292724609374,-0.703410804271698,0.021380268037319183,0.389120876789093
1750854093702117400,17.822117431640624,-0.3943132162094116,-0.020158538594841957,0.2938259541988373
1750854093720941800,17.84094189453125,-0.23304490745067596,0.010384701192378998,0.1899789422750473
1750854093739766300,17.859766357421876,-0.16829325258731842,0.07024945318698883,0.11056652665138245
1750854093758591000,17.878591064453126,-0.15485422313213348,0.10201441496610641,0.09468404203653336
1750854093777415400,17.89741552734375,-0.1536324918270111,0.0409279391169548,0.14233149588108063
1750854093796240000,17.916239990234374,-0.11698060482740402,-0.07880155742168427,0.18264856934547424
1750854093815064600,17.935064697265624,-0.08521563559770584,-0.16310089826583862,0.20830489695072174
1750854093833889000,17.953888916015625,-0.10842850059270859,-0.12278381735086441,0.18142683804035187
1750854093852713500,17.97271337890625,-0.1951712965965271,-0.037262752652168274,0.14721840620040894
1750854093871538200,17.9915380859375,-0.3393353819847107,-0.053145237267017365,0.13133592903614044
1750854093890362600,18.010362548828127,-0.5604684352874756,-0.11545344442129135,0.11423171311616898
1750854093909187000,18.02918701171875,-0.7852666974067688,-0.0824667438864708,0.053145237267017365
1750854093928011500,18.048011474609375,-0.9282090067863464,-0.017715077847242355,-0.020158538594841957
1750854093946836200,18.066836181640625,-1.0296125411987305,-0.05436696484684944,-0.03237583488225937
1750854093965660700,18.08566064453125,-1.1896591186523438,-0.10201441496610641,-0.08368847519159317
1750854093984485000,18.104485107421876,-1.3387101888656616,0.02626718580722809,-0.22785256803035736
1750854094003309800,18.123309814453126,-1.2116502523422241,0.047036588191986084,-0.29016077518463135
1750854094022134300,18.14213427734375,-0.7938187718391418,0.06414080411195755,-0.28527384996414185
1750854094040958700,18.160958740234374,-0.42852163314819336,0.3744601011276245,-0.3194822669029236
1750854094059783400,18.179783447265624,-0.3686569035053253,0.8167262077331543,-0.2364046722650528
1750854094078608000,18.19860791015625,-0.39186975359916687,1.007315993309021,0.027488915249705315
1750854094097432300,18.217432373046876,-0.2684750556945801,0.8277217745780945,0.30604326725006104
1750854094116257000,18.236257080078126,0.028405211865901947,0.4098902642726898,0.33658650517463684
1750854094135081500,18.25508154296875,0.3399462401866913,0.053145237267017365,0.1386663019657135
1750854094153906000,18.273906005859374,0.6685914993286133,0.08368847519159317,-0.06414080411195755
1750854094172730600,18.292730712890624,1.1511746644973755,0.258395791053772,-0.0665842592716217
1750854094191555000,18.31155517578125,1.7388266324996948,0.20341797173023224,0.11545344442129135
1750854094210379500,18.330379638671875,2.190866470336914,-0.04214967042207718,0.20463970303535461
1750854094229204000,18.349203857421877,2.4242169857025146,-0.18753549456596375,0.020158538594841957
1750854094248028700,18.368028564453127,2.545168161392212,-0.22174391150474548,-0.2974911332130432
1750854094266853000,18.38685302734375,2.629467487335205,-0.19853104650974274,-0.5589412450790405
1750854094285677600,18.405677490234375,2.638019561767578,-0.164322629570961,-0.7055488228797913
1750854094304502300,18.424502197265625,2.4217734336853027,0.05192350596189499,-0.8484911918640137
1750854094323326700,18.44332666015625,1.869551658630371,0.19364413619041443,-0.813060998916626
1750854094342151200,18.462151123046876,1.2354739904403687,0.0922405794262886,-0.6395754218101501
1750854094360976000,18.480975830078126,0.8200859427452087,-0.13133592903614044,-0.49541133642196655
1750854094379800300,18.49980029296875,0.6050615906715393,-0.3329212963581085,-0.43310311436653137
1750854094398624800,18.518624755859374,0.4046979248523712,-0.3182605504989624,-0.41844236850738525
1750854094417449500,18.537449462890624,0.20189081132411957,-0.08857539296150208,-0.389120876789093
1750854094436274000,18.55627392578125,0.05894844979047775,-0.04214967042207718,-0.25473061203956604
1750854094464510700,18.5845107421875,-0.23426663875579834,-0.0360410213470459,-0.039706211537122726
1750854094483335200,18.603335205078125,-0.7486147880554199,-0.01282816007733345,0.031154103577136993
1750854094502159600,18.62215966796875,-1.507308840751648,-0.033597562462091446,0.08979712426662445
1750854094520984300,18.640984375,-2.0741913318634033,-0.1802051067352295,0.20219624042510986
1750854094539808800,18.659808837890626,-2.3515238761901855,-0.462424635887146,0.3280344009399414
1750854094558633200,18.67863330078125,-2.5579962730407715,-0.5589412450790405,0.4673115611076355
1750854094577457700,18.697457763671874,-2.676504135131836,-0.3842339515686035,0.5332849621772766
1750854094596282400,18.716282470703124,-2.6703953742980957,-0.01893680728971958,0.5161807537078857
1750854094615106800,18.73510693359375,-2.548222541809082,0.17898337543010712,0.5369501113891602
1750854094633931300,18.75393115234375,-2.3686282634735107,0.2254091054201126,0.573602020740509
1750854094652756000,18.772755859375,-2.1022911071777344,0.22663083672523499,0.4734202027320862
1750854094671580400,18.791580322265624,-1.4315615892410278,0.3695732057094574,0.35613417625427246
1750854094690404900,18.81040478515625,-0.6960803866386414,0.4318813979625702,0.2571740746498108
1750854094709229600,18.8292294921875,-0.2672533392906189,0.5308414697647095,0.2205221801996231
1750854094728054000,18.848053955078125,-0.17562362551689148,0.5198459029197693,0.24251331388950348
1750854094746878500,18.86687841796875,-0.24281874299049377,0.3756818473339081,0.24373504519462585
1750854094765703200,18.885703125,-0.22327107191085815,0.08613193035125732,0.24373504519462585
1750854094784527600,18.904527587890627,0.13469567894935608,-0.25350889563560486,0.19364413619041443
1750854094803352000,18.92335205078125,0.7589994668960571,-0.39767298102378845,0.20341797173023224
1750854094822176800,18.9421767578125,1.2745693922042847,-0.3915643095970154,0.3133736252784729
1750854094841001200,18.961001220703125,1.6997312307357788,-0.1386663019657135,0.33536475896835327
1750854094859825700,18.97982568359375,2.069915294647217,0.3536907136440277,0.11667517572641373
1750854094878650000,18.998650146484376,2.3765695095062256,0.7141009569168091,-0.29016077518463135
1750854094897474800,19.017474853515626,2.573267936706543,0.7165443897247314,-0.5955931544303894
1750854094916299300,19.03629931640625,2.598924160003662,0.46975502371788025,-0.656679630279541
1750854094935123700,19.055123779296874,2.5891504287719727,0.32559093832969666,-0.5283980369567871
1750854094953948400,19.073948486328124,2.677114963531494,0.16676609218120575,-0.2828303873538971
1750854094972772900,19.09277294921875,2.696662664413452,-0.043371398001909256,0.001832594396546483
1750854094991597300,19.111597412109376,2.436434268951416,0.02626718580722809,0.15577052533626556
1750854095010422000,19.130422119140626,1.860999584197998,0.08857539296150208,0.08613193035125732
1750854095029246500,19.14924658203125,0.926376461982727,-0.0665842592716217,-0.1496618688106537
1750854095048071000,19.16807080078125,0.01740964688360691,-0.3500255048274994,-0.39400777220726013
1750854095066895600,19.1868955078125,-0.713184654712677,-0.5626064538955688,-0.5626064538955688
1750854095085720000,19.205719970703125,-1.2018764019012451,-0.5821541547775269,-0.5626064538955688
1750854095104544500,19.22454443359375,-1.4523310661315918,-0.5235111117362976,-0.42821621894836426
1750854095123369000,19.243368896484377,-1.7431026697158813,-0.4770853817462921,-0.25961753726005554
1750854095142193700,19.262193603515627,-2.2476768493652344,-0.48075059056282043,-0.05803215503692627
1750854095161018000,19.28101806640625,-2.7033820152282715,-0.4978547990322113,0.10934479534626007
1750854095179842600,19.299842529296875,-2.8451027870178223,-0.38301220536231995,0.19242240488529205
1750854095198667300,19.318667236328125,-2.6593997478485107,-0.4563159942626953,0.1899789422750473
1750854095217491700,19.33749169921875,-2.3735151290893555,-0.5662716627120972,0.24006985127925873
1750854095236316200,19.356316162109376,-1.9996658563613892,-0.6273581385612488,0.23273947834968567
1750854095255140600,19.375140625,-1.9263620376586914,-0.3280344009399414,0.22296564280986786
1750854095273965300,19.39396533203125,-1.9483531713485718,0.14721840620040894,0.2522871494293213
1750854095292789800,19.412789794921874,-1.6221513748168945,0.40378162264823914,0.3329212963581085
1750854095311614200,19.4316142578125,-1.0063997507095337,0.6872228980064392,0.40744680166244507
1750854095330439000,19.45043896484375,-0.6093376278877258,1.0769546031951904,0.4355465769767761
1750854095349263400,19.469263427734376,-0.37354379892349243,1.1905754804611206,0.5577195286750793
1750854095368087800,19.488087890625,-0.08155044913291931,0.7825177907943726,0.5174024701118469
1750854095386912500,19.50691259765625,0.3582721948623657,0.4404335021972656,0.1496618688106537
1750854095405737000,19.525737060546874,0.7492256760597229,0.2571740746498108,-0.16310089826583862
1750854095424561400,19.5445615234375,1.0338886976242065,0.23762640357017517,-0.13500112295150757
1750854095443385900,19.5633857421875,1.324660301208496,0.18387030065059662,-0.03481929376721382
1750854095462210600,19.58221044921875,1.6875139474868774,0.20219624042510986,-0.10079269111156464
1750854095481035000,19.601034912109377,2.199418544769287,0.3402516841888428,-0.21685700118541718
1750854095499859500,19.619859375,2.7809619903564453,0.583375871181488,-0.14477495849132538
1750854095518684200,19.63868408203125,3.202458620071411,0.48563748598098755,0.031154103577136993
1750854095537508600,19.657508544921875,3.328296661376953,0.3194822669029236,0.10934479534626007
1750854095556333000,19.6763330078125,3.157254695892334,0.29016077518463135,0.0665842592716217
1750854095575157800,19.69515771484375,2.6282458305358887,0.5467239618301392,-0.023823726922273636
1750854095593982200,19.713982177734376,1.9477423429489136,0.7800742983818054,0.056810423731803894
1750854095612806700,19.732806640625,1.3894119262695312,0.573602020740509,0.19730933010578156
1750854095631631000,19.751631103515624,1.035110354423523,0.29504770040512085,0.11056652665138245
1750854095650455800,19.770455810546874,0.757777750492096,0.08368847519159317,-0.2510654330253601
1750854095669280300,19.7892802734375,0.4608974754810333,-0.2620609998703003,-0.573602020740509
1750854095688104700,19.808104736328126,0.15668681263923645,-0.6444623470306396,-0.7336485981941223
1750854095706929400,19.826929443359376,-0.17806708812713623,-0.7507528066635132,-0.8484911918640137
1750854095725753900,19.84575390625,-0.5494728684425354,-0.430659681558609,-0.8265000581741333
1750854095744578300,19.864578369140624,-0.9782999157905579,0.043371398001909256,-0.6444623470306396
1750854095763403000,19.883403076171874,-1.526856541633606,0.3072649836540222,-0.3280344009399414
1750854095782227500,19.9022275390625,-2.0631957054138184,0.43310311436653137,0.04581485688686371
1750854095801052000,19.921052001953125,-2.2782201766967773,0.472198486328125,0.3903425931930542
1750854095819876600,19.939876708984375,-2.1169519424438477,0.462424635887146,0.593149721622467
1750854095838701000,19.958701171875,-2.072969675064087,0.2816086709499359,0.535728394985199
1750854095857525500,19.977525390625,-2.031430721282959,-0.15699224174022675,0.430659681558609
1750854095885762300,20.00576220703125,-2.263559341430664,-0.49663305282592773,0.1948658674955368
1750854095904586800,20.024586669921874,-2.2415683269500732,-0.7409789562225342,0.12278381735086441
1750854095923411500,20.043411376953124,-2.0131049156188965,-0.8179479241371155,0.08979712426662445
1750854095942236000,20.06223583984375,-1.5195261240005493,-0.7263182401657104,0.053145237267017365
1750854095961060400,20.081060302734375,-1.165224552154541,-0.39767298102378845,0.09346231073141098
1750854095979884800,20.099884765625,-0.8659008145332336,-0.17287473380565643,0.12767073512077332
1750854095998709500,20.11870947265625,-0.5152644515037537,-0.14233149588108063,0.10201441496610641
1750854096017534000,20.137533935546877,-0.24526220560073853,-0.1533270627260208,0.03237583488225937
1750854096036358400,20.1563583984375,-0.011911863461136818,-0.19242240488529205,0.0665842592716217
1750854096055183000,20.17518310546875,0.43401941657066345,-0.1594357043504715,0.18387030065059662
1750854096074007600,20.194007568359375,1.0228930711746216,0.13255766034126282,0.35735589265823364
1750854096092832000,20.21283203125,1.500589370727539,0.4257727563381195,0.5564978122711182
1750854096111656700,20.23165673828125,1.8011348247528076,0.6212494969367981,0.565049946308136
1750854096130481200,20.250481201171876,2.0723588466644287,0.646905779838562,0.3915643095970154
1750854096149305600,20.2693056640625,2.3484697341918945,0.5968148708343506,0.21685700118541718
1750854096168130300,20.28813037109375,2.5696027278900146,0.7177661061286926,0.10934479534626007
1750854096186954800,20.306954833984374,2.6025893688201904,0.905912458896637,-0.006719512399286032
1750854096205779200,20.325779296875,2.4523167610168457,0.9865466356277466,-0.1899789422750473
1750854096224604000,20.34460400390625,2.076024055480957,0.7568614482879639,-0.3035998046398163
1750854096243428400,20.363428466796876,1.6814053058624268,0.5613847374916077,-0.3023780584335327
1750854096262252800,20.382252685546874,1.462715744972229,0.38301220536231995,-0.15821397304534912
1750854096281077200,20.4010771484375,1.2977821826934814,0.13133592903614044,0.0873536616563797
1750854096299902000,20.41990185546875,0.8628464937210083,0.0873536616563797,0.12644900381565094
1750854096318726400,20.438726318359375,0.21899501979351044,0.14477495849132538,-0.06780599057674408
1750854096337550800,20.45755078125,-0.45417797565460205,-0.027488915249705315,-0.2510654330253601
1750854096356375600,20.47637548828125,-0.9770781993865967,-0.38179048895835876,-0.35246896743774414
1750854096375200000,20.495199951171877,-1.3839141130447388,-0.6798924803733826,-0.3390299379825592
1750854096394024400,20.5140244140625,-1.7626503705978394,-0.739757239818573,-0.3952295184135437
1750854096412849000,20.532848876953125,-2.0974042415618896,-0.6969966888427734,-0.4257727563381195
1750854096431673600,20.551673583984375,-2.2928810119628906,-0.7690787315368652,-0.32559093832969666
1750854096450498000,20.570498046875,-2.3784019947052,-0.8338304162025452,-0.18631376326084137
1750854096469322500,20.589322509765626,-2.2953243255615234,-0.5992583632469177,-0.0616973415017128
1750854096488147200,20.608147216796876,-1.9471315145492554,-0.2828303873538971,0.12400554865598679
1750854096506971600,20.6269716796875,-1.3374884128570557,-0.3329212963581085,0.18387030065059662
1750854096525796000,20.645796142578124,-0.6875283122062683,-0.40744680166244507,0.06902772188186646
1750854096544620800,20.664620849609374,-0.5006036758422852,-0.3121519088745117,-0.1496618688106537
1750854096563445200,20.6834453125,-0.6142245531082153,-0.19608759880065918,-0.3194822669029236
1750854096582269700,20.702269775390626,-0.5421425104141235,-0.09712749719619751,-0.24373504519462585
1750854096601094100,20.72109423828125,-0.08643736690282822,-0.06414080411195755,0.014049889519810677
1750854096619918800,20.7399189453125,0.3631591200828552,0.004276053514331579,0.2461785078048706
1750854096638743300,20.758743408203124,0.6123919486999512,0.07757982611656189,0.3597993552684784
1750854096657567700,20.777567626953125,0.7064651250839233,0.205861434340477,0.36224281787872314
1750854096676392400,20.796392333984375,0.6881392002105713,0.32559093832969666,0.2254091054201126
1750854096695217000,20.815216796875,0.6575959324836731,0.33047783374786377,0.039706211537122726
1750854096714041300,20.834041259765623,0.7101303339004517,0.3243691921234131,-0.1337793916463852
1750854096732866000,20.852865966796877,0.7614429593086243,0.1997527778148651,-0.2107483446598053
1750854096751690500,20.8716904296875,0.7357866168022156,0.004276053514331579,-0.23518294095993042
1750854096770515000,20.890514892578125,0.6331613659858704,-0.10567960888147354,-0.24251331388950348
1750854096789339400,20.90933935546875,0.4828886091709137,-0.05558869615197182,-0.24495677649974823
1750854096808164000,20.9281640625,0.4120282828807831,0.025045456364750862,-0.18387030065059662
1750854096826988500,20.946988525390626,0.39736753702163696,-0.0054977829568088055,-0.08613193035125732
1750854096845813000,20.96581298828125,0.3277289569377899,-0.021380268037319183,-0.04825831577181816
1750854096864637700,20.9846376953125,0.2214384824037552,0.02260199747979641,-0.04825831577181816
1750854096883462100,21.003462158203124,0.09804379940032959,0.0873536616563797,-0.05436696484684944
1750854096902286600,21.02228662109375,0.012522728182375431,0.08002328872680664,-0.017715077847242355
1750854096921111300,21.041111328125,0.018631376326084137,0.06902772188186646,0.04581485688686371
1750854096939935700,21.059935791015626,0.04917461425065994,0.11423171311616898,0.09957095980644226
1750854096958760200,21.07876025390625,0.08338304609060287,0.10567960888147354,0.13988803327083588
1750854096977585000,21.0975849609375,0.07971785217523575,0.15210533142089844,0.12522727251052856
1750854096996409300,21.116409423828124,0.023518294095993042,0.13744457066059113,0.07269290834665298
1750854097015233800,21.13523388671875,-0.02779434807598591,0.05070177838206291,0.0054977829568088055
1750854097034058200,21.154058349609375,-0.07544180005788803,0.0030543238390237093,-0.09957095980644226
1750854097052883000,21.172883056640625,-0.06933315098285675,-0.029932374134659767,-0.14477495849132538
1750854097071707400,21.191707275390623,-0.025350889191031456,-0.021380268037319183,-0.1130099818110466
1750854097090531800,21.21053173828125,0.006414080038666725,0.02871064469218254,-0.0409279391169548
1750854097109356500,21.2293564453125,0.016187917441129684,0.0665842592716217,0.05070177838206291
1750854097128181000,21.248180908203125,0.03451386094093323,0.08491020649671555,0.10323614627122879
1750854097147005400,21.26700537109375,0.03695731982588768,0.08368847519159317,0.08124501258134842
1750854097165830100,21.285830078125,0.024740023538470268,0.047036588191986084,-0.021380268037319183
1750854097184654600,21.304654541015626,0.011300998739898205,0.011606430634856224,-0.164322629570961
1750854097203479000,21.32347900390625,0.003970621153712273,0.000610864779446274,-0.2559523284435272
1750854097222303500,21.342303466796874,0.04428769648075104,-0.017715077847242355,-0.2364046722650528
1750854097241128200,21.361128173828124,0.08949168771505356,-0.004276053514331579,-0.1802051067352295
1750854097259952600,21.37995263671875,0.08949168771505356,0.047036588191986084,-0.11056652665138245
1750854097278777000,21.398777099609376,0.10537417232990265,0.03848448023200035,-0.05192350596189499
1750854097297601800,21.417601806640626,0.09071341902017593,-0.000610864779446274,-0.05070177838206291
1750854097316426200,21.43642626953125,0.03940077871084213,0.01282816007733345,-0.07757982611656189
1750854097335250700,21.455250732421874,0.000305432389723137,-0.029932374134659767,-0.07635809481143951
1750854097354075400,21.474075439453124,-0.02779434807598591,-0.05070177838206291,-0.06902772188186646
1750854097372899800,21.49289990234375,-0.01435532234609127,-0.020158538594841957,-0.07147117704153061
1750854097391724300,21.511724365234375,0.035735588520765305,0.021380268037319183,-0.053145237267017365
1750854097410548700,21.530548828125,0.06750056147575378,0.05925388261675835,-0.039706211537122726
1750854097429373400,21.54937353515625,0.04673115536570549,0.0360410213470459,-0.0409279391169548
1750854097448198000,21.568197998046877,0.016187917441129684,0.033597562462091446,-0.0360410213470459
1750854097467022300,21.587022216796875,0.000305432389723137,0.039706211537122726,-0.02871064469218254
1750854097485847000,21.605846923828125,-0.013133592903614044,-0.000610864779446274,-0.029932374134659767
1750854097504671500,21.62467138671875,-0.005803215317428112,-0.031154103577136993,-0.029932374134659767
1750854097523496000,21.643495849609376,-0.007024944759905338,-0.0409279391169548,-0.027488915249705315
1750854097542320600,21.662320556640626,-0.01802051067352295,-0.01282816007733345,-0.03237583488225937
1750854097561145000,21.68114501953125,-0.03023780696094036,0.010384701192378998,-0.06291907280683517
1750854097579969500,21.699969482421874,-0.02412915788590908,-0.015271619893610477,-0.07147117704153061
1750854097598794000,21.7187939453125,-0.003359756199643016,-0.056810423731803894,-0.05192350596189499
1750854097617618700,21.73761865234375,0.02107483521103859,-0.05192350596189499,-0.03848448023200035
1750854097636443100,21.756443115234376,0.051618073135614395,0.020158538594841957,-0.037262752652168274
1750854097655267600,21.775267578125,0.07238747924566269,0.06902772188186646,-0.04214967042207718
1750854097674092300,21.79409228515625,0.03695731982588768,0.0360410213470459,-0.06780599057674408
1750854097692916700,21.812916748046874,-0.02412915788590908,-0.04214967042207718,-0.09468404203653336
1750854097711741200,21.8317412109375,-0.05589412897825241,-0.06902772188186646,-0.10934479534626007
1750854097730565600,21.850565673828125,-0.02779434807598591,-0.05070177838206291,-0.08979712426662445
1750854097749390300,21.869390380859375,0.03817904740571976,-0.01649334840476513,-0.04825831577181816
1750854097768214800,21.88821484375,0.07238747924566269,0.027488915249705315,0.007941242307424545
1750854097787039200,21.907039306640623,0.06750056147575378,0.043371398001909256,0.02871064469218254
1750854097805864000,21.925864013671877,0.022296564653515816,0.02626718580722809,-0.017715077847242355
1750854097824688400,21.9446884765625,-0.016798781231045723,-0.004276053514331579,-0.09957095980644226
1750854097843512800,21.963512939453125,-0.021685699000954628,0.007941242307424545,-0.1496618688106537
1750854097862337500,21.982337646484375,-0.007024944759905338,0.05192350596189499,-0.13011419773101807
1750854097881162000,22.001161865234376,0.022296564653515816,0.0922405794262886,-0.056810423731803894
1750854097899986400,22.019986328125,0.04306596517562866,0.08979712426662445,0.010384701192378998
1750854097918811100,22.03881103515625,0.06383536756038666,0.05070177838206291,0.02626718580722809
1750854097937635600,22.057635498046874,0.05283980444073677,0.007941242307424545,0.001832594396546483
1750854097956460000,22.0764599609375,0.023518294095993042,-0.0054977829568088055,-0.015271619893610477
1750854097975284700,22.09528466796875,0.0015271619195118546,0.007941242307424545,-0.03848448023200035
1750854097994109200,22.114109130859376,0.007635809946805239,0.037262752652168274,-0.04214967042207718
1750854098012933600,22.13293359375,0.04306596517562866,0.04581485688686371,0.001832594396546483
1750854098031758300,22.15175830078125,0.06750056147575378,0.07269290834665298,0.06780599057674408
1750854098050582800,22.170582763671874,0.05528326332569122,0.06536252796649933,0.09468404203653336
1750854098069407200,22.1894072265625,0.02718348242342472,-0.049480047076940536,0.03481929376721382
1750854098088231700,22.208231689453125,-0.00946840364485979,-0.143553227186203,-0.0409279391169548
1750854098107056400,22.227056396484375,-0.05345066636800766,-0.13622283935546875,-0.07269290834665298
1750854098125880800,22.245880859375,-0.07544180005788803,-0.09957095980644226,-0.03237583488225937
1750854098144705300,22.264705322265623,-0.054672397673130035,-0.04214967042207718,0.04459312930703163
1750854098163530000,22.283530029296877,0.005192350596189499,0.015271619893610477,0.08491020649671555
1750854098182354400,22.3023544921875,0.04550942778587341,0.027488915249705315,0.05803215503692627
1750854098201179000,22.321178955078125,0.04062250629067421,-0.000610864779446274,0.02871064469218254
1750854098220003300,22.34000341796875,0.018631376326084137,-0.03481929376721382,0.03481929376721382
1750854098238828000,22.358828125,0.0027488914784044027,-0.031154103577136993,0.05192350596189499
1750854098257652500,22.377652587890626,-0.004581485874950886,0.007941242307424545,0.05558869615197182
1750854098276477000,22.396476806640624,0.007635809946805239,0.033597562462091446,0.05436696484684944
1750854098295301600,22.415301513671874,0.0308486707508564,0.06536252796649933,0.07147117704153061
1750854098314126000,22.4341259765625,0.05528326332569122,0.053145237267017365,0.09346231073141098
1750854098332950500,22.452950439453126,0.06261363625526428,0.053145237267017365,0.09834922850131989
1750854098351775000,22.47177490234375,0.0565049909055233,0.07880155742168427,0.08002328872680664
1750854098370599700,22.490599609375,0.035735588520765305,0.0824667438864708,0.06902772188186646
1750854098389424000,22.509424072265624,0.010079269297420979,0.06414080411195755,0.05558869615197182
1750854098408248600,22.52824853515625,-0.005803215317428112,0.047036588191986084,0.03481929376721382
1750854098427073300,22.5470732421875,0.013744457624852657,0.06902772188186646,0.02871064469218254
1750854098445897700,22.565897705078125,0.07116574794054031,0.13011419773101807,0.04825831577181816
1750854098464722200,22.58472216796875,0.10659590363502502,0.1130099818110466,0.06780599057674408
1750854098483547000,22.603546875,0.057726722210645676,-0.000610864779446274,0.043371398001909256
1750854098502371300,22.622371337890623,-0.013133592903614044,-0.10690133273601532,-0.02871064469218254
1750854098521195800,22.64119580078125,-0.048563748598098755,-0.14599667489528656,-0.07391463965177536
1750854098540020200,22.660020263671875,-0.060781046748161316,-0.1178968995809555,-0.05192350596189499
1750854098558845000,22.678844970703125,-0.04001164436340332,-0.039706211537122726,-0.001832594396546483
1750854098577669400,22.69766943359375,-0.007024944759905338,0.0360410213470459,0.037262752652168274
1750854098596493800,22.716493896484376,0.011300998739898205,0.037262752652168274,0.056810423731803894
1750854098615318500,22.735318603515626,0.0027488914784044027,0.015271619893610477,0.02260199747979641
1750854098634143000,22.75414306640625,-0.013133592903614044,-0.0030543238390237093,-0.0616973415017128
1750854098652967400,22.772967529296874,-0.021685699000954628,-0.021380268037319183,-0.1130099818110466
1750854098671792000,22.791792236328124,-0.016798781231045723,-0.01649334840476513,-0.10079269111156464
1750854098690616600,22.810616455078126,0.0015271619195118546,0.033597562462091446,-0.05192350596189499
1750854098709441000,22.82944091796875,0.028405211865901947,0.0409279391169548,-0.0054977829568088055
1750854098728265700,22.848265625,0.028405211865901947,-0.011606430634856224,0.0054977829568088055
1750854098747090200,22.867090087890624,0.003970621153712273,-0.06047561392188072,-0.04459312930703163
1750854098765914600,22.88591455078125,-0.021685699000954628,-0.056810423731803894,-0.09468404203653336
1750854098784739000,22.904739013671875,-0.015577051788568497,-0.020158538594841957,-0.08124501258134842
1750854098803563800,22.923563720703125,0.005192350596189499,0.023823726922273636,-0.02871064469218254
1750854098822388200,22.94238818359375,0.014966187067329884,0.037262752652168274,0.011606430634856224
1750854098841212700,22.961212646484373,0.010079269297420979,0.037262752652168274,0.021380268037319183
1750854098860037400,22.980037353515623,0.006414080038666725,0.000610864779446274,0.027488915249705315
1750854098878861800,22.99886181640625,0.005192350596189499,-0.021380268037319183,0.023823726922273636
1750854098897686300,23.017686279296875,0.006414080038666725,-0.015271619893610477,-0.02626718580722809
1750854098916511000,23.036510986328125,0.000305432389723137,-0.014049889519810677,-0.07147117704153061
1750854098935335400,23.05533544921875,-0.011911863461136818,-0.006719512399286032,-0.07147117704153061
1750854098954159900,23.074159912109376,-0.0009162971982732415,-0.010384701192378998,-0.021380268037319183
1750854098972984300,23.092984375,0.011300998739898205,0.011606430634856224,0.029932374134659767
1750854098991809000,23.11180908203125,0.014966187067329884,0.027488915249705315,0.05558869615197182
1750854099010633500,23.130633544921874,0.008857538923621178,0.02871064469218254,0.01893680728971958
1750854099029458000,23.1494580078125,-0.003359756199643016,0.029932374134659767,-0.033597562462091446
1750854099048282600,23.16828271484375,-0.026572618633508682,0.009162971749901772,-0.039706211537122726
