time,seconds_elapsed,z,y,x
1750854076072924400,0.19292431640625,-0.06414080411195755,-0.06246092543005943,0.02153298258781433
1750854076101161200,0.2211611328125,-0.02626718580722809,-0.058795735239982605,0.016646064817905426
1750854076119986000,0.23998583984375,-0.025045456364750862,-0.036804601550102234,-0.013744457624852657
1750854076138810600,0.258810546875,-0.05803215503692627,-0.02458730712532997,-0.029626941308379173
1750854076157635000,0.277635009765625,-0.06902772188186646,-0.016035201027989388,-0.031001387163996696
1750854076176459800,0.296459716796875,-0.04214967042207718,-0.0038179049734026194,-0.002901607658714056
1750854076195284200,0.3152841796875,-0.017715077847242355,-0.02214384824037552,0.04230238497257233
1750854076214109000,0.33410888671875,-0.01282816007733345,-0.058795735239982605,0.04841103404760361
1750854076232933400,0.352933349609375,-0.011606430634856224,-0.02458730712532997,0.03497200831770897
1750854076251758000,0.371758056640625,-0.027488915249705315,-0.023365577682852745,-0.001679878099821508
1750854076270582500,0.39058251953125,-0.025045456364750862,-0.04413498193025589,-0.05406153202056885
1750854076289407200,0.4094072265625,-0.01893680728971958,-0.06123919412493706,-0.09560033679008484
1750854076308232000,0.42823193359375,-0.010384701192378998,-0.05513054504990578,-0.08949168771505356
1750854076327056400,0.447056396484375,-0.009162971749901772,-0.05024362727999687,-0.04306596517562866
1750854076345881000,0.465881103515625,-0.02260199747979641,-0.04413498193025589,-0.005345067009329796
1750854076364705500,0.48470556640625,-0.0360410213470459,-0.07712167501449585,0.017867794260382652
1750854076383530200,0.5035302734375,-0.039706211537122726,-0.030695954337716103,0.0032070400193333626
1750854076402355000,0.52235498046875,-0.027488915249705315,-0.011148282326757908,-0.019853105768561363
1750854076421179400,0.541179443359375,-0.01282816007733345,-0.03558287397027016,-0.016340631991624832
1750854076440004000,0.560004150390625,-0.007941242307424545,-0.016035201027989388,-0.007788525894284248
1750854076458828500,0.57882861328125,-0.027488915249705315,0.008399390615522861,-0.019853105768561363
1750854076477653200,0.5976533203125,-0.03848448023200035,-0.017256930470466614,-0.01511890348047018
1750854076496477700,0.616477783203125,-0.0360410213470459,-0.04780016839504242,0.0019853105768561363
1750854076515302400,0.635302490234375,-0.021380268037319183,-0.06246092543005943,0.0032070400193333626
1750854076534126800,0.654126953125,0.009162971749901772,-0.033139415085315704,-0.013744457624852657
1750854076552951600,0.67295166015625,0.021380268037319183,0.02779434807598591,-0.024740023538470268
1750854076571776300,0.6917763671875,-0.0030543238390237093,0.08765909820795059,-0.06872228533029556
1750854076590600700,0.7106005859375,-0.06780599057674408,0.07544180005788803,-0.09437860548496246
1750854076609425400,0.72942529296875,-0.07024945318698883,-0.0038179049734026194,-0.09804379940032959
1750854076628249900,0.748249755859375,-0.05192350596189499,-0.011148282326757908,-0.08460476994514465
1750854076647074600,0.767074462890625,-0.03481929376721382,0.014508038759231567,-0.02611446939408779
1750854076665899000,0.78589892578125,0.010384701192378998,0.008399390615522861,0.04230238497257233
1750854076684723700,0.8047236328125,0.053145237267017365,0.026572618633508682,0.0850629210472107
1750854076703548200,0.823548095703125,0.07024945318698883,0.04978547990322113,0.09361502528190613
1750854076722372900,0.842372802734375,0.0360410213470459,0.019394956529140472,0.09117157012224197
1750854076741197600,0.861197509765625,0.007941242307424545,-0.06979130208492279,0.04474584385752678
1750854076760022000,0.88002197265625,-0.0030543238390237093,-0.11621702462434769,-0.013744457624852657
1750854076778846700,0.8988466796875,-0.03237583488225937,-0.12843431532382965,-0.05039634555578232
1750854076797671200,0.917671142578125,-0.031154103577136993,-0.10644318908452988,-0.03222311660647392
1750854076816495900,0.936495849609375,0.0030543238390237093,-0.017256930470466614,0.016646064817905426
1750854076835320300,0.9553203125,0.007941242307424545,-0.0038179049734026194,0.049632761627435684
1750854076854145000,0.97414501953125,-0.0030543238390237093,-0.005039634648710489,0.03375028073787689
1750854076872969700,0.9929697265625,-0.014049889519810677,-0.030695954337716103,-0.005345067009329796
1750854076891794200,1.011794189453125,-0.014049889519810677,-0.027030766010284424,0.011759147047996521
1750854076910619000,1.030618896484375,0.004276053514331579,-0.027030766010284424,0.06307178735733032
1750854076929443300,1.049443359375,-0.0054977829568088055,-0.016035201027989388,0.10949750989675522
1750854076948268000,1.06826806640625,-0.0054977829568088055,0.013286309316754341,0.13271036744117737
1750854076967092500,1.087092529296875,0.014049889519810677,0.02779434807598591,0.10461059212684631
1750854076985917200,1.105917236328125,0.009162971749901772,-0.0013744457392022014,0.03252854943275452
1750854077004742000,1.124741943359375,-0.023823726922273636,-0.06856957077980042,-0.03817904740571976
1750854077023566300,1.14356640625,-0.05070177838206291,-0.08811724185943604,-0.08338304609060287
1750854077042391000,1.16239111328125,-0.0409279391169548,-0.05635227635502815,-0.08338304609060287
1750854077061215500,1.181215576171875,-0.023823726922273636,-0.030695954337716103,-0.02718348242342472
1750854077080040200,1.200040283203125,-0.01649334840476513,-0.007483093533664942,0.017867794260382652
1750854077098864600,1.21886474609375,-0.011606430634856224,-0.0013744457392022014,-0.006566796451807022
1750854077117689300,1.237689453125,-0.020158538594841957,0.01206457894295454,-0.05894844979047775
1750854077136513800,1.256513671875,-0.009162971749901772,0.0206166859716177,-0.07605266571044922
1750854077155338500,1.27533837890625,-0.004276053514331579,0.002290742937475443,-0.031001387163996696
1750854077174163000,1.294162841796875,-0.011606430634856224,-0.025809036567807198,0.02519817277789116
1750854077192987600,1.312987548828125,-0.007941242307424545,-0.009926552884280682,0.0435241162776947
1750854077211812400,1.331812255859375,-0.004276053514331579,-0.017256930470466614,0.01908952370285988
1750854077230636800,1.35063671875,-0.01282816007733345,-0.019700389355421066,-0.031001387163996696
1750854077249461500,1.36946142578125,-0.02626718580722809,-0.02458730712532997,-0.07360920310020447
1750854077268286000,1.388285888671875,-0.03848448023200035,-0.023365577682852745,-0.0565049909055233
1750854077287110700,1.407110595703125,-0.0409279391169548,-0.04046979174017906,0.004428769461810589
1750854077305935000,1.42593505859375,-0.037262752652168274,-0.05024362727999687,0.061850059777498245
1750854077324759800,1.444759765625,-0.025045456364750862,-0.04780016839504242,0.07651081681251526
1750854077343584300,1.463584228515625,-0.014049889519810677,-0.042913250625133514,0.04718930274248123
1750854077362409000,1.482408935546875,-0.014049889519810677,-0.019700389355421066,0.0007635809597559273
1750854077381233400,1.5012333984375,-0.01649334840476513,-0.005039634648710489,-0.02611446939408779
1750854077400058000,1.52005810546875,-0.029932374134659767,-0.0013744457392022014,-0.01740964688360691
1750854077418882800,1.5388828125,-0.031154103577136993,-0.008704823441803455,-0.004123337101191282
1750854077437707300,1.557707275390625,-0.014049889519810677,0.024281874299049377,0.0032070400193333626
1750854077456532000,1.576531982421875,-0.001832594396546483,0.025503603741526604,0.0154243353754282
1750854077475356400,1.5953564453125,-0.000610864779446274,0.01206457894295454,0.01908952370285988
1750854077494181000,1.61418115234375,-0.0054977829568088055,-0.0025961752980947495,-0.00045814859913662076
1750854077513005600,1.633005615234375,-0.006719512399286032,-0.012370011769235134,-0.021227551624178886
1750854077531830300,1.651830322265625,-0.004276053514331579,-0.011148282326757908,-0.009010255336761475
1750854077550654700,1.67065478515625,-0.006719512399286032,-0.02214384824037552,0.014202605932950974
1750854077569479400,1.6894794921875,0.004276053514331579,-0.02458730712532997,0.014202605932950974
1750854077588304000,1.708303955078125,0.006719512399286032,-0.023365577682852745,-0.011453714221715927
1750854077607128600,1.727128662109375,0.000610864779446274,0.004734201822429895,-0.013744457624852657
1750854077625953000,1.745953125,-0.004276053514331579,-0.0013744457392022014,0.030085090547800064
1750854077644777700,1.76477783203125,-0.004276053514331579,0.003512472379952669,0.06062832847237587
1750854077663602200,1.783602294921875,-0.0054977829568088055,0.03527744114398956,0.06551524996757507
1750854077682427000,1.802427001953125,-0.017715077847242355,-0.0001527161948615685,0.06673697382211685
1750854077701251300,1.821251220703125,-0.02260199747979641,-0.06123919412493706,0.08139773458242416
1750854077720076000,1.840075927734375,-0.025045456364750862,-0.08078686892986298,0.07162389904260635
1750854077738900700,1.858900634765625,-0.01282816007733345,-0.08811724185943604,0.05329795181751251
1750854077757725200,1.87772509765625,0.014049889519810677,-0.06368265300989151,0.02519817277789116
1750854077776550000,1.8965498046875,0.023823726922273636,-0.04780016839504242,-0.011453714221715927
1750854077795374300,1.915374267578125,0.01649334840476513,-0.04413498193025589,-0.029626941308379173
1750854077814199000,1.934198974609375,0.010384701192378998,-0.03436114266514778,-0.03695731982588768
1750854077833023500,1.9530234375,0.006719512399286032,-0.04535670951008797,-0.013744457624852657
1750854077851848200,1.97184814453125,-0.001832594396546483,-0.020922118797898293,0.0019853105768561363
1750854077870672600,1.990672607421875,-0.007941242307424545,0.013286309316754341,0.005650499369949102
1750854077889497300,2.009497314453125,-0.011606430634856224,-0.007483093533664942,0.011759147047996521
1750854077908321800,2.02832177734375,-0.017715077847242355,0.007177661173045635,0.004428769461810589
1750854077927146500,2.047146484375,-0.021380268037319183,0.03634645417332649,-0.009010255336761475
1750854077945971000,2.065970947265625,-0.014049889519810677,0.019394956529140472,-0.013744457624852657
1750854077964795600,2.084795654296875,-0.010384701192378998,0.026572618633508682,-0.013744457624852657
1750854077983620000,2.1036201171875,-0.017715077847242355,0.005955931730568409,-0.004123337101191282
1750854078002444800,2.12244482421875,-0.015271619893610477,-0.020922118797898293,-0.024740023538470268
1750854078021269200,2.141269287109375,-0.014049889519810677,-0.02214384824037552,-0.05528326332569122
1750854078040094000,2.160093994140625,-0.01649334840476513,-0.01359174121171236,-0.06383536756038666
1750854078058918700,2.178918701171875,-0.017715077847242355,-0.007483093533664942,-0.04306596517562866
1750854078077743000,2.1977431640625,-0.023823726922273636,-0.0038179049734026194,-0.019853105768561363
1750854078096567800,2.21656787109375,-0.017715077847242355,0.010842849500477314,-0.012675444595515728
1750854078115392300,2.235392333984375,-0.009162971749901772,0.007177661173045635,-0.022296564653515816
1750854078134217000,2.254217041015625,-0.010384701192378998,-0.0025961752980947495,-0.03695731982588768
1750854078153041400,2.27304150390625,-0.009162971749901772,-0.005039634648710489,-0.04062250629067421
1750854078171866000,2.2918662109375,-0.01282816007733345,-0.019700389355421066,-0.02611446939408779
1750854078190690600,2.310690673828125,-0.011606430634856224,-0.02458730712532997,-0.009010255336761475
1750854078209515300,2.329515380859375,-0.000610864779446274,-0.023365577682852745,0.0019853105768561363
1750854078228339700,2.348339599609375,-0.0054977829568088055,-0.005039634648710489,0.0032070400193333626
1750854078247164400,2.367164306640625,-0.01282816007733345,0.005955931730568409,0.0032070400193333626
1750854078265988900,2.38598876953125,-0.0054977829568088055,0.008399390615522861,0.009315688163042068
1750854078284813600,2.4048134765625,-0.009162971749901772,-0.0038179049734026194,0.02153298258781433
1750854078303638000,2.423637939453125,-0.015271619893610477,-0.02458730712532997,0.022754713892936707
1750854078322462700,2.442462646484375,-0.010384701192378998,-0.03558287397027016,0.005650499369949102
1750854078341287200,2.461287109375,-0.01649334840476513,-0.042913250625133514,-0.022296564653515816
1750854078360111900,2.48011181640625,-0.025045456364750862,-0.029474224895238876,-0.03451386094093323
1750854078378936300,2.498936279296875,-0.029932374134659767,0.004734201822429895,-0.022296564653515816
1750854078397761000,2.517760986328125,-0.01893680728971958,0.04978547990322113,0.022754713892936707
1750854078416585500,2.53658544921875,0.01649334840476513,0.07422006875276566,0.0386371985077858
1750854078435410200,2.55541015625,0.033597562462091446,0.05833758786320686,-0.01511890348047018
1750854078454234600,2.574234619140625,0.027488915249705315,0.026572618633508682,-0.09315688163042068
1750854078473059300,2.593059326171875,0.006719512399286032,0.007177661173045635,-0.1285870373249054
1750854078491883800,2.6118837890625,0.010384701192378998,0.004734201822429895,-0.08826996386051178
1750854078510708500,2.63070849609375,0.04825831577181816,0.008399390615522861,-0.023518294095993042
1750854078529533000,2.649532958984375,0.07024945318698883,-0.007483093533664942,0.014202605932950974
1750854078548357600,2.668357666015625,0.07635809481143951,-0.030695954337716103,-0.001679878099821508
1750854078567182000,2.68718212890625,0.09712749719619751,0.008399390615522861,-0.05406153202056885
1750854078586006800,2.7060068359375,0.1484401375055313,0.038789913058280945,-0.08460476994514465
1750854078604831200,2.724831298828125,0.2205221801996231,0.0766635313630104,-0.061391908675432205
1750854078623656000,2.743656005859375,0.27427828311920166,0.1279761642217636,-0.002901607658714056
1750854078642480400,2.76248046875,0.2828303873538971,0.2159406989812851,0.03741546720266342
1750854078661305000,2.78130517578125,0.2522871494293213,0.24526220560073853,0.04108065739274025
1750854078680129500,2.800129638671875,0.22296564280986786,0.20616686344146729,0.026419902220368385
1750854078698954200,2.818954345703125,0.2156352698802948,0.1695149689912796,-0.0102319847792387
1750854078717778700,2.83777880859375,0.23884813487529755,0.11087195575237274,-0.0821613147854805
1750854078736603400,2.856603271484375,0.258395791053772,0.04245510324835777,-0.09804379940032959
1750854078755427800,2.875427734375,0.29016077518463135,-0.03436114266514778,-0.04428769648075104
1750854078774252500,2.89425244140625,0.3329212963581085,-0.10399972647428513,0.030085090547800064
1750854078793077000,2.913076904296875,0.430659681558609,-0.1724165827035904,0.05696314200758934
1750854078811901700,2.931901611328125,0.5699368119239807,-0.21151192486286163,-0.00045814859913662076
1750854078830726100,2.95072607421875,0.7250964641571045,-0.21029019355773926,-0.06017018109560013
1750854078849550800,2.96955078125,0.8863648176193237,-0.1101083755493164,-0.06994401663541794
1750854078868375300,2.988375244140625,1.0219768285751343,-0.052687086164951324,-0.021227551624178886
1750854078887200000,3.007199951171875,1.0598503351211548,-0.052687086164951324,0.03497200831770897
1750854078906024400,3.0260244140625,0.9621120095252991,-0.049021899700164795,0.04474584385752678
1750854078924849200,3.04484912109375,0.8057306408882141,-0.0001527161948615685,0.05085449293255806
1750854078943673600,3.063673583984375,0.5907062292098999,-0.01359174121171236,0.08017600327730179
1750854078962498300,3.082498291015625,0.2315177470445633,0.021838415414094925,0.04108065739274025
1750854078981322800,3.10132275390625,-0.24251331388950348,0.1389717310667038,-0.13713914155960083
1750854079000147500,3.1201474609375,-0.6847794055938721,0.10842850059270859,-0.33750277757644653
1750854079018972000,3.138971923828125,-1.0024291276931763,-0.08078686892986298,-0.41325002908706665
1750854079037796600,3.157796630859375,-1.211344838142395,-0.06612611562013626,-0.33505934476852417
1750854079056621000,3.17662109375,-1.3481786251068115,0.01695149764418602,-0.24709481000900269
1750854079075445800,3.19544580078125,-1.5314379930496216,0.10965022444725037,-0.20922118425369263
1750854079094270200,3.214270263671875,-1.7818925380706787,0.1792888194322586,-0.22754712402820587
1750854079113095000,3.233094970703125,-1.9382739067077637,0.2733619809150696,-0.29596397280693054
1750854079131919400,3.25191943359375,-1.9065089225769043,0.2782489061355591,-0.3069595396518707
1750854079150744000,3.270744140625,-1.7134757041931152,0.1597411334514618,-0.22876885533332825
1750854079169568500,3.289568603515625,-1.4862339496612549,0.048563748598098755,-0.05406153202056885
1750854079188393200,3.308393310546875,-1.3054180145263672,-0.03436114266514778,0.10705405473709106
1750854079207217700,3.3272177734375,-1.1294889450073242,-0.09666935354471207,0.15836669504642487
1750854079226042400,3.34604248046875,-0.860708475112915,-0.0844520553946495,0.11682789027690887
1750854079244866800,3.36486669921875,-0.5271763205528259,0.038789913058280945,0.0642935186624527
1750854079263691500,3.38369140625,-0.14110976457595825,0.04505127668380737,0.09972367435693741
1750854079282516000,3.402515869140625,0.24251331388950348,-0.0038179049734026194,0.19013166427612305
1750854079301340700,3.421340576171875,0.5797106623649597,0.021838415414094925,0.24633121490478516
1750854079320165000,3.4401650390625,0.9071341753005981,0.08032871782779694,0.27320927381515503
1750854079338989800,3.45898974609375,1.202792763710022,-0.01359174121171236,0.20112723112106323
1750854079357814300,3.477814208984375,1.4373648166656494,-0.09056070446968079,-0.018631376326084137
1750854079376638700,3.496638671875,1.5986331701278687,-0.0795651376247406,-0.2055560052394867
1750854079395463400,3.51546337890625,1.7122539281845093,-0.07101303339004517,-0.21288637816905975
1750854079414288100,3.5342880859375,1.7721186876296997,-0.13698641955852509,-0.07116574794054031
1750854079433112600,3.553112548828125,1.7403537034988403,-0.2799287736415863,0.049632761627435684
1750854079451937000,3.57193701171875,1.6511675119400024,-0.3263545036315918,0.028863361105322838
1750854079470761700,3.59076171875,1.5204424858093262,-0.1931859850883484,-0.061391908675432205
1750854079489586200,3.609586181640625,1.3188570737838745,0.0010690133785828948,-0.09315688163042068
1750854079508411000,3.628410888671875,1.0415244102478027,0.17562362551689148,-0.07116574794054031
1750854079527235300,3.6472353515625,0.7336485981941223,0.2880227565765381,0.010537417605519295
1750854079546060000,3.66606005859375,0.39889469742774963,0.29046618938446045,0.11316270381212234
1750854079564884500,3.684884521484375,0.04825831577181816,0.22693626582622528,0.10583232343196869
1750854079583709200,3.703709228515625,-0.2315177470445633,0.11331541836261749,0.009315688163042068
1750854079602533600,3.72253369140625,-0.46364638209342957,0.013286309316754341,-0.13225223124027252
1750854079621358300,3.7413583984375,-0.6921098232269287,-0.014813470654189587,-0.1847866028547287
1750854079640182800,3.760182861328125,-0.8448259830474854,-0.07345648854970932,-0.0821613147854805
1750854079659007500,3.779007568359375,-0.9413426518440247,-0.17974695563316345,0.030085090547800064
1750854079677832000,3.79783203125,-0.9902117848396301,-0.23472478985786438,0.03741546720266342
1750854079696656600,3.81665673828125,-1.0317505598068237,-0.23594652116298676,-0.10415244847536087
1750854079715481000,3.835481201171875,-1.1270455121994019,-0.15286891162395477,-0.24953825771808624
1750854079734305800,3.854305908203125,-1.2089014053344727,-0.07101303339004517,-0.22388194501399994
1750854079753130200,3.873130126953125,-1.219896912574768,-0.09056070446968079,-0.09437860548496246
1750854079771955000,3.891954833984375,-1.2150100469589233,-0.1870773434638977,0.01908952370285988
1750854079790779400,3.910779296875,-1.18446683883667,-0.23472478985786438,0.02519817277789116
1750854079809603800,3.929603759765625,-1.1380411386489868,-0.1821904182434082,-0.1127045527100563
1750854079828428500,3.948428466796875,-1.0806198120117188,-0.05757400393486023,-0.28008151054382324
1750854079847253000,3.9672529296875,-0.9877683520317078,-0.012370011769235134,-0.25931209325790405
1750854079866077700,3.98607763671875,-0.8888082504272461,-0.06123919412493706,-0.0870482325553894
1750854079884902100,4.004902099609375,-0.7666352987289429,-0.09056070446968079,0.036193739622831345
1750854079903726800,4.023726806640625,-0.5968148708343506,-0.012370011769235134,0.08384118974208832
1750854079922551300,4.04255126953125,-0.34147340059280396,0.018173227086663246,0.08750637620687485
1750854079941376000,4.0613759765625,-0.027488915249705315,0.03390299528837204,0.1156061589717865
1750854079960200400,4.080200439453125,0.2816086709499359,0.07910698652267456,0.16936226189136505
1750854079979025200,4.099025146484375,0.6053670048713684,0.17562362551689148,0.22189663350582123
1750854079997849600,4.117849609375,0.915686309337616,0.2049451321363449,0.23533566296100616
1750854080016674300,4.13667431640625,1.2247838973999023,0.23304490745067596,0.14859285950660706
1750854080035498800,4.155498779296875,1.5045599937438965,0.2367101013660431,0.06062832847237587
1750854080054323200,4.1743232421875,1.7073670625686646,0.15485422313213348,0.09972367435693741
1750854080073148000,4.19314794921875,1.7611231803894043,0.06933315098285675,0.20967933535575867
1750854080091972600,4.21197265625,1.6560543775558472,0.05100720748305321,0.26221370697021484
1750854080110797000,4.230797119140625,1.5754202604293823,0.054672397673130035,0.19990549981594086
1750854080129621500,4.24962158203125,1.5277727842330933,0.04505127668380737,0.11682789027690887
1750854080148446200,4.2684462890625,1.398269534111023,0.01695149764418602,0.08384118974208832
1750854080167270700,4.287270751953125,1.1905754804611206,-0.04535670951008797,0.08628465235233307
1750854080186095400,4.306095458984375,0.9816597104072571,-0.07834340631961823,0.09728021919727325
1750854080204919800,4.324919921875,0.8289434909820557,-0.1357647031545639,0.13881902396678925
1750854080223744500,4.34374462890625,0.6554579138755798,-0.12721258401870728,0.162031888961792
1750854080242569000,4.36256884765625,0.38789913058280945,-0.05146535858511925,0.10094540566205978
1750854080261393700,4.3813935546875,0.10201441496610641,0.11453714966773987,-0.04550942778587341
1750854080280218000,4.400218017578125,-0.18753549456596375,0.21227550506591797,-0.16157373785972595
1750854080299042800,4.419042724609375,-0.4978547990322113,0.18417572975158691,-0.20433427393436432
1750854080317867300,4.4378671875,-0.7971785664558411,0.14263692498207092,-0.18112140893936157
1750854080336692000,4.45669189453125,-1.046411395072937,0.08277218043804169,-0.12614357471466064
1750854080355516400,4.475516357421875,-1.193018913269043,0.007177661173045635,-0.09193515032529831
1750854080374340900,4.4943408203125,-1.288313865661621,-0.016035201027989388,-0.1798996776342392
1750854080393165600,4.51316552734375,-1.3921607732772827,0.07299833744764328,-0.3130682110786438
1750854080411990000,4.531989990234375,-1.4679080247879028,0.09621120244264603,-0.33628106117248535
1750854080430814700,4.550814697265625,-1.5070034265518188,-0.012370011769235134,-0.2764163017272949
1750854080449639200,4.56963916015625,-1.5302162170410156,-0.15531237423419952,-0.189673513174057
1750854080468463900,4.5884638671875,-1.5192207098007202,-0.2787070572376251,-0.21899501979351044
1750854080487288300,4.607288330078125,-1.4361430406570435,-0.29336780309677124,-0.3863719701766968
1750854080506113000,4.626113037109375,-1.2443315982818604,-0.1455385386943817,-0.5586358308792114
1750854080524937500,4.6449375,-1.0305289030075073,-0.03558287397027016,-0.5427533388137817
1750854080543762200,4.66376220703125,-0.8558215498924255,-0.10888664424419403,-0.3326158821582794
1750854080562586600,4.682586669921875,-0.7079922556877136,-0.08689551800489426,-0.0821613147854805
1750854080581411000,4.7014111328125,-0.56382817029953,-0.030695954337716103,0.12660172581672668
1750854080600235800,4.72023583984375,-0.2864955961704254,-0.027030766010284424,0.22678354382514954
1750854080619060200,4.739060302734375,0.08979712426662445,-0.029474224895238876,0.24633121490478516
1750854080637885000,4.757885009765625,0.48441576957702637,-0.0746782198548317,0.25243985652923584
1750854080656709400,4.77670947265625,0.8692606091499329,-0.0539088174700737,0.3721693754196167
1750854080675534000,4.7955341796875,1.2076796293258667,-0.11621702462434769,0.5138899683952332
1750854080694358500,4.814358642578125,1.5192207098007202,-0.06979130208492279,0.502894401550293
1750854080713183200,4.833183349609375,1.8222095966339111,-0.05635227635502815,0.3575085997581482
1750854080732007700,4.852007568359375,2.0689990520477295,-0.05635227635502815,0.2133445292711258
1750854080750832000,4.87083203125,2.2253804206848145,-0.0844520553946495,0.11316270381212234
1750854080769656800,4.88965673828125,2.1838417053222656,-0.09422589093446732,0.04108065739274025
1750854080788481300,4.908481201171875,1.9456043243408203,-0.049021899700164795,-0.05039634555578232
1750854080807306000,4.927305908203125,1.6670500040054321,-0.029474224895238876,-0.16279546916484833
1750854080826130400,4.94613037109375,1.4617993831634521,0.04245510324835777,-0.19211697578430176
1750854080844955100,4.964955078125,1.2736530303955078,0.16707152128219604,-0.17623448371887207
1750854080863779600,4.983779541015625,1.008537769317627,0.1695149689912796,-0.15790854394435883
1750854080882604300,5.002604248046875,0.6090322136878967,0.15607595443725586,-0.16035200655460358
1750854080901428700,5.0214287109375,0.17776164412498474,0.1695149689912796,-0.17256930470466614
1750854080920253400,5.04025341796875,-0.2156352698802948,0.2367101013660431,-0.15179990231990814
1750854080939078000,5.059077880859375,-0.5711585879325867,0.40897396206855774,-0.08949168771505356
1750854080957902300,5.07790234375,-0.8631519079208374,0.5189296007156372,-0.013744457624852657
1750854080976727000,5.09672705078125,-1.1221586465835571,0.6032289862632751,0.06062832847237587
1750854080995551500,5.115551513671875,-1.3726131916046143,0.5213730931282043,0.14981459081172943
1750854081014376200,5.134376220703125,-1.6682716608047485,0.40775224566459656,0.25610506534576416
1750854081033200600,5.15320068359375,-1.884517788887024,0.43340855836868286,0.39049530029296875
1750854081052025300,5.172025390625,-1.9370522499084473,0.31001389026641846,0.46624255180358887
1750854081070849800,5.190849853515625,-1.813657522201538,0.07544180005788803,0.35995206236839294
1750854081089674200,5.20967431640625,-1.6878193616867065,-0.07712167501449585,0.14981459081172943
1750854081108499000,5.2284990234375,-1.6817107200622559,-0.20173808932304382,0.016646064817905426
1750854081127323400,5.247323486328125,-1.6914845705032349,-0.2603811025619507,-0.047952886670827866
1750854081146148000,5.266148193359375,-1.5118902921676636,-0.3214675784111023,-0.06627883017063141
1750854081164972500,5.28497265625,-1.1392627954483032,-0.19685117900371552,-0.021227551624178886
1750854081183797200,5.30379736328125,-0.7849612236022949,-0.06734783947467804,0.052076224237680435
1750854081202621700,5.32262158203125,-0.48075059056282043,0.03634645417332649,0.07406735420227051
1750854081221446400,5.3414462890625,-0.20830489695072174,0.024281874299049377,0.08628465235233307
1750854081240270800,5.360270751953125,0.039706211537122726,-0.08567378669977188,0.05329795181751251
1750854081259095300,5.37909521484375,0.28038692474365234,-0.0746782198548317,0.022754713892936707
1750854081277920000,5.397919921875,0.5784889459609985,0.007177661173045635,-0.007788525894284248
1750854081296744400,5.416744384765625,0.9107993841171265,-0.008704823441803455,0.0032070400193333626
1750854081315569200,5.435569091796875,1.2076796293258667,-0.11499529331922531,0.07895427197217941
1750854081334393600,5.4543935546875,1.4617993831634521,-0.1308777779340744,0.16814053058624268
1750854081353218300,5.47321826171875,1.7012584209442139,-0.05146535858511925,0.20723587274551392
1750854081372042800,5.492042724609375,1.8625266551971436,-0.06123919412493706,0.162031888961792
1750854081390867500,5.510867431640625,1.9077306985855103,-0.10888664424419403,0.0899498388171196
1750854081409692000,5.52969189453125,1.8698570728302002,-0.1516471803188324,-0.00045814859913662076
1750854081428516400,5.548516357421875,1.7635666131973267,-0.16752967238426208,0.008093958720564842
1750854081447341000,5.567341064453125,1.5864158868789673,-0.14798198640346527,0.06062832847237587
1750854081466165500,5.58616552734375,1.3640609979629517,-0.06123919412493706,0.10216713696718216
1750854081484990200,5.604990234375,1.1417062282562256,0.09376774728298187,0.09239330142736435
1750854081503814700,5.623814697265625,0.9731075763702393,0.08155044913291931,0.017867794260382652
1750854081522639400,5.642639404296875,0.7544180154800415,0.06444623321294785,-0.08460476994514465
1750854081541463800,5.6614638671875,0.4318813979625702,0.12675444781780243,-0.12492185086011887
1750854081560288300,5.680288330078125,0.07391463965177536,0.14141519367694855,-0.10415244847536087
1750854081579113000,5.699113037109375,-0.2877173125743866,0.14019346237182617,-0.08460476994514465
1750854081597937400,5.7179375,-0.6505709886550903,0.11331541836261749,-0.12003492563962936
1750854081616762000,5.73676220703125,-1.0060943365097046,0.22815799713134766,-0.16279546916484833
1750854081635586600,5.755586669921875,-1.3176352977752686,0.44318240880966187,-0.19333870708942413
1750854081654411300,5.774411376953125,-1.5326597690582275,0.4676169753074646,-0.16523891687393188
1750854081673235700,5.793235595703125,-1.6792672872543335,0.2965748608112335,-0.10048725455999374
1750854081692060400,5.812060302734375,-1.7928881645202637,0.06200277432799339,-0.05528326332569122
1750854081710884900,5.830884765625,-1.8551963567733765,-0.09178243577480316,-0.11759147047996521
1750854081729709300,5.849709228515625,-1.8588615655899048,-0.1259908676147461,-0.31551164388656616
1750854081748534000,5.868533935546875,-1.777005672454834,-0.042913250625133514,-0.5232056975364685
1750854081767358500,5.8873583984375,-1.6365067958831787,-0.02214384824037552,-0.5635227560997009
1750854081786183200,5.90618310546875,-1.36772620677948,0.03527744114398956,-0.40958482027053833
1750854081805007600,5.925007568359375,-1.0134246349334717,0.16707152128219604,-0.09804379940032959
1750854081823832300,5.943832275390625,-0.7153226733207703,0.12186752259731293,0.2231183648109436
1750854081842656800,5.96265673828125,-0.45020735263824463,-0.01359174121171236,0.32330018281936646
1750854081861481500,5.9814814453125,-0.13622283935546875,-0.049021899700164795,0.15470150113105774
1750854081880306000,6.000305908203125,0.18753549456596375,-0.042913250625133514,0.017867794260382652
1750854081899130400,6.01913037109375,0.4783071279525757,-0.04535670951008797,0.05818486958742142
1750854081917955000,6.037955078125,0.7886264324188232,-0.020922118797898293,0.29397866129875183
1750854081936779500,6.056779541015625,1.1783581972122192,0.007177661173045635,0.6727148294448853
1750854081955604200,6.075604248046875,1.592524528503418,0.019394956529140472,0.8547525405883789
1750854081974428700,6.0944287109375,1.8600832223892212,-0.0025961752980947495,0.5468766689300537
1750854081993253400,6.11325341796875,1.9663736820220947,-0.014813470654189587,0.05085449293255806
1750854082012077800,6.132077880859375,1.943160891532898,-0.05635227635502815,-0.27519458532333374
1750854082030902300,6.15090234375,1.8295400142669678,-0.17363831400871277,-0.27030766010284424
1750854082049727000,6.16972705078125,1.7354668378829956,-0.21639885008335114,-0.1383608728647232
1750854082068551400,6.188551513671875,1.6548327207565308,-0.1663079410791397,0.005650499369949102
1750854082087376100,6.207376220703125,1.525329351425171,-0.1663079410791397,0.07773254066705704
1750854082106200600,6.22620068359375,1.3286309242248535,-0.17363831400871277,0.020311253145337105
1750854082125025000,6.24502490234375,1.0793980360031128,-0.09056070446968079,-0.11514800786972046
1750854082143849700,6.263849609375,0.7922916412353516,0.0010690133785828948,-0.21777328848838806
1750854082162674200,6.282674072265625,0.4526508152484894,0.0461202897131443,-0.24831652641296387
1750854082181499000,6.301498779296875,0.07880155742168427,0.0974329337477684,-0.2263254076242447
1750854082200323300,6.3203232421875,-0.24862197041511536,0.15118902921676636,-0.15057817101478577
1750854082219148000,6.33914794921875,-0.49052441120147705,0.19150610268115997,-0.05283980444073677
1750854082237972500,6.357972412109375,-0.7629700899124146,0.1646280586719513,0.03497200831770897
1750854082256797200,6.376797119140625,-1.1221586465835571,0.1340848207473755,0.15470150113105774
1750854082275621600,6.39562158203125,-1.4825688600540161,0.06444623321294785,0.2487746775150299
1750854082294446000,6.414446044921875,-1.7880011796951294,0.0974329337477684,0.19379685819149017
1750854082313270800,6.433270751953125,-1.9199479818344116,0.0925460159778595,0.07895427197217941
1750854082332095200,6.45209521484375,-1.8747440576553345,0.05222893878817558,-0.0821613147854805
1750854082350920000,6.470919921875,-1.775783896446228,0.07299833744764328,-0.1432477980852127
1750854082369744400,6.489744384765625,-1.6548327207565308,0.03756818547844887,0.010537417605519295
1750854082388568800,6.50856884765625,-1.5167772769927979,0.10598503798246384,0.25732678174972534
1750854082407393500,6.5273935546875,-1.4202606678009033,0.1230892539024353,0.41126471757888794
1750854082426218200,6.54621826171875,-1.3542872667312622,-0.05513054504990578,0.31841325759887695
1750854082445042700,6.565042724609375,-1.1710277795791626,-0.24694208800792694,0.05696314200758934
1750854082463867100,6.5838671875,-0.8570432662963867,-0.29336780309677124,-0.1847866028547287
1750854082482691800,6.60269189453125,-0.5161807537078857,-0.27748534083366394,-0.3546070158481598
1750854082501516300,6.621516357421875,-0.07391463965177536,-0.16752967238426208,-0.3191768527030945
1750854082520341000,6.640341064453125,0.4001164436340332,-0.02458730712532997,-0.07360920310020447
1750854082539165400,6.65916552734375,0.7984002828598022,0.019394956529140472,0.16569706797599792
1750854082557990000,6.677989990234375,1.1563670635223389,-0.02458730712532997,0.2903134822845459
1750854082576814600,6.696814697265625,1.4789036512374878,0.008399390615522861,0.20601414144039154
1750854082595639000,6.71563916015625,1.7134757041931152,0.1328630894422531,0.07162389904260635
1750854082614463700,6.734463623046875,1.905287265777588,0.15485422313213348,0.014202605932950974
1750854082633288200,6.7532880859375,2.0861032009124756,0.06933315098285675,0.04841103404760361
1750854082652112600,6.772112548828125,2.148411512374878,-0.13332124054431915,0.07162389904260635
1750854082670937300,6.790937255859375,2.0323472023010254,-0.24572035670280457,-0.007788525894284248
1750854082689761800,6.80976171875,1.8344268798828125,-0.29703301191329956,-0.15179990231990814
1750854082708586500,6.82858642578125,1.609628677368164,-0.23228132724761963,-0.2617555558681488
1750854082727411000,6.847410888671875,1.4275909662246704,-0.1418733447790146,-0.25320345163345337
1750854082746235600,6.866235595703125,1.2565488815307617,-0.04169152304530144,-0.18723005056381226
1750854082765060000,6.88506005859375,0.9816597104072571,0.03390299528837204,-0.10170898586511612
1750854082783884800,6.903884765625,0.593149721622467,-0.019700389355421066,0.03375028073787689
1750854082802709200,6.922709228515625,0.13500112295150757,-0.13209950923919678,0.1925751268863678
1750854082821533700,6.94153369140625,-0.36712974309921265,0.003512472379952669,0.30375251173973083
1750854082840358400,6.9603583984375,-0.8472694754600525,0.21227550506591797,0.34895649552345276
1750854082859182800,6.979182861328125,-1.3359612226486206,0.2415970265865326,0.3306305706501007
1750854082878007600,6.998007568359375,-1.7892229557037354,0.16829325258731842,0.31719154119491577
1750854082896832000,7.01683203125,-2.1117594242095947,0.038789913058280945,0.24510949850082397
1750854082915656400,7.035656494140625,-2.263253927230835,-0.011148282326757908,0.1302669197320938
1750854082934481200,7.054481201171875,-2.3561055660247803,0.015729768201708794,-0.011453714221715927
1750854082953305600,7.0733056640625,-2.41963529586792,0.1328630894422531,-0.1432477980852127
1750854082972130300,7.09213037109375,-2.34999680519104,0.25381430983543396,-0.22754712402820587
1750854082990954800,7.110954833984375,-2.1899502277374268,0.18173226714134216,-0.25442516803741455
1750854083009779200,7.129779296875,-2.014021158218384,0.06322450190782547,-0.23243404924869537
1750854083028604000,7.14860400390625,-1.7696752548217773,-0.08200860023498535,-0.168904110789299
1750854083047428400,7.167428466796875,-1.3713914155960083,-0.08323032408952713,-0.1542433500289917
1750854083066253000,7.186253173828125,-0.9560033679008484,0.09376774728298187,-0.15668681263923645
1750854083085077500,7.205077392578125,-0.5968148708343506,0.14752385020256042,-0.12614357471466064
1750854083103902000,7.22390185546875,-0.2522871494293213,0.08399390429258347,-0.06383536756038666
1750854083122726700,7.2427265625,0.14110976457595825,0.030390523374080658,0.036193739622831345
1750854083141551000,7.261551025390625,0.5442805290222168,0.06933315098285675,0.18035782873630524
1750854083160375800,7.280375732421875,0.9669989347457886,-0.0013744457392022014,0.2890917658805847
1750854083179200300,7.2992001953125,1.4214823246002197,-0.023365577682852745,0.2536616027355194
1750854083198025000,7.31802490234375,1.8576397895812988,0.02779434807598591,0.08384118974208832
1750854083216849400,7.336849365234375,2.20461106300354,-0.09300415962934494,0.004428769461810589
1750854083235673900,7.355673828125,2.428187608718872,-0.27137666940689087,0.01908952370285988
1750854083254498600,7.37449853515625,2.4966044425964355,-0.22495095431804657,-0.028405211865901947
1750854083273323000,7.393322998046875,2.4746131896972656,-0.11133010685443878,-0.11148282140493393
1750854083292147700,7.412147705078125,2.3964226245880127,0.009621120058000088,-0.2006690800189972
1750854083310972200,7.43097216796875,2.2143847942352295,0.07910698652267456,-0.18356487154960632
1750854083329796900,7.449796875,1.8600832223892212,0.048563748598098755,-0.05039634555578232
1750854083348621300,7.468621337890625,1.4104868173599243,0.04245510324835777,0.016646064817905426
1750854083367445800,7.48744580078125,0.9743293523788452,-0.01359174121171236,-0.01740964688360691
1750854083386270500,7.5062705078125,0.5235111117362976,-0.06123919412493706,-0.07360920310020447
1750854083405095000,7.525094970703125,0.11911863088607788,0.008399390615522861,-0.057726722210645676
1750854083423919600,7.543919677734375,-0.25350889563560486,0.04016435891389847,0.0032070400193333626
1750854083442744000,7.562744140625,-0.6542361974716187,-0.08933897316455841,0.036193739622831345
1750854083461568500,7.581568603515625,-1.145371437072754,-0.20906847715377808,0.03375028073787689
1750854083480393200,7.600393310546875,-1.7501275539398193,-0.26160284876823425,-0.04062250629067421
1750854083499217700,7.6192177734375,-2.2278237342834473,-0.29336780309677124,-0.210442915558815
1750854083518042400,7.63804248046875,-2.506378173828125,-0.23716825246810913,-0.3399462401866913
1750854083536866800,7.65686669921875,-2.590677499771118,-0.22495095431804657,-0.30085089802742004
1750854083555691500,7.67569140625,-2.5112650394439697,-0.17608177661895752,-0.11026109009981155
1750854083574516000,7.694515869140625,-2.3768749237060547,-0.03802633285522461,0.17302745580673218
1750854083593340400,7.71334033203125,-2.2730278968811035,-0.15409064292907715,0.45158177614212036
1750854083612165000,7.7321650390625,-2.1667373180389404,-0.3361283540725708,0.38560840487480164
1750854083630989600,7.750989501953125,-1.989586591720581,-0.3422369956970215,-0.03222311660647392
1750854083649814300,7.769814208984375,-1.601076602935791,-0.2383899837732315,-0.4462367296218872
1750854083668638700,7.788638671875,-1.0952805280685425,0.0206166859716177,-0.508544921875
1750854083687463200,7.807463134765625,-0.6017017960548401,0.2513708472251892,-0.2202167510986328
1750854083706287900,7.826287841796875,-0.185092031955719,0.20738859474658966,0.1363755613565445
1750854083725112300,7.8451123046875,0.1496618688106537,0.05345066636800766,0.29153522849082947
1750854083743937000,7.86393701171875,0.4563159942626953,0.05711585655808449,0.2023489624261856
1750854083762761500,7.882761474609375,0.8106175661087036,0.1646280586719513,0.09728021919727325
1750854083781586000,7.9015859375,1.211344838142395,0.23304490745067596,0.14981459081172943
1750854083800410600,7.92041064453125,1.544877052307129,0.22815799713134766,0.3733910918235779
1750854083819235000,7.939235107421875,1.8222095966339111,0.1695149689912796,0.6226239204406738
1750854083838059800,7.958059814453125,2.117868185043335,0.13530655205249786,0.6739365458488464
1750854083856884200,7.97688427734375,2.3426663875579834,0.12064579129219055,0.512668251991272
1750854083875708700,7.995708740234375,2.3622140884399414,0.1328630894422531,0.14859285950660706
1750854083894533400,8.014533447265626,2.199723958969116,0.21838416159152985,-0.21777328848838806
1750854083913357800,8.03335791015625,2.022573232650757,0.4150826036930084,-0.4584540128707886
1750854083932182500,8.0521826171875,1.8820743560791016,0.5946768522262573,-0.49510589241981506
1750854083951007000,8.071007080078125,1.7880011796951294,0.630107045173645,-0.31673339009284973
1750854083969831700,8.089831787109375,1.5949679613113403,0.4321868419647217,-0.01740964688360691
1750854083988656000,8.10865625,1.2150100469589233,0.2110537886619568,0.2548833191394806
1750854084007480600,8.12748046875,0.8252783417701721,0.05833758786320686,0.29397866129875183
1750854084026305300,8.14630517578125,0.4929678738117218,0.019394956529140472,0.10583232343196869
1750854084045129700,8.165129638671875,0.1337793916463852,0.0010690133785828948,-0.14217877388000488
1750854084063954200,8.1839541015625,-0.2828303873538971,-0.036804601550102234,-0.3546070158481598
1750854084082779000,8.20277880859375,-0.7250964641571045,-0.09666935354471207,-0.44379326701164246
1750854084101603300,8.221603271484375,-1.229670763015747,-0.11377356201410294,-0.3692677617073059
1750854084120428000,8.240427978515624,-1.746462345123291,-0.09422589093446732,-0.2202167510986328
1750854084139252500,8.25925244140625,-2.087324857711792,-0.09056070446968079,-0.1493564397096634
1750854084158077000,8.278076904296874,-2.235154151916504,-0.11621702462434769,-0.13469567894935608
1750854084176901600,8.296901611328124,-2.304792881011963,-0.35811948776245117,-0.25809037685394287
1750854084195726000,8.31572607421875,-2.3878703117370605,-0.3727802336215973,-0.4462367296218872
1750854084214550800,8.33455078125,-2.352440357208252,-0.2383899837732315,-0.5598575472831726
1750854084233375200,8.353375244140626,-2.176511287689209,-0.06856957077980042,-0.4987711012363434
1750854084252199700,8.37219970703125,-1.915061116218567,0.04734202101826668,-0.29474225640296936
1750854084271024400,8.3910244140625,-1.658497929573059,0.06200277432799339,-0.018631376326084137
1750854084289848800,8.409848876953125,-1.397047758102417,0.09621120244264603,0.19990549981594086
1750854084308673500,8.428673583984375,-1.064737319946289,0.11331541836261749,0.23167046904563904
1750854084327498000,8.447498046875,-0.6395754218101501,0.16096286475658417,0.07284562289714813
1750854084346322400,8.466322509765625,-0.15821397304534912,0.1597411334514618,-0.06017018109560013
1750854084365147100,8.485147216796875,0.2938259541988373,0.005955931730568409,-0.1029307171702385
1750854084383971600,8.5039716796875,0.7104357481002808,-0.10644318908452988,-0.02611446939408779
1750854084402796300,8.52279638671875,1.1001675128936768,-0.13942988216876984,0.14859285950660706
1750854084421620700,8.541620849609375,1.515555500984192,-0.1101083755493164,0.43203410506248474
1750854084440445200,8.560445068359375,1.96148681640625,-0.09300415962934494,0.7105884552001953
1750854084459270000,8.579269775390625,2.299905776977539,-0.23594652116298676,0.7118101716041565
1750854084478094300,8.59809423828125,2.380540132522583,-0.3630063831806183,0.43692103028297424
1750854084496919000,8.6169189453125,2.268141031265259,-0.3165806829929352,0.07773254066705704
1750854084515743500,8.635743408203124,2.1423027515411377,-0.2188423126935959,-0.15668681263923645
1750854084534568000,8.65456787109375,2.070220708847046,-0.24205516278743744,-0.2568686306476593
1750854084553392600,8.673392578125,1.960265040397644,-0.31902414560317993,-0.2764163017272949
1750854084572217000,8.692217041015626,1.746462345123291,-0.3104720115661621,-0.24220788478851318
1750854084591041800,8.711041748046876,1.4227041006088257,-0.21395538747310638,-0.1383608728647232
1750854084609866200,8.7298662109375,1.028085470199585,-0.0539088174700737,-0.05406153202056885
1750854084628690700,8.748690673828126,0.7055488228797913,0.1902843713760376,-0.06017018109560013
1750854084647515400,8.767515380859376,0.45875945687294006,0.2977965772151947,-0.12247838824987411
1750854084666339800,8.78633984375,0.1484401375055313,0.24892739951610565,-0.12736530601978302
1750854084685164500,8.80516455078125,-0.17776164412498474,0.17073670029640198,-0.07605266571044922
1750854084703989000,8.823989013671875,-0.5112938284873962,0.22937972843647003,-0.02718348242342472
1750854084722813400,8.8428134765625,-0.8778126835823059,0.2868010103702545,-0.013744457624852657
1750854084741638100,8.86163818359375,-1.3115266561508179,0.24892739951610565,-0.012675444595515728
1750854084760462600,8.880462646484375,-1.737910270690918,0.13164135813713074,0.0007635809597559273
1750854084779287300,8.899287353515625,-2.0555598735809326,-0.07345648854970932,-0.018631376326084137
1750854084798111700,8.91811181640625,-2.358548879623413,-0.20906847715377808,-0.013744457624852657
1750854084816936200,8.936936279296875,-2.556469202041626,-0.17363831400871277,-0.018631376326084137
1750854084835761000,8.955760986328125,-2.5112650394439697,-0.2603811025619507,-0.03695731982588768
1750854084854585300,8.97458544921875,-2.3170101642608643,-0.3068068325519562,-0.001679878099821508
1750854084873409800,8.993409912109374,-2.084881544113159,-0.16508620977401733,0.009315688163042068
1750854084892234500,9.012234375,-1.8820743560791016,-0.0539088174700737,-0.09193515032529831
1750854084911059000,9.031058837890624,-1.7146974802017212,0.06444623321294785,-0.20311254262924194
1750854084929883600,9.049883544921874,-1.4361430406570435,0.013286309316754341,-0.23243404924869537
1750854084948708000,9.0687080078125,-1.0598503351211548,0.008399390615522861,-0.17745621502399445
1750854084967532500,9.087532470703126,-0.6273581385612488,0.19272783398628235,-0.057726722210645676
1750854084986357200,9.106357177734376,-0.14721840620040894,0.24526220560073853,0.023976443335413933
1750854085005181700,9.125181640625,0.2730565667152405,0.1366809904575348,0.049632761627435684
1750854085024006400,9.14400634765625,0.6053670048713684,-0.04657844081521034,0.04841103404760361
1750854085042830800,9.162830810546875,0.915686309337616,-0.0795651376247406,0.06795870512723923
1750854085061655300,9.1816552734375,1.229670763015747,-0.14798198640346527,0.10338886082172394
1750854085080480000,9.20047998046875,1.5265511274337769,-0.22983787953853607,0.09605848789215088
1750854085099304400,9.219304443359375,1.79410982131958,-0.2652680277824402,0.03252854943275452
1750854085118129000,9.23812890625,2.092211961746216,-0.2542724609375,-0.023518294095993042
1750854085136953600,9.25695361328125,2.4245223999023438,-0.2750418782234192,0.005650499369949102
1750854085155778000,9.275778076171875,2.673755168914795,-0.09300415962934494,-0.011453714221715927
1750854085174602800,9.294602783203125,2.723845958709717,0.015729768201708794,-0.057726722210645676
1750854085193427200,9.31342724609375,2.560134172439575,0.010842849500477314,-0.007788525894284248
1750854085212251600,9.332251708984375,2.2925755977630615,0.1340848207473755,0.1253799945116043
1750854085231076400,9.351076416015625,2.061668634414673,0.22815799713134766,0.24510949850082397
1750854085249900800,9.36990087890625,1.729358196258545,0.26969680190086365,0.2292270064353943
1750854085268725500,9.3887255859375,1.1685843467712402,0.20738859474658966,0.11194097250699997
1750854085287550000,9.407550048828124,0.5235111117362976,0.23793183267116547,-0.13469567894935608
1750854085306374400,9.42637451171875,-0.19608759880065918,0.28069236874580383,-0.31673339009284973
1750854085325199000,9.44519921875,-0.8582650423049927,0.17073670029640198,-0.2886336147785187
1750854085344023600,9.4640234375,-1.349400281906128,0.026572618633508682,-0.11881320178508759
1750854085362848300,9.48284814453125,-1.6682716608047485,-0.020922118797898293,0.052076224237680435
1750854085381672700,9.501672607421876,-1.9175045490264893,-0.033139415085315704,0.1766926348209381
1750854085400497200,9.5204970703125,-2.1801764965057373,0.04367683082818985,0.30741769075393677
1750854085419321900,9.53932177734375,-2.4098615646362305,0.1792888194322586,0.37583455443382263
1750854085438146300,9.558146240234375,-2.556469202041626,0.2098320573568344,0.3404043912887573
1750854085456970800,9.576970703125,-2.6664247512817383,0.2000582218170166,0.263435423374176
1750854085475795500,9.59579541015625,-2.6981897354125977,0.3026835024356842,0.23655737936496735
1750854085494620000,9.614619873046875,-2.4709479808807373,0.30024003982543945,0.24999640882015228
1750854085513444600,9.633444580078125,-2.159406900405884,0.291687935590744,0.24633121490478516
1750854085532269000,9.65226904296875,-1.8857395648956299,0.26969680190086365,0.09605848789215088
1750854085551093500,9.671093505859375,-1.599854826927185,0.18784092366695404,-0.12247838824987411
1750854085569918200,9.689918212890625,-1.193018913269043,-0.0539088174700737,-0.272751122713089
1750854085588742700,9.70874267578125,-0.6921098232269287,-0.1614210158586502,-0.314289927482605
1750854085607567400,9.7275673828125,-0.1337793916463852,0.025503603741526604,-0.15179990231990814
1750854085626391800,9.746391845703124,0.4526508152484894,0.15729768574237823,0.13759729266166687
1750854085645216300,9.76521630859375,0.8985821008682251,0.07910698652267456,0.32452189922332764
1750854085664041000,9.784041015625,1.268766164779663,-0.06490438431501389,0.42592546343803406
1750854085682865400,9.802865478515624,1.5937461853027344,-0.1821904182434082,0.5175551772117615
1750854085701690000,9.821690185546874,1.8539745807647705,-0.2237292230129242,0.5334376692771912
1750854085720514600,9.8405146484375,2.0580034255981445,-0.2029598206281662,0.3990474045276642
1750854085739339000,9.859339111328126,2.2388193607330322,-0.18952079117298126,0.1815795600414276
1750854085758163700,9.878163818359376,2.3512184619903564,-0.31413722038269043,-0.013744457624852657
1750854085776988200,9.89698828125,2.299905776977539,-0.4326449930667877,-0.12614357471466064
1750854085795812600,9.9158125,2.165515661239624,-0.36911505460739136,-0.1945604383945465
1750854085814637300,9.93463720703125,2.03723406791687,-0.25671592354774475,-0.2263254076242447
1750854085833461800,9.953461669921875,1.9382739067077637,-0.05024362727999687,-0.20677772164344788
1750854085852286500,9.972286376953125,1.7733404636383057,0.12553271651268005,-0.13958260416984558
1750854085871111000,9.99111083984375,1.3897173404693604,0.07544180005788803,-0.051618073135614395
1750854085889935400,10.009935302734375,0.8472694754600525,0.05345066636800766,-0.04306596517562866
1750854085908760000,10.028760009765625,0.21197007596492767,0.16829325258731842,-0.15057817101478577
1750854085927584500,10.04758447265625,-0.3659079968929291,0.1695149689912796,-0.2360992431640625
1750854085946409000,10.066408935546875,-0.7947350740432739,0.08643736690282822,-0.22999058663845062
1750854085965233700,10.085233642578125,-1.1319323778152466,0.12431098520755768,-0.19944734871387482
1750854085984058000,10.10405810546875,-1.423925757408142,0.20127993822097778,-0.16646064817905426
1750854086002882800,10.1228828125,-1.709810495376587,0.17195843160152435,-0.09804379940032959
1750854086021707300,10.141707275390624,-1.941939115524292,0.04367683082818985,0.011759147047996521
1750854086040531700,10.16053173828125,-2.073885917663574,0.010842849500477314,0.08384118974208832
1750854086059356400,10.1793564453125,-2.10687255859375,0.08765909820795059,0.08750637620687485
1750854086078180900,10.198180908203126,-2.073885917663574,0.11209368705749512,0.030085090547800064
1750854086097005300,10.21700537109375,-1.9737040996551514,0.030390523374080658,-0.08093958348035812
1750854086115830000,10.235830078125,-1.852752923965454,-0.10155627131462097,-0.2519817352294922
1750854086134654500,10.254654541015626,-1.7415754795074463,-0.10155627131462097,-0.41447174549102783
1750854086153479200,10.273479248046876,-1.6169590950012207,-0.008704823441803455,-0.5097666382789612
1750854086172303600,10.2923037109375,-1.3921607732772827,0.1182023361325264,-0.39370235800743103
1750854086191128000,10.311128173828125,-0.9425643682479858,0.2660316228866577,-0.024740023538470268
1750854086209952800,10.329952880859375,-0.47464191913604736,0.41386088728904724,0.4234820008277893
1750854086228777200,10.348777099609375,-0.10690133273601532,0.47494736313819885,0.585972011089325
1750854086247601700,10.3676015625,0.21441353857517242,0.35155269503593445,0.38438665866851807
1750854086266426400,10.38642626953125,0.47464191913604736,0.22937972843647003,0.04841103404760361
1750854086285250800,10.405250732421875,0.8203914165496826,0.12064579129219055,-0.06017018109560013
1750854086304075500,10.424075439453125,1.2064579725265503,-0.05146535858511925,0.06673697382211685
1750854086322900000,10.44289990234375,1.543655276298523,-0.2945895493030548,0.2231183648109436
1750854086341724400,10.461724365234375,1.7550145387649536,-0.44119709730148315,0.25243985652923584
1750854086360549000,10.480549072265624,1.8759657144546509,-0.49984011054039,0.19379685819149017
1750854086379373600,10.49937353515625,1.970038890838623,-0.4802924394607544,0.21578797698020935
1750854086398198000,10.518197998046874,2.0518949031829834,-0.3116937577724457,0.1815795600414276
1750854086417022700,10.537022705078124,2.076329469680786,-0.15775582194328308,0.026419902220368385
1750854086435847200,10.55584716796875,2.0018038749694824,-0.12721258401870728,-0.09315688163042068
1750854086454672000,10.574671875,1.8124357461929321,-0.08200860023498535,-0.09437860548496246
1750854086473496300,10.593496337890626,1.5473204851150513,-0.04657844081521034,0.010537417605519295
1750854086492320800,10.61232080078125,1.3225222826004028,-0.14431680738925934,0.10461059212684631
1750854086511145500,10.6311455078125,1.0903936624526978,-0.27259841561317444,0.022754713892936707
1750854086529970000,10.649969970703125,0.7385355234146118,-0.22128576040267944,-0.1542433500289917
1750854086548794400,10.66879443359375,0.4050033390522003,-0.07101303339004517,-0.23243404924869537
1750854086567619000,10.687619140625,0.09957095980644226,0.16584978997707367,-0.1640172004699707
1750854086586443500,10.706443603515625,-0.20463970303535461,0.3124573230743408,-0.10659590363502502
1750854086605268200,10.725268310546875,-0.5797106623649597,0.30024003982543945,-0.0821613147854805
1750854086624092700,10.7440927734375,-1.025641918182373,0.22327107191085815,-0.05528326332569122
1750854086642917000,10.762917236328125,-1.4801253080368042,0.09987638890743256,-0.06261363625526428
1750854086661741800,10.781741943359375,-1.8698570728302002,-0.02825249545276165,-0.11392628401517868
1750854086680566300,10.800566162109375,-2.163072109222412,-0.0746782198548317,-0.15546508133411407
1750854086699390700,10.819390625,-2.3512184619903564,-0.09178243577480316,-0.1432477980852127
1750854086718215400,10.83821533203125,-2.4074180126190186,-0.07345648854970932,-0.09926552325487137
1750854086737040000,10.857039794921874,-2.3170101642608643,-0.08689551800489426,-0.06261363625526428
1750854086755864300,10.8758642578125,-2.1105377674102783,-0.04046979174017906,-0.024740023538470268
1750854086774689000,10.89468896484375,-1.7635666131973267,0.2208276242017746,0.006872228812426329
1750854086793513500,10.913513427734374,-1.3164136409759521,0.41874781250953674,0.07651081681251526
1750854086812338200,10.932338134765626,-1.0134246349334717,0.41386088728904724,0.14492766559123993
1750854086831162600,10.95116259765625,-0.8778126835823059,0.34788748621940613,0.1204930767416954
1750854086849987000,10.969987060546876,-0.6346884965896606,0.25870123505592346,0.05329795181751251
1750854086868811800,10.988811767578126,-0.1545487940311432,0.23793183267116547,0.011759147047996521
1750854086887636200,11.00763623046875,0.41233372688293457,0.1585194170475006,-0.01740964688360691
1750854086906460700,11.026460693359375,0.8436042666435242,0.03756818547844887,-0.04062250629067421
1750854086925285400,11.045285400390625,1.0818414688110352,-0.042913250625133514,0.0007635809597559273
1750854086944109800,11.06410986328125,1.2760965824127197,-0.19074252247810364,0.11316270381212234
1750854086962934500,11.0829345703125,1.5192207098007202,-0.42531460523605347,0.18280129134655
1750854086981759000,11.101759033203125,1.8209879398345947,-0.5352702736854553,0.2133445292711258
1750854087000583400,11.12058349609375,2.1923937797546387,-0.3825540542602539,0.25243985652923584
1750854087019408100,11.139408203125,2.525925874710083,-0.1821904182434082,0.2328922003507614
1750854087038232600,11.158232666015625,2.5894558429718018,-0.08078686892986298,0.0948367565870285
1750854087057057000,11.17705712890625,2.352440357208252,-0.1357647031545639,-0.14080433547496796
1750854087075881700,11.1958818359375,1.990808367729187,-0.233503058552742,-0.4108065664768219
1750854087094706200,11.2147060546875,1.6401718854904175,-0.20662501454353333,-0.5855138897895813
1750854087113530600,11.233530517578124,1.4178171157836914,-0.0844520553946495,-0.5109884142875671
1750854087132355300,11.252355224609374,1.164919137954712,0.12553271651268005,-0.27030766010284424
1750854087151179800,11.2711796875,0.7141009569168091,0.20127993822097778,0.028863361105322838
1750854087170004500,11.29000439453125,0.2730565667152405,0.10354158282279968,0.2756527364253998
1750854087188829000,11.308828857421876,-0.13500112295150757,0.03145953640341759,0.3721693754196167
1750854087207653400,11.3276533203125,-0.5247328281402588,0.11453714966773987,0.24510949850082397
1750854087226478000,11.34647802734375,-0.9376774430274963,0.2159406989812851,0.049632761627435684
1750854087245302500,11.365302490234376,-1.3921607732772827,0.2367101013660431,-0.035735588520765305
1750854087264127000,11.384126953125,-1.8356486558914185,0.20127993822097778,0.022754713892936707
1750854087282951700,11.40295166015625,-2.1704025268554688,0.12064579129219055,0.15470150113105774
1750854087301776100,11.421776123046875,-2.360992431640625,0.13041962683200836,0.21212279796600342
1750854087320600600,11.4406005859375,-2.402531147003174,0.17684535682201385,0.16081015765666962
1750854087339425300,11.45942529296875,-2.3231186866760254,0.20250166952610016,0.036193739622831345
1750854087358249700,11.478249755859375,-2.2595887184143066,0.20250166952610016,-0.10537417232990265
1750854087377074400,11.497074462890625,-2.1508548259735107,0.3026835024356842,-0.13469567894935608
1750854087395899000,11.51589892578125,-1.96148681640625,0.3503309488296509,-0.07360920310020447
1750854087414723300,11.534723388671875,-1.6365067958831787,0.30146175622940063,0.045967575162649155
1750854087433548000,11.553548095703125,-1.1404845714569092,0.3136790692806244,0.1107192412018776
1750854087452372500,11.57237255859375,-0.6493492722511292,0.42974337935447693,0.13271036744117737
1750854087471197000,11.591197021484374,-0.3756818473339081,0.4199695289134979,0.10705405473709106
1750854087490021600,11.610021728515624,-0.2571740746498108,0.1744018942117691,0.026419902220368385
1750854087508846000,11.62884619140625,-0.0873536616563797,-0.10888664424419403,-0.06750056147575378
1750854087527670500,11.64767041015625,0.268169641494751,-0.2701549530029297,-0.08949168771505356
1750854087546495200,11.6664951171875,0.7006618976593018,-0.38499751687049866,0.023976443335413933
1750854087565319700,11.685319580078126,1.1001675128936768,-0.3764454126358032,0.162031888961792
1750854087584144400,11.704144287109376,1.4019346237182617,-0.2860374450683594,0.29153522849082947
1750854087602968800,11.72296875,1.6548327207565308,-0.4094321131706238,0.3355174660682678
1750854087621793300,11.741793212890625,1.9016220569610596,-0.4839576184749603,0.23533566296100616
1750854087640618000,11.760617919921875,2.1337506771087646,-0.3361283540725708,0.11804962158203125
1750854087659442400,11.7794423828125,2.341444730758667,-0.2444986253976822,0.14004075527191162
1750854087678267000,11.798266845703125,2.565021276473999,-0.36911505460739136,0.3513999581336975
1750854087697091600,11.817091552734375,2.7287330627441406,-0.5254964232444763,0.5358811020851135
1750854087715916000,11.835916015625,2.5833470821380615,-0.44119709730148315,0.49800750613212585
1750854087734740500,11.854740478515625,2.176511287689209,-0.1870773434638977,0.3013090491294861
1750854087753565200,11.873565185546875,1.6829324960708618,0.04367683082818985,-0.004123337101191282
1750854087772389600,11.8923896484375,1.1563670635223389,0.038789913058280945,-0.24465134739875793
1750854087791214300,11.91121435546875,0.5564978122711182,-0.05024362727999687,-0.43279770016670227
1750854087810038500,11.93003857421875,-0.020158538594841957,-0.12232567369937897,-0.5989528894424438
1750854087828863000,11.948863037109374,-0.4428769648075104,-0.08689551800489426,-0.6087267398834229
1750854087847687400,11.9676875,-0.7996219992637634,0.05222893878817558,-0.536644697189331
1750854087866512100,11.98651220703125,-1.2137882709503174,0.129197895526886,-0.36804601550102234
1750854087885336600,12.005336669921874,-1.6975932121276855,0.0461202897131443,-0.18723005056381226
1750854087904161300,12.024161376953124,-2.076329469680786,0.08643736690282822,-0.14691297709941864
1750854087922985700,12.04298583984375,-2.308458089828491,0.13041962683200836,-0.24709481000900269
1750854087941810200,12.06181005859375,-2.428187608718872,0.010842849500477314,-0.40225446224212646
1750854087960635000,12.080634765625,-2.3707661628723145,-0.08567378669977188,-0.4376846253871918
1750854087979459300,12.099459228515625,-2.1276419162750244,-0.09178243577480316,-0.2837466895580292
1750854087998283800,12.11828369140625,-1.9761475324630737,0.0766635313630104,-0.1311832070350647
1750854088017108500,12.1371083984375,-2.065333843231201,0.34055712819099426,-0.1737910360097885
1750854088035933000,12.155932861328125,-2.087324857711792,0.37843072414398193,-0.33139413595199585
1750854088054757400,12.17475732421875,-1.833205223083496,0.3796524703502655,-0.425467312335968
1750854088073582000,12.19358203125,-1.204014539718628,0.6740893125534058,-0.3081812858581543
1750854088092406500,12.212406494140625,-0.6236929297447205,1.027169108390808,0.0691804364323616
1750854088111231200,12.231231201171875,-0.35246896743774414,1.2275327444076538,0.41004297137260437
1750854088130055700,12.2500556640625,-0.1948658674955368,1.203098177909851,0.41615164279937744
1750854088148880100,12.268880126953125,-0.020158538594841957,0.8768963813781738,0.2292270064353943
1750854088167704800,12.287704833984375,0.10690133273601532,0.4370737373828888,0.045967575162649155
1750854088186529300,12.306529296875,0.3292561173439026,-0.05513054504990578,-0.07605266571044922
1750854088205353700,12.325353759765624,0.6420188546180725,-0.3617846667766571,-0.09682206809520721
1750854088224178400,12.344178466796874,1.0403027534484863,-0.4399753510951996,0.05940660089254379
1750854088243003000,12.3630029296875,1.5082250833511353,-0.2750418782234192,0.4405862092971802
1750854088261827300,12.381827392578124,1.9187263250350952,-0.42531460523605347,0.9133955836296082
1750854088280652000,12.400652099609376,2.221715211868286,-0.5792525410652161,1.0636682510375977
1750854088299476500,12.4194765625,2.452622175216675,-0.6281217336654663,0.8962913751602173
1750854088318301000,12.438301025390626,2.5772385597229004,-0.5853611826896667,0.5053378939628601
1750854088337125600,12.457125732421876,2.5332562923431396,-0.4240928590297699,-0.07360920310020447
1750854088355950000,12.4759501953125,2.313344955444336,-0.29825472831726074,-0.4975493550300598
1750854088374774800,12.49477490234375,2.0689990520477295,-0.25549420714378357,-0.6527090072631836
1750854088393599200,12.51359912109375,1.8808526992797852,-0.388662725687027,-0.6038398146629333
1750854088412423700,12.532423583984375,1.590080976486206,-0.4607447683811188,-0.39736753702163696
1750854088431248400,12.551248291015625,1.1294889450073242,-0.27626359462738037,-0.16768237948417664
1750854088450072800,12.57007275390625,0.5748237371444702,0.05589412897825241,-0.09315688163042068
1750854088468897300,12.588897216796875,0.09834922850131989,0.20616686344146729,-0.07605266571044922
1750854088487721700,12.6077216796875,-0.3194822669029236,0.15118902921676636,-0.05528326332569122
1750854088506546400,12.62654638671875,-0.7165443897247314,0.2098320573568344,-0.03817904740571976
1750854088525371000,12.645370849609375,-1.0989457368850708,0.4321868419647217,-0.011453714221715927
1750854088544195600,12.664195556640625,-1.472795009613037,0.5238165259361267,0.02764163166284561
1750854088563020000,12.68302001953125,-1.8613049983978271,0.4676169753074646,0.0435241162776947
1750854088581844500,12.701844482421874,-2.1899502277374268,0.3808741867542267,0.01908952370285988
1750854088600669200,12.720669189453124,-2.44162654876709,0.3686569035053253,-0.024740023538470268
1750854088619493600,12.73949365234375,-2.5967862606048584,0.37110036611557007,-0.11636973917484283
1750854088638318000,12.758318115234376,-2.660316228866577,0.2257145345211029,-0.30573782324790955
1750854088657142800,12.777142822265626,-2.523482322692871,0.09010255336761475,-0.5097666382789612
1750854088675967200,12.79596728515625,-2.148411512374878,0.15485422313213348,-0.5977311730384827
1750854088694791700,12.814791748046876,-1.6462805271148682,0.33689191937446594,-0.3949240744113922
1750854088713616400,12.833616455078126,-1.239444613456726,0.5995637774467468,-0.05894844979047775
1750854088732440800,12.85244091796875,-0.9376774430274963,0.7987056970596313,0.2182314395904541
1750854088751265300,12.871265380859375,-0.6517927050590515,0.7156280875205994,0.3110828995704651
1750854088770090000,12.890090087890625,-0.3634645342826843,0.5006036758422852,0.21700970828533173
1750854088788914400,12.90891455078125,-0.049480047076940536,0.250149130821228,0.020311253145337105
1750854088807739000,12.92773876953125,0.2926042377948761,0.0461202897131443,-0.14813470840454102
1750854088826563600,12.9465634765625,0.6371319890022278,-0.09911280870437622,-0.12125665694475174
1750854088845388000,12.965387939453125,0.9950987100601196,-0.21639885008335114,0.0386371985077858
1750854088864212700,12.984212646484375,1.3347395658493042,-0.3764454126358032,0.2597702443599701
1750854088883037200,13.003037109375,1.6352850198745728,-0.5780308246612549,0.47357290983200073
1750854088901861600,13.021861572265625,1.8539745807647705,-0.828485369682312,0.5212203860282898
1750854088920686300,13.040686279296875,1.9480477571487427,-0.8614720702171326,0.3733910918235779
1750854088939510800,13.0595107421875,2.006690740585327,-0.7405208349227905,0.21212279796600342
1750854088958335200,13.078335205078124,2.1618504524230957,-0.7344121932983398,0.18524473905563354
1750854088977160000,13.097159912109374,2.3854269981384277,-0.8846849203109741,0.2292270064353943
1750854088995984400,13.115984375,2.4489569664001465,-0.9347758293151855,0.14981459081172943
1750854089014808800,13.134808837890626,2.2388193607330322,-0.687986433506012,0.02764163166284561
1750854089033633500,13.153633544921876,1.8747440576553345,-0.46685341000556946,0.014202605932950974
1750854089052458000,13.1724580078125,1.5118902921676636,-0.3874409794807434,0.0691804364323616
1750854089071282400,13.191282470703126,1.1087195873260498,-0.38499751687049866,0.03375028073787689
1750854089090107100,13.210107177734375,0.6603448390960693,-0.04046979174017906,-0.14691297709941864
1750854089108931600,13.228931640625,0.23273947834968567,0.40286532044410706,-0.21410810947418213
1750854089127756000,13.247756103515625,-0.12400554865598679,0.7400626540184021,-0.02611446939408779
1750854089146580700,13.266580810546875,-0.42455101013183594,0.9294307827949524,0.141262486577034
1750854089165405200,13.2854052734375,-0.8240565657615662,1.0308343172073364,0.12904518842697144
1750854089184230000,13.30422998046875,-1.3127484321594238,0.9929606914520264,0.028863361105322838
1750854089203054300,13.323054443359375,-1.796553373336792,0.7999274134635925,-0.057726722210645676
1750854089221878800,13.341878662109375,-2.126420259475708,0.6337721943855286,-0.12125665694475174
1750854089240703500,13.360703369140625,-2.29624080657959,0.5421425104141235,-0.17623448371887207
1750854089259528000,13.37952783203125,-2.328005790710449,0.5482511520385742,-0.17867794632911682
1750854089278352400,13.398352294921875,-2.226602077484131,0.45539969205856323,-0.1334739476442337
1750854089297176800,13.4171767578125,-2.1251986026763916,0.31490078568458557,-0.06627883017063141
1750854089316001500,13.43600146484375,-2.054338216781616,0.13041962683200836,-0.07849612087011337
1750854089334826000,13.454825927734374,-1.9932518005371094,-0.11743875592947006,-0.14813470840454102
1750854089353650400,13.473650390625,-1.8625266551971436,-0.2701549530029297,-0.2605338394641876
1750854089372475100,13.49247509765625,-1.6132938861846924,-0.24327689409255981,-0.4816668927669525
1750854089391299600,13.511299560546876,-1.219896912574768,-0.0062613640911877155,-0.5451968312263489
1750854089410124300,13.530124267578126,-0.646905779838562,0.18295399844646454,-0.3081812858581543
1750854089428948700,13.54894873046875,-0.0665842592716217,0.29535311460494995,0.08017600327730179
1750854089447773200,13.567773193359375,0.44898560643196106,0.4016436040401459,0.3623955249786377
1750854089466598000,13.586597900390625,0.9034690260887146,0.44929105043411255,0.439364492893219
1750854089485422300,13.60542236328125,1.3555089235305786,0.31490078568458557,0.4955640435218811
1750854089504246800,13.624246826171875,1.7977750301361084,0.25992295145988464,0.5994110703468323
1750854089523071500,13.643071533203125,2.1606287956237793,0.2770271897315979,0.6739365458488464
1750854089541896000,13.66189599609375,2.371987819671631,0.18661919236183167,0.541989803314209
1750854089560720400,13.680720458984375,2.458730697631836,0.11331541836261749,0.27198755741119385
1750854089579545000,13.699545166015625,2.4831652641296387,0.0925460159778595,0.023976443335413933
1750854089598369500,13.71836962890625,2.380540132522583,0.048563748598098755,-0.09193515032529831
1750854089617194000,13.737194091796875,2.1325290203094482,0.005955931730568409,-0.12125665694475174
1750854089636018700,13.756018798828125,1.7452406883239746,-0.042913250625133514,-0.21899501979351044
1750854089654843100,13.774843017578124,1.3371829986572266,-0.11377356201410294,-0.3802633285522461
1750854089673667600,13.79366748046875,0.9828814268112183,-0.347123920917511,-0.46456265449523926
1750854089692492300,13.8124921875,0.4147771894931793,-0.3666715919971466,-0.40958482027053833
1750854089711316700,13.831316650390624,-0.11423171311616898,-0.1821904182434082,-0.2409861534833908
1750854089730141200,13.85014111328125,-0.3842339515686035,-0.11499529331922531,-0.04062250629067421
1750854089748966000,13.8689658203125,-0.6420188546180725,-0.10644318908452988,0.07895427197217941
1750854089767790300,13.887790283203126,-0.9401208758354187,-0.01359174121171236,0.0642935186624527
1750854089786614800,13.90661474609375,-1.2162318229675293,0.08765909820795059,0.0154243353754282
1750854089805439500,13.925439453125,-1.5131120681762695,0.015729768201708794,0.03130681812763214
1750854089833676300,13.95367626953125,-1.9871431589126587,-0.2897026240825653,-0.061391908675432205
1750854089852500700,13.972500732421874,-2.3145666122436523,-0.42531460523605347,-0.17623448371887207
1750854089871325200,13.9913251953125,-2.4770567417144775,-0.49739664793014526,-0.21899501979351044
1750854089890150000,14.01014990234375,-2.2901320457458496,-0.5352702736854553,-0.20922118425369263
1750854089908974300,14.028974365234374,-2.014021158218384,-0.4949531853199005,-0.1750127524137497
1750854089927798800,14.047798828125,-1.7745622396469116,-0.24816381931304932,-0.0821613147854805
1750854089946623500,14.06662353515625,-1.4104868173599243,-0.09911280870437622,0.06551524996757507
1750854089965448000,14.085447998046876,-1.0806198120117188,-0.04657844081521034,0.05818486958742142
1750854089984272600,14.104272705078126,-0.9474512934684753,-0.08933897316455841,-0.15546508133411407
1750854090003097000,14.12309716796875,-0.7458658814430237,-0.13332124054431915,-0.28496840596199036
1750854090021921500,14.141921630859375,-0.25961753726005554,-0.06979130208492279,-0.1432477980852127
1750854090040746200,14.160746337890625,0.3451386094093323,0.129197895526886,0.21212279796600342
1750854090059570700,14.17957080078125,0.7886264324188232,0.2562577724456787,0.490677148103714
1750854090078395100,14.19839501953125,1.0855066776275635,0.21349723637104034,0.5493201613426208
1750854090097219800,14.2172197265625,1.416595458984375,0.08521563559770584,0.5358811020851135
1750854090116044300,14.236044189453125,1.7708970308303833,0.06566796451807022,0.5468766689300537
1750854090134868700,14.25486865234375,2.159406900405884,0.16707152128219604,0.47723811864852905
1750854090153693200,14.273693115234375,2.5503604412078857,0.291687935590744,0.27320927381515503
1750854090172518000,14.292517822265625,2.764163017272949,0.35155269503593445,0.05818486958742142
1750854090191342300,14.31134228515625,2.6969680786132812,0.3430005609989166,-0.06627883017063141
1750854090210166800,14.330166748046874,2.4514002799987793,0.11209368705749512,-0.0821613147854805
1750854090228991500,14.348991455078124,2.0751075744628906,0.032681263983249664,-0.15546508133411407
1750854090247816000,14.36781591796875,1.5705333948135376,0.21960589289665222,-0.24342961609363556
1750854090266640400,14.386640380859374,1.2101231813430786,0.2868010103702545,-0.19333870708942413
1750854090285465000,14.405465087890626,0.9902117848396301,0.16829325258731842,-0.07238747924566269
1750854090304289500,14.42428955078125,0.7605266571044922,0.0925460159778595,0.04718930274248123
1750854090323114200,14.4431142578125,0.4734202027320862,0.12186752259731293,0.1363755613565445
1750854090341938700,14.461938720703126,0.025045456364750862,0.15118902921676636,0.11927134543657303
1750854090360763100,14.48076318359375,-0.5149590373039246,0.11575887352228165,-0.04917461425065994
1750854090379587800,14.499587890625,-0.9755510687828064,-0.05024362727999687,-0.1945604383945465
1750854090398412300,14.518412353515625,-1.3640609979629517,-0.13332124054431915,-0.2874118685722351
1750854090417236700,14.53723681640625,-1.6939280033111572,-0.0539088174700737,-0.2776380479335785
1750854090436061400,14.5560615234375,-1.9358304738998413,0.0206166859716177,-0.17867794632911682
1750854090454886000,14.574885986328125,-2.174067735671997,0.05345066636800766,-0.051618073135614395
1750854090473710300,14.59371044921875,-2.386648654937744,0.11942406743764877,0.030085090547800064
1750854090492535000,14.61253515625,-2.371987819671631,0.1328630894422531,0.0435241162776947
1750854090511359500,14.631359375,-2.054338216781616,0.06566796451807022,-0.03817904740571976
1750854090530184000,14.650183837890625,-1.7806708812713623,0.2415970265865326,-0.22388194501399994
1750854090549008600,14.669008544921875,-1.6817107200622559,0.3637699782848358,-0.29962918162345886
1750854090567833000,14.6878330078125,-1.6328415870666504,0.1951712965965271,-0.282524973154068
1750854090586657500,14.706657470703124,-1.4605777263641357,-0.07223475724458694,-0.3277289569377899
1750854090605482200,14.725482177734374,-1.202792763710022,-0.20173808932304382,-0.3753764033317566
1750854090624306700,14.744306640625,-0.7617483735084534,-0.1870773434638977,-0.24220788478851318
1750854090643131100,14.763131103515626,-0.14721840620040894,0.04367683082818985,0.11194097250699997
1750854090661955600,14.78195556640625,0.37201663851737976,0.24404047429561615,0.4650208055973053
1750854090680780300,14.8007802734375,0.7348703145980835,0.28069236874580383,0.5908589363098145
1750854090699604700,14.819604736328126,1.0891718864440918,0.12431098520755768,0.6177369952201843
1750854090718429200,14.83842919921875,1.4923427104949951,0.05100720748305321,0.7179188132286072
1750854090737254000,14.85725390625,1.8796309232711792,0.14019346237182617,0.8119919896125793
1750854090756078300,14.876078369140625,2.178954601287842,0.21227550506591797,0.7252492308616638
1750854090774902800,14.89490283203125,2.3561055660247803,0.22204934060573578,0.5639809370040894
1750854090793727500,14.9137275390625,2.378096580505371,0.16829325258731842,0.3721693754196167
1750854090812552000,14.932552001953125,2.3341143131256104,0.030390523374080658,0.09728021919727325
1750854090831376400,14.95137646484375,2.254701852798462,0.019394956529140472,-0.15057817101478577
1750854090850201000,14.970201171875,2.167959213256836,0.0461202897131443,-0.2617555558681488
1750854090869025500,14.989025634765625,1.96148681640625,0.05833758786320686,-0.30451610684394836
1750854090887850000,15.00785009765625,1.629176378250122,0.02306014485657215,-0.425467312335968
1750854090906674700,15.0266748046875,1.1661409139633179,-0.03558287397027016,-0.5867356061935425
1750854090925499100,15.0454990234375,0.5186241865158081,-0.13820815086364746,-0.7211259007453918
1750854090944323800,15.06432373046875,-0.17287473380565643,-0.2530507445335388,-0.7944296598434448
1750854090963148300,15.083148193359374,-0.6982184648513794,-0.3507890999317169,-0.7418952584266663
1750854090981972700,15.10197265625,-1.0610721111297607,-0.37400195002555847,-0.5781835317611694
1750854091000797400,15.12079736328125,-1.32985258102417,-0.42164942622184753,-0.5097666382789612
1750854091019622000,15.139621826171876,-1.5473204851150513,-0.3764454126358032,-0.5122101306915283
1750854091038446300,15.1584462890625,-1.786779522895813,-0.34834563732147217,-0.4401280879974365
1750854091057270800,15.177270751953126,-2.028681993484497,-0.42164942622184753,-0.28008151054382324
1750854091076095500,15.196095458984376,-2.1606287956237793,-0.5181660652160645,-0.09560033679008484
1750854091094920000,15.214919921875,-2.1300854682922363,-0.48762279748916626,0.052076224237680435
1750854091113744400,15.233744384765625,-2.0995421409606934,-0.31902414560317993,0.16936226189136505
1750854091132569000,15.252569091796875,-1.9578216075897217,-0.12110394239425659,0.25732678174972534
1750854091151393500,15.2713935546875,-1.6340632438659668,-0.16997312009334564,0.27198755741119385
1750854091170218000,15.290218017578125,-1.2870920896530151,-0.08933897316455841,0.23655737936496735
1750854091189042700,15.309042724609375,-0.9144645929336548,0.14019346237182617,0.2023489624261856
1750854091207867100,15.3278671875,-0.6261364221572876,0.3759872615337372,0.2438877671957016
1750854091226691600,15.346691650390625,-0.38667741417884827,0.5018253922462463,0.23044873774051666
1750854091245516300,15.365516357421875,-0.05070177838206291,0.5458076596260071,0.162031888961792
1750854091264340700,15.3843408203125,0.30115634202957153,0.4822777509689331,0.14492766559123993
1750854091283165200,15.403165283203125,0.5797106623649597,0.24404047429561615,0.10583232343196869
1750854091301990000,15.421989990234374,0.8973603844642639,-0.11621702462434769,0.06307178735733032
1750854091320814300,15.440814453125,1.3530654907226562,-0.34834563732147217,0.18280129134655
1750854091339638800,15.459638671875,1.8002184629440308,-0.30802857875823975,0.5493201613426208
1750854091358463500,15.47846337890625,2.022573232650757,-0.2542724609375,0.975703775882721
1750854091377288000,15.497287841796876,2.0580034255981445,-0.09789107739925385,1.1210895776748657
1750854091396112400,15.5161123046875,2.145967960357666,0.018173227086663246,0.8743002414703369
1750854091414936800,15.534936767578126,2.224158763885498,0.032681263983249664,0.3868301212787628
1750854091433761500,15.553761474609376,2.0970988273620605,0.048563748598098755,-0.04062250629067421
1750854091452586000,15.5725859375,1.7232495546340942,0.04505127668380737,-0.3741546869277954
1750854091471410700,15.59141064453125,1.3090832233428955,0.007177661173045635,-0.6307178735733032
1750854091490235100,15.610235107421875,1.0158681869506836,0.12675444781780243,-0.6368265151977539
1750854091509059600,15.6290595703125,0.8472694754600525,0.25503605604171753,-0.4401280879974365
1750854091527884000,15.647884033203125,0.7336485981941223,0.33567020297050476,-0.14080433547496796
1750854091546708700,15.666708740234375,0.5125155448913574,0.33689191937446594,0.06551524996757507
1750854091565533200,15.685533203125,0.10201441496610641,0.23426663875579834,0.0691804364323616
1750854091584357600,15.704357666015625,-0.38179048895835876,0.11942406743764877,-0.10170898586511612
1750854091603182300,15.723182373046875,-0.8460476994514465,0.0010690133785828948,-0.27397283911705017
1750854091622006800,15.7420068359375,-1.1478148698806763,-0.11499529331922531,-0.3643808364868164
1750854091640831500,15.76083154296875,-1.3127484321594238,-0.1931859850883484,-0.40958482027053833
1750854091659656000,15.779656005859374,-1.4666863679885864,-0.13820815086364746,-0.35705047845840454
1750854091678480400,15.79848046875,-1.5656464099884033,0.0010690133785828948,-0.19089524447917938
1750854091697304800,15.817304931640624,-1.6022982597351074,0.12186752259731293,-0.03940077871084213
1750854091716129500,15.836129638671874,-1.747684121131897,0.04016435891389847,-0.08093958348035812
1750854091734954000,15.8549541015625,-1.8698570728302002,-0.05635227635502815,-0.23732095956802368
1750854091753778400,15.8737783203125,-1.952934741973877,-0.10155627131462097,-0.41325002908706665
1750854091772603100,15.89260302734375,-1.8161009550094604,-0.06001746281981468,-0.5390881896018982
1750854091791427600,15.911427490234376,-1.4666863679885864,0.14263692498207092,-0.6759218573570251
1750854091810252000,15.930251953125,-1.0500766038894653,0.25870123505592346,-0.694247841835022
1750854091829076700,15.94907666015625,-0.7483093738555908,0.3894262909889221,-0.5684096813201904
1750854091847901200,15.967901123046875,-0.5626064538955688,0.6435460448265076,-0.3863719701766968
1750854091866725600,15.9867255859375,-0.39400777220726013,0.6227766275405884,-0.03329212963581085
1750854091885550300,16.00555029296875,-0.11178825795650482,0.19150610268115997,0.3623955249786377
1750854091904374800,16.024374755859377,0.3610210716724396,0.12675444781780243,0.6446150541305542
1750854091923199200,16.04319921875,0.8265000581741333,0.09498947113752365,0.847422182559967
1750854091942024000,16.06202392578125,1.320078730583191,0.010842849500477314,1.0636682510375977
1750854091960848400,16.080848388671875,1.7513493299484253,-0.12476912885904312,1.1455241441726685
1750854091979672800,16.0996728515625,1.9468261003494263,-0.2493855506181717,0.8743002414703369
1750854091998497500,16.11849755859375,1.933387041091919,-0.09178243577480316,0.3526217043399811
1750854092017322000,16.137322021484376,1.905287265777588,0.05100720748305321,-0.13958260416984558
1750854092036146400,16.156146484375,1.981034517288208,-0.378888875246048,-0.3643808364868164
1750854092054971100,16.17497119140625,2.033568859100342,-0.70753413438797,-0.37659814953804016
1750854092073795600,16.193795654296874,1.9346086978912354,-0.5560396909713745,-0.3814850449562073
1750854092092620000,16.2126201171875,1.6609413623809814,-0.16875138878822327,-0.3656025826931
1750854092111444700,16.23144482421875,1.153923511505127,-0.06001746281981468,-0.3130682110786438
1750854092130269200,16.250269287109376,0.5149590373039246,-0.13820815086364746,-0.3081812858581543
1750854092149093600,16.26909375,0.017715077847242355,-0.25182899832725525,-0.44990190863609314
1750854092167918000,16.28791796875,-0.3707949221134186,-0.42531460523605347,-0.7480039000511169
1750854092186742800,16.30674267578125,-0.7690787315368652,-0.755181610584259,-0.9385937452316284
1750854092205567200,16.325567138671875,-1.2076796293258667,-0.9775363802909851,-0.9275981783866882
1750854092224391700,16.3443916015625,-1.563202977180481,-0.8700241446495056,-0.8457422852516174
1750854092243216400,16.36321630859375,-1.7635666131973267,-0.5853611826896667,-0.6820304989814758
1750854092262040800,16.382040771484377,-1.852752923965454,-0.41554075479507446,-0.4266890585422516
1750854092280865300,16.400865234375,-1.8197661638259888,-0.3776671588420868,-0.21166464686393738
1750854092299690000,16.41968994140625,-1.7904446125030518,-0.34956738352775574,-0.1591302752494812
1750854092318514400,16.438514404296875,-1.8063271045684814,-0.22128576040267944,-0.1383608728647232
1750854092337339000,16.4573388671875,-1.8625266551971436,0.030390523374080658,-0.00045814859913662076
1750854092356163600,16.47616357421875,-1.8735222816467285,0.2623664140701294,0.30375251173973083
1750854092374988000,16.494988037109376,-1.6988149881362915,0.35643959045410156,0.5261073112487793
1750854092393812500,16.5138125,-1.3909391164779663,0.6985238790512085,0.5823068618774414
1750854092412637200,16.53263720703125,-0.9095776677131653,0.8988875150680542,0.5749764442443848
1750854092431461600,16.551461669921874,-0.40378162264823914,1.0577123165130615,0.5444332361221313
1750854092450286000,16.5702861328125,0.0054977829568088055,1.0809252262115479,0.4039343297481537
1750854092469110800,16.58911083984375,0.22907429933547974,0.8671225309371948,0.09361502528190613
1750854092487935200,16.607935302734376,0.42088583111763,0.6728675365447998,-0.17867794632911682
1750854092506759700,16.626759765625,0.7812960743904114,0.6411026120185852,-0.19700388610363007
1750854092525584100,16.645584228515624,1.230892539024353,0.5983420610427856,0.0899498388171196
1750854092544408800,16.664408935546874,1.57297682762146,0.31612253189086914,0.4198168218135834
1750854092563233300,16.6832333984375,1.7928881645202637,0.27458372712135315,0.5969675779342651
1750854092582057700,16.7020576171875,1.9846997261047363,0.5054906010627747,0.5994110703468323
1750854092600882400,16.72088232421875,2.174067735671997,0.8206968307495117,0.35384342074394226
1750854092619707000,16.739706787109377,2.1752893924713135,0.7266236543655396,0.008093958720564842
1750854092638531300,16.75853125,1.8735222816467285,0.42852163314819336,-0.2984074354171753
1750854092657356000,16.77735595703125,1.5570943355560303,0.24037529528141022,-0.5170970559120178
1750854092676180500,16.796180419921875,1.4312561750411987,0.12186752259731293,-0.6001746654510498
1750854092695005000,16.8150048828125,1.40559983253479,-0.0025961752980947495,-0.4816668927669525
1750854092713829600,16.83382958984375,1.1905754804611206,-0.008704823441803455,-0.33017241954803467
1750854092732654000,16.852654052734376,0.646905779838562,0.04367683082818985,-0.24220788478851318
1750854092751478500,16.871478515625,0.029932374134659767,0.07788526266813278,-0.231212317943573
1750854092770303200,16.89030322265625,-0.40378162264823914,0.0974329337477684,-0.2813032269477844
1750854092789127700,16.909127685546874,-0.648127555847168,0.20127993822097778,-0.36682429909706116
1750854092807952100,16.9279521484375,-0.7800742983818054,0.3698786199092865,-0.4877755343914032
1750854092826776800,16.94677685546875,-0.9425643682479858,0.5543597936630249,-0.6331613659858704
1750854092845601300,16.965601318359376,-1.3103049993515015,0.364991694688797,-0.6575959324836731
1750854092864425700,16.98442578125,-1.8771874904632568,-0.3165806829929352,-0.38759371638298035
1750854092883250400,17.00325048828125,-2.7030766010284424,-0.6940951347351074,0.07040216773748398
1750854092902075000,17.022074951171874,-3.422675371170044,-0.4192059636116028,0.4027126133441925
1750854092920899300,17.0408994140625,-3.691455841064453,-0.20173808932304382,0.6507236957550049
1750854092939724000,17.05972412109375,-3.3432629108428955,-0.06001746281981468,0.6568323373794556
1750854092958548500,17.078548583984375,-2.1313071250915527,0.01206457894295454,0.17547090351581573
1750854092977373000,17.097373046875,-1.3310743570327759,0.14752385020256042,-0.1383608728647232
1750854092996197400,17.116197265625,-0.9926552772521973,0.27458372712135315,-0.13469567894935608
1750854093015022000,17.13502197265625,-0.46486809849739075,0.1853974610567093,0.17791436612606049
1750854093033846500,17.153846435546875,0.08368847519159317,0.07788526266813278,0.366060733795166
1750854093052671000,17.1726708984375,0.42088583111763,-0.03436114266514778,0.3721693754196167
1750854093071495700,17.19149560546875,0.5955931544303894,-0.2542724609375,0.36483898758888245
1750854093090320100,17.210320068359376,0.7104357481002808,-0.49984011054039,0.39538222551345825
1750854093109144600,17.22914453125,0.850934624671936,-0.8785762786865234,0.44669488072395325
1750854093127969300,17.24796923828125,1.0036507844924927,-1.0459532737731934,0.37583455443382263
1750854093146793700,17.266793701171874,1.2284491062164307,-0.6965385675430298,0.24755294620990753
1750854093165618200,17.2856181640625,1.6169590950012207,-0.17486004531383514,0.19990549981594086
1750854093184443000,17.30444287109375,2.059225082397461,0.32100942730903625,0.15836669504642487
1750854093203267300,17.323267333984376,2.2791364192962646,0.8023709058761597,-0.018631376326084137
1750854093222091800,17.342091796875,2.2840235233306885,0.9416480660438538,-0.14217877388000488
1750854093240916500,17.36091650390625,2.2730278968811035,0.4834994673728943,-0.12370011955499649
1750854093259741000,17.379740966796874,2.3182318210601807,0.015729768201708794,-0.16768237948417664
1750854093278565400,17.3985654296875,2.321897029876709,-0.41676250100135803,-0.3228420317173004
1750854093297389800,17.417389892578125,2.072664260864258,-0.5963567495346069,-0.3497200906276703
1750854093316214500,17.436214599609375,1.599854826927185,-0.41187557578086853,-0.3032943606376648
1750854093335039000,17.4550390625,1.0610721111297607,-0.016035201027989388,-0.19211697578430176
1750854093353863400,17.473863525390627,0.6982184648513794,0.1792888194322586,-0.1311832070350647
1750854093372688100,17.492688232421877,0.47952884435653687,0.030390523374080658,-0.08949168771505356
1750854093391512600,17.5115126953125,0.16187916696071625,-0.2591593861579895,-0.06750056147575378
1750854093410337000,17.5303369140625,-0.38301220536231995,-0.3422369956970215,-0.1383608728647232
1750854093429161700,17.54916162109375,-0.8888082504272461,-0.3214675784111023,-0.24953825771808624
1750854093447986200,17.567986083984376,-1.1527018547058105,-0.2799287736415863,-0.30451610684394836
1750854093466810600,17.586810546875,-1.0928370952606201,-0.19440771639347076,-0.210442915558815
1750854093485635300,17.60563525390625,-0.925460159778595,-0.15897755324840546,-0.002901607658714056
1750854093504459800,17.624459716796874,-0.9608902931213379,-0.07834340631961823,0.16081015765666962
1750854093523284200,17.6432841796875,-1.2260055541992188,0.0766635313630104,0.141262486577034
1750854093542109000,17.66210888671875,-1.5033382177352905,0.14263692498207092,-0.047952886670827866
1750854093560933400,17.680933349609376,-1.6865977048873901,0.12675444781780243,-0.13225223124027252
1750854093579757800,17.6997578125,-1.6658282279968262,-0.0001527161948615685,0.04230238497257233
1750854093598582500,17.71858251953125,-1.4874557256698608,-0.22739441692829132,0.3428478538990021
1750854093617407000,17.737406982421874,-1.3249657154083252,-0.3019199073314667,0.5529853701591492
1750854093636231400,17.7562314453125,-1.2528836727142334,-0.12843431532382965,0.5297724604606628
1750854093655056000,17.775055908203125,-1.1417062282562256,0.06811141967773438,0.4503600597381592
1750854093673880600,17.793880615234375,-0.8778126835823059,0.06811141967773438,0.4173733592033386
1750854093692705000,17.812705078125,-0.5393936038017273,-0.008704823441803455,0.3513999581336975
1750854093711529500,17.831529541015627,-0.2974911332130432,-0.009926552884280682,0.24144430458545685
1750854093730354200,17.850354248046877,-0.19853104650974274,0.04245510324835777,0.1510363221168518
1750854093749178600,17.8691787109375,-0.16065743565559387,0.0974329337477684,0.0948367565870285
1750854093768003000,17.888003173828125,-0.16187916696071625,0.08399390429258347,0.12171480804681778
1750854093786827800,17.906827880859375,-0.14110976457595825,-0.0062613640911877155,0.16814053058624268
1750854093805652200,17.92565234375,-0.09957095980644226,-0.13820815086364746,0.20357069373130798
1750854093824476700,17.9444765625,-0.0922405794262886,-0.1467602699995041,0.20479241013526917
1750854093843301400,17.96330126953125,-0.1496618688106537,-0.08323032408952713,0.16325360536575317
1750854093862125800,17.982125732421874,-0.2620609998703003,-0.020922118797898293,0.14370593428611755
1750854093880950300,18.0009501953125,-0.4453204274177551,-0.08933897316455841,0.12782345712184906
1750854093899774700,18.019774658203126,-0.6823359727859497,-0.10766492038965225,0.09605848789215088
1750854093918599400,18.038599365234376,-0.8717040419578552,-0.04046979174017906,0.011759147047996521
1750854093937424000,18.057423828125,-0.9804379940032959,-0.01847865991294384,-0.028405211865901947
1750854093956248300,18.076248291015624,-1.1038326025009155,-0.09544762223958969,-0.04062250629067421
1750854093975073000,18.095072998046874,-1.2846486568450928,-0.04535670951008797,-0.14691297709941864
1750854093993897500,18.1138974609375,-1.3249657154083252,0.06444623321294785,-0.27397283911705017
1750854094012722000,18.132721923828125,-1.026863694190979,0.032681263983249664,-0.2788597643375397
1750854094031546600,18.151546630859375,-0.5760455131530762,0.18906265497207642,-0.2984074354171753
1750854094050371000,18.17037109375,-0.37323838472366333,0.6044507026672363,-0.3020726442337036
1750854094069195500,18.189195556640627,-0.39278605580329895,0.961195707321167,-0.1127045527100563
1750854094088020200,18.208020263671877,-0.3585776388645172,0.9636391997337341,0.18280129134655
1750854094106844700,18.2268447265625,-0.13622283935546875,0.6362156867980957,0.36483898758888245
1750854094125669000,18.245669189453125,0.18753549456596375,0.19761475920677185,0.2585485279560089
1750854094144493600,18.26449365234375,0.48930269479751587,0.02779434807598591,0.02519817277789116
1750854094163318300,18.283318359375,0.8826996088027954,0.17806708812713623,-0.09071341902017593
1750854094182142700,18.302142822265626,1.444695234298706,0.2770271897315979,0.017867794260382652
1750854094210379500,18.330379638671875,2.187506675720215,-0.039248060435056686,0.2084576040506363
1750854094229204000,18.349203857421877,2.4208571910858154,-0.18463388085365295,0.023976443335413933
1750854094248028700,18.368028564453127,2.5418083667755127,-0.2188423126935959,-0.2935205399990082
1750854094266853000,18.38685302734375,2.626107692718506,-0.19562944769859314,-0.5549706816673279
1750854094285677600,18.405677490234375,2.634659767150879,-0.1614210158586502,-0.7015781998634338
1750854094304502300,18.424502197265625,2.4184136390686035,0.054672397673130035,-0.8445205688476562
1750854094323326700,18.44332666015625,1.8661918640136719,0.19639302790164948,-0.8090903759002686
1750854094342151200,18.462151123046876,1.232114315032959,0.09498947113752365,-0.6356047987937927
1750854094360976000,18.480975830078126,0.8167262077331543,-0.12843431532382965,-0.49144071340560913
1750854094379800300,18.49980029296875,0.6017017960548401,-0.33001968264579773,-0.42913252115249634
1750854094398624800,18.518624755859374,0.4013381600379944,-0.3153589367866516,-0.41447174549102783
1750854094417449500,18.537449462890624,0.19853104650974274,-0.08567378669977188,-0.3851502537727356
1750854094436274000,18.55627392578125,0.05558869615197182,-0.039248060435056686,-0.2507599890232086
1750854094455098400,18.575098388671876,-0.09101885557174683,-0.04413498193025589,-0.08949168771505356
1750854094473922800,18.5939228515625,-0.4612029194831848,-0.02214384824037552,0.004428769461810589
1750854094492747500,18.61274755859375,-1.0855066776275635,0.004734201822429895,0.06673697382211685
1750854094511572000,18.631572021484374,-1.8490877151489258,-0.08811724185943604,0.141262486577034
1750854094530396400,18.650396484375,-2.237597703933716,-0.31902414560317993,0.263435423374176
1750854094549221000,18.66922119140625,-2.4636175632476807,-0.5438223481178284,0.407599538564682
1750854094568045600,18.688045654296875,-2.6358814239501953,-0.5010618567466736,0.5175551772117615
1750854094586870000,18.7068701171875,-2.693302869796753,-0.20662501454353333,0.5297724604606628
1750854094605694700,18.72569482421875,-2.6224424839019775,0.11942406743764877,0.5236638188362122
1750854094624519200,18.744519287109377,-2.4709479808807373,0.21227550506591797,0.57008957862854
1750854094643343600,18.763343505859375,-2.271806001663208,0.2208276242017746,0.5358811020851135
1750854094662168000,18.78216796875,-1.7794491052627563,0.31612253189086914,0.4283689260482788
1750854094680992800,18.80099267578125,-1.056185245513916,0.3906480371952057,0.3061959743499756
1750854094699817200,18.819817138671876,-0.42943793535232544,0.4871646761894226,0.2328922003507614
1750854094718641700,18.8386416015625,-0.1997527778148651,0.5506945848464966,0.23533566296100616
1750854094737466400,18.85746630859375,-0.20341797173023224,0.4627300798892975,0.2487746775150299
1750854094756290800,18.876290771484374,-0.2669478952884674,0.2513708472251892,0.24999640882015228
1750854094775115300,18.895115234375,-0.09468404203653336,-0.08811724185943604,0.22678354382514954
1750854094793940000,18.91393994140625,0.4318813979625702,-0.34834563732147217,0.18402300775051117
1750854094812764400,18.932764404296876,1.0415244102478027,-0.4179842174053192,0.26099199056625366
1750854094831588900,18.9515888671875,1.4837905168533325,-0.295811265707016,0.34895649552345276
1750854094850413300,18.970413330078124,1.8918482065200806,0.0974329337477684,0.2658788859844208
1750854094869238000,18.989238037109374,2.226602077484131,0.5739074349403381,-0.07605266571044922
1750854094888062500,19.0080625,2.4929392337799072,0.766940712928772,-0.46944957971572876
1750854094906887000,19.026886962890625,2.601673126220703,0.6056724190711975,-0.6514872908592224
1750854094925711600,19.045711669921875,2.5809037685394287,0.3796524703502655,-0.6062833070755005
1750854094944536000,19.0645361328125,2.621220827102661,0.2733619809150696,-0.41447174549102783
1750854094963360500,19.083360595703127,2.707963466644287,0.03390299528837204,-0.1311832070350647
1750854094982185200,19.102185302734377,2.604116439819336,-0.029474224895238876,0.1107192412018776
1750854095001009700,19.121009765625,2.187506675720215,0.08277218043804169,0.15225805342197418
1750854095019834000,19.139834228515625,1.415373682975769,0.04016435891389847,-0.018631376326084137
1750854095038658600,19.158658447265626,0.4465421438217163,-0.2029598206281662,-0.272751122713089
1750854095057483300,19.177483154296876,-0.3756818473339081,-0.47296205163002014,-0.49021899700164795
1750854095076307700,19.1963076171875,-0.9950987100601196,-0.5975784659385681,-0.5830704569816589
1750854095095132200,19.215132080078124,-1.349400281906128,-0.5450441241264343,-0.4987711012363434
1750854095113956900,19.233956787109374,-1.5741984844207764,-0.5059487819671631,-0.3436114490032196
1750854095132781300,19.25278125,-1.9822561740875244,-0.4595230221748352,-0.15790854394435883
1750854095151605800,19.271605712890626,-2.5051565170288086,-0.5059487819671631,0.04108065739274025
1750854095170430500,19.290430419921876,-2.8264713287353516,-0.42531460523605347,0.1669187992811203
1750854095189255000,19.3092548828125,-2.7812674045562744,-0.39599308371543884,0.19868376851081848
1750854095208079400,19.328079345703124,-2.528369426727295,-0.5157225728034973,0.2133445292711258
1750854095226904000,19.346904052734374,-2.185063362121582,-0.6110175251960754,0.25121814012527466
1750854095245728500,19.365728515625,-1.9175045490264893,-0.5279398560523987,0.2280052751302719
1750854095264553000,19.384552978515625,-1.9688172340393066,-0.06612611562013626,0.2341139316558838
1750854095283377400,19.40337744140625,-1.8295400142669678,0.30634868144989014,0.2903134822845459
1750854095302202000,19.4222021484375,-1.3322961330413818,0.5152644515037537,0.38438665866851807
1750854095321026600,19.441026611328127,-0.7629700899124146,0.878118097782135,0.4222602844238281
1750854095339851000,19.45985107421875,-0.49663305282592773,1.2153154611587524,0.4894554018974304
1750854095358675700,19.47867578125,-0.2522871494293213,1.0222822427749634,0.5847502946853638
1750854095377500200,19.497500244140625,0.12644900381565094,0.582459568977356,0.366060733795166
1750854095396324600,19.51632470703125,0.5687150955200195,0.33200499415397644,-0.04306596517562866
1750854095415149300,19.5351494140625,0.8924734592437744,0.24526220560073853,-0.17745621502399445
1750854095433973800,19.553973876953126,1.1722495555877686,0.21227550506591797,-0.06505709886550903
1750854095452798200,19.572798095703124,1.4862339496612549,0.18417572975158691,-0.041844237595796585
1750854095471623000,19.591622802734374,1.92361319065094,0.250149130821228,-0.16768237948417664
1750854095490447400,19.610447265625,2.489274024963379,0.4786125421524048,-0.2055560052394867
1750854095509271800,19.629271728515626,3.023169755935669,0.5787943601608276,-0.047952886670827866
1750854095528096300,19.64809619140625,3.296837329864502,0.39797839522361755,0.0899498388171196
1750854095546921000,19.6669208984375,3.2809548377990723,0.2733619809150696,0.10094540566205978
1750854095565745400,19.685745361328124,2.9303183555603027,0.39186975359916687,0.02519817277789116
1750854095584569900,19.70456982421875,2.2791364192962646,0.711962878704071,-0.0102319847792387
1750854095603394600,19.72339453125,1.6413936614990234,0.7180715203285217,0.14859285950660706
1750854095622219000,19.742218994140625,1.1856884956359863,0.4224129915237427,0.19501857459545135
1750854095641043500,19.76104345703125,0.8949168920516968,0.2000582218170166,-0.04428769648075104
1750854095659868000,19.779867919921877,0.6065887212753296,-0.06734783947467804,-0.435241162776947
1750854095678692600,19.798692626953127,0.3072649836540222,-0.4607447683811188,-0.6575959324836731
1750854095697517000,19.81751708984375,-0.007941242307424545,-0.7502946853637695,-0.7968730926513672
1750854095716341500,19.836341552734375,-0.3634645342826843,-0.6268999576568604,-0.8542944192886353
1750854095735166200,19.855166259765625,-0.7556397318840027,-0.18463388085365295,-0.7504473924636841
1750854095753990700,19.87399072265625,-1.2418880462646484,0.21227550506591797,-0.49510589241981506
1750854095772815000,19.892815185546876,-1.8173227310180664,0.374765545129776,-0.13713914155960083
1750854095791639600,19.9116396484375,-2.237597703933716,0.5140427350997925,0.21700970828533173
1750854095810464300,19.93046435546875,-2.191171884536743,0.39797839522361755,0.560315728187561
1750854095829288700,19.949288818359374,-2.120311737060547,0.43829548358917236,0.5713112950325012
1750854095848113200,19.968113037109376,-2.0250167846679688,0.05100720748305321,0.49189886450767517
1750854095866937900,19.986937744140626,-2.1117594242095947,-0.2860374450683594,0.3611738085746765
1750854095885762300,20.00576220703125,-2.2669191360473633,-0.49373146891593933,0.19868376851081848
1750854095904586800,20.024586669921874,-2.2449281215667725,-0.7380773425102234,0.12660172581672668
1750854095923411500,20.043411376953124,-2.0164647102355957,-0.8150463104248047,0.09361502528190613
1750854095942236000,20.06223583984375,-1.5228859186172485,-0.7234166264533997,0.05696314200758934
1750854095961060400,20.081060302734375,-1.1685843467712402,-0.39477136731147766,0.09728021919727325
1750854095979884800,20.099884765625,-0.8692606091499329,-0.16997312009334564,0.1314886510372162
1750854095998709500,20.11870947265625,-0.5186241865158081,-0.13942988216876984,0.10583232343196869
1750854096017534000,20.137533935546877,-0.24862197041511536,-0.15042544901371002,0.036193739622831345
1750854096036358400,20.1563583984375,-0.015271619893610477,-0.18952079117298126,0.07040216773748398
1750854096055183000,20.17518310546875,0.430659681558609,-0.1565341055393219,0.1876882016658783
1750854096074007600,20.194007568359375,1.0195332765579224,0.13530655205249786,0.3611738085746765
1750854096092832000,20.21283203125,1.4972295761108398,0.42852163314819336,0.560315728187561
1750854096111656700,20.23165673828125,1.7977750301361084,0.6239983439445496,0.5688678026199341
1750854096130481200,20.250481201171876,2.0689990520477295,0.6496546864509583,0.39538222551345825
1750854096149305600,20.2693056640625,2.3451099395751953,0.5995637774467468,0.22067490220069885
1750854096168130300,20.28813037109375,2.5662429332733154,0.7205150127410889,0.11316270381212234
1750854096186954800,20.306954833984374,2.599229574203491,0.9086613655090332,-0.002901607658714056
1750854096205779200,20.325779296875,2.4489569664001465,0.989295482635498,-0.18600831925868988
1750854096224604000,20.34460400390625,2.072664260864258,0.7596103549003601,-0.29962918162345886
1750854096243428400,20.363428466796876,1.6780455112457275,0.5641336441040039,-0.2984074354171753
1750854096262252800,20.382252685546874,1.4593559503555298,0.3857611119747162,-0.1542433500289917
1750854096281077200,20.4010771484375,1.2944225072860718,0.1340848207473755,0.09117157012224197
1750854096299902000,20.41990185546875,0.8594867587089539,0.09010255336761475,0.1302669197320938
1750854096318726400,20.438726318359375,0.2156352698802948,0.14752385020256042,-0.06383536756038666
1750854096337550800,20.45755078125,-0.4575377106666565,-0.02458730712532997,-0.24709481000900269
1750854096356375600,20.47637548828125,-0.9804379940032959,-0.378888875246048,-0.3484983444213867
1750854096375200000,20.495199951171877,-1.387273907661438,-0.6769908666610718,-0.33505934476852417
1750854096394024400,20.5140244140625,-1.766010046005249,-0.7368556261062622,-0.3912588953971863
1750854096412849000,20.532848876953125,-2.100764036178589,-0.6940951347351074,-0.4218021333217621
1750854096431673600,20.551673583984375,-2.29624080657959,-0.7661771774291992,-0.32162031531333923
1750854096450498000,20.570498046875,-2.3817617893218994,-0.8309288024902344,-0.18234314024448395
1750854096469322500,20.589322509765626,-2.2986841201782227,-0.5963567495346069,-0.057726722210645676
1750854096488147200,20.608147216796876,-1.950491189956665,-0.2799287736415863,0.12782345712184906
1750854096506971600,20.6269716796875,-1.3408482074737549,-0.33001968264579773,0.1876882016658783
1750854096525796000,20.645796142578124,-0.6908880472183228,-0.4045451879501343,0.07284562289714813
1750854096544620800,20.664620849609374,-0.5039634704589844,-0.3092502951622009,-0.14569124579429626
1750854096563445200,20.6834453125,-0.6175842881202698,-0.1931859850883484,-0.31551164388656616
1750854096582269700,20.702269775390626,-0.545502245426178,-0.09422589093446732,-0.23976442217826843
1750854096601094100,20.72109423828125,-0.08979712426662445,-0.06123919412493706,0.017867794260382652
1750854096619918800,20.7399189453125,0.3597993552684784,0.007177661173045635,0.24999640882015228
1750854096638743300,20.758743408203124,0.6090322136878967,0.08032871782779694,0.36361727118492126
1750854096657567700,20.777567626953125,0.7031053900718689,0.20861032605171204,0.366060733795166
1750854096676392400,20.796392333984375,0.6847794055938721,0.3283398151397705,0.2292270064353943
1750854096695217000,20.815216796875,0.6542361974716187,0.33322674036026,0.0435241162776947
1750854096714041300,20.834041259765623,0.7067705392837524,0.3271180987358093,-0.12980876863002777
1750854096732866000,20.852865966796877,0.758083164691925,0.20250166952610016,-0.20677772164344788
1750854096751690500,20.8716904296875,0.7324268817901611,0.007177661173045635,-0.231212317943573
1750854096770515000,20.890514892578125,0.6298015713691711,-0.10277800261974335,-0.23854269087314606
1750854096789339400,20.90933935546875,0.47952884435653687,-0.052687086164951324,-0.2409861534833908
1750854096808164000,20.9281640625,0.40866854786872864,0.02779434807598591,-0.1798996776342392
1750854096826988500,20.946988525390626,0.39400777220726013,-0.0025961752980947495,-0.0821613147854805
1750854096845813000,20.96581298828125,0.3243691921234131,-0.01847865991294384,-0.04428769648075104
1750854096864637700,20.9846376953125,0.21807873249053955,0.025503603741526604,-0.04428769648075104
1750854096883462100,21.003462158203124,0.09468404203653336,0.09010255336761475,-0.05039634555578232
1750854096902286600,21.02228662109375,0.009162971749901772,0.08277218043804169,-0.013744457624852657
1750854096921111300,21.041111328125,0.015271619893610477,0.0717766135931015,0.049632761627435684
1750854096939935700,21.059935791015626,0.04581485688686371,0.11698060482740402,0.10338886082172394
1750854096958760200,21.07876025390625,0.08002328872680664,0.10842850059270859,0.14370593428611755
1750854096977585000,21.0975849609375,0.07635809481143951,0.15485422313213348,0.12904518842697144
1750854096996409300,21.116409423828124,0.020158538594841957,0.14019346237182617,0.07651081681251526
1750854097015233800,21.13523388671875,-0.031154103577136993,0.05345066636800766,0.009315688163042068
1750854097034058200,21.154058349609375,-0.07880155742168427,0.005955931730568409,-0.09560033679008484
1750854097052883000,21.172883056640625,-0.07269290834665298,-0.027030766010284424,-0.14080433547496796
1750854097071707400,21.191707275390623,-0.02871064469218254,-0.01847865991294384,-0.10903936624526978
1750854097090531800,21.21053173828125,0.0030543238390237093,0.03145953640341759,-0.03695731982588768
1750854097109356500,21.2293564453125,0.01282816007733345,0.06933315098285675,0.05451968312263489
1750854097128181000,21.248180908203125,0.031154103577136993,0.08765909820795059,0.10705405473709106
1750854097147005400,21.26700537109375,0.033597562462091446,0.08643736690282822,0.0850629210472107
1750854097165830100,21.285830078125,0.021380268037319183,0.04978547990322113,-0.01740964688360691
1750854097184654600,21.304654541015626,0.007941242307424545,0.014508038759231567,-0.16035200655460358
1750854097203479000,21.32347900390625,0.000610864779446274,0.003512472379952669,-0.2519817352294922
1750854097222303500,21.342303466796874,0.0409279391169548,-0.014813470654189587,-0.23243404924869537
1750854097241128200,21.361128173828124,0.08613193035125732,-0.0013744457392022014,-0.17623448371887207
1750854097259952600,21.37995263671875,0.08613193035125732,0.04978547990322113,-0.10659590363502502
1750854097278777000,21.398777099609376,0.10201441496610641,0.0412333719432354,-0.047952886670827866
1750854097297601800,21.417601806640626,0.0873536616563797,0.002290742937475443,-0.04673115536570549
1750854097316426200,21.43642626953125,0.0360410213470459,0.015729768201708794,-0.07360920310020447
1750854097335250700,21.455250732421874,-0.0030543238390237093,-0.027030766010284424,-0.07238747924566269
1750854097354075400,21.474075439453124,-0.031154103577136993,-0.04780016839504242,-0.06505709886550903
1750854097372899800,21.49289990234375,-0.017715077847242355,-0.017256930470466614,-0.06750056147575378
1750854097391724300,21.511724365234375,0.03237583488225937,0.024281874299049377,-0.04917461425065994
1750854097410548700,21.530548828125,0.06414080411195755,0.06200277432799339,-0.035735588520765305
1750854097429373400,21.54937353515625,0.043371398001909256,0.038789913058280945,-0.03695731982588768
1750854097448198000,21.568197998046877,0.01282816007733345,0.03634645417332649,-0.03222311660647392
1750854097467022300,21.587022216796875,-0.0030543238390237093,0.04245510324835777,-0.024740023538470268
1750854097485847000,21.605846923828125,-0.01649334840476513,0.002290742937475443,-0.02611446939408779
1750854097504671500,21.62467138671875,-0.009162971749901772,-0.02825249545276165,-0.02611446939408779
1750854097523496000,21.643495849609376,-0.010384701192378998,-0.03802633285522461,-0.023518294095993042
1750854097542320600,21.662320556640626,-0.021380268037319183,-0.009926552884280682,-0.028405211865901947
1750854097561145000,21.68114501953125,-0.033597562462091446,0.013286309316754341,-0.05894844979047775
1750854097579969500,21.699969482421874,-0.027488915249705315,-0.012370011769235134,-0.06750056147575378
1750854097598794000,21.7187939453125,-0.006719512399286032,-0.0539088174700737,-0.047952886670827866
1750854097617618700,21.73761865234375,0.017715077847242355,-0.049021899700164795,-0.03451386094093323
1750854097636443100,21.756443115234376,0.04825831577181816,0.02306014485657215,-0.03329212963581085
1750854097655267600,21.775267578125,0.06902772188186646,0.0717766135931015,-0.03817904740571976
1750854097674092300,21.79409228515625,0.033597562462091446,0.038789913058280945,-0.06383536756038666
1750854097692916700,21.812916748046874,-0.027488915249705315,-0.039248060435056686,-0.09071341902017593
1750854097711741200,21.8317412109375,-0.05925388261675835,-0.06612611562013626,-0.10537417232990265
1750854097730565600,21.850565673828125,-0.031154103577136993,-0.04780016839504242,-0.08582650125026703
1750854097749390300,21.869390380859375,0.03481929376721382,-0.01359174121171236,-0.04428769648075104
1750854097768214800,21.88821484375,0.06902772188186646,0.030390523374080658,0.011759147047996521
1750854097787039200,21.907039306640623,0.06414080411195755,0.0461202897131443,0.03252854943275452
1750854097805864000,21.925864013671877,0.01893680728971958,0.029016077518463135,-0.013744457624852657
1750854097824688400,21.9446884765625,-0.020158538594841957,-0.0013744457392022014,-0.09560033679008484
1750854097843512800,21.963512939453125,-0.025045456364750862,0.010842849500477314,-0.14569124579429626
1750854097862337500,21.982337646484375,-0.010384701192378998,0.054672397673130035,-0.12614357471466064
1750854097881162000,22.001161865234376,0.01893680728971958,0.09498947113752365,-0.05283980444073677
1750854097899986400,22.019986328125,0.039706211537122726,0.0925460159778595,0.014202605932950974
1750854097918811100,22.03881103515625,0.06047561392188072,0.05345066636800766,0.030085090547800064
1750854097937635600,22.057635498046874,0.049480047076940536,0.010842849500477314,0.005650499369949102
1750854097956460000,22.0764599609375,0.020158538594841957,-0.0025961752980947495,-0.011453714221715927
1750854097975284700,22.09528466796875,-0.001832594396546483,0.010842849500477314,-0.03451386094093323
1750854097994109200,22.114109130859376,0.004276053514331579,0.04016435891389847,-0.03817904740571976
1750854098012933600,22.13293359375,0.039706211537122726,0.048563748598098755,0.005650499369949102
1750854098031758300,22.15175830078125,0.06414080411195755,0.07544180005788803,0.07162389904260635
1750854098050582800,22.170582763671874,0.05192350596189499,0.06811141967773438,0.09850194305181503
1750854098069407200,22.1894072265625,0.023823726922273636,-0.04657844081521034,0.0386371985077858
1750854098088231700,22.208231689453125,-0.01282816007733345,-0.1406516134738922,-0.03695731982588768
1750854098107056400,22.227056396484375,-0.056810423731803894,-0.13332124054431915,-0.06872228533029556
1750854098125880800,22.245880859375,-0.07880155742168427,-0.09666935354471207,-0.028405211865901947
1750854098144705300,22.264705322265623,-0.05803215503692627,-0.039248060435056686,0.04841103404760361
1750854098163530000,22.283530029296877,0.001832594396546483,0.018173227086663246,0.08872810751199722
1750854098182354400,22.3023544921875,0.04214967042207718,0.030390523374080658,0.061850059777498245
1750854098201179000,22.321178955078125,0.037262752652168274,0.002290742937475443,0.03252854943275452
1750854098220003300,22.34000341796875,0.015271619893610477,-0.03191768378019333,0.0386371985077858
1750854098238828000,22.358828125,-0.000610864779446274,-0.02825249545276165,0.055741410702466965
1750854098257652500,22.377652587890626,-0.007941242307424545,0.010842849500477314,0.05940660089254379
1750854098276477000,22.396476806640624,0.004276053514331579,0.03634645417332649,0.05818486958742142
1750854098295301600,22.415301513671874,0.027488915249705315,0.06811141967773438,0.07528908550739288
1750854098314126000,22.4341259765625,0.05192350596189499,0.05589412897825241,0.09728021919727325
1750854098332950500,22.452950439453126,0.05925388261675835,0.05589412897825241,0.10216713696718216
1750854098351775000,22.47177490234375,0.053145237267017365,0.08155044913291931,0.08384118974208832
1750854098370599700,22.490599609375,0.03237583488225937,0.08521563559770584,0.07284562289714813
1750854098389424000,22.509424072265624,0.006719512399286032,0.0668896958231926,0.05940660089254379
1750854098408248600,22.52824853515625,-0.009162971749901772,0.04978547990322113,0.0386371985077858
1750854098427073300,22.5470732421875,0.010384701192378998,0.0717766135931015,0.03252854943275452
1750854098445897700,22.565897705078125,0.06780599057674408,0.1328630894422531,0.052076224237680435
1750854098464722200,22.58472216796875,0.10323614627122879,0.11575887352228165,0.07162389904260635
1750854098483547000,22.603546875,0.05436696484684944,0.002290742937475443,0.04718930274248123
1750854098502371300,22.622371337890623,-0.01649334840476513,-0.10399972647428513,-0.024740023538470268
1750854098521195800,22.64119580078125,-0.05192350596189499,-0.14309507608413696,-0.06994401663541794
1750854098540020200,22.660020263671875,-0.06414080411195755,-0.11499529331922531,-0.047952886670827866
1750854098558845000,22.678844970703125,-0.043371398001909256,-0.036804601550102234,0.0019853105768561363
1750854098577669400,22.69766943359375,-0.010384701192378998,0.038789913058280945,0.04108065739274025
1750854098596493800,22.716493896484376,0.007941242307424545,0.04016435891389847,0.06062832847237587
1750854098615318500,22.735318603515626,-0.000610864779446274,0.018173227086663246,0.026419902220368385
1750854098634143000,22.75414306640625,-0.01649334840476513,-0.0001527161948615685,-0.057726722210645676
1750854098652967400,22.772967529296874,-0.025045456364750862,-0.01847865991294384,-0.10903936624526978
1750854098671792000,22.791792236328124,-0.020158538594841957,-0.01359174121171236,-0.09682206809520721
1750854098690616600,22.810616455078126,-0.001832594396546483,0.03634645417332649,-0.047952886670827866
1750854098709441000,22.82944091796875,0.025045456364750862,0.04367683082818985,-0.001679878099821508
1750854098728265700,22.848265625,0.025045456364750862,-0.008704823441803455,0.009315688163042068
1750854098747090200,22.867090087890624,0.000610864779446274,-0.05757400393486023,-0.04062250629067421
1750854098765914600,22.88591455078125,-0.025045456364750862,-0.0539088174700737,-0.09071341902017593
1750854098784739000,22.904739013671875,-0.01893680728971958,-0.017256930470466614,-0.0772743970155716
1750854098803563800,22.923563720703125,0.001832594396546483,0.026572618633508682,-0.024740023538470268
1750854098822388200,22.94238818359375,0.011606430634856224,0.04016435891389847,0.0154243353754282
1750854098841212700,22.961212646484373,0.006719512399286032,0.04016435891389847,0.02519817277789116
1750854098860037400,22.980037353515623,0.0030543238390237093,0.003512472379952669,0.03130681812763214
1750854098878861800,22.99886181640625,0.001832594396546483,-0.01847865991294384,0.02764163166284561
1750854098897686300,23.017686279296875,0.0030543238390237093,-0.012370011769235134,-0.022296564653515816
1750854098916511000,23.036510986328125,-0.0030543238390237093,-0.011148282326757908,-0.06750056147575378
1750854098935335400,23.05533544921875,-0.015271619893610477,-0.0038179049734026194,-0.06750056147575378
1750854098954159900,23.074159912109376,-0.004276053514331579,-0.007483093533664942,-0.01740964688360691
1750854098972984300,23.092984375,0.007941242307424545,0.014508038759231567,0.03375028073787689
1750854098991809000,23.11180908203125,0.011606430634856224,0.030390523374080658,0.05940660089254379
1750854099010633500,23.130633544921874,0.0054977829568088055,0.03145953640341759,0.022754713892936707
1750854099029458000,23.1494580078125,-0.006719512399286032,0.032681263983249664,-0.029626941308379173
1750854099048282600,23.16828271484375,-0.029932374134659767,0.01206457894295454,-0.035735588520765305
1750854099067107000,23.187107177734376,-0.039706211537122726,-0.005039634648710489,-0.022296564653515816
1750854099085931500,23.205931640625,-0.023823726922273636,-0.012370011769235134,-0.002901607658714056
1750854099104756000,23.224755859375,0.004276053514331579,-0.0025961752980947495,0.023976443335413933
