time,seconds_elapsed,z,y,x
1750854076011711500,0.13171142578125,-37.125,-39.150001525878906,16.725000381469727
1750854076021711600,0.141711669921875,-37.125,-39.13125228881836,16.875
1750854076051711500,0.17171142578125,-36.056251525878906,-39,17.681251525878906
1750854076081711600,0.201711669921875,-36.150001525878906,-38.53125,18.075000762939453
1750854076101711600,0.221711669921875,-35.75625228881836,-38.60625076293945,18.39375114440918
1750854076111711500,0.23171142578125,-35.868751525878906,-38.60625076293945,18.39375114440918
1750854076121711600,0.241711669921875,-36.03750228881836,-38.83125305175781,18.39375114440918
1750854076131711500,0.25171142578125,-36.150001525878906,-38.51250076293945,18.506250381469727
1750854076141711600,0.261711669921875,-36.30000305175781,-38.41875076293945,18.46875
1750854076151711500,0.27171142578125,-35.94375228881836,-38.51250076293945,18.037500381469727
1750854076161711600,0.281711669921875,-35.962501525878906,-38.66250228881836,18.150001525878906
1750854076171711500,0.29171142578125,-36.150001525878906,-38.625,17.681251525878906
1750854076181711600,0.301711669921875,-36.28125,-38.60625076293945,17.850000381469727
1750854076191711500,0.31171142578125,-36.13125228881836,-38.64375305175781,17.850000381469727
1750854076201711600,0.321711669921875,-35.94375228881836,-38.4375,17.8125
1750854076211711500,0.33171142578125,-36.09375,-38.45625305175781,17.64375114440918
1750854076221711600,0.341711669921875,-35.98125076293945,-38.587501525878906,17.568750381469727
1750854076231711500,0.35171142578125,-36.26250076293945,-38.70000076293945,17.681251525878906
1750854076241711600,0.361711669921875,-36.39375305175781,-38.56875228881836,17.662500381469727
1750854076251711500,0.37171142578125,-36.525001525878906,-38.25,18.131250381469727
1750854076261711600,0.381711669921875,-36.45000076293945,-38.32500076293945,18.09375
1750854076271711500,0.39171142578125,-36.35625076293945,-38.26875305175781,18.1875
1750854076281711600,0.401711669921875,-36.31875228881836,-38.34375,18.09375
1750854076291711500,0.41171142578125,-36.30000305175781,-38.51250076293945,18.09375
1750854076301711600,0.421711669921875,-36.09375,-38.60625076293945,18.1875
1750854076311711500,0.43171142578125,-35.962501525878906,-38.625,18.262500762939453
1750854076321711600,0.441711669921875,-36.150001525878906,-38.64375305175781,18.375
1750854076331711500,0.45171142578125,-36.09375,-38.8125,18.30000114440918
1750854076341711600,0.461711669921875,-36.243751525878906,-38.60625076293945,18.262500762939453
1750854076351711500,0.47171142578125,-36.35625076293945,-38.56875228881836,18.243751525878906
1750854076361711600,0.481711669921875,-36.31875228881836,-38.51250076293945,18.243751525878906
1750854076371711500,0.49171142578125,-36.48750305175781,-38.493751525878906,18.337501525878906
1750854076381711600,0.501711669921875,-36.618751525878906,-38.25,18.243751525878906
1750854076391711500,0.51171142578125,-36.73125076293945,-38.08125305175781,18.412500381469727
1750854076401711600,0.521711669921875,-36.525001525878906,-38.19375228881836,18.375
1750854076411711500,0.53171142578125,-36.58125305175781,-38.306251525878906,18.5625
1750854076421711600,0.541711669921875,-36.50625228881836,-38.32500076293945,18.46875
1750854076431711500,0.55171142578125,-36.48750305175781,-38.34375,18.431251525878906
1750854076441711600,0.561711669921875,-36.712501525878906,-38.36250305175781,18.337501525878906
1750854076451711500,0.57171142578125,-36.525001525878906,-38.34375,18.243751525878906
1750854076461711600,0.581711669921875,-36.375,-38.41875076293945,18.262500762939453
1750854076471711500,0.59171142578125,-36.41250228881836,-38.400001525878906,18.168750762939453
1750854076481711600,0.601711669921875,-36.31875228881836,-38.32500076293945,18.1875
1750854076491711500,0.61171142578125,-36.243751525878906,-38.19375228881836,18.01875114440918
1750854076501711600,0.621711669921875,-36.28125,-38.23125076293945,17.90625
1750854076511711500,0.63171142578125,-36.45000076293945,-38.13750076293945,17.90625
1750854076521711600,0.641711669921875,-36.618751525878906,-38.26875305175781,18.037500381469727
1750854076531711500,0.65171142578125,-36.82500076293945,-38.10000228881836,18.168750762939453
1750854076541711600,0.661711669921875,-37.06875228881836,-38.08125305175781,18.11250114440918
1750854076551711500,0.67171142578125,-36.9375,-38.212501525878906,18.075000762939453
1750854076561711600,0.681711669921875,-37.06875228881836,-38.13750076293945,17.90625
1750854076571711500,0.69171142578125,-37.01250076293945,-38.13750076293945,17.90625
1750854076581711600,0.701711669921875,-36.78750228881836,-38.04375076293945,18.037500381469727
1750854076591711500,0.71171142578125,-36.54375076293945,-38.15625,18
1750854076601711600,0.721711669921875,-36.39375305175781,-38.0625,17.868751525878906
1750854076611711500,0.73171142578125,-36.28125,-38.28750228881836,17.756250381469727
1750854076621711600,0.741711669921875,-36.35625076293945,-38.41875076293945,17.868751525878906
1750854076631711500,0.75171142578125,-36.375,-38.32500076293945,17.92500114440918
1750854076641711600,0.761711669921875,-36.46875,-38.23125076293945,18.056251525878906
1750854076651711500,0.77171142578125,-36.525001525878906,-38.32500076293945,17.981250762939453
1750854076661711600,0.781711669921875,-36.45000076293945,-38.493751525878906,18.075000762939453
1750854076671711500,0.79171142578125,-36.86250305175781,-38.41875076293945,18.150001525878906
1750854076681711600,0.801711669921875,-36.75,-38.41875076293945,18.356250762939453
1750854076691711500,0.81171142578125,-36.5625,-38.32500076293945,18.5625
1750854076701711600,0.821711669921875,-36.46875,-38.212501525878906,18.375
1750854076711711500,0.83171142578125,-36.1875,-38.19375228881836,18.431251525878906
1750854076721711600,0.841711669921875,-35.98125076293945,-38.53125,18.506250381469727
1750854076731711500,0.85171142578125,-35.775001525878906,-38.53125,18.543750762939453
1750854076741711600,0.861711669921875,-36.01875305175781,-38.51250076293945,18.48750114440918
1750854076751711500,0.87171142578125,-35.73750305175781,-38.400001525878906,18.450000762939453
1750854076761711600,0.881711669921875,-35.962501525878906,-38.47500228881836,18.375
1750854076771711500,0.89171142578125,-36,-38.34375,18.1875
1750854076781711600,0.901711669921875,-36.11250305175781,-38.26875305175781,18.20625114440918
1750854076791711500,0.91171142578125,-36.45000076293945,-38.17500305175781,18.1875
1750854076801711600,0.921711669921875,-36.712501525878906,-37.95000076293945,17.92500114440918
1750854076811711500,0.93171142578125,-36.82500076293945,-37.6875,17.92500114440918
1750854076821711600,0.941711669921875,-36.806251525878906,-37.650001525878906,17.868751525878906
1750854076831711500,0.95171142578125,-36.86250305175781,-37.61250305175781,18.056251525878906
1750854076841711600,0.961711669921875,-36.618751525878906,-37.35000228881836,18.1875
1750854076851711500,0.97171142578125,-36.78750228881836,-37.462501525878906,18.262500762939453
1750854076861711600,0.981711669921875,-36.78750228881836,-37.66875076293945,18.1875
1750854076871711500,0.99171142578125,-36.73125076293945,-37.80000305175781,18.168750762939453
1750854076881711600,1.001711669921875,-36.618751525878906,-37.875,18.318750381469727
1750854076891711500,1.01171142578125,-36.712501525878906,-37.89375305175781,18.337501525878906
1750854076901711600,1.021711669921875,-36.900001525878906,-37.89375305175781,18.506250381469727
1750854076911711500,1.03171142578125,-36.91875076293945,-37.98750305175781,18.337501525878906
1750854076921711600,1.041711669921875,-36.91875076293945,-38.08125305175781,18.168750762939453
1750854076931711500,1.05171142578125,-36.993751525878906,-37.95000076293945,18.11250114440918
1750854076941711600,1.061711669921875,-37.10625076293945,-37.81875228881836,18.1875
1750854076951711500,1.07171142578125,-37.14375305175781,-37.85625076293945,18.075000762939453
1750854076961711600,1.081711669921875,-37.35000228881836,-37.76250076293945,18.037500381469727
1750854076971711500,1.09171142578125,-37.03125,-38.00625228881836,17.83125114440918
1750854076981711600,1.101711669921875,-36.63750076293945,-38.13750076293945,17.756250381469727
1750854076991711500,1.11171142578125,-36.50625228881836,-38.212501525878906,17.83125114440918
1750854077001711600,1.121711669921875,-36.54375076293945,-38.23125076293945,17.887500762939453
1750854077011711500,1.13171142578125,-36.45000076293945,-38.4375,17.868751525878906
1750854077021711600,1.141711669921875,-36.375,-38.55000305175781,17.73750114440918
1750854077031711500,1.15171142578125,-36.337501525878906,-38.71875,17.606250762939453
1750854077041711600,1.161711669921875,-36.13125228881836,-38.681251525878906,17.64375114440918
1750854077051711500,1.17171142578125,-36.26250076293945,-38.64375305175781,17.8125
1750854077061711600,1.181711669921875,-36.50625228881836,-38.400001525878906,17.681251525878906
1750854077071711500,1.19171142578125,-36.48750305175781,-38.47500228881836,17.45625114440918
1750854077081711600,1.201711669921875,-36.54375076293945,-38.493751525878906,17.231250762939453
1750854077091711500,1.21171142578125,-36.58125305175781,-38.212501525878906,17.34375
1750854077101711600,1.221711669921875,-36.45000076293945,-38.15625,17.662500381469727
1750854077111711500,1.23171142578125,-36.26250076293945,-38.025001525878906,17.73750114440918
1750854077121711600,1.241711669921875,-36.26250076293945,-38.19375228881836,17.587501525878906
1750854077131711500,1.25171142578125,-36.30000305175781,-38.00625228881836,17.512500762939453
1750854077141711600,1.261711669921875,-36.1875,-38.23125076293945,17.475000381469727
1750854077151711500,1.27171142578125,-36.243751525878906,-38.10000228881836,17.475000381469727
1750854077161711600,1.281711669921875,-36.26250076293945,-38.08125305175781,17.55000114440918
1750854077171711500,1.29171142578125,-36.39375305175781,-38.118751525878906,17.34375
1750854077181711600,1.301711669921875,-36.30000305175781,-38.15625,17.287500381469727
1750854077191711500,1.31171142578125,-36.525001525878906,-38.04375076293945,17.4375
1750854077201711600,1.321711669921875,-36.13125228881836,-38.00625228881836,17.475000381469727
1750854077211711500,1.33171142578125,-36.11250305175781,-38.306251525878906,17.625
1750854077221711600,1.341711669921875,-36.41250228881836,-38.19375228881836,17.793750762939453
1750854077231711500,1.35171142578125,-36.243751525878906,-38.306251525878906,17.793750762939453
1750854077241711600,1.361711669921875,-36.11250305175781,-38.34375,18
1750854077251711500,1.37171142578125,-36,-38.23125076293945,18.11250114440918
1750854077261711600,1.381711669921875,-36.1875,-38.13750076293945,18.131250381469727
1750854077271711500,1.39171142578125,-36.30000305175781,-38.13750076293945,17.962501525878906
1750854077281711600,1.401711669921875,-36.5625,-38.118751525878906,17.868751525878906
1750854077291711500,1.41171142578125,-36.525001525878906,-37.98750305175781,17.775001525878906
1750854077301711600,1.421711669921875,-36.375,-37.85625076293945,17.681251525878906
1750854077311711500,1.43171142578125,-36.58125305175781,-37.76250076293945,17.775001525878906
1750854077321711600,1.441711669921875,-36.67500305175781,-37.89375305175781,17.36250114440918
1750854077331711500,1.45171142578125,-36.86250305175781,-38.025001525878906,17.493751525878906
1750854077341711600,1.461711669921875,-36.78750228881836,-38.04375076293945,17.231250762939453
1750854077351711500,1.47171142578125,-36.67500305175781,-38.0625,17.137500762939453
1750854077361711600,1.481711669921875,-36.58125305175781,-37.96875,17.34375
1750854077371711500,1.49171142578125,-36.60000228881836,-37.81875228881836,17.212501525878906
1750854077381711600,1.501711669921875,-36.50625228881836,-38.00625228881836,17.006250381469727
1750854077391711500,1.51171142578125,-36.41250228881836,-38.212501525878906,16.818750381469727
1750854077401711600,1.521711669921875,-36.45000076293945,-38.212501525878906,17.025001525878906
1750854077411711500,1.53171142578125,-36.375,-38.36250305175781,16.743751525878906
1750854077421711600,1.541711669921875,-36.48750305175781,-38.28750228881836,16.837501525878906
1750854077431711500,1.55171142578125,-36.35625076293945,-38.23125076293945,17.043750762939453
1750854077441711600,1.561711669921875,-36.50625228881836,-38.34375,16.98750114440918
1750854077451711500,1.57171142578125,-36.35625076293945,-38.45625305175781,17.231250762939453
1750854077461711600,1.581711669921875,-36.1875,-38.38125228881836,17.4375
1750854077471711500,1.59171142578125,-36.056251525878906,-38.212501525878906,17.625
1750854077481711600,1.601711669921875,-36.056251525878906,-38.08125305175781,17.83125114440918
1750854077491711500,1.61171142578125,-35.83125305175781,-37.875,17.981250762939453
1750854077501711600,1.621711669921875,-35.64375305175781,-38.212501525878906,17.943750381469727
1750854077511711500,1.63171142578125,-35.681251525878906,-38.08125305175781,18.09375
1750854077521711600,1.641711669921875,-35.64375305175781,-37.96875,18.150001525878906
1750854077531711500,1.65171142578125,-35.88750076293945,-37.96875,18.056251525878906
1750854077541711600,1.661711669921875,-36.07500076293945,-37.96875,18.168750762939453
1750854077551711500,1.67171142578125,-36.31875228881836,-38.15625,18.11250114440918
1750854077561711600,1.681711669921875,-36.20625305175781,-38.19375228881836,17.90625
1750854077571711500,1.69171142578125,-36.22500228881836,-38.26875305175781,17.775001525878906
1750854077581711600,1.701711669921875,-36.150001525878906,-38.118751525878906,17.793750762939453
1750854077591711500,1.71171142578125,-36.150001525878906,-38.34375,17.53125
1750854077601711600,1.721711669921875,-36.39375305175781,-38.4375,17.625
1750854077611711500,1.73171142578125,-36.243751525878906,-38.41875076293945,17.606250762939453
1750854077621711600,1.741711669921875,-36.20625305175781,-38.587501525878906,17.325000762939453
1750854077631711500,1.75171142578125,-35.962501525878906,-38.45625305175781,17.306251525878906
1750854077641711600,1.761711669921875,-36,-38.4375,17.606250762939453
1750854077651711500,1.77171142578125,-36.150001525878906,-38.51250076293945,17.606250762939453
1750854077661711600,1.781711669921875,-36.243751525878906,-38.53125,17.64375114440918
1750854077671711500,1.79171142578125,-36.41250228881836,-38.53125,17.606250762939453
1750854077681711600,1.801711669921875,-36.056251525878906,-38.493751525878906,17.418750762939453
1750854077691711500,1.81171142578125,-36.30000305175781,-38.47500228881836,17.512500762939453
1750854077701711600,1.821711669921875,-36.30000305175781,-38.625,17.512500762939453
1750854077711711500,1.83171142578125,-36.46875,-38.70000076293945,17.587501525878906
1750854077721711600,1.841711669921875,-36.54375076293945,-38.64375305175781,17.418750762939453
1750854077731711500,1.85171142578125,-36.375,-38.55000305175781,17.587501525878906
1750854077741711600,1.861711669921875,-36.48750305175781,-38.493751525878906,17.587501525878906
1750854077751711500,1.87171142578125,-36.50625228881836,-38.400001525878906,17.625
1750854077761711600,1.881711669921875,-36.73125076293945,-38.306251525878906,17.606250762939453
1750854077771711500,1.89171142578125,-36.5625,-37.98750305175781,17.756250381469727
1750854077781711600,1.901711669921875,-36.73125076293945,-37.70625305175781,17.775001525878906
1750854077791711500,1.91171142578125,-36.67500305175781,-37.78125,17.71875
1750854077801711600,1.921711669921875,-36.45000076293945,-37.837501525878906,17.71875
1750854077811711500,1.93171142578125,-36.525001525878906,-37.96875,17.512500762939453
1750854077821711600,1.941711669921875,-36.39375305175781,-37.875,17.55000114440918
1750854077831711500,1.95171142578125,-36.09375,-37.875,17.662500381469727
1750854077841711600,1.961711669921875,-36,-38.08125305175781,17.4375
1750854077851711500,1.97171142578125,-36.28125,-38.51250076293945,17.025001525878906
1750854077861711600,1.981711669921875,-36.30000305175781,-38.38125228881836,16.98750114440918
1750854077871711500,1.99171142578125,-36.41250228881836,-38.13750076293945,17.025001525878906
1750854077881711600,2.001711669921875,-36.5625,-38.08125305175781,17.043750762939453
1750854077891711500,2.01171142578125,-36.46875,-38.04375076293945,16.96875
1750854077901711600,2.021711669921875,-36.48750305175781,-38.306251525878906,16.80000114440918
1750854077911711500,2.03171142578125,-36.46875,-38.55000305175781,16.650001525878906
1750854077921711600,2.041711669921875,-36.54375076293945,-38.53125,16.837501525878906
1750854077931711500,2.05171142578125,-36.54375076293945,-38.26875305175781,16.856250762939453
1750854077941711600,2.061711669921875,-36.375,-38.45625305175781,16.78125
1750854077951711500,2.07171142578125,-36.28125,-38.493751525878906,16.78125
1750854077961711600,2.081711669921875,-36.243751525878906,-38.51250076293945,16.762500762939453
1750854077971711500,2.09171142578125,-36.30000305175781,-38.587501525878906,16.743751525878906
1750854077981711600,2.101711669921875,-36.41250228881836,-38.493751525878906,16.70625114440918
1750854077991711500,2.11171142578125,-36.618751525878906,-38.45625305175781,16.631250381469727
1750854078001711600,2.121711669921875,-36.63750076293945,-38.45625305175781,16.556251525878906
1750854078011711500,2.13171142578125,-36.337501525878906,-38.587501525878906,16.743751525878906
1750854078021711600,2.141711669921875,-36.28125,-38.32500076293945,17.0625
1750854078031711500,2.15171142578125,-36.41250228881836,-38.41875076293945,17.118751525878906
1750854078041711600,2.161711669921875,-36.54375076293945,-38.53125,17.006250381469727
1750854078051711500,2.17171142578125,-36.618751525878906,-38.45625305175781,17.193750381469727
1750854078061711600,2.181711669921875,-36.63750076293945,-38.34375,17.493751525878906
1750854078071711500,2.19171142578125,-36.67500305175781,-38.306251525878906,17.662500381469727
1750854078081711600,2.201711669921875,-36.67500305175781,-38.212501525878906,17.793750762939453
1750854078091711500,2.21171142578125,-36.63750076293945,-38.08125305175781,17.73750114440918
1750854078101711600,2.221711669921875,-37.01250076293945,-38.17500305175781,17.775001525878906
1750854078111711500,2.23171142578125,-37.087501525878906,-38.10000228881836,17.568750381469727
1750854078121711600,2.241711669921875,-37.087501525878906,-38.10000228881836,17.568750381469727
1750854078131711500,2.25171142578125,-37.10625076293945,-38.13750076293945,17.400001525878906
1750854078141711600,2.261711669921875,-37.05000305175781,-38.19375228881836,17.15625
1750854078151711500,2.27171142578125,-37.06875228881836,-38.10000228881836,16.912500381469727
1750854078161711600,2.281711669921875,-37.25625228881836,-38.13750076293945,16.98750114440918
1750854078171711500,2.29171142578125,-37.462501525878906,-38.26875305175781,16.950000762939453
1750854078181711600,2.301711669921875,-37.42500305175781,-38.400001525878906,16.837501525878906
1750854078191711500,2.31171142578125,-37.03125,-38.38125228881836,16.950000762939453
1750854078201711600,2.321711669921875,-37.01250076293945,-38.34375,16.912500381469727
1750854078211711500,2.33171142578125,-37.01250076293945,-38.25,17.0625
1750854078221711600,2.341711669921875,-37.06875228881836,-38.23125076293945,17.043750762939453
1750854078231711500,2.35171142578125,-36.97500228881836,-38.306251525878906,17.100000381469727
1750854078241711600,2.361711669921875,-36.75,-38.34375,16.912500381469727
1750854078251711500,2.37171142578125,-36.82500076293945,-38.23125076293945,16.950000762939453
1750854078261711600,2.381711669921875,-36.431251525878906,-38.25,16.70625114440918
1750854078271711500,2.39171142578125,-36.84375,-38.400001525878906,16.762500762939453
1750854078281711600,2.401711669921875,-37.10625076293945,-38.41875076293945,16.96875
1750854078291711500,2.41171142578125,-37.06875228881836,-38.41875076293945,16.818750381469727
1750854078301711600,2.421711669921875,-37.06875228881836,-38.41875076293945,16.875
1750854078311711500,2.43171142578125,-37.05000305175781,-38.28750228881836,17.08125114440918
1750854078321711600,2.441711669921875,-37.20000076293945,-38.45625305175781,17.306251525878906
1750854078331711500,2.45171142578125,-37.125,-38.38125228881836,17.493751525878906
1750854078341711600,2.461711669921875,-37.40625,-38.306251525878906,17.587501525878906
1750854078351711500,2.47171142578125,-37.125,-38.19375228881836,17.475000381469727
1750854078361711600,2.481711669921875,-36.993751525878906,-38.19375228881836,17.34375
1750854078371711500,2.49171142578125,-37.01250076293945,-38.15625,17.45625114440918
1750854078381711600,2.501711669921875,-36.97500228881836,-38.10000228881836,17.418750762939453
1750854078391711500,2.51171142578125,-37.087501525878906,-38.00625228881836,17.34375
1750854078401711600,2.521711669921875,-37.16250228881836,-37.81875228881836,17.08125114440918
1750854078411711500,2.53171142578125,-37.06875228881836,-38.025001525878906,17.025001525878906
1750854078421711600,2.541711669921875,-36.97500228881836,-38.10000228881836,17.043750762939453
1750854078431711500,2.55171142578125,-37.23750305175781,-38.025001525878906,17.17500114440918
1750854078441711600,2.561711669921875,-37.01250076293945,-37.81875228881836,17.287500381469727
1750854078451711500,2.57171142578125,-37.20000076293945,-37.95000076293945,17.418750762939453
1750854078461711600,2.581711669921875,-37.06875228881836,-37.98750305175781,17.512500762939453
1750854078471711500,2.59171142578125,-37.06875228881836,-38.26875305175781,17.4375
1750854078481711600,2.601711669921875,-36.76875305175781,-38.212501525878906,17.475000381469727
1750854078491711500,2.61171142578125,-36.900001525878906,-38.212501525878906,17.400001525878906
1750854078501711600,2.621711669921875,-37.01250076293945,-38.13750076293945,17.625
1750854078511711500,2.63171142578125,-36.76875305175781,-38.23125076293945,17.418750762939453
1750854078521711600,2.641711669921875,-36.9375,-38.400001525878906,17.025001525878906
1750854078531711500,2.65171142578125,-36.75,-38.32500076293945,17.08125114440918
1750854078541711600,2.661711669921875,-36.88125228881836,-38.38125228881836,17.006250381469727
1750854078551711500,2.67171142578125,-37.01250076293945,-38.34375,17.118751525878906
1750854078561711600,2.681711669921875,-37.087501525878906,-38.32500076293945,17.212501525878906
1750854078571711500,2.69171142578125,-36.806251525878906,-38.306251525878906,17.231250762939453
1750854078581711600,2.701711669921875,-36.82500076293945,-38.36250305175781,17.025001525878906
1750854078591711500,2.71171142578125,-37.05000305175781,-38.36250305175781,17.231250762939453
1750854078601711600,2.721711669921875,-37.20000076293945,-38.28750228881836,17.381250381469727
1750854078611711500,2.73171142578125,-37.087501525878906,-38.28750228881836,17.381250381469727
1750854078621711600,2.741711669921875,-36.993751525878906,-38.19375228881836,17.475000381469727
1750854078631711500,2.75171142578125,-36.9375,-37.98750305175781,17.306251525878906
1750854078641711600,2.761711669921875,-36.993751525878906,-37.98750305175781,17.118751525878906
1750854078651711500,2.77171142578125,-37.20000076293945,-38.08125305175781,16.96875
1750854078661711600,2.781711669921875,-37.3125,-37.80000305175781,17.118751525878906
1750854078671711500,2.79171142578125,-37.25625228881836,-37.650001525878906,16.98750114440918
1750854078681711600,2.801711669921875,-37.14375305175781,-37.70625305175781,17.006250381469727
1750854078691711500,2.81171142578125,-37.14375305175781,-37.57500076293945,16.950000762939453
1750854078701711600,2.821711669921875,-37.23750305175781,-37.61250305175781,17.118751525878906
1750854078711711500,2.83171142578125,-37.087501525878906,-37.72500228881836,17.287500381469727
1750854078721711600,2.841711669921875,-37.181251525878906,-37.6875,17.625
1750854078731711500,2.85171142578125,-37.368751525878906,-37.61250305175781,17.681251525878906
1750854078741711600,2.861711669921875,-37.10625076293945,-37.837501525878906,17.587501525878906
1750854078751711500,2.87171142578125,-36.97500228881836,-37.96875,17.625
1750854078761711600,2.881711669921875,-36.84375,-37.875,17.83125114440918
1750854078771711500,2.89171142578125,-36.9375,-37.98750305175781,17.662500381469727
1750854078781711600,2.901711669921875,-36.9375,-38.025001525878906,17.36250114440918
1750854078791711500,2.91171142578125,-37.087501525878906,-37.91250228881836,17.26875114440918
1750854078801711600,2.921711669921875,-37.181251525878906,-37.80000305175781,17.15625
1750854078811711500,2.93171142578125,-36.97500228881836,-37.837501525878906,17.025001525878906
1750854078821711600,2.941711669921875,-36.91875076293945,-38.0625,16.762500762939453
1750854078831711500,2.95171142578125,-37.125,-38.28750228881836,16.443750381469727
1750854078841711600,2.961711669921875,-37.14375305175781,-38.38125228881836,16.03125
1750854078851711500,2.97171142578125,-37.25625228881836,-38.45625305175781,15.881250381469727
1750854078861711600,2.981711669921875,-37.33125305175781,-38.51250076293945,15.468750953674316
1750854078871711500,2.99171142578125,-37.66875076293945,-38.47500228881836,15.281250953674316
1750854078881711600,3.001711669921875,-37.63125228881836,-38.587501525878906,14.96250057220459
1750854078891711500,3.01171142578125,-37.72500228881836,-38.41875076293945,14.718750953674316
1750854078901711600,3.021711669921875,-37.650001525878906,-38.34375,14.475000381469727
1750854078911711500,3.03171142578125,-37.76250076293945,-38.08125305175781,14.30625057220459
1750854078921711600,3.041711669921875,-37.743751525878906,-38.025001525878906,13.893750190734863
1750854078931711500,3.05171142578125,-37.72500228881836,-38.04375076293945,13.331250190734863
1750854078941711600,3.061711669921875,-37.96875,-38.0625,13.200000762939453
1750854078951711500,3.07171142578125,-37.556251525878906,-38.23125076293945,12.750000953674316
1750854078961711600,3.081711669921875,-37.48125076293945,-38.36250305175781,12.375000953674316
1750854078971711500,3.09171142578125,-37.3125,-38.47500228881836,12
1750854078981711600,3.101711669921875,-37.63125228881836,-38.38125228881836,11.831250190734863
1750854078991711500,3.11171142578125,-37.51875305175781,-38.36250305175781,11.68125057220459
1750854079001711600,3.121711669921875,-37.650001525878906,-38.34375,11.71875
1750854079011711500,3.13171142578125,-37.70625305175781,-38.34375,11.68125057220459
1750854079021711600,3.141711669921875,-37.57500076293945,-38.13750076293945,12
1750854079031711500,3.15171142578125,-37.78125,-38.00625228881836,11.96250057220459
1750854079041711600,3.161711669921875,-37.743751525878906,-37.91250228881836,12.05625057220459
1750854079051711500,3.17171142578125,-37.98750305175781,-37.931251525878906,12.318750381469727
1750854079061711600,3.181711669921875,-37.931251525878906,-37.81875228881836,12.543750762939453
1750854079071711500,3.19171142578125,-37.89375305175781,-37.743751525878906,12.825000762939453
1750854079081711600,3.201711669921875,-37.91250228881836,-37.743751525878906,13.143750190734863
1750854079091711500,3.21171142578125,-38.08125305175781,-37.44375228881836,13.800000190734863
1750854079101711600,3.221711669921875,-37.96875,-37.3125,13.875000953674316
1750854079111711500,3.23171142578125,-37.85625076293945,-37.21875,14.456250190734863
1750854079121711600,3.241711669921875,-37.875,-37.05000305175781,15.206250190734863
1750854079131711500,3.25171142578125,-37.98750305175781,-36.76875305175781,15.693750381469727
1750854079141711600,3.261711669921875,-38.08125305175781,-36.39375305175781,16.14375114440918
1750854079151711500,3.27171142578125,-38.32500076293945,-36.11250305175781,16.556251525878906
1750854079161711600,3.281711669921875,-38.4375,-35.8125,17.287500381469727
1750854079171711500,3.29171142578125,-38.19375228881836,-35.625,17.587501525878906
1750854079181711600,3.301711669921875,-38.34375,-35.4375,18.20625114440918
1750854079191711500,3.31171142578125,-38.45625305175781,-35.212501525878906,18.95625114440918
1750854079201711600,3.321711669921875,-38.493751525878906,-35.118751525878906,19.162500381469727
1750854079211711500,3.33171142578125,-38.32500076293945,-35.025001525878906,19.631250381469727
1750854079221711600,3.341711669921875,-38.47500228881836,-34.96875,20.043750762939453
1750854079231711500,3.35171142578125,-38.36250305175781,-34.875,20.662500381469727
1750854079241711600,3.361711669921875,-38.400001525878906,-34.70625305175781,21.056251525878906
1750854079251711500,3.37171142578125,-38.32500076293945,-34.76250076293945,21.262500762939453
1750854079261711600,3.381711669921875,-38.28750228881836,-34.76250076293945,21.39375114440918
1750854079281711600,3.401711669921875,-38.25,-34.556251525878906,21.787500381469727
1750854079291711500,3.41171142578125,-38.0625,-34.40625,21.918750762939453
1750854079301711600,3.421711669921875,-37.875,-34.556251525878906,22.05000114440918
1750854079311711500,3.43171142578125,-38.0625,-34.76250076293945,21.9375
1750854079321711600,3.441711669921875,-38.0625,-34.743751525878906,21.787500381469727
1750854079331711500,3.45171142578125,-38.15625,-34.81875228881836,21.9375
1750854079341711600,3.461711669921875,-37.98750305175781,-34.89375305175781,21.975000381469727
1750854079351711500,3.47171142578125,-37.837501525878906,-35.08125305175781,21.65625
1750854079361711600,3.481711669921875,-37.837501525878906,-35.36250305175781,21.39375114440918
1750854079371711500,3.49171142578125,-37.76250076293945,-35.73750305175781,21.01875114440918
1750854079381711600,3.501711669921875,-37.72500228881836,-36,20.55000114440918
1750854079391711500,3.51171142578125,-37.33125305175781,-36.16875076293945,20.137500762939453
1750854079401711600,3.521711669921875,-37.29375076293945,-36.431251525878906,19.743751525878906
1750854079411711500,3.53171142578125,-37.42500305175781,-36.48750305175781,19.21875
1750854079421711600,3.541711669921875,-37.53750228881836,-36.60000228881836,18.900001525878906
1750854079431711500,3.55171142578125,-37.76250076293945,-36.54375076293945,18.65625
1750854079441711600,3.561711669921875,-37.72500228881836,-36.5625,18.09375
1750854079451711500,3.57171142578125,-37.89375305175781,-36.63750076293945,17.775001525878906
1750854079461711600,3.581711669921875,-37.81875228881836,-36.60000228881836,17.512500762939453
1750854079471711500,3.59171142578125,-37.931251525878906,-36.60000228881836,16.950000762939453
1750854079481711600,3.601711669921875,-37.931251525878906,-36.806251525878906,16.21875
1750854079491711500,3.61171142578125,-37.89375305175781,-36.712501525878906,15.90000057220459
1750854079501711600,3.621711669921875,-37.85625076293945,-36.88125228881836,15.506250381469727
1750854079511711500,3.63171142578125,-37.72500228881836,-37.05000305175781,15.018750190734863
1750854079521711600,3.641711669921875,-37.96875,-37.181251525878906,14.550000190734863
1750854079531711500,3.65171142578125,-38.25,-37.10625076293945,14.11875057220459
1750854079541711600,3.661711669921875,-38.53125,-36.9375,14.043750762939453
1750854079551711500,3.67171142578125,-38.4375,-36.95625305175781,13.781250953674316
1750854079561711600,3.681711669921875,-38.51250076293945,-36.91875076293945,13.74375057220459
1750854079571711500,3.69171142578125,-38.60625076293945,-37.181251525878906,13.481250762939453
1750854079581711600,3.701711669921875,-38.625,-37.181251525878906,13.050000190734863
1750854079591711500,3.71171142578125,-38.51250076293945,-37.14375305175781,13.143750190734863
1750854079601711600,3.721711669921875,-38.64375305175781,-36.91875076293945,13.46250057220459
1750854079611711500,3.73171142578125,-38.493751525878906,-36.993751525878906,13.500000953674316
1750854079621711600,3.741711669921875,-38.51250076293945,-37.275001525878906,13.387500762939453
1750854079631711500,3.75171142578125,-38.73750305175781,-37.20000076293945,13.631250381469727
1750854079641711600,3.761711669921875,-38.53125,-37.087501525878906,13.893750190734863
1750854079651711500,3.77171142578125,-38.47500228881836,-36.88125228881836,14.156250953674316
1750854079661711600,3.781711669921875,-38.38125228881836,-36.806251525878906,14.475000381469727
1750854079671711500,3.79171142578125,-38.38125228881836,-36.82500076293945,14.550000190734863
1750854079681711600,3.801711669921875,-38.00625228881836,-36.84375,14.531250953674316
1750854079691711500,3.81171142578125,-37.81875228881836,-36.806251525878906,14.737500190734863
1750854079701711600,3.821711669921875,-37.78125,-36.48750305175781,14.86875057220459
1750854079711711500,3.83171142578125,-37.85625076293945,-36.58125305175781,14.887500762939453
1750854079721711600,3.841711669921875,-37.95000076293945,-36.58125305175781,14.981250762939453
1750854079731711500,3.85171142578125,-37.931251525878906,-36.67500305175781,15.187500953674316
1750854079741711600,3.861711669921875,-38.13750076293945,-36.63750076293945,15.33750057220459
1750854079751711500,3.87171142578125,-38.13750076293945,-36.50625228881836,15.487500190734863
1750854079761711600,3.881711669921875,-38.28750228881836,-36.375,15.693750381469727
1750854079771711500,3.89171142578125,-38.41875076293945,-36.07500076293945,15.90000057220459
1750854079781711600,3.901711669921875,-38.493751525878906,-36.22500228881836,16.21875
1750854079791711500,3.91171142578125,-38.53125,-36.07500076293945,16.80000114440918
1750854079801711600,3.921711669921875,-38.47500228881836,-35.868751525878906,16.950000762939453
1750854079811711500,3.93171142578125,-38.60625076293945,-35.71875,17.137500762939453
1750854079821711600,3.941711669921875,-38.70000076293945,-35.56875228881836,17.53125
1750854079831711500,3.95171142578125,-39.09375,-35.400001525878906,17.625
1750854079841711600,3.961711669921875,-38.92500305175781,-35.493751525878906,17.793750762939453
1750854079851711500,3.97171142578125,-38.94375228881836,-35.587501525878906,18
1750854079861711600,3.981711669921875,-38.962501525878906,-35.32500076293945,18.262500762939453
1750854079871711500,3.99171142578125,-38.79375076293945,-35.23125076293945,18.28125
1750854079881711600,4.001711669921875,-38.868751525878906,-35.15625,18.731250762939453
1750854079891711500,4.01171142578125,-38.55000305175781,-34.72500228881836,18.95625114440918
1750854079901711600,4.021711669921875,-38.60625076293945,-34.76250076293945,18.84375
1750854079911711500,4.03171142578125,-38.41875076293945,-34.53750228881836,19.200000762939453
1750854079921711600,4.041711669921875,-38.71875,-34.42500305175781,19.462501525878906
1750854079931711500,4.05171142578125,-38.94375228881836,-34.181251525878906,19.537500381469727
1750854079941711600,4.061711669921875,-38.73750305175781,-34.14375305175781,19.481250762939453
1750854079951711500,4.07171142578125,-38.868751525878906,-33.806251525878906,19.650001525878906
1750854079961711600,4.081711669921875,-38.73750305175781,-33.86250305175781,19.537500381469727
1750854079971711500,4.09171142578125,-38.79375076293945,-34.16250228881836,19.650001525878906
1750854079981711600,4.101711669921875,-38.64375305175781,-34.05000305175781,19.931251525878906
1750854079991711500,4.11171142578125,-38.66250228881836,-34.3125,19.650001525878906
1750854080001711600,4.121711669921875,-38.53125,-34.35000228881836,19.387500762939453
1750854080011711500,4.13171142578125,-38.36250305175781,-34.5,19.40625
1750854080021711600,4.141711669921875,-38.41875076293945,-34.51875305175781,19.462501525878906
1750854080031711500,4.15171142578125,-38.28750228881836,-34.85625076293945,19.443750381469727
1750854080041711600,4.161711669921875,-38.38125228881836,-35.118751525878906,19.350000381469727
1750854080051711500,4.17171142578125,-38.681251525878906,-35.38125228881836,18.993751525878906
1750854080061711600,4.181711669921875,-38.64375305175781,-35.38125228881836,18.731250762939453
1750854080071711500,4.19171142578125,-38.64375305175781,-35.45625305175781,18.806251525878906
1750854080081711600,4.201711669921875,-38.400001525878906,-35.66250228881836,18.618751525878906
1750854080091711500,4.21171142578125,-38.36250305175781,-35.94375228881836,18.318750381469727
1750854080101711600,4.221711669921875,-38.38125228881836,-36.31875228881836,17.868751525878906
1750854080111711500,4.23171142578125,-38.4375,-36.48750305175781,17.381250381469727
1750854080121711600,4.241711669921875,-38.19375228881836,-36.75,16.875
1750854080131711500,4.25171142578125,-37.95000076293945,-36.86250305175781,16.51875114440918
1750854080141711600,4.261711669921875,-37.743751525878906,-37.181251525878906,16.14375114440918
1750854080151711500,4.27171142578125,-37.76250076293945,-37.462501525878906,15.581250190734863
1750854080161711600,4.281711669921875,-38.00625228881836,-37.42500305175781,15.225000381469727
1750854080171711500,4.29171142578125,-38.04375076293945,-37.51875305175781,14.943750381469727
1750854080181711600,4.301711669921875,-37.931251525878906,-37.42500305175781,14.550000190734863
1750854080191711500,4.31171142578125,-38.025001525878906,-37.48125076293945,14.175000190734863
1750854080201711600,4.321711669921875,-38.26875305175781,-37.38750076293945,13.912500381469727
1750854080211711500,4.33171142578125,-38.34375,-37.42500305175781,13.575000762939453
1750854080221711600,4.341711669921875,-38.493751525878906,-37.51875305175781,13.36875057220459
1750854080231711500,4.35171142578125,-38.4375,-37.53750228881836,13.012500762939453
1750854080241711600,4.361711669921875,-38.306251525878906,-37.80000305175781,12.825000762939453
1750854080251711500,4.37171142578125,-38.26875305175781,-37.931251525878906,12.43125057220459
1750854080261711600,4.381711669921875,-38.118751525878906,-38.0625,12.393750190734863
1750854080271711500,4.39171142578125,-37.89375305175781,-38.15625,12.112500190734863
1750854080281711600,4.401711669921875,-37.80000305175781,-38.13750076293945,11.850000381469727
1750854080291711500,4.41171142578125,-37.76250076293945,-37.95000076293945,11.86875057220459
1750854080301711600,4.421711669921875,-37.70625305175781,-37.89375305175781,11.77500057220459
1750854080311711500,4.43171142578125,-37.556251525878906,-37.81875228881836,11.756250381469727
1750854080321711600,4.441711669921875,-37.63125228881836,-37.80000305175781,11.850000381469727
1750854080331711500,4.45171142578125,-37.44375228881836,-37.650001525878906,11.90625
1750854080341711600,4.461711669921875,-37.72500228881836,-37.48125076293945,12
1750854080351711500,4.47171142578125,-37.837501525878906,-37.42500305175781,12.131250381469727
1750854080361711600,4.481711669921875,-37.875,-37.35000228881836,12.262500762939453
1750854080371711500,4.49171142578125,-37.95000076293945,-37.35000228881836,12.506250381469727
1750854080381711600,4.501711669921875,-37.98750305175781,-37.23750305175781,12.581250190734863
1750854080391711500,4.51171142578125,-38.025001525878906,-37.087501525878906,13.106250762939453
1750854080401711600,4.521711669921875,-37.85625076293945,-36.806251525878906,13.518750190734863
1750854080411711500,4.53171142578125,-38.08125305175781,-36.48750305175781,14.043750762939453
1750854080421711600,4.541711669921875,-38.118751525878906,-36.54375076293945,14.325000762939453
1750854080431711500,4.55171142578125,-38.118751525878906,-36.22500228881836,14.925000190734863
1750854080441711600,4.561711669921875,-38.17500305175781,-36.11250305175781,15.562500953674316
1750854080451711500,4.57171142578125,-38.38125228881836,-35.90625,16.05000114440918
1750854080461711600,4.581711669921875,-38.55000305175781,-35.4375,16.743751525878906
1750854080471711500,4.59171142578125,-38.775001525878906,-35.41875076293945,16.78125
1750854080481711600,4.601711669921875,-38.868751525878906,-35.306251525878906,17.100000381469727
1750854080491711500,4.61171142578125,-39.056251525878906,-35.25,17.381250381469727
1750854080501711600,4.621711669921875,-38.90625,-34.875,17.625
1750854080511711500,4.63171142578125,-38.962501525878906,-34.6875,17.83125114440918
1750854080521711600,4.641711669921875,-39.41250228881836,-34.462501525878906,17.962501525878906
1750854080531711500,4.65171142578125,-39.30000305175781,-34.38750076293945,18.037500381469727
1750854080541711600,4.661711669921875,-39.41250228881836,-34.368751525878906,18.131250381469727
1750854080551711500,4.67171142578125,-39.375,-33.95625305175781,18.637500762939453
1750854080561711600,4.681711669921875,-39.618751525878906,-33.75,18.75
1750854080571711500,4.69171142578125,-39.58125305175781,-33.58125305175781,18.9375
1750854080581711600,4.701711669921875,-39.86250305175781,-33.54375076293945,19.03125
1750854080591711500,4.71171142578125,-39.88125228881836,-33.63750076293945,19.162500381469727
1750854080601711600,4.721711669921875,-39.63750076293945,-33.54375076293945,19.462501525878906
1750854080611711500,4.73171142578125,-39.618751525878906,-33.31875228881836,19.556251525878906
1750854080621711600,4.741711669921875,-39.63750076293945,-33.30000305175781,19.78125
1750854080631711500,4.75171142578125,-40.06875228881836,-33.50625228881836,19.912500381469727
1750854080641711600,4.761711669921875,-40.06875228881836,-33.618751525878906,19.856250762939453
1750854080651711500,4.77171142578125,-40.23750305175781,-33.73125076293945,19.650001525878906
1750854080661711600,4.781711669921875,-40.20000076293945,-33.84375,19.725000381469727
1750854080671711500,4.79171142578125,-40.20000076293945,-33.82500076293945,19.668750762939453
1750854080681711600,4.801711669921875,-40.10625076293945,-33.91875076293945,19.40625
1750854080691711500,4.81171142578125,-40.125,-34.21875,19.23750114440918
1750854080701711600,4.821711669921875,-39.91875076293945,-34.48125076293945,18.806251525878906
1750854080711711500,4.83171142578125,-39.63750076293945,-34.5,18.225000381469727
1750854080721711600,4.841711669921875,-39.48750305175781,-34.650001525878906,18.01875114440918
1750854080731711500,4.85171142578125,-39.11250305175781,-34.63125228881836,17.943750381469727
1750854080741711600,4.861711669921875,-38.962501525878906,-34.78125,17.83125114440918
1750854080751711500,4.87171142578125,-38.962501525878906,-35.00625228881836,17.400001525878906
1750854080761711600,4.881711669921875,-38.66250228881836,-35.13750076293945,16.875
1750854080771711500,4.89171142578125,-38.64375305175781,-35.41875076293945,16.33125114440918
1750854080781711600,4.901711669921875,-38.56875228881836,-35.53125,15.693750381469727
1750854080791711500,4.91171142578125,-38.26875305175781,-35.70000076293945,15.225000381469727
1750854080801711600,4.921711669921875,-38.13750076293945,-35.775001525878906,14.68125057220459
1750854080811711500,4.93171142578125,-38.26875305175781,-36.07500076293945,14.02500057220459
1750854080821711600,4.941711669921875,-38.23125076293945,-36.13125228881836,13.387500762939453
1750854080831711500,4.95171142578125,-38.04375076293945,-36.28125,12.80625057220459
1750854080841711600,4.961711669921875,-38.15625,-36.31875228881836,12.52500057220459
1750854080851711500,4.97171142578125,-38.025001525878906,-36.20625305175781,12.168750762939453
1750854080861711600,4.981711669921875,-38.26875305175781,-36.28125,11.831250190734863
1750854080871711500,4.99171142578125,-38.47500228881836,-36.31875228881836,11.512500762939453
1750854080881711600,5.001711669921875,-38.73750305175781,-36.375,11.11875057220459
1750854080891711500,5.01171142578125,-38.587501525878906,-36.337501525878906,10.74375057220459
1750854080901711600,5.021711669921875,-38.775001525878906,-36.35625076293945,10.350000381469727
1750854080911711500,5.03171142578125,-39.13125228881836,-36.09375,10.106250762939453
1750854080921711600,5.041711669921875,-39.243751525878906,-36.07500076293945,10.050000190734863
1750854080931711500,5.05171142578125,-39.243751525878906,-35.8125,9.99375057220459
1750854080941711600,5.061711669921875,-39.150001525878906,-35.73750305175781,10.162500381469727
1750854080951711500,5.07171142578125,-39.22500228881836,-35.70000076293945,10.350000381469727
1750854080961711600,5.081711669921875,-39.20625305175781,-35.625,10.55625057220459
1750854080971711500,5.09171142578125,-39.39375305175781,-35.587501525878906,10.856250762939453
1750854080981711600,5.101711669921875,-39.431251525878906,-35.41875076293945,11.137500762939453
1750854080991711500,5.11171142578125,-39.48750305175781,-35.45625305175781,11.925000190734863
1750854081001711600,5.121711669921875,-39.431251525878906,-35.400001525878906,12.206250190734863
1750854081011711500,5.13171142578125,-39.48750305175781,-35.66250228881836,12.656250953674316
1750854081021711600,5.141711669921875,-39.22500228881836,-35.51250076293945,13.143750190734863
1750854081031711500,5.15171142578125,-38.94375228881836,-35.28750228881836,13.725000381469727
1750854081041711600,5.161711669921875,-38.83125305175781,-35.23125076293945,14.418750762939453
1750854081051711500,5.17171142578125,-38.681251525878906,-35.306251525878906,15.037500381469727
1750854081061711600,5.181711669921875,-38.73750305175781,-35.400001525878906,15.862500190734863
1750854081071711500,5.19171142578125,-38.38125228881836,-35.53125,16.125
1750854081081711600,5.201711669921875,-38.493751525878906,-35.56875228881836,16.70625114440918
1750854081091711500,5.21171142578125,-38.493751525878906,-35.38125228881836,17.287500381469727
1750854081101711600,5.221711669921875,-38.55000305175781,-35.587501525878906,17.887500762939453
1750854081111711500,5.23171142578125,-38.64375305175781,-35.775001525878906,18.28125
1750854081121711600,5.241711669921875,-38.56875228881836,-35.73750305175781,18.806251525878906
1750854081131711500,5.25171142578125,-38.587501525878906,-35.625,19.256250381469727
1750854081141711600,5.261711669921875,-38.4375,-35.53125,19.556251525878906
1750854081151711500,5.27171142578125,-38.4375,-35.47500228881836,19.837501525878906
1750854081161711600,5.281711669921875,-38.118751525878906,-35.36250305175781,20.08125114440918
1750854081171711500,5.29171142578125,-38.025001525878906,-35.212501525878906,20.381250381469727
1750854081181711600,5.301711669921875,-38.0625,-35.00625228881836,20.493751525878906
1750854081191711500,5.31171142578125,-37.95000076293945,-34.95000076293945,20.625
1750854081201711600,5.321711669921875,-37.837501525878906,-34.78125,20.73750114440918
1750854081211711500,5.33171142578125,-37.80000305175781,-34.66875076293945,21
1750854081221711600,5.341711669921875,-37.59375,-34.63125228881836,21.09375
1750854081231711500,5.35171142578125,-37.80000305175781,-34.48125076293945,21.20625114440918
1750854081241711600,5.361711669921875,-38.13750076293945,-34.66875076293945,21.46875
1750854081251711500,5.37171142578125,-38.26875305175781,-34.78125,21.375
1750854081261711600,5.381711669921875,-38.493751525878906,-34.95000076293945,21.28125
1750854081271711500,5.39171142578125,-38.400001525878906,-34.78125,21.637500762939453
1750854081281711600,5.401711669921875,-38.625,-34.76250076293945,21.600000381469727
1750854081291711500,5.41171142578125,-38.56875228881836,-35.025001525878906,21.30000114440918
1750854081301711600,5.421711669921875,-38.83125305175781,-35.13750076293945,21.131250381469727
1750854081311711500,5.43171142578125,-38.681251525878906,-35.0625,21.243751525878906
1750854081321711600,5.441711669921875,-38.625,-34.931251525878906,20.962501525878906
1750854081331711500,5.45171142578125,-38.51250076293945,-34.91250228881836,21.01875114440918
1750854081341711600,5.461711669921875,-38.15625,-34.89375305175781,20.868751525878906
1750854081351711500,5.47171142578125,-38.306251525878906,-35.17500305175781,20.512500762939453
1750854081361711600,5.481711669921875,-38.10000228881836,-35.55000305175781,20.118751525878906
1750854081371711500,5.49171142578125,-38.118751525878906,-35.625,19.98750114440918
1750854081381711600,5.501711669921875,-37.91250228881836,-35.73750305175781,19.61250114440918
1750854081391711500,5.51171142578125,-37.96875,-35.92500305175781,19.162500381469727
1750854081401711600,5.521711669921875,-37.66875076293945,-36.28125,18.76875114440918
1750854081411711500,5.53171142578125,-37.556251525878906,-36.618751525878906,18.318750381469727
1750854081421711600,5.541711669921875,-37.78125,-36.84375,17.850000381469727
1750854081431711500,5.55171142578125,-38.0625,-36.993751525878906,17.400001525878906
1750854081441711600,5.561711669921875,-38.26875305175781,-36.86250305175781,16.856250762939453
1750854081451711500,5.57171142578125,-38.34375,-36.78750228881836,16.33125114440918
1750854081461711600,5.581711669921875,-38.26875305175781,-36.88125228881836,15.862500190734863
1750854081471711500,5.59171142578125,-38.13750076293945,-37.10625076293945,15.24375057220459
1750854081481711600,5.601711669921875,-38.400001525878906,-37.03125,14.77500057220459
1750854081491711500,5.61171142578125,-38.66250228881836,-36.993751525878906,14.325000762939453
1750854081501711600,5.621711669921875,-38.56875228881836,-36.97500228881836,13.893750190734863
1750854081511711500,5.63171142578125,-38.212501525878906,-37.181251525878906,13.312500953674316
1750854081521711600,5.641711669921875,-38.19375228881836,-37.275001525878906,13.031250953674316
1750854081531711500,5.65171142578125,-37.98750305175781,-37.44375228881836,12.787500381469727
1750854081541711600,5.661711669921875,-38.0625,-37.35000228881836,12.656250953674316
1750854081551711500,5.67171142578125,-38.17500305175781,-37.20000076293945,12.675000190734863
1750854081561711600,5.681711669921875,-38.04375076293945,-37.23750305175781,12.506250381469727
1750854081571711500,5.69171142578125,-37.91250228881836,-37.40625,12.281250953674316
1750854081581711600,5.701711669921875,-37.931251525878906,-37.368751525878906,12.450000762939453
1750854081591711500,5.71171142578125,-38.00625228881836,-37.05000305175781,12.468750953674316
1750854081601711600,5.721711669921875,-38.00625228881836,-36.993751525878906,12.52500057220459
1750854081611711500,5.73171142578125,-38.118751525878906,-36.993751525878906,12.750000953674316
1750854081621711600,5.741711669921875,-38.17500305175781,-37.03125,12.825000762939453
1750854081631711500,5.75171142578125,-38.19375228881836,-36.91875076293945,12.825000762939453
1750854081641711600,5.761711669921875,-38.32500076293945,-36.88125228881836,13.125000953674316
1750854081651711500,5.77171142578125,-38.45625305175781,-36.63750076293945,13.406250953674316
1750854081661711600,5.781711669921875,-38.4375,-36.50625228881836,13.612500190734863
1750854081671711500,5.79171142578125,-38.26875305175781,-36.375,14.156250953674316
1750854081681711600,5.801711669921875,-38.38125228881836,-36.39375305175781,14.606250762939453
1750854081691711500,5.81171142578125,-38.26875305175781,-36.337501525878906,14.96250057220459
1750854081701711600,5.821711669921875,-38.212501525878906,-36.243751525878906,15.393750190734863
1750854081711711500,5.83171142578125,-38.15625,-36.30000305175781,15.862500190734863
1750854081721711600,5.841711669921875,-38.15625,-35.962501525878906,16.33125114440918
1750854081731711500,5.85171142578125,-38.32500076293945,-35.71875,16.89375114440918
1750854081741711600,5.861711669921875,-38.38125228881836,-35.75625228881836,17.212501525878906
1750854081751711500,5.87171142578125,-38.71875,-35.775001525878906,17.53125
1750854081761711600,5.881711669921875,-38.71875,-35.4375,18.056251525878906
1750854081771711500,5.89171142578125,-38.88750076293945,-34.98750305175781,18.58125114440918
1750854081781711600,5.901711669921875,-39.09375,-34.6875,18.900001525878906
1750854081791711500,5.91171142578125,-39.22500228881836,-34.48125076293945,19.350000381469727
1750854081801711600,5.921711669921875,-39.1875,-34.368751525878906,19.631250381469727
1750854081811711500,5.93171142578125,-38.94375228881836,-34.25625228881836,19.762500762939453
1750854081821711600,5.941711669921875,-39.16875076293945,-33.806251525878906,20.08125114440918
1750854081831711500,5.95171142578125,-39.150001525878906,-33.431251525878906,20.45625114440918
1750854081841711600,5.961711669921875,-39.11250305175781,-33.50625228881836,20.71875
1750854081851711500,5.97171142578125,-39.28125,-33.41250228881836,20.606250762939453
1750854081861711600,5.981711669921875,-39.28125,-33.31875228881836,20.8125
1750854081871711500,5.99171142578125,-39.20625305175781,-33.28125,20.90625
1750854081881711600,6.001711669921875,-39.22500228881836,-33.243751525878906,21.168750762939453
1750854081891711500,6.01171142578125,-39.45000076293945,-33.26250076293945,21.30000114440918
1750854081901711600,6.021711669921875,-39.22500228881836,-33.41250228881836,21.431251525878906
1750854081911711500,6.03171142578125,-39.03750228881836,-33.63750076293945,21.525001525878906
1750854081921711600,6.041711669921875,-38.98125076293945,-33.46875,21.356250762939453
1750854081931711500,6.05171142578125,-38.75625228881836,-33.806251525878906,21.243751525878906
1750854081941711600,6.061711669921875,-38.64375305175781,-34.05000305175781,21.375
1750854081951711500,6.07171142578125,-38.75625228881836,-34.25625228881836,21.318750381469727
1750854081961711600,6.081711669921875,-38.66250228881836,-34.57500076293945,20.887500762939453
1750854081971711500,6.09171142578125,-38.55000305175781,-34.80000305175781,20.8125
1750854081981711600,6.101711669921875,-38.51250076293945,-35.10000228881836,20.64375114440918
1750854081991711500,6.11171142578125,-38.400001525878906,-35.400001525878906,20.0625
1750854082001711600,6.121711669921875,-38.45625305175781,-35.70000076293945,19.80000114440918
1750854082011711500,6.13171142578125,-38.53125,-35.75625228881836,19.462501525878906
1750854082021711600,6.141711669921875,-38.47500228881836,-35.92500305175781,18.86250114440918
1750854082031711500,6.15171142578125,-38.212501525878906,-36.11250305175781,18.356250762939453
1750854082041711600,6.161711669921875,-38.36250305175781,-36.243751525878906,17.887500762939453
1750854082051711500,6.17171142578125,-38.36250305175781,-36.337501525878906,17.400001525878906
1750854082061711600,6.181711669921875,-38.25,-36.31875228881836,16.875
1750854082071711500,6.19171142578125,-38.70000076293945,-36.35625076293945,16.51875114440918
1750854082081711600,6.201711669921875,-38.51250076293945,-36.375,15.731250762939453
1750854082091711500,6.21171142578125,-38.64375305175781,-36.39375305175781,15.318750381469727
1750854082101711600,6.221711669921875,-38.70000076293945,-36.39375305175781,14.737500190734863
1750854082111711500,6.23171142578125,-38.775001525878906,-36.5625,14.325000762939453
1750854082121711600,6.241711669921875,-38.681251525878906,-36.69375228881836,14.006250381469727
1750854082131711500,6.25171142578125,-38.587501525878906,-36.63750076293945,13.518750190734863
1750854082141711600,6.261711669921875,-38.8125,-36.712501525878906,12.99375057220459
1750854082151711500,6.27171142578125,-38.64375305175781,-36.65625,12.581250190734863
1750854082161711600,6.281711669921875,-38.587501525878906,-36.86250305175781,12.43125057220459
1750854082171711500,6.29171142578125,-38.64375305175781,-37.06875228881836,12.131250381469727
1750854082181711600,6.301711669921875,-38.625,-37.01250076293945,12.018750190734863
1750854082191711500,6.31171142578125,-38.71875,-36.84375,11.625
1750854082201711600,6.321711669921875,-38.625,-36.618751525878906,11.550000190734863
1750854082211711500,6.33171142578125,-38.55000305175781,-36.54375076293945,11.4375
1750854082221711600,6.341711669921875,-38.38125228881836,-36.48750305175781,11.325000762939453
1750854082231711500,6.35171142578125,-38.19375228881836,-36.431251525878906,11.456250190734863
1750854082241711600,6.361711669921875,-38.51250076293945,-36.22500228881836,11.475000381469727
1750854082251711500,6.37171142578125,-38.66250228881836,-35.88750076293945,11.568750381469727
1750854082261711600,6.381711669921875,-38.587501525878906,-35.94375228881836,11.58750057220459
1750854082271711500,6.39171142578125,-38.47500228881836,-35.8125,11.925000190734863
1750854082281711600,6.401711669921875,-38.98125076293945,-35.88750076293945,12.05625057220459
1750854082291711500,6.41171142578125,-38.88750076293945,-36.07500076293945,12.262500762939453
1750854082301711600,6.421711669921875,-38.92500305175781,-36.03750228881836,12.731250762939453
1750854082311711500,6.43171142578125,-39.07500076293945,-36.07500076293945,13.106250762939453
1750854082321711600,6.441711669921875,-38.90625,-36,13.500000953674316
1750854082331711500,6.45171142578125,-38.51250076293945,-36.20625305175781,14.02500057220459
1750854082341711600,6.461711669921875,-38.53125,-36.07500076293945,14.643750190734863
1750854082351711500,6.47171142578125,-38.38125228881836,-36.26250076293945,15.037500381469727
1750854082361711600,6.481711669921875,-38.025001525878906,-36.1875,15.562500953674316
1750854082371711500,6.49171142578125,-38.32500076293945,-35.92500305175781,16.200000762939453
1750854082381711600,6.501711669921875,-38.47500228881836,-36.13125228881836,16.556251525878906
1750854082391711500,6.51171142578125,-38.32500076293945,-36.243751525878906,16.837501525878906
1750854082401711600,6.521711669921875,-38.400001525878906,-36.03750228881836,17.381250381469727
1750854082411711500,6.53171142578125,-38.625,-35.92500305175781,17.793750762939453
1750854082421711600,6.541711669921875,-38.681251525878906,-35.92500305175781,18.11250114440918
1750854082431711500,6.55171142578125,-38.83125305175781,-35.79375076293945,18.600000381469727
1750854082441711600,6.561711669921875,-38.92500305175781,-35.8125,18.9375
1750854082451711500,6.57171142578125,-38.73750305175781,-35.71875,19.3125
1750854082461711600,6.581711669921875,-38.51250076293945,-35.47500228881836,19.912500381469727
1750854082471711500,6.59171142578125,-38.55000305175781,-35.306251525878906,20.325000762939453
1750854082481711600,6.601711669921875,-38.51250076293945,-35.55000305175781,20.512500762939453
1750854082491711500,6.61171142578125,-38.26875305175781,-35.45625305175781,20.662500381469727
1750854082501711600,6.621711669921875,-38.38125228881836,-35.41875076293945,20.850000381469727
1750854082511711500,6.63171142578125,-38.34375,-35.25,20.793750762939453
1750854082521711600,6.641711669921875,-38.306251525878906,-35.025001525878906,20.943750381469727
1750854082531711500,6.65171142578125,-38.34375,-35.04375076293945,21.11250114440918
1750854082541711600,6.661711669921875,-38.587501525878906,-34.91250228881836,21.1875
1750854082551711500,6.67171142578125,-38.79375076293945,-34.89375305175781,21
1750854082561711600,6.681711669921875,-38.85000228881836,-34.837501525878906,20.887500762939453
1750854082571711500,6.69171142578125,-39.07500076293945,-34.875,20.71875
1750854082581711600,6.701711669921875,-39.09375,-34.931251525878906,20.55000114440918
1750854082591711500,6.71171142578125,-39.35625076293945,-35.04375076293945,20.512500762939453
1750854082601711600,6.721711669921875,-39.35625076293945,-35.17500305175781,20.15625
1750854082611711500,6.73171142578125,-39.431251525878906,-35.32500076293945,19.668750762939453
1750854082621711600,6.741711669921875,-39.28125,-35.64375305175781,19.068750381469727
1750854082631711500,6.75171142578125,-39.28125,-35.70000076293945,18.881250381469727
1750854082641711600,6.761711669921875,-39.150001525878906,-35.94375228881836,18.5625
1750854082651711500,6.77171142578125,-38.94375228881836,-36.150001525878906,18.318750381469727
1750854082661711600,6.781711669921875,-38.64375305175781,-36.16875076293945,18.075000762939453
1750854082671711500,6.79171142578125,-38.38125228881836,-36.20625305175781,17.606250762939453
1750854082681711600,6.801711669921875,-38.36250305175781,-36.431251525878906,17.193750381469727
1750854082691711500,6.81171142578125,-38.0625,-36.431251525878906,16.575000762939453
1750854082701711600,6.821711669921875,-37.85625076293945,-36.45000076293945,15.99375057220459
1750854082711711500,6.83171142578125,-37.70625305175781,-36.431251525878906,15.24375057220459
1750854082721711600,6.841711669921875,-37.875,-36.54375076293945,14.531250953674316
1750854082731711500,6.85171142578125,-37.931251525878906,-36.41250228881836,13.875000953674316
1750854082741711600,6.861711669921875,-37.875,-36.28125,13.125000953674316
1750854082751711500,6.87171142578125,-38.04375076293945,-36.375,12.768750190734863
1750854082761711600,6.881711669921875,-38.08125305175781,-36.03750228881836,12.412500381469727
1750854082771711500,6.89171142578125,-38.28750228881836,-36.1875,12.037500381469727
1750854082781711600,6.901711669921875,-38.60625076293945,-36.07500076293945,11.850000381469727
1750854082791711500,6.91171142578125,-38.775001525878906,-35.98125076293945,11.700000762939453
1750854082801711600,6.921711669921875,-38.70000076293945,-35.79375076293945,11.58750057220459
1750854082811711500,6.93171142578125,-39.056251525878906,-35.73750305175781,11.137500762939453
1750854082821711600,6.941711669921875,-39.30000305175781,-35.90625,10.93125057220459
1750854082831711500,6.95171142578125,-39.28125,-35.71875,10.575000762939453
1750854082841711600,6.961711669921875,-39.20625305175781,-35.90625,10.237500190734863
1750854082851711500,6.97171142578125,-39.16875076293945,-35.83125305175781,10.08750057220459
1750854082861711600,6.981711669921875,-38.962501525878906,-35.962501525878906,9.918750762939453
1750854082871711500,6.99171142578125,-38.70000076293945,-36.09375,10.162500381469727
1750854082881711600,7.001711669921875,-38.70000076293945,-36.056251525878906,10.40625
1750854082891711500,7.01171142578125,-38.15625,-36.28125,10.78125
1750854082901711600,7.021711669921875,-38.118751525878906,-36.431251525878906,11.231250762939453
1750854082911711500,7.03171142578125,-37.96875,-36.73125076293945,11.8125
1750854082921711600,7.041711669921875,-37.89375305175781,-36.900001525878906,12.581250190734863
1750854082931711500,7.05171142578125,-37.837501525878906,-36.97500228881836,13.27500057220459
1750854082941711600,7.061711669921875,-37.91250228881836,-36.900001525878906,13.65000057220459
1750854082951711500,7.07171142578125,-37.85625076293945,-36.900001525878906,13.912500381469727
1750854082961711600,7.081711669921875,-37.76250076293945,-36.86250305175781,14.49375057220459
1750854082971711500,7.09171142578125,-37.72500228881836,-36.69375228881836,15.187500953674316
1750854082981711600,7.101711669921875,-37.6875,-36.65625,15.843750953674316
1750854082991711500,7.11171142578125,-37.63125228881836,-36.45000076293945,16.275001525878906
1750854083001711600,7.121711669921875,-37.650001525878906,-36.11250305175781,16.98750114440918
1750854083011711500,7.13171142578125,-37.743751525878906,-35.83125305175781,17.662500381469727
1750854083021711600,7.141711669921875,-37.61250305175781,-35.71875,18.600000381469727
1750854083031711500,7.15171142578125,-37.80000305175781,-35.53125,19.350000381469727
1750854083041711600,7.161711669921875,-37.743751525878906,-35.56875228881836,19.6875
1750854083061711600,7.181711669921875,-37.98750305175781,-35.0625,20.587501525878906
1750854083071711500,7.19171142578125,-37.931251525878906,-34.72500228881836,21.131250381469727
1750854083081711600,7.201711669921875,-37.98750305175781,-34.72500228881836,21.1875
1750854083091711500,7.21171142578125,-38.04375076293945,-34.63125228881836,21.46875
1750854083101711600,7.221711669921875,-38.118751525878906,-34.14375305175781,21.86250114440918
1750854083111711500,7.23171142578125,-38.0625,-33.993751525878906,22.03125
1750854083121711600,7.241711669921875,-38.025001525878906,-33.712501525878906,22.443750381469727
1750854083131711500,7.25171142578125,-38.10000228881836,-33.48750305175781,22.80000114440918
1750854083141711600,7.261711669921875,-38.34375,-33.45000076293945,22.78125
1750854083151711500,7.27171142578125,-38.71875,-33.5625,22.61250114440918
1750854083161711600,7.281711669921875,-38.70000076293945,-33.69375228881836,22.70625114440918
1750854083171711500,7.29171142578125,-38.36250305175781,-33.88125228881836,22.856250762939453
1750854083181711600,7.301711669921875,-38.45625305175781,-34.181251525878906,22.668750762939453
1750854083191711500,7.31171142578125,-38.55000305175781,-34.51875305175781,22.556251525878906
1750854083201711600,7.321711669921875,-38.45625305175781,-34.66875076293945,22.350000381469727
1750854083211711500,7.33171142578125,-38.306251525878906,-35.00625228881836,22.106250762939453
1750854083221711600,7.341711669921875,-38.19375228881836,-35.118751525878906,22.125
1750854083231711500,7.35171142578125,-38.0625,-35.25,21.993751525878906
1750854083241711600,7.361711669921875,-38.19375228881836,-35.17500305175781,21.75
1750854083251711500,7.37171142578125,-38.38125228881836,-35.306251525878906,21.056251525878906
1750854083261711600,7.381711669921875,-38.212501525878906,-35.51250076293945,20.756250381469727
1750854083271711500,7.39171142578125,-38.212501525878906,-35.55000305175781,20.193750381469727
1750854083281711600,7.401711669921875,-38.587501525878906,-35.64375305175781,19.42500114440918
1750854083291711500,7.41171142578125,-38.51250076293945,-35.90625,18.67500114440918
1750854083301711600,7.421711669921875,-38.45625305175781,-36.07500076293945,17.73750114440918
1750854083311711500,7.43171142578125,-38.400001525878906,-36.1875,17.006250381469727
1750854083321711600,7.441711669921875,-38.306251525878906,-36.5625,16.256250381469727
1750854083331711500,7.45171142578125,-38.53125,-36.618751525878906,15.637500762939453
1750854083341711600,7.461711669921875,-38.66250228881836,-36.5625,14.77500057220459
1750854083351711500,7.47171142578125,-38.66250228881836,-36.39375305175781,14.456250190734863
1750854083361711600,7.481711669921875,-38.587501525878906,-36.45000076293945,14.11875057220459
1750854083371711500,7.49171142578125,-38.681251525878906,-36.375,13.575000762939453
1750854083381711600,7.501711669921875,-38.56875228881836,-36.39375305175781,13.068750381469727
1750854083391711500,7.51171142578125,-38.60625076293945,-36.54375076293945,12.787500381469727
1750854083401711600,7.521711669921875,-38.625,-36.31875228881836,12.356250762939453
1750854083411711500,7.53171142578125,-38.681251525878906,-36.337501525878906,12.262500762939453
1750854083421711600,7.541711669921875,-38.8125,-36.46875,12
1750854083431711500,7.55171142578125,-38.775001525878906,-36.5625,11.700000762939453
1750854083441711600,7.561711669921875,-38.85000228881836,-36.618751525878906,11.456250190734863
1750854083451711500,7.57171142578125,-38.92500305175781,-36.46875,11.4375
1750854083461711600,7.581711669921875,-39.11250305175781,-36.35625076293945,11.662500381469727
1750854083471711500,7.59171142578125,-39.16875076293945,-36.39375305175781,11.77500057220459
1750854083481711600,7.601711669921875,-39.01875305175781,-36.41250228881836,12.018750190734863
1750854083491711500,7.61171142578125,-38.8125,-36.35625076293945,11.831250190734863
1750854083501711600,7.621711669921875,-38.71875,-36.16875076293945,12.33750057220459
1750854083511711500,7.63171142578125,-38.73750305175781,-36.07500076293945,12.581250190734863
1750854083521711600,7.641711669921875,-38.70000076293945,-36,12.80625057220459
1750854083531711500,7.65171142578125,-38.73750305175781,-36.11250305175781,13.218750953674316
1750854083541711600,7.661711669921875,-38.70000076293945,-36.056251525878906,13.481250762939453
1750854083551711500,7.67171142578125,-38.70000076293945,-35.90625,13.800000190734863
1750854083561711600,7.681711669921875,-38.8125,-35.71875,14.137500762939453
1750854083571711500,7.69171142578125,-39,-35.36250305175781,14.981250762939453
1750854083581711600,7.701711669921875,-38.90625,-35.45625305175781,15.24375057220459
1750854083591711500,7.71171142578125,-38.92500305175781,-35.28750228881836,15.862500190734863
1750854083601711600,7.721711669921875,-38.90625,-34.98750305175781,16.61250114440918
1750854083611711500,7.73171142578125,-38.71875,-34.72500228881836,17.08125114440918
1750854083621711600,7.741711669921875,-38.64375305175781,-34.650001525878906,17.662500381469727
1750854083631711500,7.75171142578125,-38.70000076293945,-34.40625,18.243751525878906
1750854083641711600,7.761711669921875,-38.70000076293945,-34.57500076293945,18.65625
1750854083651711500,7.77171142578125,-38.41875076293945,-34.80000305175781,18.975000381469727
1750854083661711600,7.781711669921875,-38.587501525878906,-34.63125228881836,19.275001525878906
1750854083671711500,7.79171142578125,-38.4375,-34.48125076293945,19.5
1750854083681711600,7.801711669921875,-38.41875076293945,-34.42500305175781,19.70625114440918
1750854083691711500,7.81171142578125,-38.625,-34.21875,20.15625
1750854083701711600,7.821711669921875,-38.92500305175781,-34.087501525878906,20.34375
1750854083711711500,7.83171142578125,-38.92500305175781,-33.84375,20.45625114440918
1750854083721711600,7.841711669921875,-39.07500076293945,-33.431251525878906,20.868751525878906
1750854083731711500,7.85171142578125,-39.150001525878906,-33.07500076293945,21.150001525878906
1750854083741711600,7.861711669921875,-39.11250305175781,-33.11250305175781,21.30000114440918
1750854083751711500,7.87171142578125,-39.45000076293945,-33.243751525878906,21.375
1750854083761711600,7.881711669921875,-39.58125305175781,-33.26250076293945,21.618751525878906
1750854083771711500,7.89171142578125,-39.60000228881836,-33.46875,21.5625
1750854083781711600,7.901711669921875,-39.45000076293945,-33.50625228881836,21.46875
1750854083791711500,7.91171142578125,-39.16875076293945,-33.78750228881836,21.431251525878906
1750854083801711600,7.921711669921875,-39.07500076293945,-34.14375305175781,21.168750762939453
1750854083811711500,7.93171142578125,-39.056251525878906,-34.38750076293945,21.075000762939453
1750854083821711600,7.941711669921875,-38.962501525878906,-34.462501525878906,20.981250762939453
1750854083831711500,7.95171142578125,-38.88750076293945,-34.875,20.793750762939453
1750854083841711600,7.961711669921875,-38.60625076293945,-35.10000228881836,20.4375
1750854083851711500,7.97171142578125,-38.45625305175781,-35.36250305175781,20.17500114440918
1750854083861711600,7.981711669921875,-38.25,-35.60625076293945,20.137500762939453
1750854083871711500,7.99171142578125,-38.26875305175781,-36,19.725000381469727
1750854083881711600,8.001711669921875,-38.10000228881836,-36.09375,19.350000381469727
1750854083891711500,8.01171142578125,-37.875,-36.46875,18.58125114440918
1750854083901711600,8.021711669921874,-38.10000228881836,-36.65625,18.131250381469727
1750854083911711500,8.03171142578125,-37.76250076293945,-36.60000228881836,17.8125
1750854083921711600,8.041711669921876,-37.650001525878906,-36.806251525878906,17.287500381469727
1750854083931711500,8.05171142578125,-37.59375,-37.05000305175781,16.80000114440918
1750854083941711600,8.061711669921875,-37.59375,-37.087501525878906,16.181251525878906
1750854083951711500,8.07171142578125,-37.85625076293945,-37.21875,15.600000381469727
1750854083961711600,8.081711669921875,-37.875,-37.275001525878906,15.33750057220459
1750854083971711500,8.09171142578125,-38.00625228881836,-37.275001525878906,15.05625057220459
1750854083981711600,8.101711669921874,-37.76250076293945,-37.23750305175781,14.737500190734863
1750854083991711500,8.11171142578125,-37.931251525878906,-37.14375305175781,14.362500190734863
1750854084001711600,8.121711669921876,-38.0625,-37.03125,14.006250381469727
1750854084011711500,8.13171142578125,-38.26875305175781,-36.82500076293945,13.668750762939453
1750854084021711600,8.141711669921875,-38.19375228881836,-36.900001525878906,13.200000762939453
1750854084031711500,8.15171142578125,-38.19375228881836,-36.58125305175781,13.200000762939453
1750854084041711600,8.161711669921875,-38.493751525878906,-36.5625,13.08750057220459
1750854084051711500,8.17171142578125,-38.45625305175781,-36.60000228881836,12.937500953674316
1750854084061711600,8.181711669921874,-38.56875228881836,-36.91875076293945,12.71250057220459
1750854084071711500,8.19171142578125,-38.625,-37.03125,12.637500762939453
1750854084081711600,8.201711669921876,-38.51250076293945,-37.29375076293945,12.468750953674316
1750854084091711500,8.21171142578125,-38.47500228881836,-37.275001525878906,12.61875057220459
1750854084101711600,8.221711669921875,-38.75625228881836,-37.23750305175781,12.975000381469727
1750854084111711500,8.23171142578125,-38.71875,-37.16250228881836,13.256250381469727
1750854084121711600,8.241711669921875,-38.64375305175781,-37.181251525878906,13.18125057220459
1750854084131711500,8.25171142578125,-38.92500305175781,-36.9375,13.481250762939453
1750854084141711600,8.261711669921874,-38.75625228881836,-36.5625,13.725000381469727
1750854084151711500,8.27171142578125,-38.71875,-36.375,13.912500381469727
1750854084161711600,8.281711669921876,-38.90625,-36.03750228881836,14.268750190734863
1750854084171711500,8.29171142578125,-38.90625,-36.056251525878906,14.456250190734863
1750854084181711600,8.301711669921875,-38.79375076293945,-35.8125,14.793750762939453
1750854084191711500,8.31171142578125,-38.73750305175781,-35.681251525878906,15.075000762939453
1750854084201711600,8.321711669921875,-38.53125,-35.4375,15.656250953674316
1750854084211711500,8.33171142578125,-38.41875076293945,-35.17500305175781,15.99375057220459
1750854084221711600,8.341711669921875,-38.79375076293945,-34.80000305175781,16.668750762939453
1750854084231711500,8.35171142578125,-39,-34.66875076293945,17.118751525878906
1750854084241711600,8.361711669921876,-39.11250305175781,-34.42500305175781,17.71875
1750854084251711500,8.37171142578125,-39.13125228881836,-34.14375305175781,18.20625114440918
1750854084261711600,8.381711669921875,-39.431251525878906,-33.82500076293945,18.76875114440918
1750854084271711500,8.39171142578125,-39.41250228881836,-33.5625,19.14375114440918
1750854084281711600,8.401711669921875,-39.50625228881836,-33.431251525878906,19.350000381469727
1750854084291711500,8.41171142578125,-39.618751525878906,-33.35625076293945,19.762500762939453
1750854084301711600,8.421711669921875,-39.54375076293945,-33.35625076293945,20.025001525878906
1750854084311711500,8.43171142578125,-39.76875305175781,-33.07500076293945,20.493751525878906
1750854084321711600,8.441711669921874,-39.45000076293945,-32.94375228881836,20.756250381469727
1750854084331711500,8.45171142578125,-39.375,-32.75625228881836,21.150001525878906
1750854084341711600,8.461711669921876,-39.35625076293945,-32.70000076293945,21.1875
1750854084351711500,8.47171142578125,-39.5625,-32.868751525878906,21.39375114440918
1750854084361711600,8.481711669921875,-39.60000228881836,-32.681251525878906,21.637500762939453
1750854084371711500,8.49171142578125,-39.58125305175781,-32.625,21.84375
1750854084381711600,8.501711669921875,-39.54375076293945,-32.45625305175781,21.95625114440918
1750854084391711500,8.51171142578125,-39.375,-32.53125,21.76875114440918
1750854084401711600,8.521711669921874,-40.05000305175781,-32.587501525878906,21.95625114440918
1750854084411711500,8.53171142578125,-40.06875228881836,-32.66250228881836,21.95625114440918
1750854084421711600,8.541711669921876,-39.900001525878906,-32.79375076293945,21.9375
1750854084431711500,8.55171142578125,-39.78750228881836,-32.88750076293945,21.806251525878906
1750854084441711600,8.561711669921875,-39.95625305175781,-33.056251525878906,21.637500762939453
1750854084451711500,8.57171142578125,-39.95625305175781,-33.13125228881836,21.225000381469727
1750854084461711600,8.581711669921875,-39.993751525878906,-33.48750305175781,20.943750381469727
1750854084471711500,8.59171142578125,-39.82500076293945,-33.5625,20.681251525878906
1750854084481711600,8.601711669921874,-39.13125228881836,-33.900001525878906,20.231250762939453
1750854084491711500,8.61171142578125,-39.31875228881836,-34.29375076293945,19.725000381469727
1750854084501711600,8.621711669921876,-39.20625305175781,-34.53750228881836,19.293750762939453
1750854084511711500,8.63171142578125,-39.09375,-34.743751525878906,18.618751525878906
1750854084521711600,8.641711669921875,-38.98125076293945,-34.98750305175781,17.943750381469727
1750854084531711500,8.65171142578125,-38.75625228881836,-35.25,17.381250381469727
1750854084541711600,8.661711669921875,-38.681251525878906,-35.25,16.556251525878906
1750854084551711500,8.67171142578125,-38.681251525878906,-35.587501525878906,15.956250190734863
1750854084561711600,8.681711669921874,-39.03750228881836,-35.60625076293945,15.037500381469727
1750854084571711500,8.69171142578125,-38.83125305175781,-35.36250305175781,14.550000190734863
1750854084581711600,8.701711669921876,-38.79375076293945,-35.45625305175781,13.968750953674316
1750854084591711500,8.71171142578125,-38.88750076293945,-35.38125228881836,13.256250381469727
1750854084601711600,8.721711669921875,-39.01875305175781,-35.306251525878906,12.80625057220459
1750854084611711500,8.73171142578125,-39.20625305175781,-35.4375,12.300000190734863
1750854084621711600,8.741711669921875,-39.056251525878906,-35.493751525878906,11.77500057220459
1750854084631711500,8.75171142578125,-39.16875076293945,-35.36250305175781,11.30625057220459
1750854084641711600,8.761711669921874,-39.16875076293945,-35.28750228881836,10.950000762939453
1750854084651711500,8.77171142578125,-39.243751525878906,-35.28750228881836,10.27500057220459
1750854084661711600,8.781711669921876,-39.48750305175781,-35.15625,9.787500381469727
1750854084671711500,8.79171142578125,-39.337501525878906,-35.19375228881836,9.61875057220459
1750854084681711600,8.801711669921875,-39.337501525878906,-35.212501525878906,9.52500057220459
1750854084691711500,8.81171142578125,-39.243751525878906,-34.91250228881836,9.412500381469727
1750854084701711600,8.821711669921875,-39.30000305175781,-34.931251525878906,9.450000762939453
1750854084711711500,8.83171142578125,-39.07500076293945,-34.96875,9.375
1750854084721711600,8.841711669921875,-39.13125228881836,-34.89375305175781,9.693750381469727
1750854084731711500,8.85171142578125,-39.150001525878906,-34.931251525878906,9.99375057220459
1750854084741711600,8.861711669921876,-39.01875305175781,-34.89375305175781,10.27500057220459
1750854084751711500,8.87171142578125,-39.337501525878906,-34.80000305175781,10.725000381469727
1750854084761711600,8.881711669921875,-39.11250305175781,-34.98750305175781,10.987500190734863
1750854084771711500,8.89171142578125,-39.243751525878906,-35.025001525878906,11.53125
1750854084781711600,8.901711669921875,-39.375,-35.0625,11.981250762939453
1750854084791711500,8.91171142578125,-39.69375228881836,-34.81875228881836,12.450000762939453
1750854084801711600,8.921711669921875,-39.45000076293945,-34.875,12.731250762939453
1750854084811711500,8.93171142578125,-39.58125305175781,-34.875,13.18125057220459
1750854084821711600,8.941711669921874,-39.58125305175781,-34.80000305175781,13.500000953674316
1750854084831711500,8.95171142578125,-39.46875,-34.63125228881836,13.987500190734863
1750854084841711600,8.961711669921876,-39.67500305175781,-34.25625228881836,14.456250190734863
1750854084851711500,8.97171142578125,-39.65625,-34.16250228881836,14.77500057220459
1750854084861711600,8.981711669921875,-39.69375228881836,-33.993751525878906,15.262500762939453
1750854084871711500,8.99171142578125,-39.69375228881836,-34.03125,15.693750381469727
1750854084881711600,9.001711669921875,-40.05000305175781,-33.88125228881836,16.106250762939453
1750854084891711500,9.01171142578125,-39.900001525878906,-33.67500305175781,16.575000762939453
1750854084901711600,9.021711669921874,-40.01250076293945,-33.48750305175781,17.025001525878906
1750854084911711500,9.03171142578125,-39.993751525878906,-33.431251525878906,17.493751525878906
1750854084921711600,9.041711669921876,-39.73125076293945,-33.39375305175781,17.90625
1750854084931711500,9.05171142578125,-39.78750228881836,-33.13125228881836,18.46875
1750854084941711600,9.061711669921875,-39.76875305175781,-32.94375228881836,18.75
1750854084951711500,9.07171142578125,-39.76875305175781,-32.73750305175781,19.14375114440918
1750854084961711600,9.081711669921875,-39.618751525878906,-32.45625305175781,19.59375
1750854084971711500,9.09171142578125,-39.73125076293945,-32.306251525878906,19.837501525878906
1750854084981711600,9.101711669921874,-39.63750076293945,-32.19375228881836,20.34375
1750854084991711500,9.11171142578125,-39.73125076293945,-31.98750114440918,20.36250114440918
1750854085001711600,9.121711669921876,-40.03125,-31.950000762939453,20.418750762939453
1750854085011711500,9.13171142578125,-40.181251525878906,-32.025001525878906,20.400001525878906
1750854085021711600,9.141711669921875,-40.06875228881836,-31.968751907348633,20.493751525878906
1750854085031711500,9.15171142578125,-39.67500305175781,-31.98750114440918,20.587501525878906
1750854085041711600,9.161711669921875,-39.82500076293945,-32.025001525878906,20.475000381469727
1750854085051711500,9.17171142578125,-39.76875305175781,-32.118751525878906,20.306251525878906
1750854085061711600,9.181711669921874,-39.78750228881836,-32.34375,20.137500762939453
1750854085071711500,9.19171142578125,-39.63750076293945,-32.56875228881836,20.08125114440918
1750854085081711600,9.201711669921876,-39.60000228881836,-32.64375305175781,20.006250381469727
1750854085091711500,9.21171142578125,-39.48750305175781,-32.71875,19.725000381469727
1750854085101711600,9.221711669921875,-39.78750228881836,-32.92500305175781,19.293750762939453
1750854085111711500,9.23171142578125,-40.05000305175781,-32.8125,18.881250381469727
1750854085121711600,9.241711669921875,-39.97500228881836,-32.98125076293945,18.5625
1750854085131711500,9.25171142578125,-39.65625,-33.11250305175781,18.28125
1750854085141711600,9.261711669921874,-39.525001525878906,-33.28125,17.943750381469727
1750854085151711500,9.27171142578125,-39.45000076293945,-33.39375305175781,17.493751525878906
1750854085161711600,9.281711669921876,-39.60000228881836,-33.41250228881836,16.762500762939453
1750854085171711500,9.29171142578125,-39.78750228881836,-33.525001525878906,16.200000762939453
1750854085181711600,9.301711669921875,-39.54375076293945,-33.50625228881836,15.787500381469727
1750854085191711500,9.31171142578125,-39.60000228881836,-33.78750228881836,15.225000381469727
1750854085201711600,9.321711669921875,-39.48750305175781,-33.84375,14.737500190734863
1750854085211711500,9.33171142578125,-39.9375,-33.91875076293945,14.043750762939453
1750854085221711600,9.341711669921875,-40.275001525878906,-33.97500228881836,13.36875057220459
1750854085231711500,9.35171142578125,-40.462501525878906,-33.95625305175781,12.750000953674316
1750854085241711600,9.361711669921876,-40.462501525878906,-34.14375305175781,12.375000953674316
1750854085251711500,9.37171142578125,-40.14375305175781,-34.38750076293945,12.075000762939453
1750854085261711600,9.381711669921875,-40.38750076293945,-34.3125,11.643750190734863
1750854085271711500,9.39171142578125,-40.44375228881836,-34.35000228881836,11.325000762939453
1750854085281711600,9.401711669921875,-40.40625,-34.57500076293945,10.96875
1750854085291711500,9.41171142578125,-40.16250228881836,-34.57500076293945,10.59375
1750854085301711600,9.421711669921875,-39.86250305175781,-34.462501525878906,10.3125
1750854085311711500,9.43171142578125,-39.97500228881836,-34.44375228881836,9.975000381469727
1750854085321711600,9.441711669921874,-39.76875305175781,-34.35000228881836,9.881250381469727
1750854085331711500,9.45171142578125,-40.06875228881836,-33.97500228881836,9.731250762939453
1750854085341711600,9.461711669921876,-39.84375,-34.181251525878906,9.918750762939453
1750854085351711500,9.47171142578125,-39.63750076293945,-34.087501525878906,10.012500762939453
1750854085361711600,9.481711669921875,-39.65625,-34.01250076293945,10.125
1750854085371711500,9.49171142578125,-39.993751525878906,-33.9375,10.5
1750854085381711600,9.501711669921875,-40.25625228881836,-33.91875076293945,10.78125
1750854085391711500,9.51171142578125,-40.05000305175781,-34.06875228881836,11.381250381469727
1750854085401711600,9.521711669921874,-40.125,-33.993751525878906,11.662500381469727
1750854085411711500,9.53171142578125,-40.01250076293945,-34.275001525878906,12
1750854085421711600,9.541711669921876,-40.125,-34.275001525878906,12.225000381469727
1750854085431711500,9.55171142578125,-40.06875228881836,-34.35000228881836,12.487500190734863
1750854085441711600,9.561711669921875,-40.16250228881836,-34.25625228881836,13.162500381469727
1750854085451711500,9.57171142578125,-39.97500228881836,-34.40625,13.65000057220459
1750854085461711600,9.581711669921875,-39.5625,-34.556251525878906,14.21250057220459
1750854085471711500,9.59171142578125,-39.48750305175781,-34.35000228881836,14.718750953674316
1750854085481711600,9.601711669921874,-39.39375305175781,-34.33125305175781,15.450000762939453
1750854085491711500,9.61171142578125,-39.375,-34.23750305175781,16.200000762939453
1750854085501711600,9.621711669921876,-39.26250076293945,-34.10625076293945,17.006250381469727
1750854085511711500,9.63171142578125,-39.150001525878906,-34.14375305175781,17.73750114440918
1750854085521711600,9.641711669921875,-38.92500305175781,-34.125,18.525001525878906
1750854085531711500,9.65171142578125,-38.75625228881836,-33.993751525878906,19.14375114440918
1750854085541711600,9.661711669921875,-38.75625228881836,-33.60000228881836,19.89375114440918
1750854085551711500,9.67171142578125,-38.625,-33.67500305175781,20.512500762939453
1750854085561711600,9.681711669921874,-38.775001525878906,-33.5625,21.150001525878906
1750854085571711500,9.69171142578125,-38.681251525878906,-33.41250228881836,21.712501525878906
1750854085581711600,9.701711669921876,-38.70000076293945,-33.07500076293945,22.443750381469727
1750854085591711500,9.71171142578125,-38.79375076293945,-32.85000228881836,23.137500762939453
1750854085601711600,9.721711669921875,-38.92500305175781,-32.75625228881836,23.306251525878906
1750854085611711500,9.73171142578125,-39.01875305175781,-32.47500228881836,23.71875
1750854085621711600,9.741711669921875,-39.150001525878906,-32.32500076293945,23.8125
1750854085631711500,9.75171142578125,-39.35625076293945,-32.10000228881836,24.150001525878906
1750854085641711600,9.761711669921874,-39.1875,-32.025001525878906,24.168750762939453
1750854085651711500,9.77171142578125,-39.1875,-32.08125305175781,24.093751907348633
1750854085661711600,9.781711669921876,-39.13125228881836,-32.26875305175781,23.83125114440918
1750854085671711500,9.79171142578125,-39.26250076293945,-32.41875076293945,23.512500762939453
1750854085681711600,9.801711669921875,-39.07500076293945,-32.400001525878906,23.4375
1750854085691711500,9.81171142578125,-39.09375,-32.47500228881836,23.325000762939453
1750854085701711600,9.821711669921875,-38.8125,-33.03750228881836,23.118751525878906
1750854085711711500,9.83171142578125,-38.71875,-33.30000305175781,22.5
1750854085721711600,9.841711669921875,-38.868751525878906,-33.712501525878906,22.162500381469727
1750854085731711500,9.85171142578125,-38.98125076293945,-34.125,21.712501525878906
1750854085741711600,9.861711669921876,-38.70000076293945,-34.368751525878906,21.225000381469727
1750854085751711500,9.87171142578125,-38.73750305175781,-34.80000305175781,20.71875
1750854085761711600,9.881711669921875,-38.90625,-35.17500305175781,20.137500762939453
1750854085771711500,9.89171142578125,-38.51250076293945,-35.681251525878906,19.256250381469727
1750854085781711600,9.901711669921875,-38.71875,-35.75625228881836,18.712501525878906
1750854085791711500,9.91171142578125,-38.66250228881836,-36.056251525878906,18.1875
1750854085801711600,9.921711669921875,-38.60625076293945,-36.09375,17.606250762939453
1750854085811711500,9.93171142578125,-38.51250076293945,-36.13125228881836,17.043750762939453
1750854085821711600,9.941711669921874,-38.71875,-36.5625,16.462501525878906
1750854085831711500,9.95171142578125,-38.34375,-36.75,15.675000190734863
1750854085841711600,9.961711669921876,-38.17500305175781,-36.712501525878906,15.000000953674316
1750854085851711500,9.97171142578125,-38.625,-36.75,14.662500381469727
1750854085861711600,9.981711669921875,-38.26875305175781,-36.900001525878906,13.968750953674316
1750854085871711500,9.99171142578125,-38.34375,-36.806251525878906,13.387500762939453
1750854085881711600,10.001711669921875,-38.212501525878906,-36.97500228881836,12.787500381469727
1750854085891711500,10.01171142578125,-38.118751525878906,-36.91875076293945,12.318750381469727
1750854085911711500,10.03171142578125,-38.26875305175781,-36.375,11.700000762939453
1750854085921711600,10.041711669921876,-38.38125228881836,-36.337501525878906,11.287500381469727
1750854085931711500,10.05171142578125,-38.34375,-36.13125228881836,11.11875057220459
1750854085941711600,10.061711669921875,-38.88750076293945,-35.94375228881836,11.02500057220459
1750854085951711500,10.07171142578125,-39.20625305175781,-35.92500305175781,11.268750190734863
1750854085961711600,10.081711669921875,-39.243751525878906,-35.8125,11.40000057220459
1750854085971711500,10.09171142578125,-39.20625305175781,-35.70000076293945,11.550000190734863
1750854085981711600,10.101711669921874,-39.39375305175781,-35.75625228881836,11.793750762939453
1750854085991711500,10.11171142578125,-39.712501525878906,-35.25,12.037500381469727
1750854086001711600,10.121711669921876,-39.65625,-35.28750228881836,12.43125057220459
1750854086011711500,10.13171142578125,-39.5625,-35.25,12.656250953674316
1750854086021711600,10.141711669921875,-39.5625,-35.25,13.050000190734863
1750854086031711500,10.15171142578125,-39.431251525878906,-35.15625,13.200000762939453
1750854086041711600,10.161711669921875,-39.35625076293945,-34.81875228881836,13.668750762939453
1750854086051711500,10.17171142578125,-39.46875,-34.76250076293945,14.100000381469727
1750854086061711600,10.181711669921874,-39.46875,-34.5,14.550000190734863
1750854086071711500,10.19171142578125,-39.45000076293945,-34.76250076293945,14.943750381469727
1750854086081711600,10.201711669921876,-39.31875228881836,-34.48125076293945,15.562500953674316
1750854086091711500,10.21171142578125,-39.45000076293945,-34.35000228881836,16.275001525878906
1750854086101711600,10.221711669921875,-39.35625076293945,-34.23750305175781,16.743751525878906
1750854086111711500,10.23171142578125,-39.31875228881836,-33.97500228881836,17.36250114440918
1750854086121711600,10.241711669921875,-39.22500228881836,-34.06875228881836,17.756250381469727
1750854086131711500,10.25171142578125,-39.41250228881836,-33.900001525878906,18.1875
1750854086141711600,10.261711669921874,-39.28125,-33.78750228881836,18.65625
1750854086151711500,10.27171142578125,-39.11250305175781,-33.65625,19.256250381469727
1750854086161711600,10.281711669921876,-39.30000305175781,-33.525001525878906,19.650001525878906
1750854086171711500,10.29171142578125,-39.22500228881836,-33.337501525878906,19.96875
1750854086181711600,10.301711669921875,-39.26250076293945,-32.962501525878906,20.34375
1750854086191711500,10.31171142578125,-39.35625076293945,-32.75625228881836,20.662500381469727
1750854086201711600,10.321711669921875,-39.60000228881836,-32.4375,21.037500381469727
1750854086211711500,10.33171142578125,-39.48750305175781,-32.13750076293945,21.450000762939453
1750854086221711600,10.341711669921875,-39.48750305175781,-31.968751907348633,21.543750762939453
1750854086231711500,10.35171142578125,-39.58125305175781,-31.762500762939453,21.693750381469727
1750854086241711600,10.361711669921876,-39.69375228881836,-31.743751525878906,21.693750381469727
1750854086251711500,10.37171142578125,-39.5625,-31.668750762939453,22.012500762939453
1750854086261711600,10.381711669921875,-39.39375305175781,-31.837501525878906,22.012500762939453
1750854086271711500,10.39171142578125,-39.03750228881836,-31.968751907348633,22.14375114440918
1750854086281711600,10.401711669921875,-38.90625,-32.212501525878906,22.125
1750854086291711500,10.41171142578125,-38.625,-32.55000305175781,22.14375114440918
1750854086301711600,10.421711669921875,-38.4375,-32.587501525878906,22.387500762939453
1750854086311711500,10.43171142578125,-38.10000228881836,-32.71875,22.293750762939453
1750854086321711600,10.441711669921874,-37.95000076293945,-32.88750076293945,22.23750114440918
1750854086331711500,10.45171142578125,-38.00625228881836,-33.20625305175781,21.918750762939453
1750854086341711600,10.461711669921876,-37.85625076293945,-33.337501525878906,21.84375
1750854086351711500,10.47171142578125,-38.10000228881836,-33.63750076293945,21.525001525878906
1750854086361711600,10.481711669921875,-38.23125076293945,-33.618751525878906,21.1875
1750854086371711500,10.49171142578125,-38.26875305175781,-33.76875305175781,20.681251525878906
1750854086381711600,10.501711669921875,-38.36250305175781,-34.181251525878906,19.89375114440918
1750854086391711500,10.51171142578125,-38.51250076293945,-34.40625,19.387500762939453
1750854086401711600,10.521711669921874,-38.47500228881836,-34.556251525878906,18.993751525878906
1750854086411711500,10.53171142578125,-38.71875,-34.81875228881836,18.318750381469727
1750854086421711600,10.541711669921876,-38.88750076293945,-35.212501525878906,17.8125
1750854086431711500,10.55171142578125,-38.90625,-35.38125228881836,17.26875114440918
1750854086441711600,10.561711669921875,-38.75625228881836,-35.681251525878906,16.725000381469727
1750854086451711500,10.57171142578125,-38.98125076293945,-35.83125305175781,16.012500762939453
1750854086461711600,10.581711669921875,-39.09375,-36.01875305175781,15.562500953674316
1750854086471711500,10.59171142578125,-39.16875076293945,-36.07500076293945,15.262500762939453
1750854086481711600,10.601711669921874,-39.20625305175781,-36.1875,14.756250381469727
1750854086491711500,10.61171142578125,-38.962501525878906,-36.03750228881836,14.231250762939453
1750854086501711600,10.621711669921876,-39.03750228881836,-35.90625,13.762500762939453
1750854086511711500,10.63171142578125,-39.11250305175781,-36,12.975000381469727
1750854086521711600,10.641711669921875,-39.09375,-36,12.543750762939453
1750854086531711500,10.65171142578125,-38.79375076293945,-35.90625,12.262500762939453
1750854086541711600,10.661711669921875,-38.73750305175781,-35.70000076293945,11.793750762939453
1750854086551711500,10.67171142578125,-38.587501525878906,-35.70000076293945,11.21250057220459
1750854086561711600,10.681711669921874,-38.45625305175781,-35.587501525878906,11.100000381469727
1750854086571711500,10.69171142578125,-38.38125228881836,-35.73750305175781,10.800000190734863
1750854086581711600,10.701711669921876,-38.587501525878906,-35.73750305175781,10.518750190734863
1750854086591711500,10.71171142578125,-38.53125,-35.60625076293945,10.612500190734863
1750854086601711600,10.721711669921875,-38.47500228881836,-35.38125228881836,10.55625057220459
1750854086611711500,10.73171142578125,-38.56875228881836,-35.306251525878906,10.706250190734863
1750854086621711600,10.741711669921875,-38.73750305175781,-35.38125228881836,10.96875
1750854086631711500,10.75171142578125,-38.681251525878906,-35.55000305175781,11.137500762939453
1750854086641711600,10.761711669921874,-38.775001525878906,-35.41875076293945,11.30625057220459
1750854086651711500,10.77171142578125,-39.150001525878906,-35.118751525878906,11.850000381469727
1750854086661711600,10.781711669921876,-39.11250305175781,-35.00625228881836,12.187500953674316
1750854086671711500,10.79171142578125,-38.775001525878906,-34.931251525878906,12.52500057220459
1750854086681711600,10.801711669921875,-38.85000228881836,-34.96875,13.068750381469727
1750854086691711500,10.81171142578125,-38.868751525878906,-35.10000228881836,13.425000190734863
1750854086701711600,10.821711669921875,-38.64375305175781,-34.91250228881836,13.83750057220459
1750854086711711500,10.83171142578125,-39.056251525878906,-34.61250305175781,14.456250190734863
1750854086721711600,10.841711669921875,-39.1875,-34.66875076293945,14.718750953674316
1750854086731711500,10.85171142578125,-39.03750228881836,-34.42500305175781,15.412500381469727
1750854086741711600,10.861711669921876,-38.92500305175781,-34.23750305175781,15.843750953674316
1750854086751711500,10.87171142578125,-39.30000305175781,-34.181251525878906,16.350000381469727
1750854086761711600,10.881711669921875,-39.431251525878906,-34.03125,16.912500381469727
1750854086771711500,10.89171142578125,-39.48750305175781,-33.84375,17.475000381469727
1750854086781711600,10.901711669921875,-39.78750228881836,-33.712501525878906,18.11250114440918
1750854086791711500,10.91171142578125,-39.69375228881836,-33.65625,18.58125114440918
1750854086801711600,10.921711669921875,-39.65625,-33.375,19.21875
1750854086811711500,10.93171142578125,-39.5625,-33.50625228881836,19.275001525878906
1750854086821711600,10.941711669921874,-39.45000076293945,-33.46875,19.6875
1750854086831711500,10.95171142578125,-39.35625076293945,-33.26250076293945,20.17500114440918
1750854086841711600,10.961711669921876,-39.31875228881836,-33.13125228881836,20.25
1750854086851711500,10.97171142578125,-39.46875,-33,20.475000381469727
1750854086861711600,10.981711669921875,-39.22500228881836,-32.775001525878906,20.83125114440918
1750854086871711500,10.99171142578125,-38.962501525878906,-32.71875,21.056251525878906
1750854086881711600,11.001711669921875,-38.90625,-32.681251525878906,21.39375114440918
1750854086891711500,11.01171142578125,-38.92500305175781,-32.625,21.84375
1750854086901711600,11.021711669921874,-38.70000076293945,-32.66250228881836,22.068750381469727
1750854086911711500,11.03171142578125,-38.64375305175781,-32.79375076293945,22.33125114440918
1750854086921711600,11.041711669921876,-38.56875228881836,-32.73750305175781,22.481250762939453
1750854086931711500,11.05171142578125,-38.25,-32.70000076293945,22.5
1750854086941711600,11.061711669921875,-38.32500076293945,-32.83125305175781,22.293750762939453
1750854086951711500,11.07171142578125,-38.41875076293945,-32.8125,22.200000762939453
1750854086961711600,11.081711669921875,-38.587501525878906,-33.056251525878906,21.9375
1750854086971711500,11.09171142578125,-38.4375,-33.16875076293945,21.67500114440918
1750854086981711600,11.101711669921874,-38.868751525878906,-33.35625076293945,21.39375114440918
1750854086991711500,11.11171142578125,-38.92500305175781,-33.54375076293945,20.850000381469727
1750854087001711600,11.121711669921876,-39.056251525878906,-33.806251525878906,20.493751525878906
1750854087011711500,11.13171142578125,-39.13125228881836,-34.01250076293945,20.043750762939453
1750854087021711600,11.141711669921875,-39.09375,-34.33125305175781,19.537500381469727
1750854087031711500,11.15171142578125,-39.07500076293945,-34.63125228881836,18.86250114440918
1750854087041711600,11.161711669921875,-39.16875076293945,-34.78125,18.20625114440918
1750854087051711500,11.17171142578125,-39.20625305175781,-35.26875305175781,17.512500762939453
1750854087061711600,11.181711669921874,-38.962501525878906,-35.4375,16.912500381469727
1750854087071711500,11.19171142578125,-38.94375228881836,-35.51250076293945,16.21875
1750854087081711600,11.201711669921876,-39.03750228881836,-35.85000228881836,15.450000762939453
1750854087091711500,11.21171142578125,-39.03750228881836,-35.90625,14.643750190734863
1750854087101711600,11.221711669921875,-39.09375,-35.98125076293945,14.02500057220459
1750854087111711500,11.23171142578125,-39.26250076293945,-35.88750076293945,13.331250190734863
1750854087121711600,11.241711669921875,-39,-35.775001525878906,12.637500762939453
1750854087131711500,11.25171142578125,-39.28125,-35.41875076293945,12
1750854087141711600,11.261711669921874,-39.58125305175781,-35.15625,11.362500190734863
1750854087151711500,11.27171142578125,-39.75,-34.91250228881836,10.818750381469727
1750854087161711600,11.281711669921876,-39.5625,-34.5,10.537500381469727
1750854087171711500,11.29171142578125,-39.95625305175781,-34.462501525878906,10.200000762939453
1750854087181711600,11.301711669921875,-40.10625076293945,-34.20000076293945,9.84375
1750854087191711500,11.31171142578125,-40.125,-34.21875,9.825000762939453
1750854087201711600,11.321711669921875,-40.275001525878906,-34.10625076293945,9.600000381469727
1750854087211711500,11.33171142578125,-40.20000076293945,-34.03125,9.46875
1750854087221711600,11.341711669921875,-39.993751525878906,-34.01250076293945,9.393750190734863
1750854087231711500,11.35171142578125,-40.03125,-33.993751525878906,9.65625
1750854087241711600,11.361711669921876,-39.91875076293945,-34.087501525878906,9.61875057220459
1750854087251711500,11.37171142578125,-39.5625,-33.993751525878906,10.012500762939453
1750854087261711600,11.381711669921875,-39.41250228881836,-34.14375305175781,10.162500381469727
1750854087271711500,11.39171142578125,-39.26250076293945,-34.33125305175781,10.36875057220459
1750854087281711600,11.401711669921875,-39.35625076293945,-34.29375076293945,10.893750190734863
1750854087291711500,11.41171142578125,-39.16875076293945,-34.42500305175781,11.381250381469727
1750854087301711600,11.421711669921875,-39.28125,-34.25625228881836,12.262500762939453
1750854087311711500,11.43171142578125,-39.11250305175781,-34.29375076293945,12.731250762939453
1750854087321711600,11.441711669921874,-39.28125,-34.35000228881836,13.387500762939453
1750854087331711500,11.45171142578125,-39.50625228881836,-34.743751525878906,13.818750381469727
1750854087341711600,11.461711669921876,-39.67500305175781,-34.837501525878906,14.550000190734863
1750854087351711500,11.47171142578125,-39.63750076293945,-34.70625305175781,15.225000381469727
1750854087361711600,11.481711669921875,-39.431251525878906,-34.6875,15.90000057220459
1750854087371711500,11.49171142578125,-39.39375305175781,-34.63125228881836,16.350000381469727
1750854087381711600,11.501711669921875,-39.20625305175781,-34.875,16.875
1750854087391711500,11.51171142578125,-38.88750076293945,-34.91250228881836,17.55000114440918
1750854087401711600,11.521711669921874,-38.75625228881836,-34.875,18.150001525878906
1750854087411711500,11.53171142578125,-38.53125,-34.53750228881836,18.900001525878906
1750854087421711600,11.541711669921876,-38.28750228881836,-34.3125,19.5
1750854087431711500,11.55171142578125,-38.53125,-34.01250076293945,20.137500762939453
1750854087441711600,11.561711669921875,-38.66250228881836,-33.900001525878906,20.681251525878906
1750854087451711500,11.57171142578125,-38.73750305175781,-33.76875305175781,21.356250762939453
1750854087461711600,11.581711669921875,-38.75625228881836,-33.65625,21.825000762939453
1750854087471711500,11.59171142578125,-38.75625228881836,-33.54375076293945,22.14375114440918
1750854087481711600,11.601711669921874,-38.8125,-33.31875228881836,22.537500381469727
1750854087491711500,11.61171142578125,-38.73750305175781,-33.16875076293945,22.931251525878906
1750854087501711600,11.621711669921876,-38.66250228881836,-33.11250305175781,23.34375
1750854087511711500,11.63171142578125,-38.34375,-33.150001525878906,23.64375114440918
1750854087521711600,11.641711669921875,-38.36250305175781,-33.28125,23.90625
1750854087531711500,11.65171142578125,-38.17500305175781,-33.20625305175781,24.187501907348633
1750854087541711600,11.661711669921875,-38.212501525878906,-33.243751525878906,24.225000381469727
1750854087551711500,11.67171142578125,-38.64375305175781,-33.22500228881836,24.337501525878906
1750854087561711600,11.681711669921874,-38.60625076293945,-33.1875,24.30000114440918
1750854087571711500,11.69171142578125,-38.71875,-33.16875076293945,24.168750762939453
1750854087581711600,11.701711669921876,-38.83125305175781,-33.13125228881836,24.037500381469727
1750854087591711500,11.71171142578125,-38.868751525878906,-33.54375076293945,23.53125
1750854087601711600,11.721711669921875,-38.66250228881836,-33.67500305175781,23.08125114440918
1750854087611711500,11.73171142578125,-38.90625,-33.97500228881836,22.70625114440918
1750854087621711600,11.741711669921875,-38.88750076293945,-34.125,22.23750114440918
1750854087631711500,11.75171142578125,-38.70000076293945,-34.35000228881836,21.806251525878906
1750854087641711600,11.761711669921874,-39,-34.72500228881836,21.168750762939453
1750854087651711500,11.77171142578125,-38.79375076293945,-35.306251525878906,20.475000381469727
1750854087661711600,11.781711669921876,-38.79375076293945,-35.625,19.78125
1750854087671711500,11.79171142578125,-38.8125,-35.71875,19.3125
1750854087681711600,11.801711669921875,-38.868751525878906,-36.01875305175781,18.731250762939453
1750854087691711500,11.81171142578125,-38.70000076293945,-36.150001525878906,18
1750854087701711600,11.821711669921875,-38.60625076293945,-36.28125,17.193750381469727
1750854087711711500,11.83171142578125,-38.53125,-36.39375305175781,16.51875114440918
1750854087721711600,11.841711669921875,-38.17500305175781,-36.63750076293945,15.918750762939453
1750854087731711500,11.85171142578125,-38.23125076293945,-36.60000228881836,15.225000381469727
1750854087741711600,11.861711669921876,-38.0625,-36.75,14.287500381469727
1750854087751711500,11.87171142578125,-38.00625228881836,-36.712501525878906,13.575000762939453
1750854087761711600,11.881711669921875,-38.00625228881836,-36.84375,12.768750190734863
1750854087771711500,11.89171142578125,-37.96875,-36.82500076293945,11.793750762939453
1750854087781711600,11.901711669921875,-37.95000076293945,-36.97500228881836,11.231250762939453
1750854087791711500,11.91171142578125,-38.10000228881836,-37.16250228881836,10.55625057220459
1750854087801711600,11.921711669921875,-38.306251525878906,-37.01250076293945,10.162500381469727
1750854087811711200,11.931711181640624,-38.4375,-36.993751525878906,9.65625
1750854087821711400,11.94171142578125,-38.32500076293945,-36.75,9.487500190734863
1750854087831711200,11.951711181640626,-38.306251525878906,-36.78750228881836,9.15000057220459
1750854087841711400,11.96171142578125,-38.66250228881836,-36.46875,9
1750854087851711200,11.971711181640625,-38.70000076293945,-36.1875,9.300000190734863
1750854087861711400,11.98171142578125,-38.98125076293945,-35.868751525878906,9.412500381469727
1750854087871711200,11.991711181640625,-39.07500076293945,-35.53125,9.356250762939453
1750854087881711400,12.00171142578125,-38.962501525878906,-35.47500228881836,9.450000762939453
1750854087891711200,12.011711181640624,-38.90625,-35.306251525878906,9.731250762939453
1750854087901711400,12.02171142578125,-39.30000305175781,-35.28750228881836,9.90000057220459
1750854087911711200,12.031711181640626,-39.431251525878906,-35.212501525878906,10.256250381469727
1750854087921711400,12.04171142578125,-38.92500305175781,-35.17500305175781,10.537500381469727
1750854087931711200,12.051711181640625,-39.11250305175781,-35.23125076293945,10.481250762939453
1750854087941711400,12.06171142578125,-39.056251525878906,-35.25,10.818750381469727
1750854087951711200,12.071711181640625,-38.94375228881836,-35.15625,11.662500381469727
1750854087961711400,12.08171142578125,-39.01875305175781,-34.85625076293945,12.168750762939453
1750854087971711200,12.091711181640624,-39.150001525878906,-34.70625305175781,12.881250381469727
1750854087981711400,12.10171142578125,-38.98125076293945,-34.462501525878906,13.36875057220459
1750854087991711200,12.111711181640626,-39.375,-33.993751525878906,13.83750057220459
1750854088001711400,12.12171142578125,-39.76875305175781,-33.84375,14.456250190734863
1750854088011711200,12.131711181640625,-39.75,-33.712501525878906,15.225000381469727
1750854088021711400,12.14171142578125,-39.63750076293945,-33.46875,15.825000762939453
1750854088031711200,12.151711181640625,-39.73125076293945,-33.26250076293945,16.106250762939453
1750854088041711400,12.16171142578125,-39.65625,-33.13125228881836,16.743751525878906
1750854088051711200,12.171711181640624,-39.82500076293945,-32.71875,17.36250114440918
1750854088061711400,12.18171142578125,-39.993751525878906,-32.70000076293945,18.11250114440918
1750854088071711200,12.191711181640626,-39.5625,-32.625,18.95625114440918
1750854088081711400,12.20171142578125,-39.45000076293945,-32.32500076293945,19.443750381469727
1750854088091711200,12.211711181640625,-39.41250228881836,-32.118751525878906,20.118751525878906
1750854088101711400,12.22171142578125,-39.525001525878906,-31.89375114440918,20.681251525878906
1750854088111711200,12.231711181640625,-39.50625228881836,-31.781251907348633,21.075000762939453
1750854088121711400,12.24171142578125,-39.54375076293945,-31.575000762939453,21.506250381469727
1750854088131711200,12.251711181640625,-39.525001525878906,-31.650001525878906,21.806251525878906
1750854088141711400,12.26171142578125,-39.618751525878906,-31.443750381469727,22.200000762939453
1750854088151711200,12.271711181640624,-39.5625,-31.443750381469727,22.40625
1750854088161711400,12.28171142578125,-39.525001525878906,-31.462501525878906,23.08125114440918
1750854088171711200,12.291711181640625,-39.45000076293945,-31.650001525878906,23.568750381469727
1750854088181711400,12.30171142578125,-39.20625305175781,-31.856250762939453,23.8125
1750854088191711200,12.311711181640625,-39.1875,-31.875001907348633,24.506250381469727
1750854088201711400,12.32171142578125,-39.150001525878906,-32.212501525878906,24.656251907348633
1750854088211711200,12.331711181640625,-38.90625,-32.34375,24.918750762939453
1750854088221711400,12.34171142578125,-39.09375,-32.45625305175781,25.218751907348633
1750854088231711200,12.351711181640624,-39.28125,-32.47500228881836,25.218751907348633
1750854088241711400,12.36171142578125,-39.13125228881836,-32.60625076293945,25.181251525878906
1750854088251711200,12.371711181640626,-39.1875,-32.51250076293945,25.05000114440918
1750854088261711400,12.38171142578125,-39.28125,-32.55000305175781,24.900001525878906
1750854088271711200,12.391711181640625,-39.35625076293945,-32.75625228881836,24.506250381469727
1750854088281711400,12.40171142578125,-39.30000305175781,-32.83125305175781,24.225000381469727
1750854088291711200,12.411711181640625,-39.22500228881836,-33.243751525878906,23.53125
1750854088301711400,12.42171142578125,-38.8125,-33.67500305175781,22.631250381469727
1750854088311711200,12.431711181640624,-38.75625228881836,-34.06875228881836,22.106250762939453
1750854088321711400,12.44171142578125,-38.868751525878906,-34.5,21.225000381469727
1750854088331711200,12.451711181640626,-38.92500305175781,-34.98750305175781,20.4375
1750854088341711400,12.46171142578125,-38.90625,-35.45625305175781,19.78125
1750854088351711200,12.471711181640625,-38.23125076293945,-35.94375228881836,18.731250762939453
1750854088361711400,12.48171142578125,-38.08125305175781,-36.22500228881836,17.850000381469727
1750854088371711200,12.491711181640625,-38.36250305175781,-36.58125305175781,17.025001525878906
1750854088381711400,12.50171142578125,-38.47500228881836,-36.75,16.481250762939453
1750854088391711200,12.511711181640624,-38.25,-36.91875076293945,15.637500762939453
1750854088401711400,12.52171142578125,-38.19375228881836,-37.01250076293945,15.000000953674316
1750854088411711200,12.531711181640626,-38.25,-37.06875228881836,14.21250057220459
1750854088421711400,12.54171142578125,-38.38125228881836,-36.91875076293945,13.425000190734863
1750854088431711200,12.551711181640625,-38.88750076293945,-36.84375,12.637500762939453
1750854088441711400,12.56171142578125,-39.13125228881836,-36.65625,12
1750854088451711200,12.571711181640625,-38.98125076293945,-36.1875,11.512500762939453
1750854088461711400,12.58171142578125,-38.94375228881836,-35.88750076293945,10.818750381469727
1750854088471711200,12.591711181640624,-39.150001525878906,-35.8125,10.40625
1750854088481711400,12.60171142578125,-39.1875,-35.400001525878906,10.143750190734863
1750854088491711200,12.611711181640626,-38.88750076293945,-35.212501525878906,9.84375
1750854088501711400,12.62171142578125,-38.98125076293945,-35.118751525878906,9.637500762939453
1750854088511711200,12.631711181640625,-38.85000228881836,-34.95000076293945,9.768750190734863
1750854088521711400,12.64171142578125,-38.73750305175781,-34.85625076293945,9.862500190734863
1750854088531711200,12.651711181640625,-38.681251525878906,-34.931251525878906,9.731250762939453
1750854088541711400,12.66171142578125,-38.681251525878906,-35.0625,9.956250190734863
1750854088551711200,12.671711181640624,-38.681251525878906,-34.89375305175781,10.331250190734863
1750854088561711400,12.68171142578125,-38.75625228881836,-35.25,10.55625057220459
1750854088571711200,12.691711181640626,-38.775001525878906,-35.32500076293945,10.818750381469727
1750854088581711400,12.70171142578125,-38.55000305175781,-35.28750228881836,11.287500381469727
1750854088591711200,12.711711181640625,-38.70000076293945,-35.55000305175781,11.700000762939453
1750854088601711400,12.72171142578125,-38.962501525878906,-35.64375305175781,12.112500190734863
1750854088611711200,12.731711181640625,-39.07500076293945,-35.56875228881836,13.27500057220459
1750854088621711400,12.74171142578125,-39.31875228881836,-35.66250228881836,13.893750190734863
1750854088631711200,12.751711181640625,-39.35625076293945,-35.681251525878906,14.456250190734863
1750854088641711400,12.76171142578125,-39.50625228881836,-35.306251525878906,15.24375057220459
1750854088651711200,12.771711181640624,-39.75,-35.00625228881836,16.14375114440918
1750854088661711400,12.78171142578125,-39.73125076293945,-34.85625076293945,16.931251525878906
1750854088671711200,12.791711181640625,-39.75,-34.40625,17.700000762939453
1750854088681711400,12.80171142578125,-39.41250228881836,-33.9375,18.46875
1750854088691711200,12.811711181640625,-39.337501525878906,-33.67500305175781,19.05000114440918
1750854088701711400,12.82171142578125,-39.11250305175781,-33.243751525878906,19.462501525878906
1750854088721711400,12.84171142578125,-38.775001525878906,-32.92500305175781,20.681251525878906
1750854088731711200,12.851711181640624,-38.70000076293945,-32.60625076293945,21.243751525878906
1750854088741711400,12.86171142578125,-38.775001525878906,-32.25,21.806251525878906
1750854088751711200,12.871711181640626,-38.70000076293945,-32.04375076293945,22.387500762939453
1750854088761711400,12.88171142578125,-38.8125,-32.13750076293945,22.931251525878906
1750854088771711200,12.891711181640625,-38.71875,-32.00625228881836,23.400001525878906
1750854088781711400,12.90171142578125,-38.47500228881836,-31.818750381469727,24.20625114440918
1750854088791711200,12.911711181640625,-38.28750228881836,-31.818750381469727,24.468751907348633
1750854088801711400,12.92171142578125,-38.55000305175781,-31.668750762939453,24.918750762939453
1750854088811711200,12.931711181640624,-38.41875076293945,-31.762500762939453,25.031251907348633
1750854088821711400,12.94171142578125,-38.51250076293945,-31.837501525878906,25.14375114440918
1750854088831711200,12.951711181640626,-38.60625076293945,-32.00625228881836,25.181251525878906
1750854088841711400,12.96171142578125,-38.56875228881836,-31.856250762939453,25.200000762939453
1750854088851711200,12.971711181640625,-38.60625076293945,-31.931251525878906,25.275001525878906
1750854088861711400,12.98171142578125,-38.868751525878906,-32.0625,25.106250762939453
1750854088871711200,12.991711181640625,-38.79375076293945,-31.762500762939453,25.162500381469727
1750854088881711400,13.00171142578125,-38.51250076293945,-31.856250762939453,24.95625114440918
1750854088891711200,13.011711181640624,-38.625,-32.13750076293945,24.693750381469727
1750854088901711400,13.02171142578125,-38.493751525878906,-32.32500076293945,24.375001907348633
1750854088911711200,13.031711181640626,-38.66250228881836,-32.38125228881836,24.20625114440918
1750854088921711400,13.04171142578125,-38.71875,-32.775001525878906,23.8125
1750854088931711200,13.051711181640625,-38.85000228881836,-33.1875,22.950000762939453
1750854088941711400,13.06171142578125,-38.775001525878906,-33.60000228881836,22.181251525878906
1750854088951711200,13.071711181640625,-39.22500228881836,-34.06875228881836,21.243751525878906
1750854088961711400,13.08171142578125,-39.35625076293945,-34.40625,20.4375
1750854088971711200,13.091711181640624,-39.41250228881836,-34.61250305175781,19.575000762939453
1750854088981711400,13.10171142578125,-39.5625,-34.81875228881836,18.75
1750854088991711200,13.111711181640626,-39.31875228881836,-35.19375228881836,17.681251525878906
1750854089001711400,13.12171142578125,-39.22500228881836,-35.45625305175781,16.481250762939453
1750854089011711200,13.131711181640625,-39.26250076293945,-35.400001525878906,15.600000381469727
1750854089021711400,13.14171142578125,-39.150001525878906,-35.38125228881836,15.018750190734863
1750854089031711200,13.151711181640625,-39,-35.56875228881836,14.418750762939453
1750854089041711400,13.16171142578125,-39,-35.66250228881836,13.36875057220459
1750854089051711200,13.171711181640624,-38.868751525878906,-35.73750305175781,12.675000190734863
1750854089061711400,13.18171142578125,-38.56875228881836,-35.94375228881836,11.90625
1750854089071711200,13.191711181640626,-38.681251525878906,-35.71875,11.362500190734863
1750854089081711400,13.20171142578125,-38.94375228881836,-35.625,10.96875
1750854089091711200,13.211711181640625,-38.75625228881836,-35.73750305175781,10.40625
1750854089101711400,13.22171142578125,-38.75625228881836,-35.868751525878906,9.43125057220459
1750854089111711200,13.231711181640625,-38.73750305175781,-35.83125305175781,8.793750762939453
1750854089121711400,13.24171142578125,-38.88750076293945,-35.8125,8.77500057220459
1750854089131711200,13.251711181640625,-39.13125228881836,-35.64375305175781,8.4375
1750854089141711400,13.26171142578125,-39.375,-35.70000076293945,8.325000762939453
1750854089151711200,13.271711181640624,-39.31875228881836,-35.85000228881836,8.175000190734863
1750854089161711400,13.28171142578125,-39.1875,-35.71875,8.11875057220459
1750854089171711200,13.291711181640625,-39.31875228881836,-35.66250228881836,8.418750762939453
1750854089181711400,13.30171142578125,-39.45000076293945,-35.60625076293945,9.018750190734863
1750854089191711200,13.311711181640625,-39.45000076293945,-35.75625228881836,9.393750190734863
1750854089201711400,13.32171142578125,-39.431251525878906,-35.85000228881836,9.80625057220459
1750854089211711200,13.331711181640625,-39.22500228881836,-36.1875,10.537500381469727
1750854089221711400,13.34171142578125,-39.337501525878906,-36.13125228881836,11.193750381469727
1750854089231711200,13.351711181640624,-39.337501525878906,-36.16875076293945,12.05625057220459
1750854089241711400,13.36171142578125,-39.22500228881836,-36.20625305175781,12.956250190734863
1750854089251711200,13.371711181640626,-39.30000305175781,-36.150001525878906,13.818750381469727
1750854089261711400,13.38171142578125,-39.30000305175781,-36.056251525878906,14.718750953674316
1750854089271711200,13.391711181640625,-39.31875228881836,-35.868751525878906,15.61875057220459
1750854089281711400,13.40171142578125,-39.31875228881836,-35.70000076293945,16.3125
1750854089291711200,13.411711181640625,-39.41250228881836,-35.25,17.043750762939453
1750854089301711400,13.42171142578125,-39.28125,-35.0625,17.587501525878906
1750854089311711200,13.431711181640624,-39.30000305175781,-34.6875,18.225000381469727
1750854089321711400,13.44171142578125,-39.28125,-34.59375,18.75
1750854089331711200,13.451711181640626,-39.30000305175781,-34.3125,19.350000381469727
1750854089341711400,13.46171142578125,-39.35625076293945,-34.05000305175781,19.875
1750854089351711200,13.471711181640625,-39.337501525878906,-33.73125076293945,20.34375
1750854089361711400,13.48171142578125,-39.337501525878906,-33.5625,21.056251525878906
1750854089371711200,13.491711181640625,-39.45000076293945,-33.48750305175781,21.48750114440918
1750854089381711400,13.50171142578125,-39.5625,-33.07500076293945,22.05000114440918
1750854089391711200,13.511711181640624,-39.525001525878906,-32.79375076293945,22.51875114440918
1750854089401711400,13.52171142578125,-39.84375,-32.32500076293945,23.325000762939453
1750854089411711200,13.531711181640626,-39.78750228881836,-32.15625,23.34375
1750854089421711400,13.54171142578125,-39.76875305175781,-31.950000762939453,23.625
1750854089431711200,13.551711181640625,-39.67500305175781,-31.781251907348633,23.625
1750854089441711400,13.56171142578125,-39.67500305175781,-31.387500762939453,23.55000114440918
1750854089451711200,13.571711181640625,-39.46875,-31.162500381469727,23.662500381469727
1750854089461711400,13.58171142578125,-39.26250076293945,-31.200000762939453,23.587501525878906
1750854089471711200,13.591711181640624,-39.31875228881836,-31.275001525878906,23.45625114440918
1750854089481711400,13.60171142578125,-39.03750228881836,-31.443750381469727,23.287500381469727
1750854089491711200,13.611711181640626,-39.07500076293945,-31.575000762939453,23.34375
1750854089501711400,13.62171142578125,-38.75625228881836,-31.61250114440918,23.381250381469727
1750854089511711200,13.631711181640625,-38.66250228881836,-31.781251907348633,23.73750114440918
1750854089521711400,13.64171142578125,-38.41875076293945,-32.26875305175781,23.775001525878906
1750854089531711200,13.651711181640625,-38.25,-32.66250228881836,23.756250381469727
1750854089541711400,13.66171142578125,-38.17500305175781,-32.98125076293945,23.793750762939453
