time,seconds_elapsed,z,y,x
1750854076018950700,0.13895068359375,9.77408218383789,1.80717933177948,-0.37447673082351685
1750854076047187500,0.1671875,9.793225288391113,1.6875381469726562,-0.27397820353507996
1750854076084836600,0.204836669921875,9.668798446655273,2.032104730606079,-0.3888336718082428
1750854076103661300,0.223661376953125,9.558728218078613,1.8693926334381104,-0.37447673082351685
1750854076122485800,0.24248583984375,9.616155624389648,1.7258232831954956,-0.2356930375099182
1750854076141310500,0.261310546875,9.716654777526855,1.8023936748504639,-0.24526432156562805
1750854076160135200,0.28013525390625,9.783653259277344,1.9028922319412231,-0.3026920557022095
1750854076178959600,0.298959716796875,9.89850902557373,1.8646070957183838,-0.32183465361595154
1750854076197784300,0.317784423828125,9.93679428100586,1.7593228816986084,-0.40797626972198486
1750854076216609000,0.336609130859375,9.8267240524292,1.7928223609924316,-0.3888336718082428
1750854076235433500,0.35543359375,9.721440315246582,1.7497515678405762,-0.26440688967704773
1750854076254258200,0.374258056640625,9.70229721069336,1.8550357818603516,-0.26919254660606384
1750854076273082600,0.39308251953125,9.692726135253906,1.9411773681640625,-0.29790642857551575
1750854076291907300,0.4119072265625,9.668798446655273,1.9028922319412231,-0.29312077164649963
1750854076310731800,0.430731689453125,9.750154495239258,1.8167506456375122,-0.22612173855304718
1750854076329556500,0.449556396484375,9.850652694702148,1.740180253982544,-0.18305093050003052
1750854076348381000,0.468380859375,9.903294563293457,1.6923238039016724,-0.21655045449733734
1750854076367205600,0.48720556640625,9.759725570678711,1.716252088546753,-0.2069791555404663
1750854076386030000,0.506030029296875,9.654440879821777,1.7784653902053833,-0.24526432156562805
1750854076404854800,0.524854736328125,9.836296081542969,1.7736797332763672,-0.2883351147174835
1750854076423679500,0.543679443359375,9.81236743927002,1.7114664316177368,-0.22612173855304718
1750854076442504000,0.56250390625,9.54915714263916,1.7066807746887207,-0.1543370634317398
1750854076461328600,0.58132861328125,9.635298728942871,1.7353945970535278,-0.2069791555404663
1750854076480153000,0.600153076171875,9.81236743927002,1.7593228816986084,-0.16869398951530457
1750854076498977800,0.618977783203125,9.88415241241455,1.8167506456375122,-0.25004997849464417
1750854076517802500,0.637802490234375,9.735796928405762,1.8502501249313354,-0.22133609652519226
1750854076536627000,0.656626953125,9.659226417541504,1.8454644680023193,-0.18783657252788544
1750854076555451600,0.67545166015625,9.692726135253906,1.649253010749817,-0.14476576447486877
1750854076574276000,0.694276123046875,9.664012908935547,1.677966833114624,-0.029910283163189888
1750854076593100800,0.713100830078125,9.831509590148926,1.9028922319412231,-0.17347964644432068
1750854076611925200,0.73192529296875,9.759725570678711,1.7018951177597046,-0.25004997849464417
1750854076630750000,0.75075,9.841081619262695,1.5822539329528809,-0.13998012244701385
1750854076649574400,0.769574462890625,9.999007225036621,1.6061822175979614,-0.22612173855304718
1750854076668399000,0.788399169921875,9.999007225036621,1.7258232831954956,-0.24526432156562805
1750854076687223800,0.807223876953125,9.783653259277344,1.7545372247695923,-0.24526432156562805
1750854076706048300,0.82604833984375,9.592227935791016,1.7497515678405762,-0.25004997849464417
1750854076724873000,0.844873046875,9.750154495239258,1.6971094608306885,-0.15912270545959473
1750854076743697400,0.863697509765625,9.630513191223145,1.7593228816986084,-0.13998012244701385
1750854076762522000,0.882522216796875,9.659226417541504,1.654038667678833,-0.11605189740657806
1750854076781346600,0.9013466796875,9.778867721557617,1.6588243246078491,-0.1256231814622879
1750854076800171300,0.920171142578125,9.81236743927002,1.74496591091156,-0.24047867953777313
1750854076818995700,0.93899560546875,9.893723487854004,1.7114664316177368,-0.2021935135126114
1750854076837820400,0.9578203125,9.721440315246582,1.7258232831954956,-0.06819544732570648
1750854076856645000,0.97664501953125,9.56351375579834,1.7353945970535278,-0.04426721855998039
1750854076875469600,0.995469482421875,9.745368003845215,1.831107497215271,-0.08733802288770676
1750854076894294300,1.014294189453125,10.027721405029297,1.7545372247695923,-0.1782652884721756
1750854076913118700,1.03311865234375,9.92243766784668,1.7066807746887207,-0.13998012244701385
1750854076931943400,1.051943359375,9.860223770141602,1.6683956384658813,-0.04905286431312561
1750854076950767900,1.070767822265625,9.750154495239258,1.8215361833572388,-0.1256231814622879
1750854076969592600,1.089592529296875,9.597013473510742,1.7688941955566406,-0.06819544732570648
1750854076988417300,1.108417236328125,9.668798446655273,1.7688941955566406,-0.08255238085985184
1750854077007241700,1.12724169921875,9.726225852966309,1.80717933177948,-0.06819544732570648
1750854077026066400,1.14606640625,9.664012908935547,1.8502501249313354,-0.08255238085985184
1750854077044891000,1.164890869140625,9.836296081542969,1.8550357818603516,-0.15912270545959473
1750854077063715600,1.183715576171875,9.888937950134277,1.7928223609924316,-0.08255238085985184
1750854077082540000,1.2025400390625,9.745368003845215,1.8550357818603516,-0.06340979784727097
1750854077101364700,1.22136474609375,9.668798446655273,1.8167506456375122,0.04666004329919815
1750854077120189200,1.240189208984375,9.640084266662598,1.8598214387893677,-0.02512463741004467
1750854077139014000,1.259013916015625,9.850652694702148,1.7736797332763672,-0.1543370634317398
1750854077157838600,1.277838623046875,9.965508460998535,1.673181176185608,-0.1543370634317398
1750854077176663000,1.2966630859375,9.807581901550293,1.677966833114624,-0.0729810893535614
1750854077195487700,1.31548779296875,9.70229721069336,1.740180253982544,-0.09212367236614227
1750854077214312200,1.334312255859375,9.640084266662598,1.7736797332763672,-0.06819544732570648
1750854077233137000,1.353136962890625,9.573084831237793,1.7306089401245117,-0.020338991656899452
1750854077251961300,1.37196142578125,9.692726135253906,1.6827524900436401,0.008374879136681557
1750854077270786000,1.3907861328125,9.92243766784668,1.7066807746887207,-0.0729810893535614
1750854077289610500,1.409610595703125,9.970293998718262,1.721037745475769,-0.06340979784727097
1750854077308435200,1.428435302734375,9.908080101013184,1.7688941955566406,-0.058624155819416046
1750854077327259600,1.447259765625,9.769296646118164,1.7736797332763672,-0.06340979784727097
1750854077346084400,1.46608447265625,9.697511672973633,1.8215361833572388,-0.020338991656899452
1750854077364908800,1.48490869140625,9.659226417541504,1.7593228816986084,-0.005982056725770235
1750854077383733500,1.5037333984375,9.721440315246582,1.7545372247695923,-0.029910283163189888
1750854077402558000,1.522557861328125,9.769296646118164,1.7784653902053833,-0.09212367236614227
1750854077421382700,1.541382568359375,9.77408218383789,1.7641085386276245,-0.0011964113218709826
1750854077440207400,1.560207275390625,9.845867156982422,1.7880367040634155,-0.029910283163189888
1750854077459031800,1.57903173828125,9.78843879699707,1.7784653902053833,-0.029910283163189888
1750854077477856500,1.5978564453125,9.70229721069336,1.7258232831954956,-0.039481572806835175
1750854077496681000,1.616680908203125,9.721440315246582,1.7306089401245117,0.02273181453347206
1750854077515505700,1.635505615234375,9.78843879699707,1.7593228816986084,0.003589233849197626
1750854077534330000,1.654330078125,9.879366874694824,1.6923238039016724,0.017946170642971992
1750854077553154800,1.67315478515625,9.807581901550293,1.7258232831954956,0.003589233849197626
1750854077571979300,1.691979248046875,9.731011390686035,1.7688941955566406,-0.015553346835076809
1750854077590804000,1.710803955078125,9.731011390686035,1.7353945970535278,-0.0011964113218709826
1750854077609628400,1.72962841796875,9.865009307861328,1.721037745475769,-0.010767702013254166
1750854077628453000,1.748453125,9.793225288391113,1.7497515678405762,0.0323031060397625
1750854077647277800,1.76727783203125,9.68794059753418,1.7593228816986084,-0.015553346835076809
1750854077666102300,1.786102294921875,9.697511672973633,1.7641085386276245,0.037088751792907715
1750854077684927000,1.804927001953125,9.855438232421875,1.8263218402862549,-0.06819544732570648
1750854077703751400,1.82375146484375,9.764511108398438,1.7832510471343994,-0.010767702013254166
1750854077722576100,1.842576171875,9.726225852966309,1.7688941955566406,0.061016976833343506
1750854077741400600,1.861400634765625,9.750154495239258,1.80717933177948,0.02273181453347206
1750854077760225300,1.880225341796875,9.745368003845215,1.7784653902053833,0.05144568532705307
1750854077779049700,1.8990498046875,9.754940032958984,1.7928223609924316,0.06580262631177902
1750854077797874400,1.91787451171875,9.726225852966309,1.7641085386276245,0.07537391036748886
1750854077816699000,1.936698974609375,9.81236743927002,1.8550357818603516,0.05144568532705307
1750854077835523600,1.955523681640625,9.783653259277344,1.80717933177948,0.05623133108019829
1750854077854348000,1.97434814453125,9.68794059753418,1.8263218402862549,0.15194423496723175
1750854077873172700,1.9931728515625,9.769296646118164,1.8741782903671265,0.09451649338006973
1750854077891997200,2.0119970703125,9.745368003845215,1.8263218402862549,0.061016976833343506
1750854077910822000,2.03082177734375,9.625727653503418,1.7880367040634155,0.10887342691421509
1750854077929646300,2.049646240234375,9.764511108398438,1.8023936748504639,0.05623133108019829
1750854077948471000,2.068470947265625,9.716654777526855,1.7545372247695923,0.04666004329919815
1750854077967295700,2.087295654296875,9.79801082611084,1.7688941955566406,0.05623133108019829
1750854077986120200,2.1061201171875,9.716654777526855,1.7832510471343994,0.017946170642971992
1750854078004945000,2.12494482421875,9.582656860351562,1.7545372247695923,0.07058826833963394
1750854078023769300,2.143769287109375,9.654440879821777,1.811964988708496,0.05623133108019829
1750854078042594000,2.162593994140625,9.778867721557617,1.7784653902053833,0.08015955984592438
1750854078061418500,2.18141845703125,9.78843879699707,1.7688941955566406,0.05623133108019829
1750854078080243200,2.2002431640625,9.731011390686035,1.7688941955566406,0.10408778488636017
1750854078099067600,2.219067626953125,9.78843879699707,1.7545372247695923,0.07537391036748886
1750854078117892400,2.237892333984375,9.817152976989746,1.740180253982544,0.12801600992679596
1750854078136716800,2.256716796875,9.802796363830566,1.7258232831954956,0.05144568532705307
1750854078155541500,2.27554150390625,9.903294563293457,1.7018951177597046,0.07537391036748886
1750854078174366000,2.294365966796875,9.965508460998535,1.6971094608306885,0.10408778488636017
1750854078193190700,2.313190673828125,9.88415241241455,1.7258232831954956,0.07058826833963394
1750854078212015000,2.33201513671875,9.783653259277344,1.7018951177597046,0.07058826833963394
1750854078230839800,2.35083984375,9.750154495239258,1.7066807746887207,0.14715859293937683
1750854078249664300,2.369664306640625,9.77408218383789,1.7018951177597046,0.07537391036748886
1750854078268489000,2.388489013671875,9.855438232421875,1.6875381469726562,0.17108681797981262
1750854078287313400,2.4073134765625,9.841081619262695,1.7018951177597046,0.1136590763926506
1750854078306138000,2.42613818359375,9.764511108398438,1.7306089401245117,0.07537391036748886
1750854078324962600,2.444962646484375,9.716654777526855,1.7353945970535278,0.137587308883667
1750854078343787300,2.463787353515625,9.683155059814453,1.7306089401245117,0.1423729509115219
1750854078362611700,2.48261181640625,9.668798446655273,1.721037745475769,0.1136590763926506
1750854078381436400,2.5014365234375,9.754940032958984,1.6971094608306885,0.10887342691421509
1750854078400260900,2.5202607421875,9.750154495239258,1.7066807746887207,0.09451649338006973
1750854078419085600,2.53908544921875,9.601799011230469,1.7641085386276245,0.07537391036748886
1750854078437910000,2.557909912109375,9.501300811767578,1.7497515678405762,0.061016976833343506
1750854078456734700,2.576734619140625,9.616155624389648,1.7353945970535278,0.017946170642971992
1750854078475559200,2.59555908203125,9.850652694702148,1.6683956384658813,0.05623133108019829
1750854078494383900,2.6143837890625,9.955936431884766,1.654038667678833,0.013160524889826775
1750854078513208300,2.633208251953125,9.917651176452637,1.6109678745269775,-0.029910283163189888
1750854078532033000,2.652032958984375,9.841081619262695,1.5822539329528809,0.02751746028661728
1750854078550857500,2.670857421875,9.601799011230469,1.6348960399627686,0.04666004329919815
1750854078569682200,2.68968212890625,9.70229721069336,1.6971094608306885,-0.02512463741004467
1750854078588507000,2.7085068359375,9.855438232421875,1.7066807746887207,-0.09212367236614227
1750854078607331300,2.727331298828125,9.965508460998535,1.6683956384658813,-0.039481572806835175
1750854078626155800,2.74615576171875,9.879366874694824,1.649253010749817,0.07058826833963394
1750854078644980500,2.76498046875,9.841081619262695,1.673181176185608,0.10408778488636017
1750854078663805000,2.783804931640625,9.874580383300781,1.716252088546753,-0.07776673883199692
1750854078682629600,2.802629638671875,9.850652694702148,1.716252088546753,-0.09690931439399719
1750854078701454300,2.821454345703125,9.635298728942871,1.7497515678405762,-0.2069791555404663
1750854078720278800,2.84027880859375,9.807581901550293,1.654038667678833,-0.18305093050003052
1750854078739103200,2.859103271484375,10.027721405029297,1.6253247261047363,-0.13519448041915894
1750854078757928000,2.877927978515625,10.099506378173828,1.6061822175979614,-0.21655045449733734
1750854078776752400,2.89675244140625,9.92243766784668,1.6061822175979614,-0.3361915946006775
1750854078795577000,2.9155771484375,9.630513191223145,1.7066807746887207,-0.34576287865638733
1750854078814401500,2.934401611328125,9.472586631774902,1.80717933177948,-0.3122633695602417
1750854078833226200,2.953226318359375,9.644869804382324,1.7928223609924316,-0.3888336718082428
1750854078852051000,2.972051025390625,9.903294563293457,1.5487544536590576,-0.12083754688501358
1750854078889699800,3.009699951171875,9.731011390686035,1.1228320598602295,0.6209374666213989
1750854078908524500,3.028524658203125,9.874580383300781,1.1754741668701172,0.6640082597732544
1750854078927349000,3.047348876953125,9.965508460998535,1.3812568187713623,0.5156532526016235
1750854078946173700,3.066173583984375,9.802796363830566,1.1419745683670044,0.9511470198631287
1750854078964998400,3.084998291015625,9.247661590576172,0.9218349456787109,1.4632110595703125
1750854078983822800,3.10382275390625,9.257232666015625,1.103689432144165,1.7934205532073975
1750854079002647300,3.122647216796875,9.92243766784668,1.2903295755386353,1.2574282884597778
1750854079021472000,3.141471923828125,10.185647964477539,1.2185449600219727,0.6448656916618347
1750854079040296400,3.16029638671875,10.085148811340332,1.1419745683670044,0.5060819983482361
1750854079059121200,3.17912109375,9.93679428100586,0.8452646136283875,0.711864709854126
1750854079077945600,3.197945556640625,9.697511672973633,0.4384847581386566,1.0612168312072754
1750854079096770300,3.216770263671875,9.329017639160156,0.5150550603866577,0.9320043921470642
1750854079115594800,3.2355947265625,9.501300811767578,1.0941181182861328,0.2907279431819916
1750854079134419500,3.25441943359375,10.109077453613281,1.256830096244812,-0.6711867451667786
1750854079153244000,3.273243896484375,10.506285667419434,1.1563315391540527,-0.6855437159538269
1750854079172068600,3.292068603515625,10.420144081115723,1.0414760112762451,-0.39840495586395264
1750854079190893000,3.31089306640625,10.04686450958252,1.074975609779358,-0.5611169338226318
1750854079209717800,3.3297177734375,9.783653259277344,1.3573286533355713,-0.9583254456520081
1750854079228542200,3.348542236328125,9.506086349487305,1.7114664316177368,-1.2023934125900269
1750854079247367000,3.367366943359375,9.754940032958984,1.8646070957183838,-1.2263215780258179
1750854079266191400,3.38619140625,9.841081619262695,1.965105652809143,-1.211964726448059
1750854079285016000,3.40501611328125,9.659226417541504,1.811964988708496,-1.0923235416412354
1750854079303840500,3.423840576171875,9.644869804382324,1.9124635457992554,-1.2885349988937378
1750854079322665200,3.442665283203125,9.927223205566406,1.9268203973770142,-1.4225330352783203
1750854079341489700,3.46148974609375,9.367302894592285,1.8454644680023193,-1.3651052713394165
1750854079360314400,3.480314453125,9.080163955688477,1.6588243246078491,-1.0683952569961548
1750854079379138800,3.499138916015625,9.333803176879883,1.3621143102645874,-0.8099704384803772
1750854079397963500,3.517963623046875,9.81236743927002,1.194616675376892,-0.537188708782196
1750854079416788000,3.5367880859375,10.209575653076172,1.2424731254577637,-0.3361915946006775
1750854079435612700,3.55561279296875,10.109077453613281,1.1419745683670044,-0.07776673883199692
1750854079454437000,3.57443701171875,9.707083702087402,0.8883354067802429,0.30508488416671753
1750854079473261800,3.59326171875,9.592227935791016,0.6251249313354492,1.089930772781372
1750854079492086300,3.612086181640625,9.635298728942871,0.4815555512905121,1.4009976387023926
1750854079510911000,3.630910888671875,9.783653259277344,0.615553617477417,1.3100703954696655
1750854079529735400,3.6497353515625,10.267004013061523,0.7974081635475159,1.0133603811264038
1750854079548560000,3.668559814453125,10.319645881652832,0.6825526356697083,0.7357929348945618
1750854079567384600,3.687384521484375,10.28614616394043,0.7160521745681763,0.8267202377319336
1750854079586209300,3.706209228515625,9.89850902557373,0.7447660565376282,0.9942178130149841
1750854079605033700,3.72503369140625,9.635298728942871,0.5772684812545776,1.113858938217163
1750854079623858200,3.743858154296875,10.070792198181152,0.6681957244873047,0.8027920126914978
1750854079642683000,3.762682861328125,10.49671459197998,0.7256234884262085,0.2907279431819916
1750854079661507300,3.78150732421875,10.39621639251709,0.8787640929222107,0.1423729509115219
1750854079680332000,3.80033203125,9.927223205566406,0.9744769930839539,0.49651068449020386
1750854079699156500,3.819156494140625,9.472586631774902,0.7926225066184998,0.8315058946609497
1750854079717981200,3.837981201171875,9.616155624389648,0.6299105882644653,0.8697910308837891
1750854079736805600,3.8568056640625,9.8267240524292,0.7399803996086121,0.43908295035362244
1750854079755630300,3.87563037109375,10.142577171325684,0.9505487680435181,0.12801600992679596
1750854079774454800,3.894454833984375,10.032506942749023,1.0606186389923096,-0.18305093050003052
1750854079793279500,3.913279541015625,9.530014038085938,1.1132607460021973,-0.32183465361595154
1750854079812104000,3.93210400390625,9.31466007232666,1.1276177167892456,0.06580262631177902
1750854079830928600,3.9509287109375,9.711869239807129,1.0510473251342773,0.16151553392410278
1750854079849753000,3.969753173828125,10.252646446228027,1.0223335027694702,-0.02512463741004467
1750854079868577800,3.988577880859375,10.080363273620605,0.9266205430030823,0.02273181453347206
1750854079887402200,4.00740234375,9.759725570678711,1.0701899528503418,-0.4414757788181305
1750854079906226700,4.026226806640625,9.999007225036621,1.2855439186096191,-0.7525427341461182
1750854079925051400,4.045051513671875,10.166504859924316,1.414756417274475,-0.7046862840652466
1750854079943875800,4.063875732421875,9.88415241241455,1.654038667678833,-0.5659025311470032
1750854079962700500,4.082700439453125,9.553942680358887,1.8406788110733032,-0.747757077217102
1750854079981525000,4.10152490234375,9.582656860351562,1.721037745475769,-0.8578268885612488
1750854080000349700,4.120349609375,9.405587196350098,1.7736797332763672,-0.9439685344696045
1750854080019174100,4.139174072265625,9.496515274047852,1.831107497215271,-1.0923235416412354
1750854080037998800,4.157998779296875,9.975079536437988,1.5487544536590576,-0.7621139883995056
1750854080056823300,4.1768232421875,10.152148246765137,1.098903775215149,-0.27397820353507996
1750854080075648000,4.19564794921875,10.02293586730957,0.7447660565376282,0.1423729509115219
1750854080094472400,4.214472412109375,9.807581901550293,1.0510473251342773,-0.11126625537872314
1750854080113297200,4.233297119140625,9.975079536437988,1.2711870670318604,-0.32662028074264526
1750854080132121600,4.25212158203125,10.094720840454102,1.0654042959213257,0.0323031060397625
1750854080150946300,4.2709462890625,10.04686450958252,0.8883354067802429,0.7884350419044495
1750854080169770800,4.289770751953125,9.683155059814453,0.7256234884262085,1.3196417093276978
1750854080188595200,4.30859521484375,9.635298728942871,0.8309076428413391,1.2047861814498901
1750854080207420000,4.327419921875,9.793225288391113,0.9984052777290344,0.7549355626106262
1750854080226244400,4.346244384765625,9.955936431884766,0.8452646136283875,1.0037890672683716
1750854080245069000,4.365069091796875,9.740582466125488,0.7447660565376282,1.3722838163375854
1750854080263893500,4.3838935546875,9.606584548950195,0.8356932997703552,1.5780665874481201
1750854080282718200,4.40271826171875,9.625727653503418,0.7160521745681763,1.5637096166610718
1750854080301542700,4.421542724609375,9.654440879821777,0.6394818425178528,1.3100703954696655
1750854080320367400,4.440367431640625,9.888937950134277,0.529412031173706,0.7932206988334656
1750854080339191800,4.45919189453125,10.204790115356445,0.7208378314971924,0.534795880317688
1750854080358016500,4.4780166015625,10.042078018188477,0.8500502705574036,0.6448656916618347
1750854080376841000,4.496841064453125,9.46301555633545,0.7782655358314514,1.0372886657714844
1750854080395665400,4.51566552734375,9.539586067199707,0.7208378314971924,0.7884350419044495
1750854080414490000,4.534489990234375,9.659226417541504,0.7734799385070801,0.4342973232269287
1750854080433314600,4.553314453125,9.941579818725586,0.8548358678817749,0.10887342691421509
1750854080452139300,4.57213916015625,9.79801082611084,0.9170492887496948,-0.14476576447486877
1750854080470963700,4.590963623046875,9.252447128295898,1.1324033737182617,-0.2835494875907898
1750854080489788400,4.609788330078125,9.429515838623047,1.2951152324676514,-0.589830756187439
1750854080508612900,4.62861279296875,10.238289833068848,1.0462616682052612,-0.32183465361595154
1750854080527437600,4.6474375,10.922636985778809,0.5916253924369812,-0.08733802288770676
1750854080546262000,4.666261962890625,10.501500129699707,0.5581258535385132,0.05623133108019829
1750854080565086700,4.685086669921875,10.137791633605957,0.615553617477417,-0.13519448041915894
1750854080583911200,4.7039111328125,10.243075370788574,0.9744769930839539,-0.900897741317749
1750854080602735600,4.722735595703125,10.343574523925781,1.4195420742034912,-1.23589289188385
1750854080621560300,4.741560302734375,10.377073287963867,1.7306089401245117,-1.4177473783493042
1750854080640384800,4.760384765625,10.334002494812012,1.740180253982544,-1.1162517070770264
1750854080659209500,4.77920947265625,10.295717239379883,1.591825246810913,-0.8147560954093933
1750854080678034000,4.798033935546875,9.381659507751465,1.5152549743652344,-0.7190431952476501
1750854080696858600,4.816858642578125,9.166305541992188,1.587039589881897,-1.0301101207733154
1750854080715683000,4.83568310546875,9.506086349487305,1.5774682760238647,-0.9966106414794922
1750854080734507800,4.8545078125,9.731011390686035,1.3860424757003784,-0.7094719409942627
1750854080753332200,4.873332275390625,9.678369522094727,0.9170492887496948,0.16151553392410278
1750854080772157000,4.892156982421875,9.376873970031738,0.5485545992851257,1.0325030088424683
1750854080790981400,4.9109814453125,9.309874534606934,0.47676992416381836,1.0947163105010986
1750854080809805800,4.929805908203125,9.635298728942871,0.5964110493659973,0.7836494445800781
1750854080828630500,4.948630615234375,9.81236743927002,0.5724828243255615,0.7836494445800781
1750854080847455000,4.967455078125,10.013364791870117,0.18484555184841156,1.26699960231781
1750854080866279700,4.98627978515625,10.176076889038086,-0.0687936544418335,1.8699909448623657
1750854080885104000,5.005104248046875,9.989436149597168,-0.01136590726673603,2.0135602951049805
1750854080903928800,5.0239287109375,9.999007225036621,0.026919255033135414,1.7790635824203491
1750854080922753300,5.042753173828125,9.769296646118164,-0.11186445504426956,1.5206388235092163
1750854080941578000,5.061577880859375,9.754940032958984,-0.030508488416671753,1.4871392250061035
1750854080960402400,5.08040234375,9.865009307861328,-0.08315058797597885,1.5876377820968628
1750854080979227100,5.09922705078125,10.013364791870117,-0.025722842663526535,1.6067804098129272
1750854080998051600,5.118051513671875,10.415358543395996,-0.5042873620986938,1.333998680114746
1750854081016876000,5.1368759765625,10.204790115356445,-0.5042873620986938,1.046859860420227
1750854081035700700,5.15570068359375,10.00857925415039,0.23270200192928314,0.23330020904541016
1750854081054525200,5.174525146484375,9.89850902557373,1.1994023323059082,-1.0205388069152832
1750854081073350000,5.193349853515625,9.319445610046387,1.6827524900436401,-0.9678967595100403
1750854081092174300,5.21217431640625,9.443872451782227,1.414756417274475,-0.13998012244701385
1750854081110999000,5.2309990234375,9.530014038085938,1.0606186389923096,0.08015955984592438
1750854081129823500,5.249823486328125,10.113862991333008,1.2472587823867798,-1.1162517070770264
1750854081148648200,5.268648193359375,10.113862991333008,1.4482558965682983,-1.6091731786727905
1750854081167472600,5.28747265625,10.195219039916992,1.4434702396392822,-1.1210373640060425
1750854081186297000,5.306297119140625,10.142577171325684,1.4291132688522339,-0.5132604837417603
1750854081205121800,5.325121826171875,9.951150894165039,1.7497515678405762,-0.8147560954093933
1750854081223946200,5.3439462890625,9.697511672973633,1.6588243246078491,-1.322034478187561
1750854081242771000,5.36277099609375,9.458230018615723,1.567897081375122,-1.4943177700042725
1750854081261595400,5.381595458984375,9.405587196350098,1.721037745475769,-1.5182459354400635
1750854081280420000,5.400420166015625,9.850652694702148,1.80717933177948,-1.5086746215820312
1750854081299244500,5.41924462890625,10.324431419372559,1.677966833114624,-1.4608181715011597
1750854081318069000,5.438069091796875,10.14736270904541,1.3621143102645874,-1.3938192129135132
1750854081336893700,5.456893798828125,9.783653259277344,1.414756417274475,-1.3698909282684326
1750854081355718100,5.47571826171875,9.78843879699707,1.3764712810516357,-1.0061819553375244
1750854081374542800,5.49454296875,10.13300609588623,1.0941181182861328,-0.6951149702072144
1750854081393367300,5.5133671875,10.080363273620605,0.7974081635475159,-0.18783657252788544
1750854081412192000,5.53219189453125,9.769296646118164,0.5150550603866577,0.3529413342475891
1750854081431016400,5.551016357421875,9.582656860351562,0.4097708761692047,0.5060819983482361
1750854081449841200,5.569841064453125,9.46301555633545,0.5485545992851257,0.5635097622871399
1750854081468665600,5.58866552734375,9.501300811767578,0.6969096064567566,0.5970092415809631
1750854081487490000,5.607489990234375,9.821938514709473,0.7926225066184998,0.5491527915000916
1750854081506314800,5.626314697265625,9.692726135253906,0.7543373107910156,1.1234302520751953
1750854081525139200,5.64513916015625,9.262018203735352,0.4289134442806244,1.9609181880950928
1750854081543964000,5.6639638671875,9.30030345916748,0.5772684812545776,2.128415822982788
1750854081562788400,5.682788330078125,9.654440879821777,0.6538388133049011,1.8556339740753174
1750854081581613000,5.701613037109375,9.92243766784668,0.6299105882644653,1.195214867591858
1750854081600437500,5.7204375,10.003793716430664,0.5916253924369812,0.8171489238739014
1750854081619262000,5.739261962890625,10.00857925415039,0.41934216022491455,0.6017948985099792
1750854081638086700,5.758086669921875,10.295717239379883,0.357128769159317,0.4247260093688965
1750854081656911000,5.7769111328125,10.539785385131836,0.29012975096702576,0.3720839321613312
1750854081675735800,5.79573583984375,10.501500129699707,0.29012975096702576,0.41994038224220276
1750854081694560300,5.814560302734375,10.00857925415039,0.5102694034576416,0.15194423496723175
1750854081713385000,5.833385009765625,9.77408218383789,0.6729813814163208,-0.3409772217273712
1750854081732209400,5.85220947265625,9.520442962646484,0.7878368496894836,-0.9822536706924438
1750854081751034000,5.8710341796875,9.750154495239258,1.0606186389923096,-1.0971091985702515
1750854081769858600,5.889858642578125,10.156933784484863,1.2711870670318604,-0.98703932762146
1750854081788683000,5.90868310546875,10.343574523925781,1.1371889114379883,-0.6329016089439392
1750854081807507700,5.9275078125,10.453643798828125,0.7926225066184998,-0.6089733839035034
1750854081826332200,5.946332275390625,10.377073287963867,0.9505487680435181,-0.9822536706924438
1750854081845156900,5.965156982421875,9.68794059753418,1.1611171960830688,-1.451246976852417
1750854081863981300,5.983981201171875,9.42473030090332,1.5822539329528809,-1.3698909282684326
1750854081882806000,6.002805908203125,9.510871887207031,1.5487544536590576,-0.98703932762146
1750854081901630500,6.02163037109375,9.831509590148926,1.4578272104263306,-0.9726824164390564
1750854081920455200,6.040455078125,10.439287185668945,1.472184181213379,-1.2789636850357056
1750854081939279600,6.059279541015625,10.37228775024414,1.4291132688522339,-1.6761722564697266
1750854081958104000,6.07810400390625,9.31466007232666,1.4673985242843628,-1.3746765851974487
1750854081976928800,6.0969287109375,8.692526817321777,1.4434702396392822,-0.6759724020957947
1750854081995753200,6.115753173828125,8.821739196777344,1.1180464029312134,-0.1495514214038849
1750854082014578000,6.134577880859375,9.692726135253906,0.7782655358314514,0.07537391036748886
1750854082033402400,6.15340234375,10.180862426757812,0.6825526356697083,-0.2309073805809021
1750854082052226800,6.172226806640625,10.051650047302246,0.6586244106292725,-0.24047867953777313
1750854082071051500,6.191051513671875,10.094720840454102,0.4576273262500763,0.2189432680606842
1750854082089876000,6.2098759765625,9.888937950134277,0.33798620104789734,0.6592226624488831
1750854082108700700,6.22870068359375,9.429515838623047,0.4863412082195282,1.0660024881362915
1750854082127525000,6.247525146484375,9.319445610046387,0.7495517134666443,1.1665010452270508
1750854082146349800,6.266349853515625,9.448657989501953,0.5964110493659973,1.0612168312072754
1750854082165174300,6.28517431640625,9.678369522094727,0.251844584941864,1.089930772781372
1750854082183998700,6.303998779296875,10.042078018188477,0.18484555184841156,1.171286702156067
1750854082202823400,6.322823486328125,10.2478609085083,0.251844584941864,1.1521440744400024
1750854082221648000,6.34164794921875,10.295717239379883,0.18484555184841156,1.1569297313690186
1750854082240472600,6.36047265625,10.324431419372559,0.050847481936216354,1.113858938217163
1750854082259297000,6.379297119140625,10.563714027404785,-0.03529413416981697,0.7932206988334656
1750854082278121700,6.398121826171875,10.080363273620605,0.09391828626394272,0.5204389095306396
1750854082296946200,6.4169462890625,9.654440879821777,0.7160521745681763,0.50129634141922
1750854082315770600,6.4357705078125,9.664012908935547,1.0510473251342773,0.0849452018737793
1750854082334595300,6.45459521484375,9.668798446655273,1.103689432144165,-0.2021935135126114
1750854082353419800,6.473419677734375,10.204790115356445,0.9409775137901306,-0.4654040038585663
1750854082372244500,6.492244384765625,10.444072723388672,0.7734799385070801,-0.6759724020957947
1750854082391069000,6.51106884765625,9.89850902557373,0.5533402562141418,-0.364905446767807
1750854082409893600,6.5298935546875,9.678369522094727,0.8548358678817749,-0.21655045449733734
1750854082428718000,6.548718017578125,9.558728218078613,1.472184181213379,-0.7238288521766663
1750854082447542500,6.56754248046875,9.711869239807129,1.8215361833572388,-1.293320655822754
1750854082466367200,6.5863671875,9.740582466125488,1.8837496042251587,-1.317248821258545
1750854082485191700,6.605191650390625,9.759725570678711,1.8693926334381104,-1.2646067142486572
1750854082504016400,6.624016357421875,9.817152976989746,1.8023936748504639,-1.2167502641677856
1750854082522840800,6.6428408203125,10.003793716430664,1.5774682760238647,-1.164108157157898
1750854082541665500,6.66166552734375,10.185647964477539,1.7880367040634155,-1.4368900060653687
1750854082560490000,6.680489990234375,9.802796363830566,1.893320918083191,-1.3986048698425293
1750854082579314400,6.699314453125,9.22851848602295,1.5104693174362183,-0.9487541913986206
1750854082598139100,6.71813916015625,9.467801094055176,1.1802598237991333,-0.8961120843887329
1750854082616963600,6.736963623046875,9.817152976989746,1.0558329820632935,-1.0971091985702515
1750854082635788300,6.755788330078125,10.066006660461426,0.7734799385070801,-0.8482556343078613
1750854082654612700,6.77461279296875,10.14736270904541,0.5054838061332703,-0.10648060590028763
1750854082673437400,6.7934375,9.951150894165039,0.45284169912338257,0.4821537733078003
1750854082692262000,6.812261962890625,9.46301555633545,0.3762713670730591,0.6879364848136902
1750854082711086300,6.83108642578125,9.400801658630371,0.4049852192401886,0.7740781307220459
1750854082729911000,6.8499111328125,9.592227935791016,0.4289134442806244,0.9080761671066284
1750854082748735500,6.868735595703125,9.711869239807129,0.30927231907844543,1.2813565731048584
1750854082767560200,6.887560302734375,10.37228775024414,0.18005990982055664,1.6067804098129272
1750854082786384600,6.906384521484375,10.85563850402832,0.05563312768936157,1.5876377820968628
1750854082805209000,6.925208984375,10.420144081115723,0.13698910176753998,1.8077775239944458
1750854082824033800,6.94403369140625,9.754940032958984,0.3188436031341553,1.812563180923462
1750854082842858200,6.962858154296875,9.635298728942871,0.18005990982055664,1.7599210739135742
1750854082861683000,6.981682861328125,10.032506942749023,0.06520441919565201,1.592423439025879
1750854082880507400,7.00050732421875,10.233504295349121,0.18484555184841156,1.2478569746017456
1750854082899332000,7.01933203125,9.697511672973633,0.5724828243255615,0.8554341197013855
1750854082918156500,7.038156494140625,9.482157707214355,0.5772684812545776,0.41515472531318665
1750854082936981000,7.05698095703125,9.252447128295898,0.529412031173706,0.3002992272377014
1750854082955805700,7.0758056640625,9.037093162536621,0.9601200819015503,-0.11605189740657806
1750854082974630100,7.094630126953125,9.592227935791016,1.3094722032546997,-0.4749752879142761
1750854082993454800,7.113454833984375,9.965508460998535,1.2329018115997314,-0.5324030518531799
1750854083012279300,7.132279296875,10.338788032531738,1.3908281326293945,-0.8243274092674255
1750854083031104000,7.15110400390625,10.477572441101074,1.6875381469726562,-1.537388563156128
1750854083049928400,7.169928466796875,10.00857925415039,1.7353945970535278,-1.4225330352783203
1750854083068753000,7.1887529296875,9.70229721069336,1.5343974828720093,-0.9726824164390564
1750854083087577600,7.20757763671875,9.678369522094727,1.5439687967300415,-0.9822536706924438
1750854083106402000,7.226402099609375,10.00857925415039,1.7593228816986084,-1.8436698913574219
1750854083125226800,7.245226806640625,10.238289833068848,1.6444673538208008,-2.0685951709747314
1750854083144051200,7.26405126953125,10.25743293762207,1.673181176185608,-1.934597134590149
1750854083162875600,7.282875732421875,10.113862991333008,1.8454644680023193,-1.9489539861679077
1750854083181700400,7.301700439453125,9.659226417541504,1.7641085386276245,-1.805384635925293
1750854083200524800,7.32052490234375,9.908080101013184,1.4865410327911377,-1.3411771059036255
1750854083219349500,7.339349609375,9.951150894165039,1.1276177167892456,-0.9439685344696045
1750854083238174000,7.358174072265625,9.343374252319336,0.8979067206382751,-0.5515456199645996
1750854083256998700,7.37699853515625,9.080163955688477,0.9266205430030823,-0.3314059376716614
1750854083275823000,7.395822998046875,9.305088996887207,0.7016952633857727,-0.0011964113218709826
1750854083294647600,7.4146474609375,9.477372169494629,0.1657029688358307,0.486939400434494
1750854083313472300,7.43347216796875,9.903294563293457,-0.21714866161346436,1.1330015659332275
1750854083332296700,7.452296630859375,9.845867156982422,-0.16450655460357666,1.5014961957931519
1750854083351121400,7.471121337890625,9.802796363830566,0.24227328598499298,0.9702895879745483
1750854083369945900,7.48994580078125,9.893723487854004,0.5389832854270935,0.898504912853241
1750854083388770300,7.508770263671875,10.013364791870117,0.23748764395713806,1.1425727605819702
1750854083407595000,7.527594970703125,10.190433502197266,0.26620152592658997,1.5158531665802002
1750854083426419500,7.54641943359375,10.353145599365234,0.3044866919517517,2.018345832824707
1750854083445244200,7.565244140625,10.080363273620605,0.24227328598499298,1.994417667388916
1750854083464068600,7.584068603515625,9.601799011230469,-0.13100704550743103,1.8747764825820923
1750854083482893000,7.60289306640625,9.515657424926758,0.06041877344250679,1.0325030088424683
1750854083501717800,7.6217177734375,9.845867156982422,0.11306086927652359,0.49172505736351013
1750854083520542200,7.640542236328125,10.477572441101074,0.050847481936216354,0.3577269911766052
1750854083539367000,7.659366943359375,10.539785385131836,0.20877377688884735,0.4486542344093323
1750854083558191400,7.67819140625,10.056435585021973,0.6059823632240295,0.6448656916618347
1750854083577015800,7.697015869140625,10.334002494812012,0.859621524810791,0.6352944374084473
1750854083595840500,7.715840576171875,10.209575653076172,1.0079765319824219,0.04187439754605293
1750854083614665000,7.7346650390625,9.510871887207031,1.342971682548523,-0.7956135272979736
1750854083633489700,7.75348974609375,9.247661590576172,1.7114664316177368,-1.8532410860061646
1750854083652314000,7.772314208984375,9.539586067199707,1.7593228816986084,-1.3363914489746094
1750854083671138800,7.791138916015625,9.893723487854004,1.563111424446106,-0.3696911036968231
1750854083689963300,7.80996337890625,10.592427253723145,1.5200406312942505,-0.35054850578308105
1750854083708787700,7.82878759765625,10.60678482055664,1.5152549743652344,-1.0396814346313477
1750854083727612400,7.8476123046875,9.783653259277344,1.654038667678833,-1.4799607992172241
1750854083746436900,7.866436767578125,9.10409164428711,1.6253247261047363,-1.2693923711776733
1750854083765261600,7.885261474609375,9.515657424926758,1.7258232831954956,-1.058824062347412
1750854083784086000,7.9040859375,10.089935302734375,1.5726827383041382,-0.7668996453285217
1750854083802910500,7.922910400390625,10.420144081115723,1.3956137895584106,-0.8721838593482971
1750854083821735200,7.941735107421875,10.109077453613281,1.3908281326293945,-1.3028919696807861
1750854083840559600,7.9605595703125,9.793225288391113,1.5343974828720093,-1.1210373640060425
1750854083859384300,7.97938427734375,9.147162437438965,1.2616157531738281,-0.259621262550354
1750854083878208800,7.998208740234375,8.659027099609375,1.189831018447876,0.33379876613616943
1750854083897033200,8.017033203125,8.582456588745117,1.1276177167892456,0.5443671345710754
1750854083915858000,8.03585791015625,8.984451293945312,0.7782655358314514,0.43908295035362244
1750854083934682400,8.054682373046875,9.697511672973633,0.3858426511287689,0.18544375896453857
1750854083953507000,8.073507080078125,10.99442195892334,0.012562318705022335,-0.010767702013254166
1750854083972331500,8.09233154296875,11.851052284240723,-0.355932354927063,0.6783652305603027
1750854083991156000,8.111156005859375,11.195419311523438,-0.025722842663526535,1.0707881450653076
1750854084009980700,8.129980712890625,9.802796363830566,0.5437689423561096,1.2191431522369385
1750854084028805000,8.14880517578125,8.802596092224121,0.649053156375885,1.4679967164993286
1750854084047629800,8.1676298828125,8.812167167663574,0.649053156375885,1.7455641031265259
1750854084066454300,8.186454345703124,9.534799575805664,0.7543373107910156,1.415354609489441
1750854084085278700,8.20527880859375,10.142577171325684,0.3475574851036072,1.3674981594085693
1750854084104103400,8.224103515625,10.42492961883545,-0.18843477964401245,1.4009976387023926
1750854084122927900,8.242927978515626,10.238289833068848,0.03170489892363548,0.9176474809646606
1750854084141752600,8.261752685546876,9.831509590148926,0.45284169912338257,0.7740781307220459
1750854084160577000,8.280576904296876,9.70229721069336,0.7208378314971924,0.5395814776420593
1750854084179401700,8.299401611328125,9.711869239807129,0.5964110493659973,0.6017948985099792
1750854084198226200,8.31822607421875,9.238089561462402,0.357128769159317,0.3194418251514435
1750854084217050600,8.337050537109375,9.635298728942871,0.26141586899757385,-0.13519448041915894
1750854084235875300,8.355875244140625,10.219147682189941,0.24227328598499298,-0.13998012244701385
1750854084254699800,8.37469970703125,10.625926971435547,0.4336991012096405,-0.40797626972198486
1750854084273524500,8.3935244140625,10.420144081115723,0.6825526356697083,-0.5802595019340515
1750854084292349000,8.412348876953125,10.075577735900879,1.170688509941101,-1.2406785488128662
1750854084311173400,8.43117333984375,9.821938514709473,1.4195420742034912,-1.8771693706512451
1750854084329998000,8.449998046875,9.759725570678711,1.500898003578186,-1.695314884185791
1750854084348822500,8.468822509765625,9.927223205566406,1.5391831398010254,-1.2263215780258179
1750854084367647000,8.48764697265625,10.056435585021973,1.5966109037399292,-1.058824062347412
1750854084386471700,8.5064716796875,10.238289833068848,1.5343974828720093,-1.3507484197616577
1750854084405296000,8.525296142578124,10.649855613708496,1.4578272104263306,-1.9872392416000366
1750854084424120800,8.544120849609374,11.023136138916016,1.2711870670318604,-2.255235433578491
1750854084442945300,8.5629453125,10.673783302307129,1.0510473251342773,-1.6426727771759033
1750854084461769700,8.581769775390624,9.54915714263916,0.7495517134666443,-0.6711867451667786
1750854084480594400,8.600594482421876,8.625527381896973,0.6634100675582886,0.137587308883667
1750854084499419000,8.6194189453125,8.802596092224121,0.8069794178009033,0.3481557071208954
1750854084518243600,8.63824365234375,9.33858871459961,0.8979067206382751,0.11844471842050552
1750854084537068000,8.657068115234376,9.64965534210205,0.47198426723480225,0.18065811693668365
1750854084555892500,8.675892578125,9.491728782653809,-0.15972091257572174,0.9942178130149841
1750854084574717200,8.69471728515625,9.592227935791016,-0.48514479398727417,1.4775680303573608
1750854084593541600,8.713541748046875,9.673583984375,-0.04486542567610741,1.659422516822815
1750854084612366300,8.732366455078125,9.419944763183594,0.3523431420326233,1.2765709161758423
1750854084631190800,8.751190673828125,9.242876052856445,0.582054078578949,1.1186445951461792
1750854084650015200,8.77001513671875,9.77408218383789,0.23748764395713806,1.4967105388641357
1750854084668840000,8.78883984375,10.444072723388672,-0.20757736265659332,1.932204246520996
1750854084687664400,8.807664306640625,10.429716110229492,-0.3320041298866272,2.11405873298645
1750854084706489000,8.826489013671875,9.951150894165039,-0.6047859191894531,2.17627215385437
1750854084725313500,8.8453134765625,10.051650047302246,-0.6909275650978088,1.7312071323394775
1750854084744138000,8.864137939453125,10.324431419372559,-0.5042873620986938,1.2861422300338745
1750854084762962700,8.882962646484375,10.377073287963867,-0.11186445504426956,1.1042876243591309
1750854084781787100,8.901787109375,10.204790115356445,0.20877377688884735,1.2957134246826172
1750854084800611800,8.92061181640625,9.793225288391113,0.26620152592658997,1.3435698747634888
1750854084819436300,8.939436279296874,10.123434066772461,0.5246263742446899,-0.17347964644432068
1750854084838260700,8.9582607421875,10.429716110229492,0.7974081635475159,-0.9774680733680725
1750854084857085400,8.97708544921875,9.8267240524292,0.6203392744064331,-0.45583271980285645
1750854084875910000,8.995909912109376,9.262018203735352,0.7160521745681763,0.2763710021972656
1750854084894734600,9.014734619140626,8.936594009399414,0.9170492887496948,0.5395814776420593
1750854084913559000,9.03355908203125,9.515657424926758,1.347757339477539,-0.5611169338226318
1750854084932383500,9.052383544921875,10.080363273620605,1.2711870670318604,-1.6761722564697266
1750854084951208200,9.071208251953125,10.123434066772461,1.012762188911438,-1.231107234954834
1750854084970032600,9.09003271484375,10.123434066772461,1.170688509941101,-0.37926238775253296
1750854084988857000,9.108857177734375,10.085148811340332,1.4291132688522339,-0.24047867953777313
1750854085007681800,9.127681884765625,10.056435585021973,1.3908281326293945,-0.8243274092674255
1750854085026506200,9.14650634765625,9.88415241241455,1.036690354347229,-1.3028919696807861
1750854085045331000,9.1653310546875,10.281360626220703,1.2281162738800049,-1.412961721420288
1750854085064155400,9.1841552734375,10.281360626220703,1.1754741668701172,-1.0444670915603638
1750854085082979800,9.202979736328125,9.740582466125488,0.8835497498512268,-0.6903293132781982
1750854085111216600,9.231216552734375,9.721440315246582,0.9218349456787109,-0.7238288521766663
1750854085130041300,9.250041259765625,9.726225852966309,0.7208378314971924,-0.5802595019340515
1750854085148865800,9.26886572265625,8.989236831665039,0.42412781715393066,-0.06819544732570648
1750854085167690500,9.2876904296875,9.266803741455078,0.05563312768936157,0.1663011759519577
1750854085186515000,9.306514892578125,9.515657424926758,-0.6622136831283569,1.0707881450653076
1750854085205339400,9.32533935546875,9.510871887207031,-1.1407781839370728,1.8604196310043335
1750854085224164000,9.3441640625,9.711869239807129,-1.2843475341796875,1.8460626602172852
1750854085242988500,9.362988525390625,9.726225852966309,-0.9158528447151184,1.817348837852478
1750854085261813000,9.38181298828125,9.89850902557373,-0.32243284583091736,1.8221344947814941
1750854085280637700,9.4006376953125,9.453444480895996,0.3236292600631714,1.8460626602172852
1750854085299462100,9.419462158203125,9.754940032958984,-0.14057832956314087,2.4873390197753906
1750854085318286800,9.438286865234375,10.601999282836914,-0.2267199456691742,2.616551637649536
1750854085337111300,9.457111328125,10.817353248596191,-0.23629122972488403,2.4538395404815674
1750854085355936000,9.47593603515625,10.554142951965332,-0.0687936544418335,1.750349760055542
1750854085374760400,9.494760498046874,10.702497482299805,-0.3607180118560791,1.3387842178344727
1750854085393585000,9.5135849609375,10.697711944580078,-0.48035913705825806,1.534995675086975
1750854085412409600,9.53240966796875,10.357931137084961,-0.21236300468444824,1.3244273662567139
1750854085431234000,9.551234130859376,9.817152976989746,0.06041877344250679,0.7166503667831421
1750854085450058500,9.57005859375,9.31466007232666,0.19920247793197632,0.4103690981864929
1750854085468883200,9.58888330078125,9.290732383728027,0.4384847581386566,-0.9678967595100403
1750854085487707600,9.607707763671876,9.759725570678711,0.768694281578064,-1.9489539861679077
1750854085506532400,9.626532470703125,9.89850902557373,0.9984052777290344,-1.0875378847122192
1750854085525356800,9.645356689453125,9.64965534210205,1.3860424757003784,-0.18305093050003052
1750854085544181200,9.66418115234375,9.558728218078613,1.7306089401245117,-0.5611169338226318
1750854085563006000,9.683005859375,10.152148246765137,1.8215361833572388,-1.872383713722229
1750854085581830400,9.701830322265625,9.793225288391113,1.5726827383041382,-2.465803623199463
1750854085600655000,9.720655029296875,9.951150894165039,1.3334003686904907,-1.8771693706512451
1750854085619479600,9.7394794921875,10.453643798828125,1.4865410327911377,-1.0444670915603638
1750854085638304000,9.758303955078125,10.319645881652832,1.4530415534973145,-0.623330295085907
1750854085657128700,9.777128662109375,10.27178955078125,1.3764712810516357,-1.144965648651123
1750854085675953200,9.795953125,10.28614616394043,1.2759727239608765,-1.6618152856826782
1750854085694777600,9.814777587890624,9.668798446655273,1.2041879892349243,-1.5708880424499512
1750854085713602300,9.833602294921874,9.147162437438965,1.0510473251342773,-1.1018948554992676
1750854085732426800,9.8524267578125,9.252447128295898,1.1563315391540527,-0.776470959186554
1750854085751251500,9.87125146484375,9.640084266662598,1.1276177167892456,-0.015553346835076809
1750854085770076000,9.890075927734374,9.477372169494629,0.8787640929222107,0.534795880317688
1750854085788900400,9.908900390625,9.151947975158691,0.5629115104675293,0.5108676552772522
1750854085807725000,9.92772509765625,9.348159790039062,0.4289134442806244,0.5060819983482361
1750854085826549500,9.946549560546876,9.386445045471191,0.4624129831790924,0.8410771489143372
1750854085845374000,9.9653740234375,10.113862991333008,0.3188436031341553,1.290927767753601
1750854085864198700,9.98419873046875,10.654641151428223,0.12263216078281403,1.8939191102981567
1750854085883023000,10.003023193359375,9.740582466125488,-0.32721850275993347,2.5591237545013428
1750854085901847800,10.021847900390625,9.147162437438965,-0.08315058797597885,2.750549554824829
1750854085920672300,10.04067236328125,9.802796363830566,0.3475574851036072,2.0709879398345947
1750854085939496700,10.05949658203125,10.386645317077637,0.4815555512905121,1.3148560523986816
1750854085958321400,10.0783212890625,10.310074806213379,0.3332005441188812,1.3100703954696655
1750854085977145900,10.097145751953125,10.357931137084961,0.3523431420326233,1.4919248819351196
1750854085995970300,10.11597021484375,10.39621639251709,0.01734796352684498,1.3914263248443604
1750854086014795000,10.134794921875,10.353145599365234,-0.006580262444913387,0.9176474809646606
1750854086033619500,10.153619384765625,9.783653259277344,0.13698910176753998,0.5060819983482361
1750854086052444200,10.172444091796875,9.405587196350098,0.30927231907844543,0.5730810165405273
1750854086071268600,10.1912685546875,9.281160354614258,0.4624129831790924,0.6209374666213989
1750854086090093000,10.210093017578124,9.640084266662598,0.7399803996086121,-0.0011964113218709826
1750854086108917800,10.228917724609374,9.759725570678711,0.8404789566993713,-0.5228317379951477
1750854086127742200,10.2477421875,9.558728218078613,0.6969096064567566,-0.4941178858280182
1750854086146566700,10.266566650390626,9.544371604919434,0.6921239495277405,-0.16869398951530457
1750854086165391400,10.285391357421876,10.401001930236816,0.9074779748916626,-0.6041877269744873
1750854086184215800,10.3042158203125,11.090134620666504,0.8787640929222107,-1.1545369625091553
1750854086203040500,10.32304052734375,10.889137268066406,0.9505487680435181,-0.9774680733680725
1750854086221865000,10.341864990234376,9.93679428100586,1.3046865463256836,-0.8434699773788452
1750854086240689400,10.360689453125,9.21416187286377,1.6444673538208008,-1.3268201351165771
1750854086259514000,10.37951416015625,8.869595527648926,1.6875381469726562,-1.077966570854187
1750854086278338600,10.398338623046875,9.683155059814453,1.6875381469726562,-1.23589289188385
1750854086297163000,10.4171630859375,10.491929054260254,1.4291132688522339,-1.2693923711776733
1750854086315987700,10.43598779296875,10.62114143371582,1.0079765319824219,-1.2789636850357056
1750854086334812200,10.454812255859375,9.999007225036621,0.6394818425178528,-1.0875378847122192
1750854086353636900,10.473636962890625,9.491728782653809,0.6681957244873047,-0.9152546525001526
1750854086372461300,10.49246142578125,9.654440879821777,0.8835497498512268,-0.40319061279296875
1750854086391285800,10.51128564453125,9.376873970031738,0.9409775137901306,0.0323031060397625
1750854086410110500,10.5301103515625,9.553942680358887,0.97926265001297,0.15672987699508667
1750854086428935000,10.548934814453125,9.520442962646484,0.7016952633857727,0.36251261830329895
1750854086447759400,10.56775927734375,9.333803176879883,0.1178465187549591,0.9224331378936768
1750854086466584000,10.586583984375,9.731011390686035,-0.025722842663526535,1.1617153882980347
1750854086485408500,10.605408447265624,10.420144081115723,0.1944168359041214,0.9942178130149841
1750854086504233200,10.624233154296874,10.109077453613281,0.4576273262500763,1.1186445951461792
1750854086523057700,10.6430576171875,9.501300811767578,0.5676971673965454,1.5493526458740234
1750854086541882000,10.661882080078126,9.534799575805664,0.42412781715393066,1.6546368598937988
1750854086560706800,10.680706787109376,9.807581901550293,-0.06400800496339798,2.190629243850708
1750854086579531300,10.69953125,9.999007225036621,0.12741780281066895,2.372483730316162
1750854086598355700,10.718355712890625,10.128219604492188,0.26141586899757385,2.5782663822174072
1750854086617180400,10.737180419921875,10.176076889038086,0.01734796352684498,2.36291241645813
1750854086636004900,10.7560048828125,10.353145599365234,-0.16450655460357666,1.6498512029647827
1750854086654829600,10.77482958984375,10.41057300567627,-0.3320041298866272,1.0755738019943237
1750854086673654000,10.793654052734375,9.965508460998535,-0.34636107087135315,1.089930772781372
1750854086692478500,10.812478515625,9.946365356445312,0.026919255033135414,1.0803594589233398
1750854086711303200,10.83130322265625,10.14736270904541,0.47198426723480225,0.6209374666213989
1750854086730127600,10.850127685546875,10.109077453613281,0.6729813814163208,0.13280165195465088
1750854086748952000,10.8689521484375,9.932008743286133,0.7639086246490479,-0.3888336718082428
1750854086767776800,10.88777685546875,9.443872451782227,0.859621524810791,-0.5946164131164551
1750854086786601200,10.906601318359375,9.965508460998535,1.3908281326293945,-0.7668996453285217
1750854086805425700,10.92542578125,10.099506378173828,1.3142578601837158,-0.2548356056213379
1750854086824250400,10.94425048828125,9.635298728942871,1.1371889114379883,-0.27397820353507996
1750854086843074800,10.96307470703125,9.419944763183594,1.4482558965682983,-1.3459627628326416
1750854086861899500,10.9818994140625,9.501300811767578,1.9411773681640625,-2.0781664848327637
1750854086880724000,11.000723876953124,9.491728782653809,2.0033907890319824,-1.848455548286438
1750854086899548400,11.01954833984375,9.4390869140625,1.6444673538208008,-1.0013962984085083
1750854086918373000,11.038373046875,9.745368003845215,1.252044439315796,-0.40319061279296875
1750854086937197600,11.057197509765626,10.27178955078125,1.0845468044281006,-0.8003991842269897
1750854086956022000,11.07602197265625,10.171290397644043,1.036690354347229,-1.2741780281066895
1750854086974846700,11.0948466796875,9.831509590148926,1.0893324613571167,-1.4177473783493042
1750854086993671200,11.113671142578125,9.707083702087402,1.0319048166275024,-1.0205388069152832
1750854087012496000,11.132495849609375,9.611370086669922,0.7974081635475159,-0.2356930375099182
1750854087031320300,11.1513203125,9.22851848602295,0.7256234884262085,0.5252245664596558
1750854087050144800,11.170144775390625,9.295517921447754,0.5868397355079651,0.9320043921470642
1750854087068969500,11.188969482421875,9.281160354614258,0.33798620104789734,0.7692924737930298
1750854087087794000,11.2077939453125,9.30030345916748,-0.0975075215101242,0.7645068168640137
1750854087106618400,11.226618408203125,9.869794845581055,-0.542572557926178,1.1186445951461792
1750854087125443000,11.245443115234375,10.458429336547852,-0.5617151260375977,2.1954147815704346
1750854087144267500,11.264267578125,10.865209579467773,-0.3128615617752075,2.740978240966797
1750854087163092000,11.283092041015625,10.99442195892334,-0.24107688665390015,2.286342144012451
1750854087181916700,11.301916748046875,10.391430854797363,-0.15493527054786682,2.0374884605407715
1750854087200741000,11.3207412109375,9.616155624389648,0.022133609279990196,1.994417667388916
1750854087219565800,11.33956591796875,9.592227935791016,-0.09272187948226929,1.8795621395111084
1750854087238390300,11.358390380859374,10.070792198181152,-0.19322042167186737,1.750349760055542
1750854087257214700,11.377214599609376,10.453643798828125,-0.28893333673477173,1.6498512029647827
1750854087276039400,11.396039306640626,10.750353813171387,-0.1740778535604477,1.755135416984558
1750854087294864000,11.41486376953125,10.262218475341797,-0.04486542567610741,1.1425727605819702
1750854087313688300,11.433688232421876,9.57787036895752,0.29012975096702576,0.2907279431819916
1750854087332513000,11.452512939453126,9.123234748840332,0.6442674994468689,-0.16390834748744965
1750854087351337500,11.47133740234375,9.161520004272461,0.5964110493659973,0.08015955984592438
1750854087370162000,11.490161865234375,9.419944763183594,0.8787640929222107,0.30508488416671753
1750854087388986600,11.508986572265625,9.869794845581055,1.0223335027694702,-0.3409772217273712
1750854087407811000,11.52781103515625,10.525428771972656,1.256830096244812,-1.5182459354400635
1750854087426635800,11.5466357421875,10.200004577636719,1.4243277311325073,-1.872383713722229
1750854087445460200,11.565460205078125,9.673583984375,1.5296118259429932,-1.4799607992172241
1750854087464284700,11.58428466796875,9.606584548950195,1.4817553758621216,-0.7956135272979736
1750854087483109400,11.603109375,9.597013473510742,1.409970760345459,-0.9056833982467651
1750854087501933800,11.621933837890625,9.348159790039062,1.4913266897201538,-1.5182459354400635
1750854087520758300,11.64075830078125,9.56351375579834,1.5056836605072021,-2.231307029724121
1750854087539583000,11.6595830078125,10.243075370788574,1.4530415534973145,-1.95852530002594
1750854087558407400,11.678407470703124,10.305289268493652,1.252044439315796,-1.1880364418029785
1750854087577232000,11.69723193359375,10.276575088500977,1.170688509941101,-0.7286145091056824
1750854087596056600,11.716056640625,10.204790115356445,1.3716856241226196,-1.0253244638442993
1750854087614881000,11.734881103515624,9.4390869140625,1.409970760345459,-0.8913264274597168
1750854087633705700,11.753705810546874,9.056235313415527,1.0654042959213257,-0.867398202419281
1750854087652530200,11.7725302734375,9.678369522094727,0.7112665176391602,-0.5467599630355835
1750854087671354600,11.791354736328126,10.362716674804688,0.36670008301734924,-0.40319061279296875
1750854087690179300,11.810179443359376,10.066006660461426,0.13220344483852386,0.4055834412574768
1750854087709003800,11.829003662109375,9.357730865478516,0.21355941891670227,1.4871392250061035
1750854087727828200,11.847828125,8.974879264831543,0.23270200192928314,1.9369899034500122
1750854087746653000,11.86665283203125,8.544171333312988,0.06999006122350693,2.032702922821045
1750854087765477400,11.885477294921875,8.874381065368652,0.2470589429140091,2.2815563678741455
1750854087784301800,11.9043017578125,9.238089561462402,0.5054838061332703,2.434697151184082
1750854087803126500,11.92312646484375,9.821938514709473,0.6442674994468689,2.616551637649536
1750854087821950700,11.94195068359375,10.683355331420898,0.582054078578949,2.6261229515075684
1750854087840775200,11.960775146484375,10.879566192626953,0.36670008301734924,2.913261651992798
1750854087859600000,11.979599853515625,10.793424606323242,0.11306086927652359,2.6596224308013916
1750854087878424300,11.99842431640625,10.525428771972656,-0.16450655460357666,2.2337000370025635
1750854087897248800,12.017248779296875,9.735796928405762,0.0364905446767807,1.7838492393493652
1750854087916073500,12.036073486328124,9.654440879821777,0.01734796352684498,1.2095718383789062
1750854087934898000,12.05489794921875,9.93679428100586,0.13220344483852386,0.8745766878128052
1750854087953722600,12.07372265625,9.989436149597168,0.30927231907844543,0.6400800347328186
1750854087972547000,12.092547119140624,9.989436149597168,0.6777670383453369,0.9080761671066284
1750854087991371500,12.11137158203125,9.381659507751465,0.529412031173706,1.290927767753601
1750854088010196200,12.1301962890625,8.984451293945312,-0.2267199456691742,1.1521440744400024
1750854088029020700,12.149020751953126,9.515657424926758,0.1417747437953949,-0.02512463741004467
1750854088047845000,12.16784521484375,9.582656860351562,0.9984052777290344,-1.168893814086914
1750854088066669800,12.186669921875,9.932008743286133,1.49611234664917,-2.14516544342041
1750854088085494300,12.205494384765625,10.472786903381348,0.8548358678817749,-0.9487541913986206
1750854088104318700,12.224318603515625,10.439287185668945,0.39062830805778503,-0.12083754688501358
1750854088123143400,12.243143310546875,9.673583984375,1.0845468044281006,-0.5659025311470032
1750854088141968000,12.2619677734375,9.606584548950195,1.3525429964065552,-1.542174220085144
1750854088160792600,12.28079248046875,9.78843879699707,1.323829174041748,-1.7575281858444214
1750854088179617000,12.299616943359375,10.066006660461426,1.4434702396392822,-2.025524377822876
1750854088198441500,12.31844140625,10.018150329589844,1.347757339477539,-2.169093608856201
1750854088217266200,12.33726611328125,10.415358543395996,1.036690354347229,-2.2265214920043945
1750854088236090600,12.356090576171875,10.917851448059082,0.8883354067802429,-1.5708880424499512
1750854088254915000,12.3749150390625,11.334202766418457,0.8739784955978394,-1.0827522277832031
1750854088273739800,12.39373974609375,9.68794059753418,1.036690354347229,-0.8291130661964417
1750854088292564200,12.412564208984374,8.821739196777344,1.0510473251342773,-0.9487541913986206
1750854088311388700,12.431388671875,8.146963119506836,0.9601200819015503,-0.45583271980285645
1750854088330213400,12.45021337890625,7.7593255043029785,1.0223335027694702,0.592223584651947
1750854088349037800,12.469037841796874,8.481958389282227,1.0414760112762451,1.3196417093276978
1750854088367862300,12.4878623046875,9.161520004272461,1.0462616682052612,1.1904292106628418
1750854088386687000,12.50668701171875,9.893723487854004,0.6107679605484009,0.6927221417427063
1750854088405511400,12.525511474609376,10.39621639251709,-0.26979073882102966,1.113858938217163
1750854088424336000,12.5443359375,10.310074806213379,-0.7483552694320679,2.0853450298309326
1750854088443160600,12.56316064453125,10.051650047302246,-0.2554338276386261,2.740978240966797
1750854088461985000,12.581985107421875,10.219147682189941,0.36670008301734924,2.5399811267852783
1750854088480809700,12.600809814453125,10.166504859924316,0.29012975096702576,2.726621389389038
1750854088499634200,12.61963427734375,9.855438232421875,0.12263216078281403,2.6213371753692627
1750854088518458600,12.638458740234375,9.903294563293457,-0.006580262444913387,2.358126640319824
1750854088537283300,12.657283447265625,10.487143516540527,-0.1453639715909958,1.932204246520996
1750854088556107800,12.676107666015625,10.501500129699707,-0.11665010452270508,1.9848463535308838
1750854088574932200,12.69493212890625,10.089935302734375,0.06520441919565201,1.750349760055542
1750854088593757000,12.7137568359375,9.54915714263916,0.08434699475765228,1.4249259233474731
1750854088612581400,12.732581298828125,9.195018768310547,0.5916253924369812,0.6544370055198669
1750854088631405800,12.75140576171875,9.061020851135254,0.8404789566993713,-0.14476576447486877
1750854088650230500,12.77023046875,9.352945327758789,0.8356932997703552,-1.3986048698425293
1750854088669055000,12.789054931640624,9.88415241241455,0.5868397355079651,-1.8915263414382935
1750854088687879400,12.80787939453125,10.62114143371582,0.706480860710144,-1.3459627628326416
1750854088706704100,12.8267041015625,10.42492961883545,0.4624129831790924,-0.14476576447486877
1750854088725528600,12.845528564453126,9.994221687316895,0.6729813814163208,-0.2309073805809021
1750854088744353300,12.864353271484376,9.893723487854004,0.9553344249725342,-1.384247899055481
1750854088763177700,12.883177734375,9.735796928405762,1.098903775215149,-2.0829520225524902
1750854088782002200,12.902002197265626,9.56351375579834,1.4769697189331055,-2.1643080711364746
1750854088800826600,12.92082666015625,9.582656860351562,1.4530415534973145,-2.049452543258667
1750854088819651300,12.9396513671875,10.085148811340332,1.280758261680603,-2.2360928058624268
1750854088838475800,12.958475830078125,10.697711944580078,1.1611171960830688,-2.283949136734009
1750854088857300200,12.97730029296875,10.989636421203613,1.103689432144165,-1.872383713722229
1750854088876125000,12.996125,10.712068557739258,1.0271191596984863,-1.604387640953064
1750854088894949400,13.014949462890625,9.745368003845215,0.8691928386688232,-1.317248821258545
1750854088913774000,13.033774169921875,8.659027099609375,0.893121063709259,-0.7381857633590698
1750854088932598500,13.0525986328125,8.917451858520508,1.0941181182861328,-0.19740787148475647
1750854088951423000,13.071423095703125,9.611370086669922,1.0414760112762451,-0.5228317379951477
1750854088970247700,13.09024755859375,9.501300811767578,0.7926225066184998,-0.47976094484329224
1750854088989072100,13.109072021484375,8.639883995056152,0.2231307178735733,0.43908295035362244
1750854089007896600,13.127896484375,8.529814720153809,-0.26979073882102966,1.534995675086975
1750854089026721300,13.14672119140625,9.568299293518066,-0.31764721870422363,2.11405873298645
1750854089045545700,13.165545654296874,10.137791633605957,0.06520441919565201,1.9800606966018677
1750854089064370200,13.1843701171875,10.4823579788208,0.5389832854270935,2.36291241645813
1750854089083195000,13.20319482421875,9.683155059814453,0.7926225066184998,2.458625316619873
1750854089102019300,13.222019287109376,9.91286563873291,0.6107679605484009,2.6500511169433594
1750854089120843800,13.24084375,10.587641716003418,0.33798620104789734,2.9180471897125244
1750854089139668500,13.25966845703125,10.453643798828125,0.15134602785110474,2.946761131286621
1750854089158493000,13.278492919921876,9.932008743286133,-0.01615155301988125,2.7361927032470703
1750854089177317400,13.2973173828125,9.965508460998535,-0.16450655460357666,2.0374884605407715
1750854089196142000,13.31614208984375,9.888937950134277,-0.1740778535604477,1.7742780447006226
1750854089214966500,13.334966552734375,9.81236743927002,0.20877377688884735,1.3387842178344727
1750854089233791000,13.353791015625,9.290732383728027,0.47676992416381836,0.9224331378936768
1750854089252615700,13.37261572265625,9.506086349487305,0.42412781715393066,-0.3361915946006775
1750854089271440100,13.391440185546875,10.190433502197266,0.42412781715393066,-1.4177473783493042
1750854089290264800,13.410264892578125,10.726426124572754,0.3044866919517517,-1.1736794710159302
1750854089309089300,13.42908935546875,10.530214309692383,0.4001995921134949,-0.3601198196411133
1750854089327913700,13.447913818359375,10.14736270904541,0.7830511927604675,-0.09212367236614227
1750854089346738400,13.466738525390625,9.41037368774414,1.2664014101028442,-0.3936193287372589
1750854089365563000,13.48556298828125,8.883952140808105,1.1850453615188599,-1.2837493419647217
1750854089384387300,13.50438720703125,9.616155624389648,0.9122636318206787,-2.2983062267303467
1750854089403212000,13.5232119140625,10.49671459197998,0.9888339638710022,-2.149951219558716
1750854089422036500,13.542036376953124,10.525428771972656,1.079761266708374,-1.389033555984497
1750854089440861000,13.56086083984375,10.089935302734375,1.2759727239608765,-1.3746765851974487
1750854089459685600,13.579685546875,9.711869239807129,1.256830096244812,-1.8628123998641968
1750854089478510000,13.598510009765626,10.066006660461426,1.3094722032546997,-2.6668007373809814
1750854089497334500,13.61733447265625,10.056435585021973,1.1276177167892456,-2.4849462509155273
1750854089516159200,13.6361591796875,9.874580383300781,0.9936196208000183,-1.719243049621582
1750854089534983700,13.654983642578125,9.295517921447754,0.9553344249725342,-1.0348957777023315
1750854089553808100,13.67380810546875,8.946166038513184,0.9361918568611145,-0.833898663520813
1750854089572632800,13.6926328125,9.056235313415527,0.9170492887496948,-1.0396814346313477
1750854089591457300,13.711457275390625,9.362516403198242,0.8261220455169678,-1.077966570854187
1750854089610281700,13.73028173828125,9.707083702087402,0.6634100675582886,-0.7621139883995056
1750854089629106400,13.7491064453125,9.77408218383789,0.5581258535385132,0.2476571500301361
1750854089647931000,13.767930908203125,9.692726135253906,0.2757728099822998,0.534795880317688
1750854089666755300,13.78675537109375,10.085148811340332,-0.020937198773026466,0.7166503667831421
1750854089685580000,13.805580078125,10.099506378173828,-0.5377869009971619,1.6402798891067505
1750854089704404500,13.824404541015625,10.00857925415039,-0.2267199456691742,1.3100703954696655
1750854089723229000,13.84322900390625,10.568499565124512,0.6681957244873047,0.4534398913383484
1750854089742053600,13.8620537109375,10.52064323425293,0.46719861030578613,0.7405785918235779
1750854089760878000,13.880878173828124,10.042078018188477,0.09870393574237823,0.9511470198631287
1750854089779702500,13.89970263671875,9.965508460998535,0.12263216078281403,0.7740781307220459
1750854089798527200,13.91852734375,10.420144081115723,0.046061836183071136,0.5300102233886719
1750854089817351700,13.9373515625,10.37228775024414,-0.0975075215101242,0.5491527915000916
1750854089836176100,13.956176025390626,10.075577735900879,-0.13100704550743103,1.0372886657714844
1750854089855000800,13.975000732421876,9.946365356445312,0.29012975096702576,0.9798609018325806
1750854089873825300,13.9938251953125,10.200004577636719,0.9026923179626465,-0.6089733839035034
1750854089892649700,14.012649658203125,10.49671459197998,1.017547845840454,-1.293320655822754
1750854089911474400,14.031474365234375,9.845867156982422,0.6346961855888367,-0.6185446381568909
1750854089930299000,14.050298828125,9.64965534210205,0.8117650747299194,-0.46061834692955017
1750854089949123300,14.069123291015625,9.453444480895996,1.5248262882232666,-0.364905446767807
1750854089967948000,14.087947998046875,9.046664237976074,1.5487544536590576,-0.09212367236614227
1750854089986772500,14.1067724609375,9.204590797424316,1.1132607460021973,-0.7429714202880859
1750854090005597200,14.12559716796875,10.156933784484863,1.0893324613571167,-2.149951219558716
1750854090024421600,14.144421630859375,10.783853530883789,1.4243277311325073,-2.0398812294006348
1750854090043246000,14.16324609375,10.654641151428223,1.4817553758621216,-1.2215359210968018
1750854090062070800,14.18207080078125,9.860223770141602,1.4386845827102661,-0.7190431952476501
1750854090080895200,14.200895263671875,9.501300811767578,1.7258232831954956,-1.1593226194381714
1750854090099719700,14.2197197265625,9.635298728942871,1.677966833114624,-1.4895321130752563
1750854090118544100,14.238544189453124,9.625727653503418,1.5535401105880737,-1.4895321130752563
1750854090137368800,14.257368896484374,9.128020286560059,1.3334003686904907,-1.5230315923690796
1750854090156193300,14.276193359375,8.931808471679688,0.9936196208000183,-1.211964726448059
1750854090175017700,14.295017822265624,9.204590797424316,0.7447660565376282,-0.3122633695602417
1750854090193842400,14.313842529296876,9.869794845581055,0.5533402562141418,0.06580262631177902
1750854090212667000,14.3326669921875,10.003793716430664,0.17527425289154053,0.33379876613616943
1750854090231491300,14.3514912109375,9.33858871459961,-0.07357929646968842,0.8027920126914978
1750854090250316000,14.37031591796875,9.78843879699707,0.012562318705022335,0.5826523303985596
1750854090269140500,14.389140380859375,10.49671459197998,0.29012975096702576,0.08973085135221481
1750854090287965000,14.40796484375,10.597213745117188,0.3858426511287689,0.6305087804794312
1750854090306789600,14.42678955078125,10.37228775024414,0.29012975096702576,1.32921302318573
1750854090325614000,14.445614013671875,10.219147682189941,0.31405797600746155,1.8652052879333496
1750854090344438800,14.464438720703125,9.79801082611084,0.4815555512905121,2.0853450298309326
1750854090363263200,14.48326318359375,10.00857925415039,0.3475574851036072,1.4057832956314087
1750854090382087700,14.502087646484375,10.109077453613281,0.09870393574237823,0.9176474809646606
1750854090400912400,14.520912353515625,10.118648529052734,-0.05922235921025276,0.8841479420661926
1750854090419736800,14.53973681640625,10.200004577636719,-0.10229317098855972,0.8410771489143372
1750854090438561300,14.558561279296875,10.209575653076172,-0.16929219663143158,1.1234302520751953
1750854090457386000,14.577385986328125,9.989436149597168,0.022133609279990196,1.2287144660949707
1750854090485622500,14.60562255859375,9.941579818725586,0.6251249313354492,-0.9200403094291687
1750854090504447200,14.624447265625,9.735796928405762,1.3812568187713623,-2.063809633255005
1750854090523271700,14.643271728515625,8.788239479064941,1.2424731254577637,-1.0971091985702515
1750854090542096400,14.662096435546875,9.027522087097168,0.8644071817398071,-0.29312077164649963
1750854090560920800,14.6809208984375,9.64965534210205,0.706480860710144,-0.3361915946006775
1750854090579745300,14.699745361328125,10.085148811340332,0.9218349456787109,-1.3028919696807861
1750854090598570000,14.718570068359375,10.444072723388672,0.7543373107910156,-1.6187444925308228
1750854090617394400,14.73739453125,10.98006534576416,0.7543373107910156,-1.9058831930160522
1750854090636219000,14.756218994140625,10.750353813171387,1.1276177167892456,-1.537388563156128
1750854090655043600,14.775043701171874,10.28614616394043,1.2472587823867798,-1.0683952569961548
1750854090673868000,14.793867919921874,9.807581901550293,1.4817553758621216,-1.4416756629943848
1750854090692692500,14.8126923828125,9.960722923278809,1.7593228816986084,-2.0303099155426025
1750854090711517200,14.83151708984375,10.223933219909668,1.677966833114624,-2.2504496574401855
1750854090730341600,14.850341552734376,9.807581901550293,1.5487544536590576,-1.7670994997024536
1750854090749166000,14.869166015625,9.352945327758789,1.1084750890731812,-1.3028919696807861
1750854090767990800,14.88799072265625,9.056235313415527,0.7495517134666443,-1.0875378847122192
1750854090786815200,14.906815185546876,8.989236831665039,0.802193820476532,-0.9439685344696045
1750854090805639700,14.9256396484375,9.099306106567383,1.280758261680603,-1.0013962984085083
1750854090824464100,14.944464111328125,9.022735595703125,1.0510473251342773,-0.6664010882377625
1750854090843288800,14.963288818359375,9.405587196350098,0.9266205430030823,-0.5659025311470032
1750854090862113300,14.98211328125,9.81236743927002,1.1467602252960205,-0.3314059376716614
1750854090880937700,15.000937744140625,9.79801082611084,1.0558329820632935,0.4486542344093323
1750854090899762400,15.019762451171875,9.70229721069336,0.4863412082195282,1.2095718383789062
1750854090918587000,15.0385869140625,9.91286563873291,0.1657029688358307,1.4727823734283447
1750854090937411300,15.057411376953125,10.27178955078125,0.3188436031341553,1.2957134246826172
1750854090956236000,15.076236083984375,10.707283020019531,0.4289134442806244,0.4821537733078003
1750854090975060500,15.095060546875,10.879566192626953,0.29012975096702576,0.6592226624488831
1750854090993885000,15.113885009765625,10.568499565124512,0.2470589429140091,0.9846464991569519
1750854091012709600,15.132709716796874,10.223933219909668,-0.08315058797597885,1.2574282884597778
1750854091031534000,15.1515341796875,10.525428771972656,-0.3846462368965149,1.0803594589233398
1750854091050358500,15.170358642578124,11.018349647521973,-0.40378883481025696,0.9176474809646606
1750854091069183200,15.189183349609374,10.62114143371582,-0.24586252868175507,0.7405785918235779
1750854091088007700,15.208007568359376,9.836296081542969,-0.025722842663526535,0.9367900490760803
1750854091106832100,15.22683203125,9.113663673400879,0.18005990982055664,1.1856436729431152
1750854091125656800,15.24565673828125,9.396016120910645,0.649053156375885,-0.2548356056213379
1750854091144481300,15.264481201171876,10.37228775024414,0.8979067206382751,-1.537388563156128
1750854091163305700,15.2833056640625,9.946365356445312,0.768694281578064,-0.6951149702072144
1750854091182130400,15.30213037109375,9.33858871459961,0.9601200819015503,0.3290131092071533
1750854091200955000,15.320954833984375,9.22851848602295,1.3716856241226196,0.6592226624488831
1750854091219779300,15.339779296875,9.19023323059082,1.3764712810516357,-0.1782652884721756
1750854091238604000,15.35860400390625,9.434301376342773,1.4051851034164429,-1.0253244638442993
1750854091257428500,15.377428466796875,9.850652694702148,1.2999008893966675,-0.9678967595100403
1750854091276253000,15.3962529296875,10.070792198181152,1.1228320598602295,-1.0971091985702515
1750854091295077600,15.41507763671875,10.4823579788208,1.1994023323059082,-1.5852450132369995
1750854091313902000,15.433902099609375,10.52064323425293,1.3142578601837158,-1.542174220085144
1750854091332726500,15.4527265625,10.501500129699707,0.8261220455169678,-0.5706881880760193
1750854091351551200,15.47155126953125,10.262218475341797,0.7208378314971924,0.20937198400497437
1750854091370375700,15.490375732421874,9.467801094055176,0.9314061999320984,-0.1495514214038849
1750854091389200100,15.5092001953125,8.994022369384766,1.3621143102645874,-0.7238288521766663
1750854091408024800,15.52802490234375,8.659027099609375,1.7258232831954956,-0.10169496387243271
1750854091426849300,15.546849365234374,8.49152946472168,1.811964988708496,0.8458628058433533
1750854091445673700,15.565673828125,8.654241561889648,1.5296118259429932,1.415354609489441
1750854091464498400,15.58449853515625,9.19980525970459,1.0558329820632935,1.176072359085083
1750854091483323000,15.603322998046876,9.735796928405762,0.9026923179626465,0.6400800347328186
1750854091502147300,15.622147216796876,10.544570922851562,0.6634100675582886,0.6352944374084473
1750854091520972000,15.640971923828126,11.018349647521973,0.5246263742446899,1.0133603811264038
1750854091539796500,15.65979638671875,10.779067993164062,0.44805604219436646,1.6785650253295898
1750854091558621000,15.678620849609375,10.310074806213379,0.18963119387626648,2.090130567550659
1750854091577445400,15.6974453125,9.81236743927002,0.15613168478012085,1.664208173751831
1750854091596270000,15.71627001953125,9.793225288391113,0.17527425289154053,1.022931694984436
1750854091615094500,15.735094482421875,10.066006660461426,0.3236292600631714,0.711864709854126
1750854091633919000,15.7539189453125,10.13300609588623,0.3188436031341553,0.9224331378936768
1750854091652743700,15.77274365234375,9.994221687316895,0.17527425289154053,1.2335001230239868
1750854091671568100,15.791568115234375,9.678369522094727,0.33798620104789734,1.0660024881362915
1750854091690392600,15.810392578125,9.941579818725586,0.3188436031341553,0.6783652305603027
1750854091709217300,15.82921728515625,9.860223770141602,0.20398813486099243,1.1234302520751953
1750854091728041700,15.848041748046874,9.19980525970459,0.582054078578949,1.3435698747634888
1750854091746866200,15.8668662109375,8.955737113952637,0.7495517134666443,1.3244273662567139
1750854091765691000,15.88569091796875,8.70209789276123,1.0271191596984863,-0.3314059376716614
1750854091784515300,15.904515380859374,8.587242126464844,1.4626128673553467,-1.0923235416412354
1750854091803339800,15.92333984375,9.482157707214355,1.2137593030929565,-0.656829833984375
1750854091822164500,15.94216455078125,10.104291915893555,0.8117650747299194,-0.1543370634317398
1750854091840989000,15.960989013671876,10.53499984741211,0.2231307178735733,-0.3361915946006775
1750854091859813400,15.9798134765625,11.463415145874023,0.0077766734175384045,-1.2741780281066895
1750854091878638000,15.99863818359375,11.860623359680176,0.42412781715393066,-1.8293129205703735
1750854091897462500,16.017462646484375,10.913065910339355,1.036690354347229,-1.8532410860061646
1750854091916287000,16.036286865234374,11.171490669250488,1.3908281326293945,-1.317248821258545
1750854091935111700,16.055111572265623,11.439486503601074,1.3716856241226196,-1.6809579133987427
1750854091953936100,16.07393603515625,10.707283020019531,1.103689432144165,-1.2646067142486572
1750854091972760600,16.092760498046875,8.94137954711914,0.8883354067802429,-0.6711867451667786
1750854091991585300,16.111585205078125,7.673183917999268,0.9457631707191467,-0.21655045449733734
1750854092010409700,16.13040966796875,8.38145923614502,1.2664014101028442,-0.25004997849464417
1750854092029234200,16.149234130859377,9.817152976989746,1.1802598237991333,-0.2787638306617737
1750854092048058600,16.16805859375,9.31466007232666,0.7926225066184998,0.12323036789894104
1750854092066883300,16.18688330078125,8.458029747009277,0.3523431420326233,0.6209374666213989
1750854092085707800,16.205707763671874,8.376673698425293,-0.3128615617752075,1.0372886657714844
1750854092104532200,16.2245322265625,9.266803741455078,-0.5665007829666138,1.7790635824203491
1750854092123357000,16.24335693359375,9.42473030090332,-0.5377869009971619,1.7072789669036865
1750854092142181400,16.262181396484376,9.46301555633545,-0.13100704550743103,1.4488540887832642
1750854092161005800,16.281005859375,9.644869804382324,-0.20757736265659332,1.8221344947814941
1750854092179830500,16.29983056640625,10.530214309692383,-0.5186443328857422,2.2959132194519043
1750854092198655000,16.318655029296874,10.831709861755371,-0.8153542876243591,2.7122645378112793
1750854092217479400,16.3374794921875,10.41057300567627,-0.9158528447151184,2.812762975692749
1750854092236304100,16.35630419921875,10.468000411987305,-1.1647064685821533,2.1475582122802734
1750854092255128600,16.375128662109375,10.946565628051758,-1.1838489770889282,1.2717852592468262
1750854092273953000,16.393953125,11.08056354522705,-0.8009973764419556,1.0037890672683716
1750854092292777700,16.41277783203125,10.673783302307129,-0.48514479398727417,1.683350682258606
1750854092311602200,16.431602294921873,10.415358543395996,-0.4181457459926605,2.066202402114868
1750854092330426600,16.450426513671875,10.290931701660156,-0.9541380405426025,2.142772674560547
1750854092349251300,16.469251220703125,10.573285102844238,-0.8823533654212952,1.3196417093276978
1750854092368075800,16.48807568359375,9.975079536437988,-0.0687936544418335,1.1186445951461792
1750854092386900200,16.506900146484377,9.022735595703125,0.8835497498512268,0.5204389095306396
1750854092405725000,16.525724853515626,9.19980525970459,1.5391831398010254,-0.3122633695602417
1750854092424549400,16.54454931640625,9.180662155151367,1.989033818244934,-0.3122633695602417
1750854092443373800,16.563373779296874,9.223732948303223,1.9316060543060303,-0.5324030518531799
1750854092462198500,16.582198486328124,9.257232666015625,1.9411773681640625,-0.16869398951530457
1750854092481023000,16.60102294921875,9.252447128295898,1.8885352611541748,-0.4175475537776947
1750854092499847400,16.619847412109376,9.601799011230469,1.8454644680023193,-1.2263215780258179
1750854092518672100,16.638672119140626,10.49671459197998,1.5439687967300415,-1.2693923711776733
1750854092537496600,16.65749658203125,10.635498046875,1.165902853012085,-0.8626125454902649
1750854092556321000,16.676321044921874,9.443872451782227,1.0414760112762451,-0.9104689955711365
1750854092575145700,16.695145751953124,8.668598175048828,1.319043517112732,-0.6281159520149231
1750854092593970200,16.71397021484375,7.835896015167236,1.1754741668701172,-0.32662028074264526
1750854092612794600,16.732794677734375,8.424530029296875,0.5150550603866577,-0.10648060590028763
1750854092631619000,16.751619140625,9.08973503112793,0.30927231907844543,0.33858439326286316
1750854092650443800,16.77044384765625,9.094520568847656,0.4097708761692047,-0.259621262550354
1750854092669268200,16.789268310546873,9.520442962646484,0.6011967062950134,-0.7621139883995056
1750854092688092700,16.8080927734375,10.616355895996094,0.5389832854270935,-0.3409772217273712
1750854092706917400,16.82691748046875,10.448858261108398,-0.2841476798057556,0.5587241053581238
1750854092725741800,16.845741943359375,10.171290397644043,-0.7483552694320679,1.3148560523986816
1750854092744566300,16.864566162109377,9.989436149597168,-0.6861419081687927,1.1377872228622437
1750854092763391000,16.883390869140626,10.027721405029297,-0.47557350993156433,0.5491527915000916
1750854092782215400,16.90221533203125,10.14736270904541,-0.21714866161346436,0.2667997181415558
1750854092801040000,16.921039794921874,10.032506942749023,-0.19322042167186737,0.46779683232307434
1750854092819864600,16.939864501953124,9.850652694702148,-0.6287141442298889,1.1425727605819702
1750854092838689000,16.95868896484375,10.472786903381348,-1.7198412418365479,1.534995675086975
1750854092857513500,16.977513427734376,12.406187057495117,-2.9688947200775146,1.9130617380142212
1750854092876338200,16.996338134765626,11.985050201416016,-3.562314748764038,2.803191661834717
1750854092895162600,17.01516259765625,10.094720840454102,-3.5096726417541504,1.6402798891067505
1750854092913987000,17.033987060546874,10.267004013061523,-1.949552297592163,-0.5132604837417603
1750854092932811500,17.0528115234375,10.219147682189941,-0.13579268753528595,-1.786242127418518
1750854092951636200,17.07163623046875,9.33858871459961,2.8791637420654297,-2.1164517402648926
1750854092970460700,17.090460693359375,9.429515838623047,3.0514471530914307,-0.8099704384803772
1750854092989285000,17.10928515625,9.750154495239258,1.5391831398010254,-1.939382791519165
1750854093008109800,17.12810986328125,10.802995681762695,1.7976080179214478,-2.8486554622650146
1750854093026934300,17.146934326171873,10.487143516540527,2.4675984382629395,-1.9441684484481812
1750854093045758700,17.1657587890625,10.156933784484863,1.965105652809143,-1.5086746215820312
1750854093064583400,17.18458349609375,10.453643798828125,1.4769697189331055,-1.3603196144104004
1750854093083408000,17.203407958984375,10.750353813171387,1.2999008893966675,-1.054038405418396
1750854093102232300,17.222232421875,10.64507007598877,1.2185449600219727,-0.8578268885612488
1750854093121057000,17.24105712890625,9.429515838623047,1.165902853012085,-1.0109676122665405
1750854093139881500,17.259881591796876,8.659027099609375,1.43389892578125,-0.9391828775405884
1750854093158706000,17.278705810546874,8.797810554504395,1.649253010749817,-0.6903293132781982
1750854093177530600,17.297530517578124,8.424530029296875,1.4243277311325073,-0.3936193287372589
1750854093196355000,17.31635498046875,7.989036560058594,0.9696913957595825,0.09451649338006973
1750854093215179500,17.335179443359376,8.821739196777344,0.5964110493659973,0.013160524889826775
1750854093234004000,17.35400390625,10.415358543395996,0.28534409403800964,-0.833898663520813
1750854093252828700,17.37282861328125,10.578070640563965,0.23748764395713806,-1.3794622421264648
1750854093271653000,17.391653076171874,10.401001930236816,-0.16450655460357666,-0.8769695162773132
1750854093290477600,17.4104775390625,10.00857925415039,-0.786640465259552,0.2955136001110077
1750854093309302300,17.42930224609375,9.352945327758789,-0.8488538265228271,1.2861422300338745
1750854093328126700,17.448126708984375,9.31466007232666,-0.5760720372200012,1.3722838163375854
1750854093346951200,17.466951171875,9.750154495239258,-0.2027917206287384,0.6735795736312866
1750854093365776000,17.48577587890625,10.558928489685059,-0.4181457459926605,0.30508488416671753
1750854093384600300,17.504600341796873,10.52064323425293,-0.9589236974716187,0.8506484627723694
1750854093403424800,17.5234248046875,9.745368003845215,-1.3513466119766235,1.8460626602172852
1750854093422249500,17.54224951171875,9.57787036895752,-1.212562918663025,2.0757737159729004
1750854093441074000,17.561073974609375,9.917651176452637,-0.7914260625839233,1.7407784461975098
1750854093459898400,17.5798984375,10.434501647949219,-0.5282155871391296,0.7166503667831421
1750854093478723000,17.59872314453125,10.578070640563965,-0.5952146053314209,0.5730810165405273
1750854093497547500,17.617547607421876,10.109077453613281,-0.7770691514015198,1.2813565731048584
1750854093516372000,17.6363720703125,9.582656860351562,-0.8249256014823914,1.9369899034500122
1750854093535196400,17.655196533203124,9.419944763183594,-0.7148557901382446,1.994417667388916
1750854093554021000,17.674021240234374,10.109077453613281,-0.5617151260375977,1.290927767753601
1750854093572845600,17.692845458984376,11.300703048706055,-0.1740778535604477,-0.13040883839130402
1750854093591670000,17.711669921875,11.82712459564209,0.1417747437953949,0.08015955984592438
1750854093610494700,17.73049462890625,11.066206932067871,0.5246263742446899,0.9750752449035645
1750854093629319200,17.749319091796874,9.850652694702148,0.7256234884262085,1.2430713176727295
1750854093648143600,17.7681435546875,9.640084266662598,1.098903775215149,0.4007977843284607
1750854093666968300,17.78696826171875,10.0612211227417,1.5583257675170898,-0.2021935135126114
1750854093685792800,17.805792724609375,9.89850902557373,1.7832510471343994,-0.04426721855998039
1750854093704617200,17.8246171875,9.520442962646484,1.8215361833572388,0.38644084334373474
1750854093723442000,17.84344189453125,9.266803741455078,1.6253247261047363,0.3768695592880249
1750854093742266400,17.862266357421873,9.329017639160156,1.3142578601837158,0.20937198400497437
1750854093761090800,17.8810908203125,9.678369522094727,1.1371889114379883,0.2955136001110077
1750854093779915500,17.89991552734375,9.893723487854004,1.1180464029312134,0.1902294009923935
1750854093798740000,17.918739990234375,10.051650047302246,1.170688509941101,0.4055834412574768
1750854093817564400,17.937564453125,9.726225852966309,1.170688509941101,0.7932206988334656
1750854093836388900,17.956388916015626,9.357730865478516,0.9122636318206787,0.8602197170257568
1750854093855213600,17.975213623046876,9.525228500366211,0.706480860710144,0.6927221417427063
1750854093874038000,17.9940380859375,9.79801082611084,0.6107679605484009,0.9607182741165161
1750854093892862500,18.012862548828124,9.606584548950195,0.6346961855888367,1.195214867591858
1750854093911687200,18.031687255859374,9.419944763183594,0.6251249313354492,1.1665010452270508
1750854093930511600,18.05051171875,9.697511672973633,0.6442674994468689,0.9511470198631287
1750854093949336000,18.069336181640626,9.64965534210205,0.529412031173706,1.2957134246826172
1750854093968160800,18.088160888671876,8.788239479064941,0.649053156375885,1.7168502807617188
1750854093986985200,18.106985107421874,8.860024452209473,1.1276177167892456,0.47258245944976807
1750854094005809700,18.1258095703125,9.520442962646484,1.989033818244934,-0.3601198196411133
1750854094024634400,18.14463427734375,9.084949493408203,2.5776681900024414,-0.22612173855304718
1750854094043458800,18.163458740234375,8.74038314819336,1.5726827383041382,0.6496513485908508
1750854094062283300,18.182283203125,9.592227935791016,0.7112665176391602,0.26201409101486206
1750854094081108000,18.20110791015625,10.64507007598877,0.9840483069419861,-0.747757077217102
1750854094099932400,18.219932373046873,10.965707778930664,1.8550357818603516,-1.389033555984497
1750854094118756900,18.2387568359375,10.238289833068848,2.410170555114746,-1.451246976852417
1750854094137581300,18.257581298828125,9.305088996887207,2.472383975982666,-1.3746765851974487
1750854094156406000,18.276406005859375,9.486943244934082,2.5393829345703125,-1.4464613199234009
1750854094175230500,18.29523046875,10.429716110229492,2.4915266036987305,-1.6618152856826782
1750854094194055000,18.314054931640626,10.750353813171387,2.108675003051758,-1.3746765851974487
1750854094212879600,18.332879638671876,9.510871887207031,1.5774682760238647,-1.054038405418396
1750854094231704000,18.3517041015625,8.635098457336426,1.5200406312942505,-1.317248821258545
1750854094250528500,18.370528564453124,8.496315002441406,1.6588243246078491,-0.8434699773788452
1750854094269353200,18.389353271484374,8.759525299072266,1.1180464029312134,-0.04905286431312561
1750854094288177700,18.408177734375,8.57767105102539,0.12741780281066895,0.8075776696205139
1750854094307002000,18.427002197265626,8.721240043640137,-0.6143572330474854,1.4967105388641357
1750854094325826800,18.445826904296876,9.831509590148926,-0.9780662655830383,1.5589239597320557
1750854094344651300,18.4646513671875,10.453643798828125,-0.8632107973098755,0.7597211599349976
1750854094363475700,18.483475830078124,10.592427253723145,-0.7004988193511963,0.6161518096923828
1750854094382300400,18.502300537109374,10.487143516540527,-0.5808576941490173,1.0133603811264038
1750854094401124900,18.521124755859375,10.02293586730957,-0.7004988193511963,1.2239288091659546
1750854094419949300,18.53994921875,10.439287185668945,-0.719641387462616,0.9032905697822571
1750854094438773800,18.558773681640623,10.783853530883789,-0.7962117195129395,0.9128618240356445
1750854094457598500,18.577598388671873,10.4823579788208,-1.2891331911087036,1.439282774925232
1750854094476423000,18.5964228515625,10.295717239379883,-2.0165512561798096,2.338984251022339
1750854094495247400,18.615247314453125,10.429716110229492,-2.8253252506256104,3.047259569168091
1750854094514072000,18.634072021484375,11.248061180114746,-1.944766640663147,1.7072789669036865
1750854094532896500,18.652896484375,11.764910697937012,-1.7485551834106445,1.333998680114746
1750854094551721000,18.671720947265626,11.099705696105957,-1.4949159622192383,1.5828521251678467
1750854094570545700,18.690545654296876,10.018150329589844,-0.8201399445533752,1.6163517236709595
1750854094589370000,18.7093701171875,9.209376335144043,-0.14057832956314087,1.1856436729431152
1750854094608194600,18.728194580078124,9.429515838623047,0.4384847581386566,0.4821537733078003
1750854094627019300,18.747019287109374,9.4390869140625,1.2424731254577637,0.5635097622871399
1750854094645843700,18.76584375,9.185447692871094,1.8263218402862549,-0.02512463741004467
1750854094664668200,18.784668212890626,9.113663673400879,2.692523717880249,-1.9872392416000366
1750854094683492600,18.80349267578125,9.625727653503418,3.1615169048309326,-2.0303099155426025
1750854094702317300,18.8223173828125,9.888937950134277,2.510669231414795,-0.6472585201263428
1750854094721141800,18.841141845703124,9.979865074157715,1.4051851034164429,-0.3074777126312256
1750854094739966200,18.85996630859375,9.93679428100586,1.0510473251342773,-0.5276173949241638
1750854094758791000,18.878791015625,10.329216957092285,1.6444673538208008,-1.4416756629943848
1750854094777615400,18.897615478515625,10.25743293762207,2.5489542484283447,-2.341377019882202
1750854094796439800,18.916439697265623,10.28614616394043,3.1232316493988037,-2.073380708694458
1750854094815264500,18.935264404296873,9.81236743927002,2.6255247592926025,-0.9248259663581848
1750854094834089000,18.9540888671875,8.639883995056152,2.290529489517212,-0.7334001660346985
1750854094852913400,18.972913330078125,7.725826263427734,2.496312141418457,-0.8434699773788452
1750854094871737900,18.99173779296875,7.668398380279541,2.6015963554382324,-1.0013962984085083
1750854094890562600,19.0105625,8.783453941345215,1.898106575012207,-0.6664010882377625
1750854094909387000,19.029386962890626,9.927223205566406,1.3094722032546997,-0.27397820353507996
1750854094928211500,19.04821142578125,10.338788032531738,1.1515458822250366,-0.6999006271362305
1750854094947036200,19.0670361328125,10.850852012634277,0.7639086246490479,-0.7334001660346985
1750854094965860600,19.085860595703124,10.764710426330566,0.07956135272979736,-0.015553346835076809
1750854094984685000,19.10468505859375,9.70229721069336,-0.48035913705825806,0.865005373954773
1750854095003509500,19.123509521484376,9.166305541992188,-0.7579265832901001,1.592423439025879
1750854095022334200,19.142334228515626,9.386445045471191,-1.0307083129882812,2.544766902923584
1750854095041158700,19.16115869140625,9.731011390686035,-1.1024930477142334,2.008774518966675
1750854095059983000,19.179983154296874,9.955936431884766,-1.1024930477142334,1.9130617380142212
1750854095078807800,19.198807861328124,10.238289833068848,-0.4995017349720001,1.8891334533691406
1750854095097632300,19.21763232421875,10.558928489685059,-0.48514479398727417,1.7982062101364136
1750854095116456700,19.236456787109375,10.453643798828125,-1.3226326704025269,1.7120646238327026
1750854095135281400,19.255281494140625,10.697711944580078,-1.7868403196334839,1.8939191102981567
1750854095154105900,19.27410595703125,10.601999282836914,-1.3800604343414307,1.9848463535308838
1750854095172930300,19.292930419921873,10.740782737731934,-0.4707878530025482,1.1234302520751953
1750854095191754800,19.311754638671875,11.171490669250488,0.2183450609445572,0.3481557071208954
1750854095210579500,19.330579345703125,11.291131973266602,0.8213363885879517,0.2907279431819916
1750854095229404000,19.34940380859375,10.73121166229248,1.6301103830337524,0.7980063557624817
1750854095248228400,19.368228271484377,9.271589279174805,1.2616157531738281,1.8317056894302368
1750854095267053000,19.387052978515626,8.558527946472168,0.893121063709259,0.6400800347328186
1750854095285877500,19.40587744140625,9.31466007232666,1.835893154144287,-0.6664010882377625
1750854095304702000,19.424701904296874,9.195018768310547,3.0514471530914307,-1.1497513055801392
1750854095323526700,19.443526611328124,8.970093727111816,2.462812662124634,-0.2021935135126114
1750854095342351000,19.46235107421875,9.984650611877441,2.237887382507324,-1.1593226194381714
1750854095361175600,19.481175537109376,10.324431419372559,3.3242287635803223,-1.4943177700042725
1750854095380000300,19.500000244140626,9.252447128295898,3.549154281616211,-1.8340985774993896
1750854095398824700,19.51882470703125,9.42473030090332,2.9318058490753174,-1.5182459354400635
1750854095417649200,19.537649169921874,9.711869239807129,2.5250260829925537,-1.2550355195999146
1750854095436473900,19.556473876953124,9.525228500366211,2.7355945110321045,-1.4368900060653687
1750854095455298300,19.57529833984375,8.96530818939209,3.1663026809692383,-1.6426727771759033
1750854095474122800,19.594122802734375,9.209376335144043,2.8695926666259766,-1.7336000204086304
1750854095492947200,19.612947265625,9.908080101013184,2.276172637939453,-1.7431713342666626
1750854095511772000,19.63177197265625,10.391430854797363,1.6205391883850098,-1.0253244638442993
1750854095530596400,19.650596435546873,9.443872451782227,0.8213363885879517,-0.1782652884721756
1750854095549420800,19.6694208984375,8.50588607788086,-0.11186445504426956,0.6065805554389954
1750854095568245500,19.68824560546875,7.8693952560424805,-0.5473581552505493,1.664208173751831
1750854095587070000,19.707070068359375,8.989236831665039,-0.23629122972488403,1.01814603805542
1750854095605894400,19.725894287109377,9.955936431884766,0.2709871530532837,0.7549355626106262
1750854095624719000,19.744718994140626,9.692726135253906,0.7016952633857727,1.1282159090042114
1750854095643543600,19.76354345703125,9.147162437438965,0.8452646136283875,1.5206388235092163
1750854095662368000,19.782367919921874,9.601799011230469,0.6586244106292725,1.0325030088424683
1750854095681192400,19.8011923828125,9.92243766784668,0.4576273262500763,0.7214360237121582
1750854095700017200,19.82001708984375,9.57787036895752,0.18484555184841156,1.3052847385406494
1750854095718841600,19.838841552734376,9.558728218078613,-0.14057832956314087,2.181057929992676
1750854095737666000,19.857666015625,9.951150894165039,-0.8823533654212952,2.7936203479766846
1750854095756490800,19.87649072265625,10.487143516540527,-1.485344648361206,2.779263496398926
1750854095775315200,19.895315185546874,10.697711944580078,-1.3704891204833984,2.142772674560547
1750854095794139600,19.9141396484375,11.348559379577637,-0.7483552694320679,0.3002992272377014
1750854095812964000,19.932964111328126,11.056634902954102,0.3475574851036072,-1.8293129205703735
1750854095831788800,19.951788818359375,11.171490669250488,0.6777670383453369,-0.4893322288990021
1750854095850613200,19.97061328125,10.941780090332031,1.3046865463256836,-0.40797626972198486
1750854095869437700,19.989437744140623,9.989436149597168,1.5966109037399292,-0.3888336718082428
1750854095888262400,20.008262451171873,9.869794845581055,1.6109678745269775,-1.1928220987319946
1750854095907086800,20.0270869140625,10.085148811340332,1.7018951177597046,-1.8580267429351807
1750854095925911300,20.045911376953125,10.357931137084961,1.7593228816986084,-0.7668996453285217
1750854095944735700,20.06473583984375,10.0612211227417,2.0608184337615967,0.10408778488636017
1750854095963560400,20.083560546875,9.616155624389648,1.677966833114624,-0.4941178858280182
1750854095982385000,20.102385009765626,9.558728218078613,1.6013965606689453,-1.3698909282684326
1750854096001209300,20.121209228515625,9.128020286560059,2.4149563312530518,-1.211964726448059
1750854096020034000,20.140033935546874,9.348159790039062,2.4532413482666016,-1.0396814346313477
1750854096038858500,20.1588583984375,9.721440315246582,2.338385820388794,-1.7670994997024536
1750854096057683000,20.177682861328126,9.735796928405762,2.448455810546875,-2.059023857116699
1750854096076507600,20.196507568359376,9.783653259277344,2.1469600200653076,-1.4991034269332886
1750854096095332000,20.21533203125,9.54915714263916,1.9124635457992554,-0.47976094484329224
1750854096114156500,20.234156494140624,9.32423210144043,2.2091734409332275,0.037088751792907715
1750854096132981200,20.252981201171874,9.544371604919434,2.0895323753356934,-0.503689169883728
1750854096151805700,20.2718056640625,9.443872451782227,1.6588243246078491,-0.9631111025810242
1750854096170630100,20.290630126953126,9.06580638885498,1.074975609779358,-0.6089733839035034
1750854096189454600,20.30945458984375,8.706883430480957,0.8309076428413391,0.11844471842050552
1750854096208279300,20.328279296875,9.099306106567383,0.8356932997703552,0.39122650027275085
1750854096227103700,20.347103759765623,9.57787036895752,0.9266205430030823,0.6017948985099792
1750854096245928200,20.36592822265625,10.252646446228027,1.074975609779358,0.14715859293937683
1750854096264753000,20.3847529296875,10.783853530883789,0.9361918568611145,-0.24526432156562805
1750854096283577300,20.403577392578125,10.300503730773926,0.6107679605484009,0.6975077986717224
1750854096302401800,20.42240185546875,9.204590797424316,0.6873382925987244,1.3722838163375854
1750854096321226500,20.4412265625,9.568299293518066,0.9074779748916626,1.6354942321777344
1750854096340051000,20.460051025390626,10.252646446228027,0.9505487680435181,1.2717852592468262
1750854096358875400,20.47887548828125,10.788639068603516,1.1084750890731812,0.6496513485908508
1750854096377700000,20.4977001953125,10.788639068603516,1.2041879892349243,0.2476571500301361
1750854096396524500,20.516524658203124,10.281360626220703,0.8500502705574036,0.47258245944976807
1750854096415349000,20.535348876953126,10.544570922851562,0.7016952633857727,0.6735795736312866
1750854096434173400,20.55417333984375,10.817353248596191,0.5724828243255615,1.046859860420227
1750854096452998100,20.572998046875,10.171290397644043,0.735194742679596,1.3914263248443604
1750854096471822600,20.591822509765624,9.917651176452637,1.1994023323059082,0.2955136001110077
1750854096490647000,20.61064697265625,10.405787467956543,1.563111424446106,-0.9200403094291687
1750854096509471700,20.6294716796875,9.927223205566406,2.2331018447875977,-1.1353943347930908
1750854096528296200,20.648296142578126,8.927022933959961,2.1948165893554688,0.08973085135221481
1750854096547120600,20.66712060546875,8.22831916809082,1.4243277311325073,1.2143574953079224
1750854096565945300,20.6859453125,8.8648099899292,0.8787640929222107,0.5778666734695435
1750854096584769800,20.704769775390623,10.314860343933105,1.3716856241226196,-1.3794622421264648
1750854096603594200,20.72359423828125,10.702497482299805,1.9411773681640625,-1.6474584341049194
1750854096622418700,20.742418701171875,10.075577735900879,1.8885352611541748,-0.5994020700454712
1750854096641243400,20.761243408203125,9.352945327758789,1.7641085386276245,-0.25004997849464417
1750854096660067800,20.78006787109375,8.620741844177246,1.7353945970535278,-0.08255238085985184
1750854096678892300,20.798892333984377,8.71645450592041,1.591825246810913,-0.3840480446815491
1750854096697717000,20.817717041015626,9.147162437438965,1.4482558965682983,-0.4989035129547119
1750854096716541400,20.83654150390625,9.821938514709473,1.4673985242843628,-0.5563312768936157
1750854096735366000,20.855365966796874,10.405787467956543,1.189831018447876,0.2907279431819916
1750854096754190300,20.8741904296875,10.37228775024414,0.9409775137901306,0.865005373954773
1750854096773015000,20.89301513671875,9.865009307861328,0.9936196208000183,0.8123632669448853
1750854096791839500,20.911839599609376,9.841081619262695,0.8309076428413391,0.36251261830329895
1750854096810664000,20.930663818359374,10.319645881652832,0.8213363885879517,-0.020338991656899452
1750854096829488600,20.949488525390624,10.434501647949219,1.0701899528503418,0.2667997181415558
1750854096848313000,20.96831298828125,10.056435585021973,1.2281162738800049,0.7597211599349976
1750854096867137500,20.987137451171876,9.821938514709473,1.1419745683670044,0.9511470198631287
1750854096885962200,21.005962158203126,9.783653259277344,1.1180464029312134,0.7214360237121582
1750854096904786700,21.02478662109375,9.946365356445312,1.017547845840454,0.39122650027275085
1750854096923611100,21.043611083984374,10.089935302734375,0.9409775137901306,0.36251261830329895
1750854096942435600,21.062435546875,10.099506378173828,1.1132607460021973,0.5539384484291077
1750854096961260300,21.08126025390625,10.018150329589844,1.2999008893966675,0.4821537733078003
1750854096980084700,21.100084716796875,9.750154495239258,1.189831018447876,0.534795880317688
1750854096998909200,21.1189091796875,9.783653259277344,1.194616675376892,0.21415762603282928
1750854097017734000,21.13773388671875,9.625727653503418,1.0606186389923096,0.07058826833963394
1750854097036558300,21.156558349609377,9.754940032958984,1.074975609779358,0.17587246000766754
1750854097055382800,21.1753828125,9.955936431884766,1.1515458822250366,0.24287149310112
1750854097074207500,21.19420751953125,10.16171932220459,1.098903775215149,0.36729827523231506
1750854097093032000,21.213031982421874,10.176076889038086,1.1132607460021973,0.3720839321613312
1750854097111856400,21.2318564453125,9.764511108398438,1.170688509941101,0.3194418251514435
1750854097130681000,21.25068115234375,9.491728782653809,1.2472587823867798,0.26201409101486206
1750854097149505500,21.269505615234376,9.405587196350098,1.2616157531738281,0.18544375896453857
1750854097168330000,21.288330078125,9.42473030090332,1.2999008893966675,0.10408778488636017
1750854097187154700,21.30715478515625,9.467801094055176,1.2951152324676514,0.39601215720176697
1750854097205979100,21.325979248046874,9.70229721069336,1.280758261680603,0.2667997181415558
1750854097224803600,21.344803466796876,9.874580383300781,1.103689432144165,0.09451649338006973
1750854097243628000,21.3636279296875,9.850652694702148,0.9314061999320984,0.20937198400497437
1750854097262452700,21.38245263671875,10.042078018188477,0.8979067206382751,0.037088751792907715
1750854097281277200,21.401277099609374,10.080363273620605,0.8165507316589355,0.013160524889826775
1750854097300101600,21.4201015625,9.865009307861328,0.7447660565376282,0.2476571500301361
1750854097318926300,21.43892626953125,9.917651176452637,0.8787640929222107,0.137587308883667
1750854097337750800,21.457750732421875,9.970293998718262,0.9026923179626465,0.14715859293937683
1750854097356575200,21.4765751953125,9.860223770141602,0.9936196208000183,0.11844471842050552
1750854097375400000,21.49539990234375,9.860223770141602,0.9266205430030823,0.0849452018737793
1750854097394224400,21.514224365234377,9.821938514709473,0.8835497498512268,0.09451649338006973
1750854097413048800,21.533048828125,9.874580383300781,0.8452646136283875,0.07537391036748886
1750854097431873300,21.551873291015625,9.908080101013184,0.8356932997703552,0.12801600992679596
1750854097450698000,21.570697998046874,9.999007225036621,0.8452646136283875,0.07537391036748886
1750854097469522400,21.5895224609375,10.02293586730957,0.8165507316589355,0.15672987699508667
1750854097488347000,21.608346923828126,9.89850902557373,0.8261220455169678,0.10408778488636017
1750854097507171600,21.627171630859376,9.855438232421875,0.735194742679596,0.02751746028661728
1750854097525996000,21.64599609375,9.888937950134277,0.7543373107910156,0.2189432680606842
1750854097544820500,21.664820556640624,9.740582466125488,0.7926225066184998,0.39122650027275085
1750854097563645000,21.68364501953125,9.783653259277344,0.8979067206382751,0.3290131092071533
1750854097582469600,21.7024697265625,9.960722923278809,0.8500502705574036,0.1136590763926506
1750854097601294000,21.721294189453126,10.018150329589844,0.8548358678817749,0.02751746028661728
1750854097620118500,21.740118408203124,9.821938514709473,0.7782655358314514,0.23330020904541016
1750854097638943200,21.758943115234374,9.78843879699707,0.8548358678817749,0.20458634197711945
1750854097657767700,21.777767578125,9.778867721557617,0.8261220455169678,0.28115665912628174
1750854097676592000,21.796592041015625,9.802796363830566,0.7208378314971924,0.2476571500301361
1750854097695416800,21.815416748046875,9.754940032958984,0.6442674994468689,0.2667997181415558
1750854097714241300,21.8342412109375,9.874580383300781,0.7447660565376282,0.2189432680606842
1750854097733065700,21.853065673828127,10.02293586730957,0.8117650747299194,0.08973085135221481
1750854097751890200,21.87189013671875,9.999007225036621,0.7926225066184998,0.1663011759519577
1750854097770715000,21.89071484375,9.93679428100586,0.7495517134666443,0.2189432680606842
1750854097789539300,21.909539306640625,9.79801082611084,0.7304090857505798,0.21415762603282928
1750854097808363800,21.92836376953125,9.68794059753418,0.735194742679596,0.23808585107326508
1750854097827188500,21.9471884765625,9.711869239807129,0.7878368496894836,0.22372891008853912
1750854097846013000,21.966012939453126,9.817152976989746,0.7160521745681763,0.2763710021972656
1750854097864837400,21.98483740234375,9.893723487854004,0.6921239495277405,0.28594231605529785
1750854097883662000,22.003662109375,10.003793716430664,0.5772684812545776,0.11844471842050552
1750854097902486500,22.022486572265624,10.056435585021973,0.6873382925987244,-0.010767702013254166
1750854097921311000,22.04131103515625,10.066006660461426,0.7447660565376282,-0.015553346835076809
1750854097940135400,22.060135498046876,10.003793716430664,0.6825526356697083,0.1423729509115219
1750854097958960000,22.078960205078126,9.932008743286133,0.6059823632240295,0.12801600992679596
1750854097977784600,22.09778466796875,9.860223770141602,0.6299105882644653,0.18544375896453857
1750854097996609000,22.116609130859374,10.066006660461426,0.6299105882644653,0.1902294009923935
1750854098015433700,22.135433837890623,10.195219039916992,0.5389832854270935,0.1902294009923935
1750854098034258200,22.154258056640625,10.185647964477539,0.5006981492042542,0.20458634197711945
1750854098053082600,22.17308251953125,10.056435585021973,0.7160521745681763,0.15672987699508667
1750854098071907300,22.1919072265625,9.89850902557373,0.8069794178009033,0.07058826833963394
1750854098090731800,22.210731689453127,9.778867721557617,0.7016952633857727,0.11844471842050552
1750854098109556200,22.22955615234375,9.903294563293457,0.6394818425178528,0.1663011759519577
1750854098128381000,22.248380859375,10.070792198181152,0.6107679605484009,0.1423729509115219
1750854098147205400,22.267205322265625,9.984650611877441,0.6777670383453369,0.15672987699508667
1750854098166029800,22.28602978515625,9.79801082611084,0.706480860710144,0.22851456701755524
1750854098184854500,22.3048544921875,9.754940032958984,0.6921239495277405,0.21415762603282928
1750854098203679000,22.323678955078126,9.903294563293457,0.6011967062950134,0.1136590763926506
1750854098222503400,22.34250341796875,9.965508460998535,0.6107679605484009,0.12801600992679596
1750854098241327900,22.361327880859374,9.93679428100586,0.6251249313354492,0.15194423496723175
1750854098260152600,22.380152587890624,9.88415241241455,0.6921239495277405,0.137587308883667
1750854098278977000,22.39897705078125,9.8267240524292,0.7016952633857727,0.1423729509115219
1750854098297801500,22.417801513671876,9.869794845581055,0.7208378314971924,0.1423729509115219
1750854098316626200,22.436626220703126,9.893723487854004,0.7256234884262085,0.09930214285850525
1750854098335450600,22.45545068359375,9.88415241241455,0.7830511927604675,0.07537391036748886
1750854098354275000,22.474275146484374,9.879366874694824,0.7782655358314514,0.0849452018737793
1750854098373099500,22.493099609375,9.955936431884766,0.8261220455169678,0.09930214285850525
1750854098391924200,22.51192431640625,9.807581901550293,0.8165507316589355,0.1663011759519577
1750854098410748700,22.530748779296875,9.697511672973633,0.8261220455169678,0.11844471842050552
1750854098429573000,22.549572998046877,9.611370086669922,0.8500502705574036,0.05623133108019829
1750854098448397800,22.568397705078127,9.841081619262695,0.8213363885879517,-0.010767702013254166
1750854098467222300,22.58722216796875,10.123434066772461,0.7304090857505798,-0.010767702013254166
1750854098486046700,22.606046630859375,10.003793716430664,0.6921239495277405,0.02273181453347206
1750854098504871400,22.624871337890625,9.888937950134277,0.7878368496894836,-0.08733802288770676
1750854098523695900,22.64369580078125,9.869794845581055,0.8165507316589355,0.003589233849197626
1750854098542520300,22.662520263671876,9.841081619262695,0.859621524810791,0.18065811693668365
1750854098561344800,22.6813447265625,9.8267240524292,0.8452646136283875,0.22851456701755524
1750854098580169500,22.70016943359375,9.927223205566406,0.8309076428413391,0.20458634197711945
1750854098598994000,22.718993896484374,9.874580383300781,0.8213363885879517,0.16151553392410278
1750854098617818400,22.737818359375,9.673583984375,0.9218349456787109,0.18065811693668365
1750854098636643000,22.75664306640625,9.640084266662598,0.9409775137901306,0.13280165195465088
1750854098655467500,22.775467529296876,9.735796928405762,0.8452646136283875,0.1136590763926506
1750854098674292000,22.7942919921875,9.778867721557617,0.7543373107910156,0.15672987699508667
1750854098693116400,22.813116455078124,9.888937950134277,0.7447660565376282,0.16151553392410278
1750854098711941000,22.831941162109374,10.089935302734375,0.7112665176391602,0.16151553392410278
1750854098730765600,22.850765625,9.999007225036621,0.7495517134666443,0.06580262631177902
1750854098749590000,22.869590087890625,9.793225288391113,0.7974081635475159,0.08973085135221481
1750854098768414700,22.888414794921875,9.821938514709473,0.7782655358314514,0.09451649338006973
1750854098787239200,22.9072392578125,9.888937950134277,0.7495517134666443,0.1663011759519577
1750854098806063600,22.926063720703127,9.927223205566406,0.7304090857505798,0.24287149310112
1750854098824888300,22.944888427734377,9.932008743286133,0.7399803996086121,0.1902294009923935
1750854098843712800,22.963712646484375,9.984650611877441,0.7160521745681763,0.013160524889826775
1750854098862537200,22.982537109375,10.089935302734375,0.6921239495277405,0.013160524889826775
1750854098881362000,23.00136181640625,9.865009307861328,0.8261220455169678,0.137587308883667
1750854098900186400,23.020186279296876,9.697511672973633,0.8261220455169678,0.2189432680606842
1750854098919010800,23.0390107421875,9.697511672973633,0.6921239495277405,0.1902294009923935
1750854098937835500,23.05783544921875,9.903294563293457,0.6777670383453369,0.10408778488636017
1750854098956660000,23.076659912109374,10.066006660461426,0.6538388133049011,0.0849452018737793
1750854098975484400,23.095484375,10.051650047302246,0.6634100675582886,0.14715859293937683
1750854098994308900,23.114308837890626,9.965508460998535,0.6969096064567566,0.12801600992679596
1750854099013133600,23.133133544921876,9.8267240524292,0.7304090857505798,0.0849452018737793
1750854099031958000,23.1519580078125,9.845867156982422,0.6777670383453369,0.14715859293937683
1750854099050782500,23.170782470703124,9.88415241241455,0.6873382925987244,0.18544375896453857
1750854099069607200,23.189607177734374,9.970293998718262,0.7256234884262085,0.0849452018737793
1750854099088431600,23.208431640625,10.080363273620605,0.7112665176391602,-0.020338991656899452
1750854099107256000,23.227256103515625,10.066006660461426,0.6969096064567566,0.037088751792907715
1750854099126080500,23.24608056640625,9.831509590148926,0.735194742679596,0.10408778488636017
1750854099144905200,23.2649052734375,9.740582466125488,0.7447660565376282,0.137587308883667
1750854099163729700,23.283729736328127,9.77408218383789,0.7112665176391602,0.1423729509115219
1750854099182554000,23.30255419921875,9.793225288391113,0.7160521745681763,0.10408778488636017
1750854099201378800,23.32137890625,9.874580383300781,0.7399803996086121,0.05144568532705307
1750854099220203300,23.340203369140625,9.975079536437988,0.7926225066184998,0.003589233849197626
1750854099239027700,23.35902783203125,9.88415241241455,0.7878368496894836,-0.08733802288770676
1750854099257852200,23.37785205078125,9.807581901550293,0.9074779748916626,-0.13998012244701385
1750854099276676900,23.3966767578125,9.697511672973633,0.7447660565376282,0.12323036789894104
1750854099295501300,23.415501220703124,9.740582466125488,0.6299105882644653,0.17587246000766754
1750854099314325800,23.43432568359375,9.946365356445312,0.6011967062950134,0.17587246000766754
1750854099333150500,23.453150390625,10.142577171325684,0.582054078578949,0.1663011759519577
1750854099351975000,23.471974853515626,10.195219039916992,0.5676971673965454,0.003589233849197626
1750854099370799400,23.49079931640625,9.89850902557373,0.6729813814163208,0.061016976833343506
1750854099389624000,23.5096240234375,9.93679428100586,0.7447660565376282,0.12801600992679596
1750854099408448500,23.528448486328124,10.018150329589844,0.7016952633857727,0.2476571500301361
1750854099427273000,23.54727294921875,9.903294563293457,0.6969096064567566,0.23330020904541016
1750854099446097400,23.566097412109375,9.865009307861328,0.7208378314971924,0.12801600992679596
1750854099464922000,23.584922119140625,9.879366874694824,0.7208378314971924,0.13280165195465088
1750854099483746600,23.60374658203125,9.845867156982422,0.7256234884262085,0.11844471842050552
1750854099502571000,23.622571044921877,9.817152976989746,0.7112665176391602,0.22372891008853912
1750854099521395700,23.641395751953127,10.00857925415039,0.8787640929222107,0.037088751792907715
1750854099540220200,23.66022021484375,9.8267240524292,0.7304090857505798,0.2715853750705719
1750854099559044600,23.679044677734375,9.802796363830566,0.6921239495277405,0.26201409101486206
1750854099577869300,23.697869384765625,10.032506942749023,0.7399803996086121,0.17108681797981262
1750854099596693800,23.71669384765625,9.965508460998535,0.768694281578064,0.15672987699508667
1750854099615518200,23.735518310546876,9.731011390686035,0.7926225066184998,0.22851456701755524
1750854099634342700,23.7543427734375,9.716654777526855,0.8213363885879517,0.137587308883667
1750854099653167400,23.77316748046875,9.93679428100586,0.6681957244873047,0.15672987699508667
1750854099671991800,23.79199169921875,10.348360061645508,0.6011967062950134,-0.058624155819416046
1750854099690816300,23.810816162109376,9.841081619262695,0.768694281578064,0.20937198400497437
1750854099709641000,23.829640869140626,9.740582466125488,0.7926225066184998,0.2189432680606842
1750854099728465400,23.84846533203125,9.879366874694824,0.768694281578064,0.2667997181415558
1750854099747289900,23.867289794921874,9.984650611877441,0.7878368496894836,0.15672987699508667
1750854099766114300,23.8861142578125,9.908080101013184,0.8069794178009033,0.07537391036748886
1750854099784939000,23.90493896484375,9.860223770141602,0.8644071817398071,0.14715859293937683
1750854099803763500,23.923763427734375,9.927223205566406,0.8835497498512268,0.17587246000766754
1750854099822588000,23.942587890625,9.764511108398438,0.9314061999320984,0.1663011759519577
1750854099841412600,23.96141259765625,9.587442398071289,0.9601200819015503,0.1902294009923935
1750854099860237000,23.980237060546877,9.70229721069336,0.9361918568611145,0.18544375896453857
1750854099879061500,23.9990615234375,9.927223205566406,0.8739784955978394,0.1663011759519577
1750854099897886000,24.017885986328125,9.89850902557373,0.8500502705574036,0.12323036789894104
1750854099916710700,24.036710693359375,9.917651176452637,0.7974081635475159,0.18065811693668365
1750854099935535000,24.05553515625,9.946365356445312,0.7926225066184998,0.13280165195465088
1750854099954359600,24.074359619140626,9.831509590148926,0.8787640929222107,0.08015955984592438
