t,gx,gy,gz,ax,ay,az,temp
3,-548.00,117.00,-21.00,-124.00,268.00,18412.00,-2496.00
19,-217.00,-115.00,-363.00,-156.00,-32.00,18540.00,-2528.00
35,185.00,-516.00,-553.00,-176.00,20.00,18664.00,-2544.00
52,-147.00,-432.00,-556.00,-68.00,84.00,18764.00,-2544.00
67,-591.00,-182.00,-552.00,-176.00,-108.00,18512.00,-2512.00
83,-214.00,-12.00,-189.00,-88.00,-316.00,18760.00,-2512.00
100,149.00,-94.00,-350.00,-272.00,-360.00,18728.00,-2480.00
116,224.00,-253.00,-739.00,-248.00,-20.00,18724.00,-2528.00
133,157.00,-125.00,-371.00,-180.00,324.00,18276.00,-2512.00
149,-226.00,69.00,-22.00,-292.00,40.00,18600.00,-2512.00
165,-106.00,-96.00,37.00,-264.00,-448.00,18680.00,-2512.00
182,155.00,-96.00,-38.00,-236.00,-216.00,18628.00,-2528.00
198,307.00,-223.00,50.00,20.00,-68.00,18860.00,-2512.00
215,-18.00,-75.00,-116.00,76.00,-8.00,18744.00,-2512.00
231,-172.00,-79.00,-453.00,40.00,124.00,18904.00,-2496.00
247,-147.00,95.00,-628.00,20.00,64.00,18696.00,-2512.00
264,-229.00,236.00,-504.00,-108.00,-160.00,18552.00,-2544.00
280,123.00,85.00,-233.00,-336.00,-332.00,18432.00,-2544.00
296,287.00,-47.00,-166.00,-104.00,40.00,18688.00,-2528.00
313,88.00,-36.00,-236.00,-64.00,264.00,18616.00,-2512.00
328,-117.00,62.00,-270.00,-164.00,72.00,18452.00,-2544.00
345,-239.00,61.00,-334.00,-296.00,-248.00,18656.00,-2496.00
361,-204.00,-78.00,-406.00,-260.00,-340.00,18460.00,-2544.00
377,177.00,-69.00,-270.00,-172.00,-224.00,18696.00,-2496.00
394,735.00,-434.00,-129.00,148.00,-72.00,18520.00,-2544.00
410,469.00,-330.00,-207.00,116.00,180.00,18632.00,-2528.00
427,13.00,-70.00,-225.00,112.00,28.00,18912.00,-2496.00
443,7.00,66.00,-358.00,-8.00,-116.00,18788.00,-2496.00
459,191.00,18.00,-306.00,-68.00,-72.00,18624.00,-2544.00
476,264.00,7.00,-73.00,-100.00,-148.00,18500.00,-2528.00
492,71.00,141.00,-124.00,-192.00,-88.00,18512.00,-2528.00
508,73.00,32.00,-256.00,-96.00,-176.00,18800.00,-2560.00
525,524.00,-42.00,8.00,-68.00,36.00,18564.00,-2544.00
540,354.00,126.00,38.00,-228.00,168.00,18464.00,-2528.00
557,205.00,75.00,-295.00,-252.00,-76.00,18780.00,-2512.00
573,320.00,-216.00,-677.00,-156.00,-252.00,18708.00,-2528.00
589,383.00,-453.00,-673.00,-80.00,-180.00,18568.00,-2512.00
606,570.00,-536.00,-173.00,100.00,0.00,18448.00,-2528.00
622,151.00,-289.00,15.00,260.00,220.00,18700.00,-2544.00
638,-274.00,255.00,46.00,128.00,180.00,18732.00,-2528.00
655,-143.00,233.00,-195.00,28.00,-80.00,18608.00,-2512.00
671,100.00,15.00,-503.00,52.00,-180.00,18512.00,-2544.00
688,356.00,-62.00,-479.00,-172.00,-88.00,18504.00,-2528.00
704,381.00,-165.00,-303.00,-32.00,64.00,18340.00,-2560.00
720,187.00,-256.00,-353.00,-124.00,72.00,18588.00,-2512.00
737,36.00,-266.00,-502.00,-184.00,124.00,18576.00,-2496.00
753,43.00,-242.00,-384.00,-140.00,36.00,18812.00,-2544.00
770,59.00,-200.00,-335.00,-208.00,64.00,18748.00,-2528.00
786,286.00,-198.00,-253.00,-136.00,32.00,18576.00,-2528.00
802,523.00,-233.00,-41.00,-96.00,32.00,18624.00,-2544.00
819,540.00,237.00,22.00,-72.00,-148.00,18556.00,-2544.00
835,515.00,379.00,424.00,-20.00,96.00,18440.00,-2528.00
850,246.00,586.00,701.00,-76.00,88.00,18368.00,-2496.00
867,59.00,405.00,719.00,-176.00,-128.00,18472.00,-2480.00
883,203.00,74.00,535.00,-232.00,100.00,18596.00,-2528.00
900,325.00,268.00,388.00,-256.00,84.00,18636.00,-2544.00
916,458.00,193.00,413.00,-216.00,28.00,18596.00,-2528.00
932,159.00,285.00,516.00,100.00,-156.00,18968.00,-2512.00
949,48.00,126.00,357.00,144.00,48.00,18808.00,-2528.00
965,-101.00,387.00,268.00,360.00,240.00,18788.00,-2512.00
982,-193.00,165.00,190.00,132.00,160.00,18656.00,-2496.00
998,-401.00,-104.00,63.00,196.00,156.00,18756.00,-2528.00
1014,-421.00,-351.00,225.00,-12.00,84.00,18576.00,-2544.00
1031,-261.00,-173.00,384.00,-172.00,60.00,18456.00,-2528.00
1047,-251.00,19.00,329.00,-72.00,120.00,18684.00,-2512.00
1063,-248.00,-90.00,153.00,-100.00,152.00,18372.00,-2496.00
1080,-343.00,-431.00,41.00,-28.00,216.00,18664.00,-2528.00
1096,-385.00,-831.00,-83.00,-116.00,76.00,18696.00,-2512.00
1113,-591.00,-397.00,-192.00,-36.00,-40.00,18832.00,-2528.00
1129,-300.00,-339.00,51.00,-92.00,-104.00,18684.00,-2544.00
1145,-185.00,-221.00,367.00,-32.00,-120.00,18676.00,-2528.00
1162,-534.00,-341.00,606.00,72.00,-292.00,18768.00,-2528.00
1178,-929.00,122.00,278.00,100.00,-304.00,18760.00,-2544.00
1195,-1236.00,842.00,-2.00,-168.00,-148.00,18708.00,-2512.00
1212,-1136.00,554.00,328.00,176.00,-204.00,18568.00,-2480.00
1228,-996.00,-210.00,184.00,-52.00,-168.00,18696.00,-2544.00
1245,-745.00,-906.00,29.00,-24.00,-208.00,18600.00,-2560.00
1261,-595.00,-2878.00,444.00,196.00,-1204.00,18480.00,-2512.00
1277,418.00,-2194.00,-1049.00,-676.00,-268.00,17724.00,-2528.00
1294,-49.00,353.00,-32.00,84.00,-204.00,18544.00,-2480.00
1310,625.00,-271.00,-225.00,276.00,-240.00,18468.00,-2512.00
1327,432.00,177.00,-94.00,492.00,-108.00,18588.00,-2512.00
1343,412.00,471.00,-313.00,40.00,-176.00,18568.00,-2512.00
1359,378.00,494.00,-141.00,136.00,-276.00,18540.00,-2496.00
1376,269.00,411.00,-5.00,0.00,-308.00,18648.00,-2528.00
1392,240.00,75.00,-139.00,-8.00,-420.00,18540.00,-2496.00
1409,210.00,39.00,-324.00,328.00,-316.00,18644.00,-2512.00
1425,375.00,19.00,-388.00,248.00,-320.00,18852.00,-2512.00
1441,465.00,168.00,-452.00,172.00,-348.00,18812.00,-2528.00
1458,265.00,390.00,-393.00,52.00,-204.00,18612.00,-2528.00
1474,56.00,436.00,-441.00,44.00,-420.00,18688.00,-2544.00
1490,26.00,366.00,-479.00,-40.00,-324.00,18404.00,-2528.00
1507,180.00,337.00,-354.00,96.00,-260.00,18544.00,-2544.00
1523,346.00,269.00,-211.00,116.00,-244.00,18732.00,-2512.00
1540,291.00,85.00,-319.00,-112.00,-104.00,18684.00,-2544.00
1556,311.00,-108.00,-452.00,-100.00,-204.00,18600.00,-2496.00
1572,400.00,128.00,-424.00,40.00,-176.00,18484.00,-2528.00
1589,480.00,275.00,-63.00,424.00,-44.00,18772.00,-2544.00
1605,473.00,268.00,158.00,320.00,-116.00,18676.00,-2528.00
1623,384.00,299.00,57.00,108.00,-136.00,18480.00,-2528.00
1639,364.00,538.00,-163.00,-484.00,-136.00,18476.00,-2512.00
1655,612.00,1246.00,-111.00,-228.00,-264.00,18388.00,-2512.00
1672,951.00,1104.00,276.00,-128.00,-116.00,18620.00,-2544.00
1688,931.00,668.00,247.00,-96.00,-184.00,18656.00,-2528.00
1704,548.00,148.00,-96.00,-20.00,-136.00,19052.00,-2512.00
1721,272.00,24.00,-361.00,-188.00,-56.00,18412.00,-2528.00
1737,427.00,-133.00,-290.00,-196.00,-232.00,18732.00,-2544.00
1754,342.00,62.00,-235.00,-104.00,-100.00,18532.00,-2512.00
1770,97.00,200.00,-465.00,-108.00,-40.00,18648.00,-2496.00
1786,-153.00,23.00,-320.00,-108.00,20.00,18532.00,-2512.00
1803,-42.00,10.00,-171.00,-144.00,-64.00,18640.00,-2528.00
1819,53.00,195.00,39.00,-48.00,0.00,18600.00,-2496.00
1836,3.00,340.00,71.00,-152.00,-80.00,18824.00,-2512.00
1852,34.00,-69.00,-115.00,-164.00,76.00,18480.00,-2528.00
1867,77.00,-215.00,-298.00,-324.00,0.00,18588.00,-2528.00
1884,160.00,-295.00,-309.00,-208.00,-168.00,18556.00,-2544.00
1901,373.00,-505.00,-332.00,-24.00,-152.00,18476.00,-2544.00
1917,385.00,-281.00,-475.00,-24.00,-60.00,18652.00,-2528.00
1934,315.00,-201.00,-223.00,-100.00,-200.00,18588.00,-2512.00
1950,243.00,-307.00,-50.00,-104.00,88.00,18612.00,-2480.00
1967,126.00,-186.00,117.00,-184.00,36.00,18784.00,-2496.00
1983,159.00,-167.00,-22.00,-300.00,-132.00,18588.00,-2576.00
1999,327.00,-332.00,-42.00,-124.00,-52.00,18240.00,-2544.00
2016,259.00,-658.00,44.00,300.00,-88.00,18716.00,-2528.00
2032,26.00,-729.00,-74.00,0.00,-24.00,18476.00,-2512.00
2048,105.00,-585.00,-258.00,-188.00,-20.00,18336.00,-2496.00
2064,352.00,227.00,21.00,124.00,244.00,18588.00,-2560.00
2080,349.00,843.00,538.00,4.00,-60.00,18592.00,-2512.00
2097,415.00,593.00,521.00,100.00,168.00,18756.00,-2480.00
2113,209.00,209.00,300.00,-72.00,8.00,18888.00,-2480.00
2129,474.00,-999.00,-53.00,68.00,-200.00,17932.00,-2528.00
2146,294.00,-272.00,-249.00,92.00,172.00,18820.00,-2512.00
2162,103.00,120.00,84.00,-132.00,200.00,18380.00,-2560.00
2179,423.00,40.00,-364.00,-136.00,40.00,18356.00,-2512.00
2195,822.00,-286.00,-505.00,88.00,208.00,18752.00,-2528.00
2211,898.00,-77.00,-434.00,156.00,260.00,18844.00,-2528.00
2229,1012.00,-236.00,-321.00,12.00,84.00,18704.00,-2544.00
2245,850.00,-31.00,-344.00,48.00,132.00,18768.00,-2544.00
2262,638.00,133.00,-205.00,32.00,228.00,18444.00,-2512.00
2278,357.00,230.00,-196.00,268.00,248.00,18812.00,-2512.00
2294,493.00,-76.00,-285.00,-248.00,124.00,18320.00,-2496.00
2311,810.00,130.00,-340.00,-100.00,84.00,18440.00,-2528.00
2327,889.00,274.00,103.00,72.00,184.00,18464.00,-2512.00
2343,758.00,271.00,36.00,-212.00,176.00,18560.00,-2528.00
2360,790.00,-58.00,-101.00,-216.00,232.00,18688.00,-2512.00
2376,757.00,-98.00,-243.00,-88.00,288.00,18792.00,-2512.00
2393,645.00,-10.00,-342.00,-40.00,528.00,18664.00,-2528.00
2409,726.00,101.00,-434.00,92.00,360.00,18468.00,-2544.00
2425,1000.00,146.00,-205.00,108.00,352.00,18604.00,-2544.00
2442,1322.00,215.00,-8.00,212.00,388.00,18560.00,-2496.00
2458,1629.00,232.00,236.00,-20.00,424.00,18536.00,-2512.00
2475,1693.00,228.00,171.00,-128.00,464.00,18656.00,-2512.00
2491,1533.00,256.00,-10.00,-260.00,668.00,18824.00,-2512.00
2507,1366.00,111.00,-266.00,-280.00,620.00,18472.00,-2512.00
2524,1169.00,313.00,-354.00,-156.00,380.00,18588.00,-2512.00
2540,1127.00,303.00,-263.00,-64.00,488.00,18612.00,-2544.00
2556,938.00,341.00,-104.00,64.00,724.00,18812.00,-2512.00
2573,688.00,-94.00,-121.00,-144.00,700.00,18604.00,-2528.00
2590,372.00,-139.00,-99.00,28.00,872.00,18576.00,-2496.00
2606,165.00,-33.00,-66.00,-84.00,776.00,18628.00,-2512.00
2622,160.00,230.00,-87.00,-144.00,696.00,18572.00,-2512.00
2638,319.00,104.00,-72.00,-36.00,796.00,18660.00,-2528.00
2655,500.00,-57.00,-188.00,-4.00,916.00,18496.00,-2512.00
2671,706.00,10.00,-212.00,-212.00,768.00,18396.00,-2528.00
2688,797.00,101.00,-79.00,-168.00,856.00,18316.00,-2512.00
2704,667.00,407.00,-80.00,-120.00,900.00,18656.00,-2512.00
2720,849.00,129.00,-125.00,-264.00,828.00,18496.00,-2528.00
2738,859.00,26.00,-139.00,8.00,984.00,18648.00,-2528.00
2753,783.00,-154.00,-174.00,-172.00,852.00,18620.00,-2480.00
2770,926.00,-256.00,-271.00,-204.00,788.00,18472.00,-2496.00
2787,823.00,-155.00,-114.00,-116.00,940.00,18528.00,-2528.00
2803,662.00,-90.00,2.00,-88.00,1080.00,18504.00,-2528.00
2820,471.00,17.00,78.00,-124.00,936.00,18860.00,-2528.00
2836,419.00,42.00,-84.00,-156.00,1032.00,18444.00,-2480.00
2852,276.00,97.00,-119.00,-108.00,1068.00,18764.00,-2544.00
2869,222.00,77.00,-185.00,-136.00,1112.00,18636.00,-2496.00
2885,206.00,-29.00,-239.00,-140.00,1116.00,18620.00,-2512.00
2902,345.00,-204.00,-137.00,-164.00,1088.00,18520.00,-2512.00
2918,389.00,18.00,-159.00,-168.00,1116.00,18452.00,-2512.00
2934,396.00,204.00,-135.00,-32.00,1080.00,18480.00,-2480.00
2951,569.00,196.00,-138.00,-40.00,1212.00,18688.00,-2544.00
2967,565.00,218.00,-55.00,-104.00,1180.00,18756.00,-2480.00
2983,431.00,6.00,-203.00,-184.00,1128.00,18640.00,-2496.00
3000,488.00,-105.00,-402.00,-240.00,1120.00,18340.00,-2496.00
3016,463.00,-9.00,-342.00,-24.00,1152.00,18512.00,-2496.00
3033,399.00,169.00,-140.00,-224.00,1240.00,18476.00,-2512.00
3050,533.00,61.00,-85.00,112.00,1336.00,18756.00,-2512.00
3066,526.00,131.00,5.00,4.00,1236.00,18800.00,-2512.00
3083,556.00,168.00,-69.00,-120.00,1140.00,18476.00,-2480.00
3099,516.00,227.00,-122.00,-192.00,1236.00,18544.00,-2512.00
3116,373.00,320.00,-100.00,-180.00,1292.00,18344.00,-2512.00
3132,411.00,229.00,-106.00,-252.00,1264.00,18384.00,-2512.00
3148,500.00,174.00,-172.00,-352.00,1232.00,18452.00,-2544.00
3165,610.00,-9.00,-226.00,-156.00,1252.00,18448.00,-2480.00
3181,649.00,-25.00,-222.00,-244.00,1344.00,18720.00,-2512.00
3197,636.00,-55.00,-337.00,-316.00,1448.00,18620.00,-2512.00
3214,698.00,-174.00,-273.00,-324.00,1440.00,18420.00,-2512.00
3230,704.00,30.00,-393.00,-156.00,1436.00,18644.00,-2544.00
3248,903.00,45.00,-327.00,-120.00,1336.00,18640.00,-2512.00
3264,914.00,84.00,-95.00,160.00,1500.00,18668.00,-2528.00
3280,610.00,162.00,48.00,84.00,1488.00,18476.00,-2560.00
3297,613.00,23.00,60.00,-248.00,1424.00,18484.00,-2512.00
3313,803.00,371.00,-95.00,-364.00,1332.00,18500.00,-2496.00
3330,914.00,252.00,-140.00,-420.00,1352.00,18404.00,-2496.00
3346,1048.00,46.00,-217.00,-284.00,1352.00,18444.00,-2528.00
3362,950.00,-215.00,-85.00,-244.00,1448.00,18604.00,-2528.00
3379,623.00,-116.00,-80.00,-204.00,1580.00,18708.00,-2528.00
3395,282.00,-243.00,-178.00,-176.00,1508.00,18612.00,-2496.00
3411,75.00,-14.00,-279.00,-204.00,1500.00,18540.00,-2496.00
3428,5.00,-61.00,-342.00,-160.00,1520.00,18520.00,-2512.00
3444,-114.00,27.00,-191.00,-136.00,1680.00,18532.00,-2528.00
3461,-58.00,64.00,96.00,64.00,1608.00,18456.00,-2528.00
3477,14.00,-20.00,120.00,-180.00,1600.00,18536.00,-2512.00
3493,79.00,50.00,52.00,-196.00,1640.00,18472.00,-2528.00
3510,153.00,107.00,-90.00,-232.00,1536.00,18476.00,-2544.00
3526,365.00,42.00,-182.00,-128.00,1652.00,18540.00,-2512.00
3543,480.00,40.00,-287.00,-104.00,1732.00,18468.00,-2528.00
3560,537.00,-26.00,-351.00,-372.00,1596.00,18348.00,-2496.00
3576,598.00,-41.00,-388.00,-160.00,1620.00,18396.00,-2496.00
3593,632.00,119.00,-314.00,-200.00,1648.00,18544.00,-2496.00
3609,684.00,-2.00,-95.00,-160.00,1604.00,18580.00,-2496.00
3625,570.00,128.00,-34.00,-160.00,1584.00,18424.00,-2512.00
3642,511.00,4.00,-67.00,-216.00,1652.00,18636.00,-2512.00
3658,484.00,117.00,-165.00,-244.00,1760.00,18412.00,-2480.00
3675,498.00,0.00,-156.00,-296.00,1776.00,18456.00,-2512.00
3691,361.00,-100.00,-59.00,-148.00,1732.00,18452.00,-2512.00
3707,296.00,-90.00,-189.00,-52.00,1784.00,18548.00,-2480.00
3724,502.00,27.00,-214.00,-56.00,1828.00,18476.00,-2496.00
3740,636.00,-7.00,-185.00,-280.00,1772.00,18444.00,-2512.00
3757,614.00,-81.00,-161.00,-276.00,1648.00,18388.00,-2512.00
3773,538.00,18.00,-96.00,-324.00,1824.00,18440.00,-2480.00
3789,462.00,38.00,66.00,-188.00,1820.00,18332.00,-2528.00
3806,364.00,91.00,14.00,-268.00,1892.00,18432.00,-2512.00
3822,529.00,-92.00,-287.00,-448.00,1908.00,18440.00,-2544.00
3838,807.00,-166.00,-417.00,-304.00,1860.00,18312.00,-2480.00
3856,860.00,46.00,-414.00,44.00,1872.00,18772.00,-2512.00
3872,648.00,-78.00,-367.00,32.00,2024.00,18624.00,-2496.00
3889,593.00,-172.00,-230.00,-16.00,1892.00,18572.00,-2512.00
3905,521.00,-62.00,-148.00,-32.00,1996.00,18476.00,-2512.00
3921,588.00,71.00,-20.00,-232.00,1980.00,18280.00,-2544.00
3938,530.00,209.00,95.00,-188.00,1936.00,18392.00,-2528.00
3954,464.00,22.00,107.00,-252.00,2040.00,18540.00,-2496.00
3971,367.00,-117.00,-190.00,-352.00,1888.00,18540.00,-2512.00
3987,372.00,-178.00,-375.00,-244.00,1924.00,18388.00,-2512.00
4003,520.00,-224.00,-192.00,-196.00,2016.00,18432.00,-2512.00
4020,685.00,-7.00,-131.00,-284.00,1980.00,18524.00,-2528.00
4036,576.00,-181.00,20.00,16.00,2116.00,18608.00,-2512.00
4052,260.00,-88.00,-133.00,-144.00,2212.00,18592.00,-2512.00
4069,226.00,12.00,-174.00,28.00,2248.00,18572.00,-2528.00
4085,370.00,21.00,-238.00,84.00,2176.00,18392.00,-2528.00
4103,619.00,-84.00,-158.00,-56.00,2080.00,18220.00,-2512.00
4119,830.00,-7.00,-56.00,-120.00,2076.00,18536.00,-2528.00
4135,1013.00,132.00,-42.00,-136.00,2136.00,18452.00,-2544.00
4152,1201.00,-40.00,-115.00,-264.00,2128.00,18508.00,-2512.00
4168,1250.00,-40.00,-248.00,-420.00,2280.00,18488.00,-2496.00
4185,1165.00,-254.00,-423.00,-320.00,2152.00,18440.00,-2496.00
4201,1237.00,-278.00,-271.00,-132.00,2176.00,18300.00,-2512.00
4217,1075.00,-283.00,-62.00,-172.00,2304.00,18432.00,-2544.00
4234,861.00,-238.00,-70.00,-28.00,2244.00,18616.00,-2496.00
4250,781.00,-63.00,22.00,-44.00,2488.00,18496.00,-2512.00
4267,487.00,104.00,98.00,48.00,2492.00,18636.00,-2528.00
4283,271.00,34.00,34.00,-84.00,2456.00,18448.00,-2512.00
4299,261.00,-42.00,-6.00,64.00,2576.00,18592.00,-2496.00
4316,306.00,56.00,-121.00,-24.00,2348.00,18252.00,-2512.00
4332,507.00,-90.00,-160.00,-76.00,2508.00,18132.00,-2512.00
4348,665.00,5.00,-88.00,-100.00,2648.00,18212.00,-2528.00
4365,979.00,106.00,8.00,-36.00,2584.00,18288.00,-2512.00
4381,1049.00,18.00,44.00,-132.00,2644.00,18308.00,-2496.00
4399,1143.00,83.00,-73.00,-80.00,2608.00,18524.00,-2528.00
4415,1193.00,57.00,-275.00,-160.00,2400.00,18520.00,-2512.00
4431,1116.00,-69.00,-308.00,-96.00,2476.00,18444.00,-2512.00
4448,951.00,-207.00,-227.00,-48.00,2668.00,18452.00,-2512.00
4464,742.00,17.00,-270.00,-184.00,2652.00,18496.00,-2512.00
4481,683.00,31.00,-152.00,-88.00,2648.00,18464.00,-2480.00
4497,668.00,74.00,-83.00,-164.00,2764.00,18304.00,-2496.00
4513,666.00,-45.00,-13.00,-148.00,2696.00,18404.00,-2544.00
4530,739.00,-43.00,-136.00,-132.00,2840.00,18144.00,-2544.00
4546,820.00,-43.00,-189.00,0.00,2760.00,18332.00,-2480.00
4562,829.00,-173.00,-188.00,60.00,2872.00,18416.00,-2480.00
4579,781.00,-154.00,-261.00,-60.00,2884.00,18188.00,-2512.00
4595,977.00,-169.00,-224.00,-136.00,2880.00,18364.00,-2512.00
4612,1070.00,0.00,-166.00,-72.00,2956.00,18464.00,-2480.00
4628,975.00,148.00,-115.00,-120.00,2960.00,18252.00,-2512.00
4644,891.00,-24.00,-136.00,-160.00,2944.00,18300.00,-2544.00
4662,866.00,-62.00,-241.00,-92.00,2960.00,18252.00,-2512.00
4678,896.00,-163.00,-189.00,112.00,3024.00,18408.00,-2496.00
4695,904.00,-81.00,-163.00,-52.00,3044.00,18336.00,-2496.00
4711,830.00,137.00,-182.00,28.00,3064.00,18360.00,-2512.00
4727,761.00,156.00,-131.00,72.00,3072.00,18424.00,-2512.00
4744,614.00,192.00,-88.00,-60.00,3096.00,18360.00,-2544.00
4760,392.00,189.00,-64.00,-72.00,3136.00,18148.00,-2496.00
4776,299.00,229.00,-169.00,-184.00,3020.00,18204.00,-2528.00
4793,510.00,-91.00,-240.00,-188.00,3064.00,18064.00,-2528.00
4809,848.00,-197.00,-151.00,-272.00,3116.00,18068.00,-2496.00
4826,960.00,-226.00,-61.00,-372.00,3200.00,18028.00,-2528.00
4842,912.00,-249.00,-168.00,-92.00,3352.00,18356.00,-2496.00
4858,802.00,-401.00,-318.00,-84.00,3352.00,18412.00,-2496.00
4876,942.00,-492.00,-445.00,156.00,3384.00,18296.00,-2496.00
4892,1107.00,-337.00,-342.00,92.00,3364.00,18220.00,-2528.00
4909,1221.00,179.00,-104.00,164.00,3380.00,18220.00,-2496.00
4925,1325.00,218.00,160.00,12.00,3436.00,18100.00,-2528.00
4941,1304.00,194.00,213.00,-72.00,3528.00,18212.00,-2544.00
4958,1184.00,35.00,37.00,-232.00,3492.00,18096.00,-2512.00
4974,1016.00,-63.00,-241.00,-156.00,3444.00,18132.00,-2496.00
4990,909.00,-97.00,-273.00,-88.00,3436.00,18256.00,-2512.00
5007,791.00,181.00,-325.00,60.00,3428.00,18372.00,-2496.00
5024,789.00,45.00,-137.00,120.00,3556.00,18496.00,-2528.00
5041,519.00,75.00,-70.00,-48.00,3564.00,18528.00,-2496.00
5057,220.00,30.00,-70.00,-80.00,3536.00,18316.00,-2512.00
5073,74.00,29.00,-66.00,-52.00,3648.00,18156.00,-2544.00
5089,13.00,50.00,-41.00,-20.00,3468.00,17988.00,-2528.00
5105,250.00,-87.00,-124.00,-8.00,3656.00,18212.00,-2480.00
5122,397.00,34.00,-169.00,36.00,3716.00,18212.00,-2544.00
5138,352.00,188.00,-321.00,-80.00,3748.00,18288.00,-2480.00
5155,397.00,133.00,-375.00,-108.00,3684.00,18032.00,-2512.00
5172,763.00,-36.00,-440.00,-24.00,3740.00,18124.00,-2512.00
5188,879.00,-10.00,-311.00,-36.00,3812.00,18128.00,-2544.00
5204,864.00,-66.00,-173.00,-76.00,3676.00,18156.00,-2496.00
5221,617.00,178.00,-154.00,-120.00,3612.00,18120.00,-2496.00
5237,511.00,114.00,-169.00,-148.00,3800.00,18144.00,-2464.00
5254,672.00,-85.00,-201.00,-200.00,3820.00,18228.00,-2496.00
5270,857.00,-51.00,-298.00,-60.00,3736.00,18084.00,-2496.00
5286,974.00,-4.00,-349.00,-56.00,3816.00,18120.00,-2480.00
5303,965.00,145.00,-334.00,100.00,3720.00,18124.00,-2496.00
5319,879.00,9.00,-162.00,108.00,3832.00,18112.00,-2496.00
5336,758.00,38.00,-6.00,28.00,3856.00,18108.00,-2512.00
5352,567.00,75.00,-36.00,76.00,4084.00,18068.00,-2496.00
5368,464.00,36.00,-82.00,-112.00,3928.00,18164.00,-2512.00
5385,406.00,259.00,-163.00,-144.00,4068.00,18052.00,-2512.00
5401,401.00,101.00,-55.00,-48.00,3908.00,18144.00,-2480.00
5417,545.00,107.00,-102.00,-80.00,3872.00,18184.00,-2496.00
5434,813.00,13.00,-175.00,-28.00,4100.00,18052.00,-2496.00
5451,1009.00,-31.00,-223.00,-228.00,3956.00,17860.00,-2512.00
5468,1130.00,-63.00,-310.00,-180.00,4036.00,17944.00,-2480.00
5484,967.00,5.00,-299.00,8.00,4156.00,18084.00,-2512.00
5500,800.00,98.00,-279.00,168.00,4128.00,18428.00,-2496.00
5517,725.00,77.00,-294.00,124.00,4192.00,18120.00,-2496.00
5533,757.00,-25.00,-286.00,24.00,4124.00,18152.00,-2480.00
5550,737.00,15.00,-263.00,-24.00,4188.00,17940.00,-2512.00
5566,538.00,76.00,-69.00,-60.00,4284.00,17996.00,-2496.00
5582,421.00,249.00,-100.00,-120.00,4156.00,18160.00,-2512.00
5599,411.00,96.00,-143.00,-68.00,4032.00,17912.00,-2512.00
5615,657.00,25.00,-164.00,-164.00,4080.00,17744.00,-2512.00
5632,895.00,-167.00,-130.00,-268.00,4232.00,17872.00,-2496.00
5648,891.00,-176.00,-265.00,-368.00,4292.00,17944.00,-2512.00
5664,813.00,-122.00,-368.00,-212.00,4428.00,18016.00,-2512.00
5682,722.00,68.00,-506.00,-144.00,4444.00,17984.00,-2512.00
5698,854.00,-26.00,-403.00,232.00,4492.00,18088.00,-2512.00
5714,999.00,36.00,-233.00,216.00,4532.00,17916.00,-2544.00
5731,1031.00,42.00,-58.00,208.00,4532.00,17944.00,-2528.00
5747,1075.00,122.00,-64.00,8.00,4444.00,17832.00,-2496.00
5764,1160.00,185.00,-155.00,-272.00,4420.00,17912.00,-2512.00
5780,1250.00,139.00,-275.00,-364.00,4424.00,17900.00,-2528.00
5796,1281.00,214.00,-423.00,-388.00,4464.00,17808.00,-2496.00
5813,1095.00,127.00,-373.00,-128.00,4480.00,17876.00,-2480.00
5830,1070.00,-41.00,-270.00,-60.00,4548.00,17960.00,-2512.00
5847,932.00,-162.00,-183.00,-132.00,4580.00,17996.00,-2528.00
5863,633.00,94.00,-247.00,-112.00,4676.00,18060.00,-2480.00
5879,325.00,49.00,-251.00,-116.00,4688.00,17916.00,-2480.00
5896,199.00,152.00,-193.00,4.00,4696.00,17960.00,-2512.00
5912,158.00,155.00,-33.00,16.00,4756.00,17936.00,-2528.00
5928,212.00,125.00,17.00,-48.00,4776.00,17940.00,-2480.00
5945,283.00,244.00,108.00,-84.00,4728.00,17880.00,-2512.00
5961,428.00,135.00,95.00,-272.00,4752.00,17736.00,-2528.00
5978,469.00,137.00,-65.00,-324.00,4824.00,17908.00,-2528.00
5994,700.00,-14.00,-130.00,-256.00,4804.00,17968.00,-2464.00
6010,656.00,23.00,-159.00,-168.00,4676.00,17748.00,-2528.00
6027,738.00,50.00,-248.00,-88.00,4884.00,18064.00,-2528.00
6043,685.00,130.00,-132.00,120.00,4880.00,17884.00,-2512.00
6061,992.00,122.00,-89.00,-200.00,4832.00,17832.00,-2512.00
6077,1229.00,332.00,-200.00,-272.00,4908.00,17824.00,-2512.00
6093,1520.00,59.00,-198.00,-136.00,4932.00,17916.00,-2496.00
6110,1476.00,149.00,-370.00,-280.00,4872.00,17732.00,-2512.00
6126,1397.00,275.00,-437.00,-216.00,5008.00,17684.00,-2496.00
6142,1210.00,395.00,-383.00,-156.00,5140.00,17832.00,-2512.00
6159,1244.00,429.00,-277.00,-136.00,5220.00,17700.00,-2496.00
6176,1200.00,272.00,-115.00,-260.00,5256.00,17640.00,-2528.00
6193,977.00,281.00,29.00,-48.00,5172.00,17824.00,-2480.00
6209,861.00,124.00,-48.00,-208.00,5164.00,17888.00,-2496.00
6225,894.00,156.00,-201.00,-388.00,5196.00,17612.00,-2560.00
6242,973.00,146.00,-220.00,-340.00,5256.00,17636.00,-2464.00
6258,873.00,14.00,-217.00,-316.00,5280.00,17544.00,-2496.00
6275,904.00,-8.00,-269.00,-312.00,5240.00,17464.00,-2528.00
6291,1025.00,40.00,-251.00,-180.00,5440.00,17848.00,-2512.00
6307,1161.00,-19.00,-286.00,-120.00,5536.00,17580.00,-2496.00
6325,1259.00,75.00,-319.00,-312.00,5496.00,17688.00,-2528.00
6341,1264.00,372.00,-328.00,-212.00,5252.00,17880.00,-2528.00
6358,841.00,495.00,-237.00,-100.00,5276.00,17880.00,-2512.00
6374,549.00,194.00,-128.00,-284.00,5392.00,17728.00,-2512.00
6390,465.00,108.00,-129.00,-340.00,5436.00,17744.00,-2512.00
6407,403.00,74.00,-140.00,-352.00,5544.00,17636.00,-2480.00
6423,345.00,10.00,-213.00,-564.00,5520.00,17488.00,-2512.00
6439,506.00,226.00,-378.00,-352.00,5464.00,17480.00,-2512.00
6457,541.00,194.00,-299.00,-304.00,5500.00,17616.00,-2480.00
6473,858.00,-29.00,-448.00,-392.00,5740.00,17600.00,-2512.00
6490,825.00,29.00,-326.00,-344.00,5832.00,17372.00,-2512.00
6506,1144.00,85.00,-308.00,-356.00,5756.00,17520.00,-2512.00
6522,1146.00,272.00,-275.00,-124.00,5896.00,17496.00,-2512.00
6539,1298.00,342.00,-333.00,-288.00,5676.00,17504.00,-2496.00
6555,1321.00,401.00,-337.00,-384.00,5764.00,17588.00,-2496.00
6573,1316.00,531.00,-496.00,-372.00,5708.00,17476.00,-2512.00
6589,1308.00,284.00,-475.00,-408.00,5672.00,17396.00,-2528.00
6605,1098.00,241.00,-412.00,-524.00,5752.00,17280.00,-2496.00
6622,941.00,138.00,-278.00,-516.00,5792.00,17668.00,-2512.00
6638,640.00,198.00,-53.00,-244.00,5932.00,17544.00,-2512.00
6654,499.00,90.00,-139.00,-640.00,5712.00,17608.00,-2544.00
6672,295.00,271.00,-361.00,-480.00,5808.00,17668.00,-2512.00
6688,297.00,-21.00,-262.00,-468.00,5760.00,17576.00,-2480.00
6705,240.00,229.00,-280.00,-408.00,5880.00,17536.00,-2512.00
6721,231.00,0.00,-64.00,-296.00,5924.00,17252.00,-2480.00
6737,227.00,205.00,-115.00,-552.00,5908.00,17280.00,-2496.00
6754,243.00,411.00,-117.00,-692.00,6012.00,17400.00,-2528.00
6770,237.00,524.00,-186.00,-596.00,6432.00,17068.00,-2528.00
6787,265.00,-1.00,-415.00,-332.00,5948.00,17712.00,-2496.00
6803,325.00,350.00,-104.00,-492.00,5940.00,17080.00,-2496.00
6819,478.00,-7.00,-9.00,-388.00,5988.00,17484.00,-2528.00
6836,553.00,435.00,-326.00,-432.00,5932.00,17300.00,-2544.00
6852,936.00,262.00,-365.00,-572.00,5976.00,17376.00,-2512.00
6870,941.00,215.00,-310.00,-544.00,6048.00,17576.00,-2512.00
6886,1005.00,39.00,-485.00,-448.00,6120.00,17388.00,-2512.00
6902,1020.00,-28.00,-349.00,-352.00,6104.00,17504.00,-2464.00
6919,1277.00,526.00,-417.00,-380.00,5984.00,17268.00,-2528.00
6935,1606.00,477.00,-124.00,-292.00,6228.00,17348.00,-2480.00
6951,1547.00,167.00,-15.00,-740.00,6136.00,17188.00,-2512.00
6969,1609.00,271.00,-175.00,-692.00,6400.00,17312.00,-2512.00
6985,1211.00,574.00,-225.00,-832.00,6284.00,17040.00,-2496.00
7002,1002.00,539.00,-183.00,-704.00,6248.00,17216.00,-2480.00
7018,873.00,266.00,-101.00,-508.00,6516.00,17268.00,-2480.00
7034,917.00,-163.00,7.00,-636.00,6376.00,17088.00,-2512.00
7051,1228.00,2.00,-10.00,-764.00,6340.00,16868.00,-2512.00
7067,1512.00,147.00,141.00,-548.00,6440.00,17152.00,-2528.00
7084,1426.00,60.00,170.00,-424.00,6572.00,17460.00,-2512.00
7101,817.00,217.00,-304.00,-832.00,6332.00,17116.00,-2512.00
7117,537.00,703.00,-601.00,-712.00,6676.00,16956.00,-2512.00
7134,698.00,497.00,-330.00,-520.00,6720.00,17264.00,-2512.00
7150,823.00,14.00,-193.00,-532.00,6536.00,17292.00,-2496.00
7166,935.00,-11.00,-180.00,-672.00,6664.00,17332.00,-2512.00
7183,1034.00,46.00,-24.00,-660.00,6640.00,17344.00,-2512.00
7199,1032.00,179.00,-204.00,-864.00,6516.00,17088.00,-2512.00
7216,1508.00,-49.00,-116.00,-804.00,6624.00,16612.00,-2496.00
7233,1258.00,-61.00,120.00,-836.00,6652.00,16756.00,-2528.00
7249,1385.00,-10.00,140.00,-884.00,6752.00,16956.00,-2496.00
7266,1218.00,-84.00,203.00,-856.00,6972.00,17036.00,-2496.00
7282,1137.00,-151.00,68.00,-440.00,7100.00,16940.00,-2480.00
7299,1427.00,-147.00,-33.00,-424.00,7096.00,17040.00,-2512.00
7315,1414.00,238.00,-252.00,-536.00,7116.00,16944.00,-2512.00
7331,1195.00,311.00,-388.00,-568.00,7068.00,16724.00,-2496.00
7349,917.00,396.00,-375.00,-452.00,7056.00,16924.00,-2496.00
7365,640.00,-64.00,-151.00,-688.00,7040.00,16848.00,-2512.00
7382,624.00,-318.00,117.00,-656.00,7140.00,16884.00,-2496.00
7398,1073.00,-49.00,40.00,-652.00,7308.00,16868.00,-2512.00
7414,1545.00,-54.00,-120.00,-708.00,7204.00,16784.00,-2496.00
7431,1801.00,-92.00,-180.00,-872.00,7072.00,16748.00,-2512.00
7447,2076.00,336.00,-231.00,-784.00,7240.00,17052.00,-2480.00
7464,1512.00,248.00,-91.00,-644.00,7100.00,17240.00,-2512.00
7481,993.00,-1.00,-188.00,-724.00,7216.00,17180.00,-2496.00
7497,929.00,-142.00,-116.00,-600.00,7356.00,16932.00,-2512.00
7514,1006.00,-90.00,-20.00,-656.00,7388.00,16872.00,-2512.00
7530,977.00,2.00,-17.00,-668.00,7420.00,16748.00,-2512.00
7546,710.00,-4.00,-61.00,-652.00,7348.00,16596.00,-2528.00
7563,565.00,75.00,-86.00,-536.00,7496.00,16748.00,-2512.00
7579,476.00,33.00,-146.00,-812.00,7500.00,16588.00,-2464.00
7596,630.00,78.00,-153.00,-480.00,7564.00,16492.00,-2464.00
7612,813.00,-76.00,-29.00,-600.00,7604.00,16664.00,-2496.00
7628,918.00,-133.00,-40.00,-588.00,7724.00,16640.00,-2512.00
7645,935.00,-30.00,-12.00,-632.00,7392.00,16580.00,-2480.00
7661,899.00,549.00,-132.00,-812.00,7568.00,16744.00,-2480.00
7677,940.00,444.00,-74.00,-576.00,7588.00,16828.00,-2480.00
7694,960.00,205.00,-83.00,-784.00,7612.00,16596.00,-2480.00
7711,892.00,483.00,-124.00,-684.00,7732.00,16488.00,-2480.00
7728,654.00,316.00,-53.00,-544.00,7720.00,16544.00,-2512.00
7744,851.00,255.00,-33.00,-628.00,7660.00,16576.00,-2512.00
7760,1217.00,440.00,-93.00,-592.00,7716.00,16444.00,-2496.00
7777,1324.00,323.00,-89.00,-708.00,7776.00,16564.00,-2480.00
7793,1396.00,242.00,-101.00,-816.00,7812.00,16392.00,-2512.00
7810,1120.00,231.00,-207.00,-848.00,7776.00,16584.00,-2544.00
7826,1061.00,15.00,-172.00,-792.00,7836.00,16228.00,-2496.00
7843,1030.00,-191.00,-67.00,-780.00,7940.00,16208.00,-2496.00
7860,1208.00,-383.00,-109.00,-784.00,7988.00,16476.00,-2496.00
7876,1180.00,-524.00,-65.00,-828.00,7836.00,16544.00,-2480.00
7892,1127.00,83.00,-231.00,-864.00,7912.00,16120.00,-2480.00
7909,1124.00,353.00,-209.00,-696.00,8052.00,16384.00,-2480.00
7925,1193.00,118.00,-155.00,-488.00,8176.00,16720.00,-2496.00
7943,1410.00,218.00,-324.00,-664.00,8196.00,16584.00,-2544.00
7959,1735.00,207.00,-216.00,-584.00,8308.00,16188.00,-2464.00
7975,1902.00,174.00,-154.00,-848.00,8252.00,16300.00,-2496.00
7992,1834.00,235.00,-229.00,-808.00,8148.00,16220.00,-2512.00
8008,1769.00,80.00,-141.00,-788.00,8308.00,16356.00,-2464.00
8025,1768.00,-90.00,33.00,-712.00,8168.00,15964.00,-2496.00
8041,2046.00,228.00,-205.00,-844.00,8552.00,16136.00,-2464.00
8058,2177.00,315.00,-121.00,-872.00,8864.00,15892.00,-2480.00
8075,2411.00,233.00,-115.00,-788.00,8568.00,16024.00,-2480.00
8091,2308.00,134.00,-219.00,-612.00,8476.00,16240.00,-2496.00
8108,1775.00,-393.00,-144.00,-720.00,8616.00,16148.00,-2480.00
8124,1135.00,-642.00,-19.00,-632.00,8612.00,15940.00,-2512.00
8141,853.00,-22.00,-131.00,-836.00,8588.00,15712.00,-2480.00
8158,643.00,295.00,-101.00,-736.00,8876.00,16004.00,-2496.00
8174,757.00,171.00,-195.00,-772.00,8936.00,15772.00,-2512.00
8190,846.00,135.00,-253.00,-788.00,8800.00,15808.00,-2496.00
8207,896.00,-59.00,-228.00,-812.00,8680.00,15660.00,-2496.00
8223,782.00,-174.00,-134.00,-664.00,8788.00,16084.00,-2496.00
8240,637.00,-8.00,-194.00,-784.00,8936.00,15820.00,-2480.00
8256,759.00,-76.00,-125.00,-908.00,8968.00,15712.00,-2496.00
8272,694.00,-95.00,-136.00,-1020.00,8832.00,16012.00,-2496.00
8290,448.00,162.00,-211.00,-804.00,8932.00,15832.00,-2496.00
8306,341.00,23.00,69.00,-628.00,8984.00,15704.00,-2512.00
8323,366.00,139.00,133.00,-792.00,8916.00,15684.00,-2496.00
8339,497.00,79.00,44.00,-716.00,8980.00,15648.00,-2496.00
8355,572.00,164.00,-129.00,-780.00,9116.00,15660.00,-2528.00
8372,782.00,203.00,-261.00,-812.00,9212.00,15704.00,-2480.00
8388,1002.00,180.00,-225.00,-512.00,8988.00,15580.00,-2496.00
8404,1142.00,45.00,-84.00,-616.00,9032.00,15760.00,-2480.00
8421,1555.00,-72.00,-220.00,-832.00,9176.00,15904.00,-2512.00
8438,1230.00,123.00,-129.00,-824.00,8924.00,15772.00,-2480.00
8455,996.00,274.00,-290.00,-896.00,9208.00,15908.00,-2496.00
8471,833.00,368.00,-382.00,-848.00,9300.00,15600.00,-2496.00
8487,733.00,133.00,-364.00,-840.00,9288.00,15704.00,-2496.00
8504,786.00,43.00,-347.00,-740.00,9112.00,15704.00,-2512.00
8520,790.00,-30.00,-361.00,-900.00,9064.00,15492.00,-2464.00
8537,784.00,66.00,-281.00,-756.00,9236.00,15548.00,-2464.00
8553,737.00,124.00,-175.00,-780.00,9260.00,15600.00,-2496.00
8570,579.00,105.00,-122.00,-872.00,9388.00,15480.00,-2480.00
8587,612.00,104.00,-277.00,-900.00,9408.00,15440.00,-2480.00
8603,712.00,-39.00,-310.00,-836.00,9360.00,15384.00,-2512.00
8620,845.00,106.00,-315.00,-656.00,9332.00,15584.00,-2480.00
8636,1183.00,-66.00,-277.00,-772.00,9356.00,15492.00,-2512.00
8652,1315.00,-73.00,-222.00,-840.00,9296.00,15212.00,-2512.00
8669,1445.00,82.00,-198.00,-932.00,9424.00,15384.00,-2528.00
8685,1278.00,11.00,-213.00,-956.00,9520.00,15800.00,-2496.00
8702,1017.00,166.00,-277.00,-864.00,9644.00,15516.00,-2480.00
8719,1039.00,79.00,-122.00,-676.00,9656.00,15744.00,-2480.00
8735,928.00,73.00,-145.00,-600.00,9516.00,15640.00,-2512.00
8752,661.00,-101.00,-127.00,-864.00,9388.00,15608.00,-2512.00
8768,367.00,-43.00,-73.00,-972.00,9540.00,15464.00,-2528.00
8784,365.00,394.00,-187.00,-1020.00,9620.00,15288.00,-2512.00
8801,330.00,195.00,-239.00,-1004.00,9648.00,15092.00,-2464.00
8818,490.00,157.00,-296.00,-1016.00,9528.00,15280.00,-2464.00
8835,614.00,120.00,-238.00,-1028.00,9476.00,15140.00,-2480.00
8851,769.00,53.00,-57.00,-1020.00,9748.00,15132.00,-2528.00
8867,1013.00,-181.00,-81.00,-968.00,9756.00,15068.00,-2480.00
8884,1333.00,-340.00,-66.00,-904.00,9860.00,15032.00,-2480.00
8900,1494.00,-3.00,-149.00,-780.00,9864.00,15096.00,-2512.00
8916,1344.00,-28.00,-91.00,-684.00,9820.00,15404.00,-2496.00
8933,1025.00,88.00,-45.00,-704.00,9808.00,15160.00,-2480.00
8950,888.00,168.00,-75.00,-752.00,9824.00,15336.00,-2480.00
8967,1010.00,335.00,-48.00,-796.00,9840.00,15092.00,-2480.00
8983,1090.00,463.00,-77.00,-988.00,9868.00,15160.00,-2480.00
8999,1034.00,190.00,-70.00,-852.00,9920.00,14980.00,-2480.00
9016,922.00,2.00,-39.00,-1040.00,9944.00,15048.00,-2496.00
9032,851.00,-21.00,-162.00,-1016.00,9960.00,15076.00,-2512.00
9049,876.00,-45.00,-202.00,-880.00,9888.00,15144.00,-2480.00
9065,877.00,236.00,-313.00,-880.00,9936.00,14936.00,-2480.00
9081,1007.00,285.00,-233.00,-900.00,10064.00,15028.00,-2480.00
9099,943.00,308.00,-75.00,-736.00,9976.00,15036.00,-2496.00
9115,799.00,-34.00,35.00,-764.00,10072.00,14896.00,-2496.00
9132,714.00,25.00,-144.00,-744.00,10100.00,14944.00,-2496.00
9148,672.00,80.00,-334.00,-988.00,10092.00,14748.00,-2464.00
9164,726.00,180.00,-312.00,-924.00,10108.00,14740.00,-2464.00
9181,757.00,262.00,-362.00,-996.00,10068.00,14792.00,-2512.00
9197,878.00,254.00,-290.00,-1020.00,10152.00,14736.00,-2496.00
9214,1004.00,73.00,-259.00,-1008.00,10136.00,14816.00,-2480.00
9231,1165.00,46.00,-244.00,-1004.00,10136.00,14752.00,-2496.00
9247,1215.00,118.00,-139.00,-1004.00,10308.00,14692.00,-2512.00
9264,1163.00,29.00,-75.00,-1028.00,10224.00,14720.00,-2496.00
9281,1013.00,-69.00,-142.00,-952.00,10228.00,14772.00,-2512.00
9297,1000.00,-306.00,-69.00,-972.00,10292.00,14820.00,-2480.00
9314,983.00,-378.00,-132.00,-1192.00,10188.00,14604.00,-2528.00
9330,1173.00,6.00,-149.00,-1016.00,10368.00,14716.00,-2512.00
9347,1057.00,92.00,-89.00,-936.00,10372.00,14748.00,-2496.00
9364,1143.00,34.00,-139.00,-736.00,10480.00,14568.00,-2496.00
9380,1216.00,234.00,-167.00,-660.00,10496.00,14756.00,-2480.00
9397,1157.00,177.00,-202.00,-780.00,10532.00,14620.00,-2480.00
9413,1410.00,270.00,-350.00,-828.00,10540.00,14604.00,-2496.00
9430,1654.00,224.00,-312.00,-732.00,10520.00,14612.00,-2496.00
9447,1459.00,-28.00,-227.00,-976.00,10432.00,14564.00,-2480.00
9463,1246.00,329.00,-347.00,-1104.00,10432.00,14392.00,-2480.00
9480,1047.00,561.00,-240.00,-1020.00,10712.00,14420.00,-2512.00
9496,863.00,311.00,-212.00,-1004.00,10784.00,14544.00,-2496.00
9513,952.00,269.00,-249.00,-1140.00,10736.00,14272.00,-2512.00
9530,936.00,182.00,-255.00,-984.00,10752.00,14540.00,-2496.00
9546,889.00,6.00,-83.00,-1000.00,10772.00,14212.00,-2480.00
9563,968.00,187.00,16.00,-1072.00,10660.00,14300.00,-2480.00
9579,749.00,344.00,-67.00,-1076.00,10732.00,14548.00,-2480.00
9595,356.00,249.00,-145.00,-996.00,10760.00,14312.00,-2496.00
9613,368.00,41.00,-89.00,-1020.00,10784.00,14052.00,-2496.00
9629,583.00,-226.00,-25.00,-1036.00,10836.00,14288.00,-2480.00
9646,612.00,-183.00,-233.00,-1096.00,10796.00,14272.00,-2480.00
9662,669.00,8.00,-310.00,-1028.00,10652.00,14052.00,-2464.00
9678,781.00,156.00,-201.00,-1012.00,10844.00,14116.00,-2496.00
9696,834.00,12.00,-20.00,-1020.00,10916.00,14296.00,-2480.00
9712,756.00,-256.00,43.00,-1020.00,11084.00,14336.00,-2496.00
9729,817.00,-310.00,-23.00,-992.00,11112.00,13904.00,-2496.00
9745,1133.00,12.00,-181.00,-1260.00,11088.00,14016.00,-2480.00
9761,1124.00,-110.00,-401.00,-1004.00,11064.00,13964.00,-2464.00
9778,1096.00,-433.00,-550.00,-892.00,10944.00,13808.00,-2480.00
9795,1406.00,-120.00,-625.00,-964.00,10884.00,13692.00,-2496.00
9811,1720.00,62.00,-556.00,-904.00,10948.00,14136.00,-2480.00
9828,1650.00,287.00,-415.00,-924.00,11020.00,14172.00,-2496.00
9844,1443.00,150.00,-136.00,-984.00,11172.00,14396.00,-2480.00
9862,1289.00,34.00,-3.00,-952.00,11168.00,14040.00,-2496.00
9878,1248.00,-30.00,8.00,-1032.00,11200.00,14276.00,-2464.00
9894,1011.00,-198.00,1.00,-1128.00,11024.00,13944.00,-2496.00
9911,796.00,-53.00,-157.00,-1204.00,11144.00,14100.00,-2480.00
9927,443.00,314.00,-402.00,-1192.00,11120.00,14140.00,-2480.00
9944,242.00,99.00,-325.00,-944.00,11348.00,13920.00,-2480.00
9961,339.00,-4.00,-196.00,-860.00,11272.00,13984.00,-2480.00
9977,299.00,-73.00,-158.00,-1012.00,11268.00,13932.00,-2512.00
9994,251.00,-58.00,-158.00,-980.00,11300.00,13672.00,-2480.00
10010,358.00,101.00,-68.00,-932.00,11380.00,13968.00,-2496.00
10027,254.00,84.00,-85.00,-928.00,11352.00,13932.00,-2528.00
10043,267.00,-33.00,-78.00,-1016.00,11300.00,13680.00,-2528.00
10059,475.00,-24.00,-175.00,-928.00,11292.00,13712.00,-2480.00
10077,680.00,104.00,-276.00,-988.00,11260.00,13864.00,-2496.00
10093,831.00,204.00,-325.00,-924.00,11448.00,13836.00,-2512.00
10109,816.00,121.00,-331.00,-944.00,11304.00,13936.00,-2464.00
10126,773.00,95.00,-319.00,-1156.00,11264.00,13956.00,-2448.00
10143,809.00,249.00,-190.00,-1100.00,11368.00,13764.00,-2496.00
10160,700.00,68.00,24.00,-1100.00,11352.00,13880.00,-2480.00
10176,843.00,-5.00,7.00,-1380.00,11364.00,13600.00,-2496.00
10192,1104.00,238.00,-248.00,-1248.00,11316.00,13652.00,-2496.00
10209,1132.00,167.00,-291.00,-1016.00,11328.00,13600.00,-2496.00
10226,1163.00,158.00,-353.00,-972.00,11520.00,13660.00,-2480.00
10243,1053.00,-8.00,-235.00,-764.00,11608.00,13632.00,-2480.00
10259,1030.00,-436.00,-77.00,-816.00,11716.00,13756.00,-2448.00
10275,1179.00,-553.00,-368.00,-1168.00,11588.00,13216.00,-2464.00
10293,1688.00,301.00,-795.00,-1324.00,11460.00,13404.00,-2496.00
10309,1528.00,572.00,-751.00,-988.00,11572.00,13664.00,-2528.00
10326,1600.00,402.00,-508.00,-748.00,11628.00,13392.00,-2496.00
10343,1771.00,346.00,-400.00,-964.00,11692.00,13604.00,-2480.00
10359,1783.00,290.00,-328.00,-1304.00,11676.00,13528.00,-2464.00
10376,1504.00,257.00,-232.00,-1408.00,11712.00,13500.00,-2496.00
10393,1322.00,215.00,-210.00,-1444.00,11760.00,13344.00,-2496.00
10409,1198.00,70.00,-172.00,-1268.00,11764.00,13280.00,-2496.00
10426,1247.00,77.00,-153.00,-1328.00,11756.00,13120.00,-2480.00
10442,1330.00,189.00,-115.00,-1004.00,11816.00,13144.00,-2496.00
10460,1134.00,88.00,18.00,-1184.00,12008.00,13484.00,-2464.00
10476,1001.00,169.00,23.00,-1152.00,11908.00,13124.00,-2512.00
10492,898.00,128.00,49.00,-1048.00,11988.00,13140.00,-2464.00
10509,817.00,24.00,-18.00,-1164.00,12008.00,13096.00,-2480.00
10526,721.00,235.00,-192.00,-1224.00,11924.00,13144.00,-2496.00
10543,797.00,222.00,-148.00,-1172.00,11948.00,12932.00,-2480.00
10559,922.00,-143.00,60.00,-1172.00,12140.00,12776.00,-2512.00
10575,1158.00,-524.00,196.00,-1148.00,12120.00,13104.00,-2496.00
10593,1335.00,-287.00,-7.00,-1324.00,12104.00,12928.00,-2480.00
10609,1334.00,45.00,-121.00,-1276.00,12140.00,12836.00,-2496.00
10626,1231.00,167.00,-94.00,-1012.00,12204.00,13060.00,-2464.00
10642,1218.00,-79.00,49.00,-948.00,12144.00,12816.00,-2480.00
10659,1187.00,77.00,-13.00,-1184.00,12208.00,12560.00,-2496.00
10676,974.00,479.00,-139.00,-1040.00,12148.00,12984.00,-2480.00
10692,599.00,549.00,-224.00,-1100.00,12084.00,12672.00,-2496.00
10708,678.00,343.00,-237.00,-1104.00,12292.00,12544.00,-2448.00
10726,774.00,-16.00,-224.00,-1180.00,12332.00,12672.00,-2512.00
10742,832.00,12.00,-213.00,-1232.00,12224.00,12512.00,-2496.00
10759,711.00,49.00,-90.00,-1344.00,12252.00,12868.00,-2480.00
10775,538.00,296.00,-7.00,-1348.00,12192.00,12736.00,-2512.00
10791,490.00,353.00,-56.00,-1204.00,12376.00,12688.00,-2496.00
10809,384.00,209.00,-84.00,-1236.00,12376.00,12820.00,-2480.00
10825,405.00,134.00,-39.00,-1084.00,12332.00,12700.00,-2496.00
10842,473.00,77.00,117.00,-1148.00,12248.00,12732.00,-2512.00
10858,549.00,157.00,190.00,-1212.00,12268.00,12740.00,-2464.00
10875,624.00,195.00,56.00,-1140.00,12340.00,12516.00,-2480.00
10892,653.00,283.00,-86.00,-1276.00,12440.00,12636.00,-2464.00
10908,517.00,152.00,-103.00,-1060.00,12508.00,12612.00,-2512.00
10925,427.00,39.00,8.00,-1084.00,12424.00,12328.00,-2464.00
10941,523.00,-21.00,55.00,-1040.00,12444.00,12524.00,-2512.00
10958,662.00,24.00,49.00,-920.00,12440.00,12596.00,-2480.00
10975,813.00,64.00,-58.00,-1184.00,12428.00,12380.00,-2480.00
10991,911.00,193.00,-145.00,-1220.00,12376.00,12640.00,-2464.00
11008,857.00,366.00,-256.00,-1284.00,12516.00,12648.00,-2512.00
11024,695.00,179.00,-294.00,-1264.00,12456.00,12612.00,-2480.00
11041,679.00,102.00,-329.00,-1080.00,12448.00,12364.00,-2496.00
11058,797.00,22.00,-269.00,-1108.00,12484.00,12348.00,-2496.00
11074,771.00,11.00,-195.00,-1128.00,12464.00,12576.00,-2512.00
11090,776.00,18.00,-186.00,-1156.00,12520.00,12320.00,-2464.00
11108,855.00,161.00,-25.00,-1180.00,12524.00,12160.00,-2512.00
11124,922.00,262.00,10.00,-1132.00,12624.00,12400.00,-2480.00
11141,962.00,91.00,-61.00,-1260.00,12708.00,12068.00,-2480.00
11157,1044.00,420.00,-261.00,-1324.00,12488.00,12376.00,-2480.00
11174,892.00,356.00,-156.00,-1176.00,12500.00,12228.00,-2480.00
11191,966.00,405.00,4.00,-1308.00,12592.00,12088.00,-2528.00
11207,1055.00,246.00,206.00,-1240.00,12540.00,12240.00,-2512.00
11224,914.00,-13.00,137.00,-1308.00,12684.00,12256.00,-2480.00
11241,994.00,93.00,44.00,-1112.00,12824.00,12180.00,-2512.00
11257,1087.00,188.00,-27.00,-1164.00,13032.00,12340.00,-2496.00
11274,868.00,-94.00,-13.00,-1084.00,12796.00,12284.00,-2480.00
11290,869.00,256.00,-40.00,-1088.00,12696.00,12028.00,-2464.00
11307,768.00,424.00,35.00,-1024.00,12820.00,12300.00,-2512.00
11324,633.00,448.00,75.00,-1308.00,12756.00,12168.00,-2496.00
11340,470.00,42.00,158.00,-1388.00,12756.00,12168.00,-2512.00
11357,691.00,-229.00,119.00,-1448.00,12832.00,11936.00,-2496.00
11373,1024.00,-303.00,150.00,-1324.00,12692.00,11904.00,-2480.00
11390,1151.00,-266.00,393.00,-1520.00,12692.00,11884.00,-2480.00
11407,1136.00,404.00,395.00,-1260.00,12644.00,12216.00,-2496.00
11423,1096.00,554.00,332.00,-1304.00,12664.00,11780.00,-2496.00
11441,1231.00,759.00,423.00,-1044.00,13028.00,11924.00,-2496.00
11457,1201.00,259.00,640.00,-1116.00,13208.00,11916.00,-2480.00
11473,1051.00,-121.00,664.00,-1076.00,13256.00,11764.00,-2512.00
11491,944.00,-55.00,478.00,-1080.00,13356.00,11832.00,-2512.00
11507,864.00,165.00,294.00,-768.00,13048.00,11788.00,-2496.00
11524,825.00,449.00,318.00,-840.00,12980.00,11652.00,-2512.00
11540,878.00,691.00,298.00,-988.00,12976.00,11512.00,-2496.00
11556,751.00,471.00,371.00,-1028.00,13088.00,11588.00,-2512.00
11574,741.00,342.00,282.00,-1044.00,13144.00,11456.00,-2496.00
11590,838.00,154.00,137.00,-1136.00,13076.00,11532.00,-2496.00
11607,1104.00,-4.00,-45.00,-1128.00,13324.00,11516.00,-2512.00
11623,1108.00,-199.00,-137.00,-976.00,13168.00,11688.00,-2464.00
11640,862.00,-275.00,-85.00,-956.00,13100.00,11836.00,-2544.00
11657,788.00,-27.00,32.00,-984.00,13156.00,11520.00,-2480.00
11673,786.00,392.00,-9.00,-1008.00,13152.00,11684.00,-2496.00
11689,874.00,394.00,-167.00,-912.00,13376.00,11540.00,-2496.00
11706,932.00,444.00,-187.00,-1100.00,13324.00,11576.00,-2480.00
11723,872.00,120.00,-131.00,-1140.00,13204.00,11412.00,-2512.00
11740,952.00,99.00,-304.00,-1208.00,13252.00,11448.00,-2496.00
11756,873.00,-101.00,-400.00,-1064.00,13180.00,11372.00,-2512.00
11772,798.00,-106.00,-312.00,-948.00,13292.00,11464.00,-2480.00
11790,940.00,-74.00,-119.00,-980.00,13416.00,11272.00,-2464.00
11806,977.00,84.00,-12.00,-928.00,13456.00,11424.00,-2496.00
11823,818.00,131.00,-41.00,-1080.00,13388.00,11436.00,-2496.00
11839,730.00,305.00,-129.00,-1224.00,13468.00,11052.00,-2512.00
11855,799.00,243.00,-122.00,-1052.00,13404.00,11484.00,-2480.00
11873,830.00,15.00,-110.00,-1080.00,13500.00,11200.00,-2496.00
11889,818.00,9.00,-284.00,-1100.00,13408.00,11436.00,-2480.00
11906,890.00,83.00,-206.00,-1076.00,13348.00,11048.00,-2496.00
11922,864.00,-170.00,84.00,-956.00,13604.00,11312.00,-2480.00
11939,964.00,-100.00,-63.00,-1060.00,13460.00,11100.00,-2464.00
11956,1093.00,-40.00,-207.00,-1076.00,13632.00,11176.00,-2512.00
11972,969.00,-266.00,-240.00,-1080.00,13500.00,11288.00,-2464.00
11988,959.00,-208.00,-239.00,-940.00,13304.00,10916.00,-2496.00
12006,1058.00,-111.00,-233.00,-1224.00,13344.00,10932.00,-2512.00
12022,1054.00,55.00,-284.00,-1012.00,13408.00,10888.00,-2496.00
12039,1075.00,-111.00,-205.00,-1060.00,13604.00,10888.00,-2496.00
12055,1064.00,-178.00,-42.00,-1088.00,13668.00,10900.00,-2480.00
12072,1043.00,-216.00,118.00,-1076.00,13780.00,10892.00,-2512.00
12089,1021.00,-350.00,89.00,-1060.00,13728.00,10896.00,-2480.00
12105,1081.00,126.00,-71.00,-928.00,13632.00,10892.00,-2528.00
12123,1048.00,231.00,22.00,-812.00,13760.00,10864.00,-2448.00
12139,965.00,102.00,128.00,-892.00,13608.00,10896.00,-2496.00
12155,952.00,70.00,91.00,-932.00,13600.00,10680.00,-2512.00
12172,1022.00,357.00,-52.00,-1008.00,13680.00,10576.00,-2512.00
12188,889.00,269.00,-182.00,-1152.00,13832.00,10808.00,-2480.00
12206,686.00,-21.00,-50.00,-912.00,13700.00,10840.00,-2496.00
12222,699.00,-161.00,-96.00,-960.00,13872.00,10508.00,-2496.00
12238,821.00,17.00,-83.00,-952.00,13772.00,10596.00,-2512.00
12255,655.00,282.00,-259.00,-976.00,13684.00,10776.00,-2544.00
12271,573.00,326.00,-307.00,-824.00,13736.00,10548.00,-2496.00
12289,733.00,103.00,-92.00,-852.00,13756.00,10260.00,-2480.00
12305,992.00,140.00,-107.00,-988.00,13900.00,10528.00,-2464.00
12321,1244.00,197.00,-164.00,-1064.00,13808.00,10416.00,-2480.00
12338,1344.00,335.00,-204.00,-1104.00,13944.00,10380.00,-2480.00
12355,1443.00,236.00,-179.00,-968.00,13908.00,10616.00,-2480.00
12371,1352.00,-7.00,-129.00,-972.00,14000.00,10456.00,-2528.00
12388,1399.00,79.00,-86.00,-884.00,13928.00,10448.00,-2448.00
12404,1397.00,302.00,-125.00,-900.00,13900.00,10396.00,-2480.00
12421,1228.00,332.00,-82.00,-956.00,13936.00,10360.00,-2480.00
12438,1119.00,168.00,-133.00,-1168.00,14040.00,10292.00,-2496.00
12454,943.00,133.00,-257.00,-1264.00,14068.00,10308.00,-2496.00
12471,764.00,99.00,-279.00,-1068.00,13968.00,10140.00,-2480.00
12487,872.00,5.00,-202.00,-972.00,13996.00,10324.00,-2496.00
12505,1039.00,-88.00,-180.00,-1072.00,14108.00,10180.00,-2464.00
12521,1226.00,388.00,-244.00,-972.00,14072.00,10060.00,-2496.00
12537,1267.00,506.00,-239.00,-1040.00,14244.00,10272.00,-2480.00
12554,1202.00,248.00,-188.00,-1048.00,14232.00,10228.00,-2480.00
12571,1007.00,161.00,-282.00,-1108.00,14152.00,10228.00,-2512.00
12588,1069.00,247.00,-238.00,-924.00,14096.00,10092.00,-2480.00
12604,1172.00,276.00,-227.00,-1084.00,14120.00,10184.00,-2464.00
12621,1336.00,250.00,-267.00,-1092.00,14156.00,9864.00,-2480.00
12638,1332.00,50.00,-253.00,-1100.00,14232.00,9832.00,-2480.00
12654,1243.00,125.00,-270.00,-1124.00,14216.00,9760.00,-2496.00
12670,1339.00,274.00,-236.00,-1120.00,14256.00,9744.00,-2480.00
12688,1329.00,75.00,-124.00,-1076.00,14264.00,9792.00,-2480.00
12704,1415.00,-74.00,-148.00,-1136.00,14268.00,9584.00,-2496.00
12721,1394.00,109.00,-207.00,-1164.00,14228.00,9732.00,-2512.00
12737,1178.00,222.00,-303.00,-1112.00,14352.00,9704.00,-2496.00
12754,1162.00,319.00,-260.00,-1144.00,14420.00,9692.00,-2464.00
12771,1075.00,173.00,-253.00,-1124.00,14356.00,9644.00,-2512.00
12787,1084.00,175.00,-185.00,-1268.00,14348.00,9576.00,-2512.00
12805,1230.00,277.00,-251.00,-1076.00,14436.00,9508.00,-2464.00
12821,1175.00,34.00,-8.00,-1044.00,14520.00,9428.00,-2512.00
12837,1079.00,-182.00,79.00,-1056.00,14444.00,9412.00,-2496.00
12854,864.00,-87.00,-143.00,-1268.00,14428.00,9592.00,-2480.00
12870,793.00,82.00,-334.00,-1120.00,14484.00,9284.00,-2480.00
12888,777.00,290.00,-363.00,-1068.00,14512.00,9356.00,-2464.00
12904,751.00,238.00,-268.00,-1064.00,14580.00,9264.00,-2512.00
12920,763.00,133.00,-217.00,-1072.00,14528.00,9284.00,-2496.00
12937,695.00,21.00,-201.00,-1116.00,14544.00,9272.00,-2480.00
12953,671.00,37.00,-211.00,-1100.00,14488.00,9364.00,-2464.00
12971,788.00,-144.00,-69.00,-1128.00,14476.00,9276.00,-2496.00
12987,821.00,-13.00,-187.00,-1172.00,14592.00,9248.00,-2480.00
13003,857.00,239.00,-276.00,-1348.00,14416.00,9128.00,-2464.00
13020,901.00,351.00,-358.00,-1256.00,14588.00,9060.00,-2512.00
13036,808.00,170.00,-334.00,-1288.00,14548.00,9380.00,-2496.00
13053,631.00,-28.00,-337.00,-1196.00,14748.00,9324.00,-2480.00
13070,640.00,-25.00,-239.00,-1104.00,14608.00,8960.00,-2480.00
13086,630.00,138.00,-221.00,-1348.00,14636.00,9568.00,-2496.00
13103,419.00,315.00,-220.00,-1244.00,14504.00,9056.00,-2512.00
13119,464.00,248.00,-148.00,-1136.00,14580.00,9008.00,-2496.00
13136,522.00,257.00,-269.00,-1320.00,14696.00,9200.00,-2480.00
13153,305.00,222.00,-374.00,-1320.00,14576.00,9144.00,-2496.00
13169,230.00,127.00,-221.00,-1244.00,14516.00,8944.00,-2480.00
13186,453.00,-25.00,13.00,-1224.00,14556.00,8932.00,-2496.00
13202,625.00,-144.00,61.00,-1384.00,14492.00,8776.00,-2480.00
13219,920.00,-114.00,51.00,-1392.00,14592.00,8808.00,-2512.00
13236,1082.00,0.00,81.00,-1152.00,14788.00,8908.00,-2480.00
13252,1031.00,54.00,57.00,-1152.00,14848.00,8768.00,-2464.00
13268,711.00,98.00,-92.00,-1128.00,14740.00,8932.00,-2496.00
13285,504.00,236.00,-283.00,-1112.00,14672.00,8940.00,-2496.00
13301,364.00,346.00,-289.00,-1072.00,14668.00,8884.00,-2496.00
13319,217.00,188.00,-200.00,-1296.00,14872.00,9068.00,-2448.00
13335,308.00,185.00,-192.00,-1176.00,14776.00,8724.00,-2480.00
13351,491.00,1.00,-185.00,-1268.00,14764.00,8876.00,-2528.00
13368,651.00,102.00,-358.00,-1272.00,14640.00,8800.00,-2512.00
13384,644.00,-26.00,-398.00,-1372.00,14700.00,9016.00,-2496.00
13402,500.00,63.00,-343.00,-1388.00,14652.00,9008.00,-2512.00
13418,461.00,179.00,-317.00,-1232.00,14720.00,9020.00,-2512.00
13434,396.00,209.00,-330.00,-1200.00,14792.00,8980.00,-2464.00
13451,352.00,2.00,-233.00,-1308.00,14928.00,8852.00,-2480.00
13467,264.00,52.00,-243.00,-1252.00,14752.00,8928.00,-2512.00
13485,364.00,145.00,-137.00,-1224.00,14700.00,8960.00,-2496.00
13501,517.00,244.00,-126.00,-1268.00,14712.00,8728.00,-2480.00
13517,583.00,226.00,-227.00,-1296.00,14768.00,8820.00,-2496.00
13534,562.00,12.00,-92.00,-1440.00,14704.00,8580.00,-2480.00
13550,603.00,-3.00,-167.00,-1352.00,14728.00,8700.00,-2480.00
13566,704.00,63.00,-272.00,-1272.00,14772.00,8552.00,-2464.00
13584,842.00,129.00,-171.00,-1248.00,14720.00,8736.00,-2464.00
13600,847.00,454.00,-326.00,-1380.00,14680.00,8588.00,-2480.00
13617,715.00,483.00,-486.00,-1340.00,14712.00,8716.00,-2496.00
13633,582.00,186.00,-390.00,-1164.00,14864.00,8628.00,-2496.00
13650,733.00,13.00,-254.00,-1208.00,14856.00,8508.00,-2480.00
13667,819.00,-66.00,-131.00,-1224.00,14876.00,8628.00,-2512.00
13683,788.00,74.00,-131.00,-1248.00,14752.00,8416.00,-2464.00
13700,830.00,102.00,-149.00,-1308.00,14816.00,8516.00,-2480.00
13716,725.00,323.00,-239.00,-1392.00,14780.00,8396.00,-2496.00
13733,668.00,286.00,-258.00,-1364.00,14784.00,8332.00,-2512.00
13750,666.00,247.00,-371.00,-1324.00,14944.00,8604.00,-2528.00
13766,693.00,106.00,-290.00,-1392.00,14832.00,8392.00,-2512.00
13783,713.00,-30.00,-154.00,-1312.00,14824.00,8164.00,-2464.00
13799,739.00,99.00,-330.00,-1400.00,14780.00,8436.00,-2480.00
13816,625.00,236.00,-324.00,-1308.00,14956.00,8748.00,-2480.00
13833,527.00,213.00,-201.00,-1356.00,14944.00,8368.00,-2496.00
13849,624.00,144.00,-67.00,-1380.00,14888.00,8216.00,-2480.00
13865,721.00,169.00,-110.00,-1600.00,14964.00,8324.00,-2496.00
13882,719.00,316.00,-260.00,-1432.00,14952.00,8548.00,-2480.00
13899,604.00,162.00,-217.00,-1276.00,14860.00,8388.00,-2464.00
13916,512.00,130.00,-211.00,-1396.00,15032.00,8568.00,-2480.00
13932,285.00,159.00,-193.00,-1272.00,14936.00,8380.00,-2496.00
13948,367.00,100.00,-55.00,-1248.00,14948.00,8096.00,-2512.00
13966,675.00,14.00,-29.00,-1336.00,14960.00,8048.00,-2496.00
13982,758.00,11.00,-219.00,-1500.00,14848.00,8192.00,-2496.00
13999,544.00,15.00,-336.00,-1604.00,14816.00,8136.00,-2480.00
14015,835.00,74.00,-344.00,-1464.00,14816.00,7992.00,-2480.00
14031,1139.00,129.00,-315.00,-1336.00,14796.00,8044.00,-2464.00
14048,1519.00,147.00,-197.00,-1348.00,14912.00,7984.00,-2480.00
14065,1553.00,95.00,-114.00,-1512.00,15148.00,8120.00,-2480.00
14082,1285.00,83.00,-73.00,-1436.00,15184.00,8196.00,-2464.00
14098,1025.00,251.00,-162.00,-1368.00,15196.00,8176.00,-2528.00
14114,726.00,178.00,-75.00,-1264.00,15064.00,8068.00,-2512.00
14132,603.00,139.00,5.00,-1240.00,15024.00,8068.00,-2448.00
14148,441.00,39.00,72.00,-1476.00,15084.00,8036.00,-2480.00
14164,381.00,115.00,-57.00,-1624.00,14980.00,7868.00,-2512.00
14181,619.00,151.00,-232.00,-1504.00,14984.00,7712.00,-2448.00
14197,846.00,-92.00,-174.00,-1344.00,15020.00,7704.00,-2496.00
14214,1059.00,-131.00,-175.00,-1348.00,15088.00,7956.00,-2480.00
14231,1119.00,-9.00,-88.00,-1292.00,15104.00,7732.00,-2464.00
14247,1040.00,-30.00,-30.00,-1224.00,15228.00,7904.00,-2512.00
14264,773.00,-202.00,-17.00,-1468.00,15240.00,8020.00,-2480.00
14280,684.00,26.00,-187.00,-1372.00,15148.00,7764.00,-2528.00
14297,770.00,275.00,-254.00,-1500.00,15032.00,7644.00,-2480.00
14314,830.00,74.00,-98.00,-1516.00,15012.00,7620.00,-2512.00
14330,990.00,-217.00,270.00,-1592.00,14924.00,7328.00,-2496.00
14347,1149.00,-277.00,434.00,-1324.00,14916.00,7236.00,-2512.00
14363,1090.00,-253.00,283.00,-1440.00,15072.00,7504.00,-2464.00
14380,718.00,-258.00,25.00,-1548.00,15068.00,7200.00,-2496.00
14397,419.00,-337.00,238.00,-1380.00,15332.00,7408.00,-2496.00
14413,84.00,-222.00,384.00,-1224.00,15344.00,7604.00,-2496.00
14430,130.00,287.00,85.00,-1128.00,15356.00,7504.00,-2464.00
14446,226.00,290.00,27.00,-1188.00,15312.00,7648.00,-2448.00
14462,464.00,135.00,128.00,-1096.00,15240.00,7676.00,-2480.00
14480,681.00,6.00,94.00,-1320.00,15156.00,7348.00,-2528.00
14496,825.00,51.00,-29.00,-1276.00,15292.00,7640.00,-2496.00
14513,926.00,80.00,-104.00,-1164.00,15412.00,7452.00,-2496.00
14529,1043.00,75.00,-369.00,-1324.00,15424.00,7604.00,-2480.00
14545,1056.00,-152.00,-532.00,-1440.00,15488.00,7712.00,-2464.00
14562,1126.00,-206.00,-494.00,-1392.00,15180.00,7472.00,-2480.00
14579,1081.00,-153.00,-302.00,-1324.00,15052.00,7488.00,-2480.00
14596,1051.00,69.00,-207.00,-1148.00,15196.00,7312.00,-2496.00
14612,1030.00,116.00,-268.00,-1176.00,15444.00,6988.00,-2544.00
14628,1180.00,-28.00,-387.00,-1412.00,15324.00,6916.00,-2512.00
14646,1375.00,88.00,-486.00,-1304.00,15264.00,6996.00,-2496.00
14662,1424.00,262.00,-553.00,-1332.00,15336.00,6916.00,-2480.00
14679,1288.00,326.00,-304.00,-1196.00,15332.00,7060.00,-2464.00
14695,1037.00,346.00,-275.00,-1220.00,15484.00,7112.00,-2496.00
14712,1202.00,17.00,86.00,-1096.00,15404.00,7048.00,-2480.00
14729,1532.00,-127.00,264.00,-1308.00,15464.00,7104.00,-2464.00
14745,1662.00,-49.00,222.00,-1592.00,15332.00,7024.00,-2512.00
14761,1464.00,125.00,-39.00,-1724.00,15316.00,7064.00,-2480.00
14779,1022.00,60.00,-113.00,-1612.00,15320.00,6984.00,-2464.00
14795,793.00,14.00,-212.00,-1448.00,15380.00,6732.00,-2448.00
14812,1082.00,-16.00,-347.00,-1228.00,15424.00,6880.00,-2480.00
14828,1321.00,-6.00,-357.00,-1256.00,15604.00,6876.00,-2464.00
14844,1340.00,42.00,-173.00,-1152.00,15596.00,6624.00,-2512.00
14862,1382.00,39.00,-22.00,-1084.00,15448.00,6396.00,-2496.00
14878,1099.00,188.00,-228.00,-1448.00,15720.00,6696.00,-2480.00
14895,731.00,444.00,-607.00,-1464.00,15916.00,6572.00,-2464.00
14911,259.00,325.00,-566.00,-1152.00,15760.00,6332.00,-2480.00
14928,-5.00,273.00,-560.00,-1044.00,15752.00,6392.00,-2496.00
14945,285.00,284.00,-451.00,-1120.00,15596.00,6580.00,-2480.00
14961,970.00,225.00,-112.00,-1380.00,15512.00,6592.00,-2496.00
14978,1328.00,45.00,179.00,-1480.00,15380.00,6704.00,-2480.00
14994,1199.00,-270.00,471.00,-1564.00,15464.00,6740.00,-2464.00
15011,1153.00,-272.00,547.00,-1644.00,15376.00,6528.00,-2512.00
15028,1423.00,97.00,232.00,-1868.00,15256.00,6416.00,-2512.00
15044,1479.00,242.00,-22.00,-1788.00,15572.00,6432.00,-2464.00
15060,1408.00,261.00,-67.00,-1448.00,15564.00,6436.00,-2512.00
15078,1184.00,296.00,88.00,-1320.00,15516.00,6364.00,-2464.00
15094,987.00,161.00,429.00,-1236.00,15620.00,6120.00,-2480.00
15111,1212.00,183.00,629.00,-964.00,15684.00,6012.00,-2480.00
15127,1370.00,-143.00,826.00,-1072.00,15816.00,6096.00,-2480.00
15144,1240.00,-236.00,741.00,-1016.00,15772.00,5972.00,-2496.00
15161,1012.00,-15.00,744.00,-1188.00,15744.00,5880.00,-2480.00
15177,777.00,188.00,779.00,-1020.00,15780.00,5748.00,-2480.00
15194,835.00,290.00,774.00,-868.00,15808.00,5784.00,-2464.00
15210,764.00,421.00,533.00,-1048.00,15752.00,5728.00,-2496.00
15227,678.00,317.00,379.00,-912.00,15872.00,5848.00,-2512.00
15244,683.00,487.00,201.00,-964.00,15832.00,5992.00,-2480.00
15260,590.00,564.00,20.00,-1132.00,15876.00,6020.00,-2512.00
15277,380.00,542.00,-100.00,-1064.00,15820.00,6148.00,-2480.00
15293,280.00,489.00,-333.00,-1008.00,15796.00,5920.00,-2496.00
15310,285.00,382.00,-409.00,-1000.00,15688.00,5904.00,-2480.00
15327,188.00,441.00,-370.00,-1100.00,15696.00,5776.00,-2480.00
15343,232.00,496.00,-509.00,-1004.00,16048.00,5932.00,-2496.00
15360,448.00,696.00,-837.00,-1028.00,15988.00,6028.00,-2480.00
15377,655.00,1156.00,-955.00,-892.00,15960.00,6368.00,-2464.00
15393,564.00,670.00,-226.00,-988.00,15076.00,6544.00,-2448.00
15410,-353.00,-1278.00,1423.00,-2156.00,16896.00,6336.00,-2496.00
15426,1210.00,-649.00,296.00,32.00,15088.00,5572.00,-2464.00
15443,3214.00,1092.00,-74.00,-728.00,15072.00,5400.00,-2480.00
15460,2939.00,828.00,696.00,-1036.00,15560.00,5804.00,-2496.00
15476,1994.00,881.00,1012.00,-1140.00,15624.00,5504.00,-2480.00
15493,1598.00,1884.00,-69.00,-1408.00,15340.00,5504.00,-2480.00
15510,1754.00,2663.00,-326.00,-1272.00,15704.00,5764.00,-2512.00
15526,1865.00,2880.00,35.00,-1072.00,15916.00,5508.00,-2496.00
15543,2356.00,1171.00,1128.00,-764.00,15996.00,5048.00,-2528.00
15560,1176.00,424.00,1802.00,-1156.00,15912.00,4848.00,-2464.00
15577,-359.00,-245.00,1724.00,-1488.00,15824.00,5048.00,-2496.00
15593,-1148.00,-890.00,1936.00,-1208.00,16016.00,5828.00,-2480.00
15609,-992.00,-370.00,1768.00,-836.00,15888.00,5668.00,-2480.00
15627,-899.00,250.00,1258.00,-400.00,15852.00,4896.00,-2496.00
15643,325.00,1122.00,372.00,-408.00,15908.00,4536.00,-2480.00
15660,1475.00,1102.00,-220.00,-368.00,15880.00,4424.00,-2496.00
15676,2124.00,727.00,78.00,-640.00,16008.00,5268.00,-2496.00
15693,3158.00,-157.00,-7.00,-728.00,15732.00,5156.00,-2480.00
15710,3948.00,-296.00,253.00,-804.00,15668.00,5436.00,-2512.00
15726,2883.00,225.00,179.00,-536.00,15832.00,4656.00,-2512.00
15742,2204.00,805.00,-153.00,-524.00,16048.00,4168.00,-2512.00
15759,1759.00,208.00,-531.00,-692.00,16448.00,4876.00,-2496.00
15776,721.00,41.00,-1126.00,-684.00,16204.00,4528.00,-2480.00
15793,242.00,932.00,-1017.00,-352.00,15880.00,4264.00,-2464.00
15809,497.00,374.00,-348.00,-468.00,16064.00,4732.00,-2512.00
15825,316.00,-797.00,347.00,-452.00,16168.00,4484.00,-2512.00
15842,6.00,-433.00,-145.00,-464.00,15684.00,3916.00,-2496.00
15858,89.00,-234.00,146.00,-928.00,16104.00,4732.00,-2464.00
15876,314.00,463.00,-495.00,-1128.00,15680.00,4216.00,-2496.00
15892,121.00,762.00,-1550.00,-960.00,15928.00,4412.00,-2512.00
15908,-131.00,514.00,-1369.00,-792.00,15852.00,4536.00,-2464.00
15925,510.00,-950.00,-591.00,-600.00,16432.00,5520.00,-2496.00
15941,377.00,-1308.00,445.00,-964.00,16004.00,4828.00,-2496.00
15959,360.00,-1484.00,830.00,-1000.00,16108.00,4504.00,-2496.00
15975,705.00,-1973.00,647.00,-944.00,15884.00,4528.00,-2544.00
15991,1829.00,-1728.00,-169.00,-1068.00,15716.00,4736.00,-2496.00
16009,2046.00,-1427.00,-702.00,-464.00,16144.00,4400.00,-2496.00
16025,1841.00,-1581.00,-398.00,-52.00,15820.00,3924.00,-2496.00
16041,557.00,-79.00,164.00,-868.00,16148.00,4716.00,-2512.00
16058,13.00,-25.00,317.00,-560.00,16364.00,4204.00,-2512.00
16074,-517.00,-581.00,551.00,-632.00,16180.00,4284.00,-2512.00
16091,-490.00,-437.00,141.00,-364.00,15960.00,4416.00,-2528.00
16108,-519.00,414.00,-6.00,200.00,16256.00,3716.00,-2448.00
16124,-1610.00,-2511.00,267.00,304.00,16808.00,4316.00,-2496.00
16141,-1680.00,-1840.00,1314.00,-96.00,15456.00,4120.00,-2496.00
16157,342.00,396.00,1215.00,24.00,16192.00,4008.00,-2512.00
16174,1316.00,508.00,794.00,-424.00,16256.00,4344.00,-2464.00
16191,611.00,604.00,1151.00,-744.00,15980.00,4472.00,-2480.00
16207,-233.00,862.00,896.00,-604.00,16044.00,4332.00,-2496.00
16224,-326.00,416.00,368.00,-436.00,15992.00,4852.00,-2512.00
16240,401.00,-382.00,-373.00,-12.00,16100.00,4636.00,-2512.00
16257,1486.00,-240.00,34.00,-384.00,15980.00,4484.00,-2528.00
16274,1377.00,-315.00,719.00,-396.00,16284.00,4620.00,-2480.00
16290,744.00,-794.00,969.00,-664.00,16212.00,4352.00,-2496.00
16307,727.00,-428.00,714.00,-744.00,16080.00,4648.00,-2480.00
16323,810.00,-382.00,-347.00,-212.00,15788.00,4420.00,-2480.00
16339,1789.00,-344.00,-760.00,-76.00,16072.00,4384.00,-2464.00
16357,1940.00,-458.00,-266.00,-140.00,16228.00,4476.00,-2480.00
16373,1391.00,-94.00,169.00,-460.00,16184.00,4320.00,-2464.00
16390,1174.00,368.00,317.00,-380.00,15952.00,4096.00,-2480.00
16406,1488.00,-86.00,649.00,-152.00,16120.00,3948.00,-2480.00
16422,1913.00,-436.00,514.00,-444.00,15760.00,3708.00,-2480.00
16440,2731.00,13.00,290.00,-212.00,16036.00,3512.00,-2464.00
16456,2492.00,-172.00,598.00,-328.00,16220.00,3740.00,-2464.00
16473,1127.00,-131.00,916.00,-380.00,16384.00,4032.00,-2512.00
16489,272.00,-152.00,768.00,116.00,16148.00,3896.00,-2496.00
16505,262.00,-109.00,760.00,224.00,16264.00,3984.00,-2480.00
16523,707.00,-125.00,801.00,-180.00,14252.00,2784.00,-2496.00
16539,716.00,585.00,-11.00,80.00,16184.00,3916.00,-2496.00
16556,442.00,128.00,-728.00,-48.00,16520.00,3916.00,-2496.00
16572,-159.00,-179.00,-409.00,64.00,16396.00,3856.00,-2496.00
16588,-300.00,-40.00,-18.00,216.00,16176.00,3780.00,-2448.00
16605,315.00,573.00,-433.00,100.00,16128.00,3688.00,-2496.00
16621,656.00,223.00,-385.00,92.00,16288.00,3760.00,-2480.00
16637,755.00,-295.00,61.00,12.00,16312.00,3684.00,-2480.00
16654,356.00,-266.00,-17.00,-68.00,16364.00,4068.00,-2512.00
16671,-340.00,24.00,-258.00,-204.00,16224.00,3792.00,-2448.00
16688,-259.00,403.00,-470.00,-124.00,16032.00,3500.00,-2464.00
16704,119.00,434.00,-613.00,-144.00,16288.00,3908.00,-2464.00
16720,532.00,16.00,-663.00,-120.00,15964.00,3652.00,-2480.00
16737,998.00,-194.00,-231.00,-120.00,16456.00,3824.00,-2512.00
16753,639.00,-219.00,219.00,-284.00,16164.00,3616.00,-2464.00
16770,465.00,27.00,169.00,-132.00,16012.00,3480.00,-2496.00
16787,557.00,338.00,-138.00,-188.00,16008.00,3476.00,-2480.00
16803,665.00,279.00,-160.00,-56.00,16036.00,3360.00,-2480.00
16820,560.00,-44.00,-542.00,-24.00,16380.00,3744.00,-2512.00
16836,564.00,-175.00,-761.00,16.00,16384.00,3528.00,-2480.00
16852,603.00,-76.00,-398.00,68.00,16560.00,3712.00,-2480.00
16869,571.00,7.00,55.00,-296.00,16172.00,3632.00,-2512.00
16885,465.00,118.00,152.00,-316.00,16088.00,3628.00,-2480.00
16902,398.00,199.00,-2.00,-284.00,15796.00,3416.00,-2480.00
16918,913.00,453.00,-433.00,-288.00,16168.00,3504.00,-2480.00
16935,866.00,206.00,-1032.00,-152.00,16388.00,3496.00,-2496.00
16952,930.00,-193.00,-804.00,-88.00,16420.00,3384.00,-2480.00
16968,912.00,-238.00,-225.00,-220.00,15940.00,3460.00,-2480.00
16985,1265.00,240.00,-178.00,-92.00,16324.00,3336.00,-2464.00
17001,1135.00,729.00,-949.00,-216.00,15880.00,3516.00,-2480.00
17018,1026.00,959.00,-361.00,-300.00,16156.00,3372.00,-2528.00
17035,403.00,257.00,-21.00,-296.00,16272.00,3416.00,-2448.00
17051,-413.00,-869.00,286.00,-80.00,16020.00,3296.00,-2480.00
17068,328.00,-208.00,283.00,-508.00,15976.00,3412.00,-2464.00
17084,94.00,128.00,-401.00,-108.00,16476.00,3392.00,-2464.00
17100,134.00,-147.00,-400.00,100.00,16148.00,3152.00,-2480.00
17118,567.00,31.00,-363.00,-240.00,16040.00,3236.00,-2512.00
17134,798.00,377.00,-534.00,-224.00,16304.00,3364.00,-2496.00
17150,375.00,-176.00,-415.00,-164.00,16444.00,3448.00,-2496.00
17167,500.00,-473.00,99.00,-180.00,15912.00,2980.00,-2480.00
17183,950.00,-443.00,7.00,-392.00,16068.00,3312.00,-2480.00
17200,779.00,-743.00,108.00,-212.00,16236.00,3008.00,-2480.00
17216,1009.00,-189.00,-18.00,-136.00,16184.00,3220.00,-2496.00
17233,742.00,-205.00,-163.00,-140.00,16388.00,3164.00,-2464.00
17250,227.00,-496.00,315.00,-76.00,16528.00,3364.00,-2480.00
17266,850.00,253.00,1139.00,-44.00,16516.00,3348.00,-2480.00
17283,-114.00,-664.00,1366.00,84.00,16424.00,3308.00,-2464.00
17299,151.00,-348.00,1169.00,-116.00,16216.00,2912.00,-2464.00
17315,715.00,207.00,-269.00,-384.00,15408.00,2660.00,-2464.00
17333,1385.00,535.00,-834.00,-332.00,15260.00,2708.00,-2464.00
17349,1316.00,1154.00,-108.00,-620.00,16252.00,2644.00,-2480.00
17366,1031.00,123.00,-496.00,-172.00,16568.00,2640.00,-2480.00
17382,915.00,-611.00,120.00,56.00,16732.00,2864.00,-2496.00
17398,958.00,-1152.00,360.00,480.00,16764.00,3144.00,-2464.00
17416,816.00,-1565.00,604.00,596.00,16356.00,2924.00,-2448.00
17432,1545.00,-60.00,447.00,164.00,16112.00,3120.00,-2496.00
17448,1525.00,487.00,81.00,-28.00,15956.00,2828.00,-2480.00
17465,1590.00,875.00,-429.00,-360.00,16368.00,2872.00,-2480.00
17481,1050.00,409.00,-462.00,-272.00,16748.00,2896.00,-2496.00
17499,379.00,-178.00,-536.00,-228.00,16400.00,2736.00,-2464.00
17515,580.00,692.00,-636.00,-136.00,16144.00,2648.00,-2464.00
17531,7.00,566.00,-613.00,76.00,16480.00,3144.00,-2448.00
17548,105.00,451.00,-688.00,216.00,16248.00,2512.00,-2496.00
17564,533.00,-215.00,-60.00,-96.00,16128.00,2488.00,-2480.00
17581,633.00,-132.00,-50.00,-432.00,16204.00,2624.00,-2480.00
17597,475.00,-223.00,-218.00,-232.00,16352.00,2464.00,-2480.00
17614,322.00,-177.00,-40.00,-280.00,16496.00,2828.00,-2496.00
17631,59.00,-9.00,268.00,-52.00,16276.00,2648.00,-2496.00
17647,413.00,262.00,-353.00,172.00,16084.00,2420.00,-2480.00
17664,1093.00,144.00,-333.00,228.00,16232.00,2468.00,-2496.00
17680,1247.00,-444.00,356.00,-100.00,16228.00,2376.00,-2512.00
17696,1256.00,9.00,76.00,-228.00,16292.00,2604.00,-2512.00
17713,862.00,297.00,-14.00,8.00,16320.00,2432.00,-2464.00
17729,1092.00,-120.00,216.00,128.00,16216.00,2312.00,-2480.00
17746,1660.00,-289.00,6.00,-132.00,16232.00,2152.00,-2464.00
17763,1830.00,-350.00,125.00,-160.00,16096.00,2060.00,-2496.00
17779,1340.00,-171.00,141.00,-232.00,16384.00,2512.00,-2512.00
17796,920.00,200.00,-179.00,-116.00,16368.00,2496.00,-2496.00
17812,626.00,640.00,-499.00,-20.00,16344.00,2272.00,-2480.00
17828,498.00,317.00,-130.00,116.00,16568.00,2112.00,-2448.00
17846,206.00,-137.00,-87.00,88.00,16540.00,2304.00,-2496.00
17862,170.00,-250.00,-237.00,-108.00,16192.00,1828.00,-2496.00
17879,832.00,792.00,-377.00,464.00,16200.00,2196.00,-2496.00
17895,635.00,725.00,251.00,288.00,16344.00,2168.00,-2480.00
17911,704.00,308.00,-98.00,128.00,16072.00,1936.00,-2496.00
17928,1279.00,-307.00,-71.00,20.00,16236.00,1828.00,-2528.00
17944,789.00,-1269.00,711.00,-84.00,16172.00,2064.00,-2464.00
17961,1085.00,-649.00,274.00,-68.00,16428.00,1920.00,-2480.00
17978,655.00,-482.00,-456.00,-44.00,16476.00,2240.00,-2496.00
17994,647.00,-532.00,-744.00,240.00,16376.00,1888.00,-2496.00
18011,1001.00,-137.00,-685.00,236.00,16300.00,1732.00,-2512.00
18027,875.00,-337.00,-156.00,-4.00,16048.00,1904.00,-2464.00
18043,876.00,-291.00,232.00,-68.00,16160.00,1728.00,-2464.00
18061,526.00,-242.00,380.00,-120.00,16272.00,1992.00,-2496.00
18077,292.00,124.00,56.00,-284.00,16180.00,1852.00,-2480.00
18094,497.00,587.00,-397.00,36.00,16356.00,1828.00,-2448.00
18110,564.00,299.00,-256.00,220.00,16356.00,1772.00,-2480.00
18126,570.00,-252.00,172.00,224.00,16296.00,1556.00,-2496.00
18143,549.00,-349.00,298.00,104.00,16344.00,1856.00,-2496.00
18159,442.00,-79.00,340.00,-60.00,16320.00,1796.00,-2480.00
18177,255.00,-76.00,307.00,4.00,16552.00,1800.00,-2512.00
18193,204.00,-30.00,-135.00,128.00,16276.00,1840.00,-2496.00
18209,351.00,-3.00,-140.00,172.00,16292.00,1776.00,-2464.00
18226,621.00,-152.00,-102.00,168.00,16320.00,1628.00,-2464.00
18242,776.00,-75.00,-324.00,296.00,16288.00,1712.00,-2496.00
18258,942.00,347.00,-105.00,28.00,16396.00,1400.00,-2512.00
18275,466.00,-170.00,-78.00,76.00,16492.00,1692.00,-2448.00
18291,676.00,-50.00,-62.00,-40.00,16032.00,1476.00,-2512.00
18308,760.00,137.00,58.00,116.00,15996.00,1544.00,-2496.00
18324,914.00,135.00,8.00,264.00,16308.00,1632.00,-2496.00
18340,682.00,-284.00,-101.00,64.00,16336.00,1532.00,-2496.00
18358,634.00,-348.00,10.00,212.00,16300.00,1560.00,-2512.00
18374,622.00,-335.00,348.00,128.00,16300.00,1492.00,-2480.00
18391,519.00,-13.00,129.00,136.00,16292.00,1772.00,-2512.00
18407,677.00,315.00,-157.00,128.00,16384.00,1656.00,-2512.00
18423,522.00,177.00,-127.00,256.00,16416.00,1560.00,-2464.00
18440,364.00,-136.00,41.00,36.00,16424.00,1468.00,-2512.00
18456,349.00,-15.00,-27.00,216.00,16300.00,1456.00,-2496.00
18472,548.00,117.00,-8.00,184.00,16208.00,1216.00,-2464.00
18489,533.00,-150.00,73.00,160.00,16284.00,1296.00,-2464.00
18506,740.00,-89.00,-192.00,192.00,16160.00,1196.00,-2496.00
18523,806.00,95.00,-38.00,140.00,16252.00,1504.00,-2464.00
18539,602.00,162.00,104.00,188.00,16320.00,1428.00,-2464.00
18555,596.00,4.00,45.00,264.00,16440.00,1364.00,-2480.00
18572,788.00,-256.00,-166.00,128.00,16204.00,1256.00,-2496.00
18588,939.00,-206.00,-104.00,280.00,16376.00,1352.00,-2480.00
18605,794.00,-178.00,-86.00,208.00,16372.00,1324.00,-2480.00
18621,831.00,-79.00,-57.00,40.00,16384.00,1300.00,-2512.00
18637,851.00,-11.00,-159.00,144.00,16192.00,1096.00,-2480.00
18655,759.00,103.00,-308.00,244.00,16340.00,1416.00,-2448.00
18671,465.00,15.00,-312.00,172.00,16320.00,1204.00,-2464.00
18688,498.00,-46.00,-292.00,384.00,16328.00,1300.00,-2464.00
18704,490.00,92.00,-126.00,212.00,16368.00,1264.00,-2496.00
18720,189.00,81.00,12.00,320.00,16316.00,1392.00,-2464.00
18737,-70.00,47.00,146.00,288.00,16308.00,1160.00,-2464.00
18753,-18.00,-114.00,68.00,308.00,16328.00,1128.00,-2464.00
18769,100.00,-124.00,-179.00,40.00,16156.00,1200.00,-2496.00
18786,451.00,87.00,-321.00,68.00,16112.00,1052.00,-2432.00
18802,727.00,512.00,-546.00,40.00,16228.00,1168.00,-2496.00
18820,880.00,-54.00,-396.00,304.00,16460.00,1036.00,-2496.00
18836,576.00,-476.00,-228.00,200.00,16564.00,964.00,-2496.00
18852,315.00,-496.00,-277.00,364.00,16416.00,1068.00,-2480.00
18869,-137.00,-482.00,-55.00,376.00,16484.00,1364.00,-2480.00
18885,-573.00,-171.00,5.00,144.00,16224.00,1304.00,-2448.00
18902,-622.00,442.00,-180.00,192.00,16180.00,1288.00,-2480.00
18918,-618.00,554.00,-174.00,88.00,16308.00,1088.00,-2496.00
18935,-513.00,187.00,-197.00,56.00,16360.00,1204.00,-2496.00
18952,-455.00,-114.00,-253.00,-36.00,16144.00,780.00,-2496.00
18968,-341.00,-365.00,-419.00,156.00,16260.00,1032.00,-2496.00
18984,-286.00,-335.00,-572.00,88.00,16236.00,1252.00,-2480.00
19001,-354.00,16.00,-704.00,400.00,16316.00,1276.00,-2480.00
19017,-237.00,193.00,-521.00,324.00,16360.00,1044.00,-2496.00
19034,-188.00,-124.00,-265.00,244.00,16256.00,1008.00,-2464.00
19051,0.00,-301.00,59.00,-56.00,16220.00,1092.00,-2480.00
19066,202.00,-451.00,289.00,-64.00,16056.00,1120.00,-2480.00
19084,52.00,-275.00,219.00,-148.00,16328.00,1644.00,-2496.00
19100,-380.00,-201.00,-24.00,268.00,16252.00,1260.00,-2496.00
19117,-131.00,-93.00,-334.00,420.00,16360.00,1052.00,-2464.00
19133,190.00,36.00,-490.00,452.00,16384.00,1268.00,-2496.00
19149,246.00,-29.00,-174.00,252.00,16304.00,1288.00,-2464.00
19166,213.00,32.00,12.00,144.00,16348.00,1372.00,-2480.00
19182,180.00,-42.00,320.00,360.00,16484.00,1552.00,-2464.00
19198,-129.00,-56.00,172.00,184.00,16440.00,1432.00,-2496.00
19215,-253.00,-15.00,-112.00,-12.00,16232.00,1372.00,-2496.00
19232,-264.00,75.00,-174.00,284.00,16288.00,1328.00,-2496.00
19249,20.00,39.00,-243.00,484.00,16436.00,1328.00,-2496.00
19265,217.00,-203.00,-105.00,484.00,16408.00,1152.00,-2480.00
19281,164.00,-264.00,-130.00,-60.00,16188.00,1160.00,-2496.00
19298,174.00,-107.00,-59.00,144.00,16156.00,1300.00,-2496.00
19314,241.00,-89.00,72.00,64.00,16116.00,1204.00,-2480.00
19331,215.00,-207.00,-23.00,56.00,16304.00,1376.00,-2480.00
19347,133.00,-175.00,-240.00,292.00,16448.00,1444.00,-2512.00
19363,181.00,-50.00,-216.00,356.00,16380.00,1304.00,-2464.00
19381,194.00,-60.00,-35.00,284.00,16256.00,1260.00,-2464.00
19397,234.00,-184.00,161.00,128.00,16272.00,1232.00,-2480.00
19414,333.00,-109.00,296.00,112.00,16228.00,1188.00,-2464.00
19430,209.00,-99.00,179.00,8.00,16188.00,1284.00,-2480.00
19446,210.00,46.00,299.00,184.00,16284.00,1228.00,-2496.00
19463,105.00,406.00,-86.00,-20.00,16376.00,1504.00,-2480.00
19479,9.00,738.00,-450.00,348.00,16276.00,1388.00,-2480.00
19495,121.00,313.00,-642.00,472.00,16464.00,1232.00,-2480.00
19512,252.00,210.00,-708.00,468.00,16280.00,1136.00,-2496.00
19528,183.00,-159.00,-53.00,264.00,16328.00,1552.00,-2464.00
19546,-298.00,-41.00,-69.00,64.00,16216.00,1512.00,-2464.00
19562,-417.00,261.00,-289.00,116.00,16140.00,1168.00,-2480.00
19578,-239.00,32.00,85.00,288.00,16172.00,916.00,-2528.00
19595,189.00,-1.00,194.00,280.00,16232.00,1168.00,-2480.00
19611,536.00,-81.00,-59.00,208.00,16348.00,1068.00,-2480.00
19628,539.00,-327.00,4.00,152.00,16600.00,1196.00,-2480.00
19644,563.00,-220.00,1.00,324.00,16488.00,1416.00,-2464.00
19660,174.00,26.00,-182.00,316.00,16496.00,1432.00,-2464.00
19677,-165.00,142.00,-100.00,300.00,16400.00,1284.00,-2464.00
19693,-270.00,140.00,-33.00,400.00,16212.00,1248.00,-2448.00
19709,-289.00,288.00,-128.00,248.00,16320.00,1440.00,-2480.00
19727,-391.00,403.00,-187.00,180.00,16420.00,1332.00,-2480.00
19743,-267.00,203.00,-133.00,184.00,16076.00,1160.00,-2496.00
19760,56.00,-61.00,-136.00,404.00,16364.00,1372.00,-2464.00
19776,138.00,-299.00,-41.00,124.00,16292.00,1216.00,-2464.00
19792,185.00,-220.00,-148.00,144.00,16292.00,1632.00,-2464.00
19809,143.00,156.00,-242.00,260.00,16508.00,1628.00,-2464.00
19825,-218.00,359.00,-267.00,268.00,16408.00,1500.00,-2480.00
19843,-426.00,291.00,-283.00,252.00,16360.00,1404.00,-2512.00
19859,-509.00,115.00,-290.00,88.00,16252.00,1200.00,-2464.00
19875,-290.00,156.00,-313.00,292.00,16172.00,1308.00,-2496.00
19892,-277.00,175.00,-306.00,288.00,16180.00,1220.00,-2480.00
19908,52.00,28.00,-86.00,488.00,16148.00,1320.00,-2480.00
19924,246.00,-9.00,49.00,188.00,16224.00,1272.00,-2496.00
19941,370.00,-104.00,-50.00,192.00,16280.00,1400.00,-2464.00
19957,328.00,-198.00,-163.00,232.00,16256.00,1460.00,-2432.00
19975,237.00,-278.00,-151.00,172.00,16304.00,1316.00,-2464.00
19991,190.00,-224.00,-214.00,128.00,16344.00,1644.00,-2480.00
20007,-16.00,46.00,-262.00,264.00,16428.00,1652.00,-2512.00
20024,-123.00,106.00,-85.00,464.00,16392.00,1348.00,-2480.00
20040,41.00,9.00,42.00,476.00,16380.00,1460.00,-2480.00
20057,205.00,-129.00,76.00,328.00,16224.00,1360.00,-2496.00
20073,395.00,1.00,-43.00,172.00,16196.00,1376.00,-2496.00
20089,385.00,48.00,-272.00,140.00,16200.00,1396.00,-2512.00
20106,244.00,30.00,-175.00,288.00,16228.00,1548.00,-2464.00
20123,206.00,-161.00,6.00,372.00,16212.00,1252.00,-2464.00
20140,235.00,-178.00,-141.00,252.00,16328.00,1148.00,-2448.00
20156,274.00,35.00,-304.00,280.00,16456.00,1264.00,-2464.00
20172,149.00,51.00,-114.00,340.00,16396.00,1528.00,-2496.00
20189,-17.00,139.00,-48.00,272.00,16300.00,1344.00,-2496.00
20205,64.00,142.00,-77.00,252.00,16136.00,1236.00,-2496.00
20221,118.00,37.00,-137.00,232.00,16352.00,1316.00,-2480.00
20238,42.00,-41.00,-174.00,368.00,16492.00,1472.00,-2480.00
20254,-83.00,15.00,-167.00,408.00,16340.00,1344.00,-2480.00
20271,-82.00,-46.00,-62.00,488.00,16432.00,1488.00,-2480.00
20287,-265.00,59.00,-14.00,304.00,16396.00,1536.00,-2480.00
20303,-122.00,219.00,-120.00,232.00,16112.00,1316.00,-2464.00
20321,230.00,83.00,-179.00,108.00,16140.00,1296.00,-2464.00
20337,154.00,-76.00,-286.00,76.00,16204.00,1532.00,-2464.00
20354,119.00,-101.00,-303.00,180.00,16192.00,1356.00,-2480.00
20370,290.00,-42.00,-350.00,232.00,16188.00,1416.00,-2496.00
20386,425.00,-58.00,-212.00,384.00,16280.00,1276.00,-2464.00
20403,493.00,-108.00,53.00,440.00,16524.00,1272.00,-2496.00
20419,397.00,-121.00,14.00,396.00,16512.00,1408.00,-2432.00
20435,150.00,-35.00,5.00,368.00,16472.00,1440.00,-2480.00
20452,-65.00,-69.00,203.00,352.00,16444.00,1468.00,-2448.00
20469,-318.00,-73.00,281.00,356.00,16332.00,1336.00,-2448.00
20486,-366.00,-205.00,229.00,460.00,16220.00,1320.00,-2512.00
20502,-102.00,-36.00,-80.00,384.00,16264.00,1548.00,-2464.00
20518,68.00,-16.00,-361.00,272.00,16228.00,1520.00,-2464.00
20535,239.00,15.00,-437.00,144.00,16312.00,1496.00,-2464.00
20551,207.00,194.00,-521.00,196.00,16288.00,1480.00,-2448.00
20568,268.00,106.00,-347.00,316.00,16284.00,1344.00,-2464.00
20584,306.00,-77.00,-203.00,328.00,16216.00,1404.00,-2480.00
20601,307.00,-106.00,-160.00,236.00,16436.00,1364.00,-2448.00
20618,195.00,1.00,-148.00,356.00,16424.00,1448.00,-2480.00
20634,-5.00,111.00,-155.00,320.00,16452.00,1456.00,-2480.00
20651,-31.00,87.00,-64.00,356.00,16380.00,1308.00,-2464.00
20667,120.00,42.00,-101.00,312.00,16168.00,1276.00,-2464.00
20683,280.00,-2.00,-46.00,228.00,16176.00,1448.00,-2480.00
20700,226.00,-37.00,-79.00,196.00,16120.00,1344.00,-2480.00
20716,237.00,-120.00,-175.00,288.00,16308.00,1328.00,-2512.00
20732,266.00,-52.00,-232.00,352.00,16364.00,1268.00,-2480.00
20749,171.00,-40.00,-228.00,324.00,16352.00,1344.00,-2448.00
20765,138.00,-77.00,-213.00,516.00,16472.00,1296.00,-2448.00
20783,132.00,71.00,-322.00,296.00,16440.00,1604.00,-2448.00
20799,134.00,193.00,-335.00,404.00,16448.00,1488.00,-2480.00
20815,-25.00,187.00,-143.00,200.00,16488.00,1512.00,-2448.00
20832,-129.00,0.00,-16.00,300.00,16300.00,1256.00,-2464.00
20848,23.00,-72.00,15.00,332.00,16304.00,1248.00,-2448.00
20865,123.00,-30.00,-125.00,196.00,16264.00,1256.00,-2496.00
20881,126.00,-28.00,-211.00,336.00,16208.00,1492.00,-2496.00
20897,61.00,130.00,-253.00,216.00,16164.00,1420.00,-2496.00
20914,134.00,33.00,-210.00,296.00,16348.00,1472.00,-2496.00
20930,152.00,-81.00,-158.00,212.00,16312.00,1260.00,-2464.00
20947,208.00,-124.00,-147.00,316.00,16432.00,1312.00,-2464.00
20964,137.00,-280.00,-122.00,268.00,16340.00,1368.00,-2480.00
20980,74.00,-153.00,-146.00,352.00,16308.00,1304.00,-2480.00
20997,137.00,39.00,-379.00,276.00,16344.00,1292.00,-2480.00
21013,188.00,185.00,-202.00,408.00,16348.00,1416.00,-2480.00
21029,100.00,137.00,-165.00,324.00,16280.00,1444.00,-2464.00
21046,154.00,208.00,-209.00,284.00,16320.00,1364.00,-2464.00
21063,81.00,134.00,-200.00,300.00,16340.00,1328.00,-2464.00
21080,80.00,155.00,-217.00,196.00,16280.00,1200.00,-2480.00
21096,24.00,61.00,-219.00,276.00,16396.00,1456.00,-2464.00
21112,-121.00,6.00,-225.00,376.00,16368.00,1324.00,-2496.00
21129,138.00,-33.00,-89.00,532.00,16380.00,1264.00,-2496.00
21145,228.00,-154.00,-83.00,328.00,16288.00,1476.00,-2512.00
21161,133.00,-42.00,-204.00,116.00,16144.00,1404.00,-2464.00
21178,191.00,52.00,-146.00,240.00,16188.00,1368.00,-2480.00
21194,287.00,29.00,-221.00,216.00,16204.00,1356.00,-2496.00
21211,313.00,-29.00,-205.00,260.00,16432.00,1340.00,-2496.00
21228,224.00,-154.00,-70.00,360.00,16480.00,1232.00,-2496.00
21244,322.00,-90.00,-93.00,424.00,16380.00,1160.00,-2464.00
21261,346.00,-6.00,-79.00,508.00,16448.00,1220.00,-2464.00
21277,205.00,-141.00,94.00,512.00,16448.00,1280.00,-2480.00
21294,2.00,-42.00,84.00,304.00,16144.00,1520.00,-2480.00
21310,-143.00,137.00,-44.00,400.00,16264.00,1564.00,-2496.00
21326,-163.00,135.00,-51.00,284.00,16200.00,1424.00,-2464.00
21343,8.00,-7.00,-94.00,196.00,16204.00,1388.00,-2464.00
21359,12.00,-46.00,-282.00,156.00,16248.00,1476.00,-2448.00
21376,135.00,-10.00,-288.00,384.00,16316.00,1468.00,-2480.00
21392,333.00,4.00,-256.00,232.00,16304.00,1452.00,-2480.00
21408,337.00,-8.00,-326.00,352.00,16336.00,1228.00,-2480.00
21425,319.00,66.00,-155.00,228.00,16304.00,1480.00,-2480.00
21441,99.00,265.00,-267.00,284.00,16468.00,1376.00,-2480.00
21457,-171.00,312.00,-377.00,308.00,16416.00,1184.00,-2448.00
21475,-109.00,216.00,-255.00,408.00,16324.00,1188.00,-2480.00
21491,-86.00,72.00,-31.00,380.00,16256.00,1416.00,-2496.00
21508,-125.00,-75.00,64.00,388.00,16156.00,1552.00,-2480.00
21524,283.00,-12.00,-53.00,316.00,16092.00,1212.00,-2448.00
21540,339.00,-96.00,-53.00,196.00,16264.00,1324.00,-2448.00
21557,137.00,-128.00,-102.00,280.00,16360.00,1500.00,-2480.00
21573,85.00,51.00,-263.00,388.00,16304.00,1388.00,-2480.00
21590,284.00,150.00,-391.00,376.00,16416.00,1336.00,-2448.00
21606,150.00,1.00,-219.00,424.00,16576.00,1432.00,-2480.00
21623,2.00,-36.00,-191.00,308.00,16488.00,1608.00,-2480.00
21640,-51.00,212.00,-231.00,348.00,16300.00,1232.00,-2464.00
21656,55.00,465.00,-447.00,232.00,16292.00,1408.00,-2480.00
21672,140.00,291.00,-287.00,300.00,16340.00,1316.00,-2512.00
21689,58.00,-141.00,30.00,384.00,16376.00,1456.00,-2480.00
21705,229.00,-85.00,-210.00,248.00,16124.00,1276.00,-2448.00
21722,453.00,66.00,-386.00,164.00,16244.00,1292.00,-2448.00
21738,247.00,-50.00,-227.00,312.00,16320.00,1316.00,-2480.00
21754,86.00,-79.00,-32.00,288.00,16248.00,1400.00,-2480.00
21771,126.00,61.00,-144.00,396.00,16352.00,1376.00,-2480.00
21788,143.00,127.00,-191.00,356.00,16364.00,1348.00,-2480.00
21805,79.00,7.00,-32.00,400.00,16320.00,1508.00,-2480.00
21821,100.00,15.00,-204.00,180.00,16172.00,1532.00,-2464.00
21837,314.00,78.00,-197.00,348.00,16356.00,1420.00,-2464.00
21854,208.00,-66.00,-67.00,312.00,16404.00,1488.00,-2464.00
21870,65.00,-120.00,-22.00,136.00,16212.00,1224.00,-2464.00
21886,149.00,116.00,-114.00,484.00,16280.00,1364.00,-2496.00
21903,150.00,79.00,-87.00,432.00,16476.00,1340.00,-2464.00
21919,112.00,-72.00,-34.00,472.00,16356.00,1348.00,-2496.00
21936,-15.00,-15.00,-180.00,312.00,16416.00,1572.00,-2496.00
21952,-51.00,93.00,-199.00,344.00,16176.00,1236.00,-2464.00
21968,57.00,33.00,-129.00,228.00,16248.00,1436.00,-2464.00
21985,5.00,-52.00,-104.00,244.00,16264.00,1288.00,-2480.00
22002,70.00,-97.00,-140.00,276.00,16200.00,1240.00,-2480.00
22019,209.00,-105.00,-151.00,348.00,16128.00,1316.00,-2480.00
22035,344.00,-102.00,-248.00,124.00,16228.00,1428.00,-2512.00
22051,298.00,-14.00,-301.00,300.00,16304.00,1468.00,-2480.00
22068,263.00,-19.00,-216.00,212.00,16404.00,1440.00,-2496.00
22084,318.00,-39.00,-114.00,348.00,16352.00,1308.00,-2464.00
22100,258.00,-63.00,31.00,500.00,16384.00,1208.00,-2464.00
22117,182.00,-178.00,242.00,396.00,16432.00,1416.00,-2464.00
22134,71.00,-235.00,238.00,356.00,16380.00,1352.00,-2512.00
22151,194.00,-79.00,123.00,324.00,16312.00,1384.00,-2480.00
22167,40.00,77.00,-193.00,92.00,16360.00,1488.00,-2480.00
22183,-37.00,161.00,-345.00,328.00,16316.00,1276.00,-2496.00
22200,37.00,171.00,-364.00,320.00,16236.00,1548.00,-2464.00
22216,182.00,67.00,-369.00,352.00,16216.00,1292.00,-2464.00
22233,334.00,-49.00,-253.00,396.00,16204.00,1304.00,-2464.00
22249,382.00,-41.00,-308.00,268.00,16272.00,1312.00,-2480.00
22265,289.00,72.00,-286.00,296.00,16384.00,1328.00,-2480.00
22282,203.00,-49.00,-139.00,448.00,16516.00,1356.00,-2448.00
22299,78.00,0.00,-189.00,428.00,16352.00,1200.00,-2480.00
22316,65.00,101.00,-148.00,428.00,16364.00,1352.00,-2464.00
22332,-25.00,83.00,2.00,420.00,16256.00,1356.00,-2464.00
22348,34.00,-86.00,99.00,320.00,16236.00,1380.00,-2480.00
22365,81.00,-134.00,73.00,216.00,16236.00,1364.00,-2480.00
22381,129.00,-20.00,-98.00,156.00,16220.00,1232.00,-2464.00
22397,158.00,-5.00,-325.00,336.00,16408.00,1356.00,-2464.00
22414,145.00,-28.00,-294.00,376.00,16288.00,1216.00,-2496.00
22430,135.00,-2.00,-268.00,488.00,16376.00,1292.00,-2496.00
22447,124.00,154.00,72.00,320.00,16420.00,1340.00,-2464.00
22463,22.00,3.00,-58.00,376.00,16448.00,1392.00,-2496.00
22479,77.00,43.00,-226.00,160.00,16312.00,1228.00,-2480.00
22496,82.00,65.00,-268.00,292.00,16328.00,1256.00,-2480.00
22512,48.00,19.00,-299.00,384.00,16144.00,1244.00,-2480.00
22529,100.00,-84.00,-81.00,356.00,16196.00,1148.00,-2496.00
22545,227.00,-360.00,35.00,260.00,16352.00,1272.00,-2464.00
22562,124.00,-438.00,198.00,316.00,16260.00,1268.00,-2480.00
22579,192.00,-284.00,218.00,364.00,16364.00,1172.00,-2512.00
22595,218.00,2.00,-60.00,212.00,16340.00,1400.00,-2496.00
22611,162.00,68.00,-115.00,408.00,16408.00,1320.00,-2512.00
22628,166.00,38.00,-42.00,344.00,16312.00,1284.00,-2480.00
22644,93.00,188.00,-386.00,272.00,16372.00,1392.00,-2480.00
22661,56.00,265.00,-469.00,308.00,16352.00,1368.00,-2512.00
22677,-43.00,235.00,-307.00,520.00,16372.00,1352.00,-2480.00
22693,-16.00,180.00,-280.00,408.00,16400.00,1208.00,-2496.00
22711,52.00,99.00,-250.00,512.00,16392.00,1344.00,-2496.00
22727,61.00,49.00,-243.00,428.00,16360.00,1200.00,-2464.00
22744,82.00,99.00,-206.00,324.00,16348.00,1260.00,-2480.00
22760,-95.00,33.00,-150.00,304.00,16380.00,1476.00,-2480.00
22776,-82.00,84.00,-162.00,396.00,16232.00,1388.00,-2480.00
22793,-120.00,219.00,-299.00,316.00,16312.00,1472.00,-2480.00
22809,-241.00,279.00,-413.00,404.00,16432.00,1384.00,-2496.00
22825,-103.00,130.00,-208.00,328.00,16260.00,1168.00,-2496.00
22842,-2.00,-8.00,-289.00,380.00,16320.00,1300.00,-2448.00
22858,-63.00,-156.00,-100.00,284.00,16272.00,1332.00,-2496.00
22875,4.00,-14.00,-58.00,212.00,16320.00,1368.00,-2464.00
22891,183.00,17.00,-64.00,416.00,16244.00,1144.00,-2480.00
22908,362.00,-42.00,-77.00,196.00,16320.00,1244.00,-2480.00
22925,360.00,21.00,-253.00,196.00,16332.00,1272.00,-2448.00
22941,363.00,-42.00,-328.00,236.00,16412.00,1200.00,-2448.00
22958,230.00,-69.00,-239.00,356.00,16400.00,1324.00,-2448.00
22974,15.00,-153.00,-36.00,540.00,16428.00,1500.00,-2480.00
22990,-133.00,-86.00,148.00,520.00,16308.00,1548.00,-2448.00
23007,-139.00,117.00,59.00,304.00,16324.00,1476.00,-2448.00
23023,-103.00,284.00,-161.00,296.00,16076.00,1368.00,-2496.00
23040,-14.00,224.00,-200.00,340.00,16256.00,1312.00,-2496.00
23057,48.00,46.00,-210.00,256.00,16320.00,1416.00,-2464.00
23073,-1.00,76.00,-422.00,140.00,16192.00,1388.00,-2464.00
23090,16.00,180.00,-407.00,256.00,16316.00,1448.00,-2496.00
23106,50.00,150.00,-389.00,332.00,16400.00,1432.00,-2464.00
23122,73.00,137.00,-422.00,280.00,16360.00,1444.00,-2496.00
23139,-8.00,204.00,-323.00,332.00,16416.00,1368.00,-2464.00
23155,-123.00,240.00,-300.00,420.00,16472.00,1552.00,-2496.00
23172,-175.00,111.00,-166.00,368.00,16300.00,1396.00,-2464.00
23188,-77.00,-48.00,52.00,292.00,16264.00,1392.00,-2512.00
23204,21.00,10.00,-21.00,132.00,16164.00,1308.00,-2480.00
23221,-30.00,195.00,-244.00,224.00,16236.00,1520.00,-2464.00
23238,-194.00,262.00,-358.00,332.00,16244.00,1372.00,-2464.00
23255,-19.00,11.00,-299.00,452.00,16192.00,1320.00,-2480.00
23271,136.00,-88.00,-260.00,260.00,16260.00,1224.00,-2448.00
23287,102.00,-44.00,-248.00,272.00,16376.00,1596.00,-2512.00
23304,-13.00,79.00,-153.00,336.00,16352.00,1600.00,-2448.00
23320,-159.00,42.00,-81.00,336.00,16436.00,1548.00,-2448.00
23336,-113.00,7.00,-117.00,264.00,16332.00,1508.00,-2496.00
23353,-111.00,-23.00,-151.00,276.00,16276.00,1424.00,-2464.00
23369,-112.00,134.00,-341.00,176.00,16320.00,1596.00,-2448.00
23387,-135.00,369.00,-350.00,360.00,16372.00,1520.00,-2480.00
23403,-106.00,213.00,-218.00,320.00,16364.00,1580.00,-2480.00
23419,0.00,-9.00,-95.00,296.00,16132.00,1448.00,-2464.00
23436,83.00,-203.00,-21.00,216.00,16348.00,1336.00,-2480.00
23452,169.00,-227.00,-124.00,196.00,16256.00,1300.00,-2480.00
23469,182.00,-169.00,-208.00,188.00,16232.00,1456.00,-2448.00
23485,89.00,4.00,-123.00,540.00,16352.00,1372.00,-2496.00
23501,-83.00,110.00,-193.00,420.00,16364.00,1392.00,-2448.00
23518,-156.00,175.00,-218.00,336.00,16360.00,1580.00,-2480.00
23534,-183.00,313.00,-238.00,328.00,16392.00,1508.00,-2432.00
23552,-151.00,251.00,-239.00,252.00,16332.00,1432.00,-2480.00
23568,-137.00,214.00,-220.00,224.00,16268.00,1596.00,-2448.00
23584,-27.00,78.00,-249.00,236.00,16208.00,1452.00,-2464.00
23601,117.00,-29.00,-163.00,236.00,16260.00,1356.00,-2496.00
23617,301.00,-51.00,-206.00,412.00,16392.00,1480.00,-2496.00
23633,125.00,-36.00,-178.00,196.00,16464.00,1820.00,-2496.00
23650,-341.00,190.00,-198.00,332.00,16340.00,1672.00,-2464.00
23667,-313.00,293.00,-132.00,360.00,16404.00,1564.00,-2480.00
23684,-182.00,244.00,-331.00,184.00,16256.00,1616.00,-2448.00
23700,-182.00,160.00,-405.00,40.00,16168.00,1708.00,-2464.00
23716,-21.00,113.00,-271.00,316.00,16056.00,1584.00,-2464.00
23733,424.00,-145.00,-37.00,224.00,16076.00,1392.00,-2448.00
23749,994.00,-265.00,-25.00,236.00,16084.00,1344.00,-2480.00
23766,1076.00,-109.00,-18.00,200.00,16512.00,1544.00,-2480.00
23783,731.00,73.00,-173.00,84.00,16396.00,1800.00,-2496.00
23799,311.00,212.00,-286.00,324.00,16516.00,1764.00,-2464.00
23816,87.00,219.00,-146.00,596.00,16380.00,1664.00,-2464.00
23832,148.00,197.00,225.00,528.00,16160.00,1668.00,-2464.00
23848,390.00,112.00,374.00,412.00,16208.00,1392.00,-2512.00
23865,782.00,100.00,121.00,312.00,16168.00,1648.00,-2480.00
23881,1055.00,283.00,-285.00,-156.00,15972.00,1276.00,-2464.00
23899,1517.00,366.00,-700.00,116.00,16056.00,1012.00,-2480.00
23915,2118.00,157.00,-814.00,584.00,16348.00,1368.00,-2464.00
23931,2163.00,-305.00,-439.00,356.00,16548.00,1360.00,-2448.00
23948,1831.00,-493.00,-703.00,172.00,16560.00,1304.00,-2448.00
23965,1761.00,90.00,-1043.00,276.00,16644.00,1328.00,-2480.00
23982,1329.00,671.00,-976.00,220.00,16616.00,1212.00,-2464.00
23998,871.00,728.00,-905.00,-136.00,16392.00,968.00,-2480.00
24014,988.00,-481.00,-244.00,180.00,16292.00,1464.00,-2480.00
24031,1027.00,25.00,870.00,92.00,15676.00,700.00,-2480.00
24047,405.00,321.00,236.00,164.00,16436.00,1280.00,-2480.00
24064,244.00,165.00,-206.00,332.00,16000.00,868.00,-2480.00
24081,722.00,62.00,-70.00,8.00,15960.00,720.00,-2496.00
24097,1062.00,-256.00,-196.00,292.00,16108.00,824.00,-2464.00
24114,1031.00,-862.00,493.00,260.00,16312.00,864.00,-2480.00
24130,578.00,94.00,539.00,216.00,16272.00,1120.00,-2480.00
24146,189.00,523.00,-46.00,680.00,16544.00,812.00,-2480.00
24163,447.00,195.00,641.00,976.00,15660.00,72.00,-2480.00
24179,938.00,-478.00,2310.00,-716.00,16968.00,1664.00,-2480.00
24196,460.00,-420.00,1087.00,512.00,16612.00,840.00,-2464.00
24213,797.00,588.00,121.00,132.00,15480.00,140.00,-2448.00
24229,518.00,-157.00,1127.00,1012.00,16868.00,1056.00,-2480.00
24246,448.00,-519.00,1149.00,496.00,16472.00,548.00,-2528.00
24262,748.00,122.00,-158.00,-76.00,15736.00,128.00,-2496.00
24279,562.00,291.00,-986.00,292.00,16152.00,516.00,-2464.00
24295,719.00,213.00,-857.00,372.00,15720.00,384.00,-2480.00
24311,922.00,279.00,-533.00,792.00,16348.00,452.00,-2480.00
24329,1406.00,-42.00,-344.00,788.00,16272.00,488.00,-2480.00
24345,1462.00,-34.00,-223.00,500.00,16332.00,596.00,-2480.00
24361,1317.00,-182.00,-214.00,424.00,16416.00,340.00,-2480.00
24378,1258.00,79.00,-493.00,424.00,16324.00,404.00,-2448.00
24394,1332.00,-23.00,-342.00,552.00,16160.00,392.00,-2464.00
24411,1337.00,-270.00,32.00,452.00,16396.00,416.00,-2464.00
24427,1557.00,-368.00,80.00,352.00,16260.00,368.00,-2464.00
24443,1181.00,283.00,-573.00,268.00,16248.00,552.00,-2416.00
24461,786.00,332.00,-597.00,528.00,16396.00,432.00,-2448.00
24477,500.00,193.00,-232.00,752.00,16416.00,208.00,-2544.00
24494,661.00,-181.00,209.00,388.00,16184.00,112.00,-2480.00
24510,830.00,85.00,-192.00,860.00,17408.00,-284.00,-2480.00
24526,1254.00,237.00,45.00,124.00,15512.00,-688.00,-2480.00
24543,1550.00,-307.00,434.00,756.00,16444.00,76.00,-2448.00
24559,1314.00,-565.00,426.00,404.00,16188.00,-100.00,-2480.00
24576,1119.00,-465.00,181.00,304.00,16332.00,-108.00,-2464.00
24593,1194.00,-366.00,-34.00,620.00,16292.00,-60.00,-2432.00
24609,1182.00,-251.00,39.00,484.00,16280.00,8.00,-2464.00
24626,1065.00,-35.00,124.00,716.00,16312.00,76.00,-2480.00
24642,1037.00,55.00,145.00,672.00,16172.00,-20.00,-2480.00
24658,1013.00,206.00,-63.00,416.00,16172.00,-216.00,-2480.00
24675,998.00,44.00,-473.00,460.00,16360.00,-156.00,-2448.00
24691,943.00,-231.00,-485.00,352.00,16076.00,-140.00,-2464.00
24708,931.00,-315.00,-315.00,404.00,16104.00,-348.00,-2448.00
24724,819.00,-109.00,-308.00,456.00,16144.00,-252.00,-2416.00
24740,808.00,263.00,-323.00,512.00,16032.00,-336.00,-2480.00
24758,957.00,363.00,-259.00,636.00,16232.00,-316.00,-2448.00
24774,1120.00,201.00,-252.00,536.00,16176.00,-392.00,-2464.00
24791,936.00,44.00,-182.00,504.00,16328.00,-384.00,-2496.00
24807,922.00,111.00,-128.00,640.00,16224.00,-588.00,-2464.00
24823,1134.00,343.00,-349.00,420.00,16108.00,-476.00,-2464.00
24840,1169.00,364.00,-295.00,644.00,16112.00,-268.00,-2480.00
24856,984.00,3.00,-30.00,408.00,16292.00,-372.00,-2480.00
24872,807.00,-1100.00,594.00,-40.00,16076.00,364.00,-2432.00
24890,1087.00,-542.00,454.00,604.00,15876.00,-512.00,-2480.00
24906,1031.00,-433.00,-16.00,516.00,16388.00,-216.00,-2448.00
24923,903.00,-68.00,-570.00,412.00,16124.00,-800.00,-2448.00
24939,1105.00,-5.00,-490.00,728.00,15424.00,-872.00,-2480.00
24955,1110.00,332.00,-641.00,652.00,16192.00,-636.00,-2448.00
24972,811.00,196.00,-512.00,696.00,16388.00,-820.00,-2464.00
24988,811.00,-142.00,-203.00,488.00,16180.00,-888.00,-2464.00
25005,775.00,-102.00,-56.00,516.00,16152.00,-712.00,-2496.00
25022,913.00,15.00,488.00,548.00,16024.00,-932.00,-2464.00
25038,1116.00,-402.00,625.00,440.00,16356.00,-592.00,-2464.00
25055,1556.00,249.00,605.00,296.00,15592.00,-1092.00,-2464.00
25071,1751.00,48.00,370.00,464.00,16144.00,-1008.00,-2448.00
25088,1927.00,-63.00,53.00,476.00,15800.00,-1216.00,-2496.00
25104,2109.00,-143.00,-251.00,696.00,15752.00,-1224.00,-2464.00
25121,2062.00,-67.00,-756.00,548.00,15900.00,-1156.00,-2480.00
25138,2057.00,-25.00,-854.00,928.00,16144.00,-1448.00,-2448.00
25154,2175.00,-324.00,-93.00,788.00,16056.00,-1408.00,-2496.00
25170,2483.00,-614.00,464.00,568.00,15916.00,-1500.00,-2480.00
25187,2570.00,-269.00,189.00,372.00,16056.00,-1452.00,-2496.00
25204,2045.00,148.00,-57.00,692.00,15972.00,-1428.00,-2448.00
25221,2454.00,37.00,254.00,612.00,15904.00,-1132.00,-2480.00
25237,1897.00,455.00,-118.00,496.00,15824.00,-1520.00,-2464.00
25253,1330.00,876.00,105.00,408.00,16548.00,-1500.00,-2480.00
25270,610.00,781.00,-170.00,500.00,16088.00,-1568.00,-2464.00
25286,188.00,719.00,60.00,692.00,15504.00,-1812.00,-2496.00
25304,453.00,193.00,791.00,1060.00,16416.00,-2100.00,-2464.00
25320,819.00,194.00,381.00,920.00,15656.00,-2416.00,-2480.00
25336,694.00,-296.00,-599.00,332.00,16028.00,-1652.00,-2480.00
25353,78.00,-177.00,-884.00,828.00,16060.00,-1912.00,-2496.00
25369,751.00,607.00,-23.00,1136.00,15628.00,-2640.00,-2448.00
25385,862.00,284.00,-653.00,688.00,15840.00,-2060.00,-2480.00
25403,1564.00,235.00,-625.00,412.00,15476.00,-2412.00,-2496.00
25419,1859.00,83.00,-565.00,572.00,16036.00,-2056.00,-2448.00
25436,1416.00,327.00,-553.00,508.00,15892.00,-2228.00,-2512.00
25452,1026.00,-205.00,194.00,796.00,16080.00,-2352.00,-2496.00
25469,976.00,-539.00,394.00,520.00,15984.00,-2212.00,-2512.00
25486,1227.00,41.00,-84.00,408.00,15584.00,-2204.00,-2464.00
25502,1480.00,484.00,-313.00,616.00,15832.00,-2236.00,-2496.00
25519,1393.00,37.00,-156.00,252.00,15832.00,-2480.00,-2480.00
25535,1457.00,-827.00,-17.00,40.00,15724.00,-2704.00,-2480.00
25551,1465.00,-848.00,-148.00,336.00,15760.00,-2576.00,-2496.00
25569,1524.00,-752.00,-227.00,264.00,15680.00,-2296.00,-2480.00
25585,1386.00,-995.00,-248.00,116.00,17060.00,-1840.00,-2464.00
25602,1492.00,-534.00,345.00,932.00,15808.00,-2784.00,-2448.00
25618,1602.00,128.00,831.00,1060.00,16380.00,-2464.00,-2464.00
25635,1289.00,178.00,218.00,1096.00,15744.00,-3300.00,-2496.00
25652,1022.00,331.00,-356.00,668.00,15700.00,-2792.00,-2480.00
25668,745.00,406.00,-549.00,388.00,15708.00,-2432.00,-2432.00
25684,691.00,60.00,-474.00,692.00,15592.00,-2696.00,-2480.00
25701,754.00,-203.00,-168.00,644.00,15628.00,-2584.00,-2480.00
25718,849.00,-281.00,-25.00,568.00,15588.00,-2880.00,-2480.00
25735,1073.00,206.00,-172.00,620.00,15720.00,-2912.00,-2496.00
25751,1083.00,52.00,88.00,608.00,15684.00,-3120.00,-2448.00
25767,1222.00,62.00,-90.00,528.00,15464.00,-2872.00,-2512.00
25784,1167.00,256.00,-422.00,688.00,15720.00,-2976.00,-2480.00
25800,1273.00,-8.00,-110.00,576.00,15580.00,-3124.00,-2464.00
25818,1576.00,-15.00,-50.00,380.00,15588.00,-2984.00,-2464.00
25834,2021.00,-157.00,10.00,380.00,15640.00,-2888.00,-2496.00
25850,2059.00,-132.00,-193.00,620.00,15484.00,-3144.00,-2480.00
25867,1975.00,-33.00,-215.00,564.00,15556.00,-3260.00,-2528.00
25883,1727.00,88.00,-405.00,608.00,15716.00,-3372.00,-2480.00
25900,1909.00,108.00,-570.00,712.00,15612.00,-3240.00,-2480.00
25917,2005.00,185.00,-626.00,592.00,15640.00,-3436.00,-2496.00
25933,2146.00,-81.00,-89.00,680.00,15660.00,-3296.00,-2480.00
25950,1843.00,-79.00,32.00,564.00,15496.00,-3692.00,-2480.00
25966,1176.00,-106.00,155.00,420.00,15584.00,-3600.00,-2432.00
25982,680.00,24.00,-95.00,648.00,15252.00,-3808.00,-2448.00
25999,1058.00,-54.00,-266.00,460.00,15404.00,-3708.00,-2496.00
26016,1509.00,91.00,-434.00,276.00,15380.00,-3588.00,-2448.00
26033,1744.00,112.00,-468.00,492.00,15380.00,-3776.00,-2464.00
26049,1431.00,-190.00,-177.00,680.00,15460.00,-3964.00,-2464.00
26065,718.00,-210.00,276.00,564.00,15380.00,-3936.00,-2480.00
26082,563.00,-110.00,160.00,580.00,15320.00,-3880.00,-2464.00
26099,809.00,115.00,-465.00,320.00,15376.00,-3596.00,-2480.00
26116,1056.00,426.00,-910.00,448.00,15392.00,-3996.00,-2480.00
26132,1196.00,294.00,-504.00,672.00,15392.00,-3784.00,-2464.00
26148,964.00,-69.00,38.00,644.00,15400.00,-4120.00,-2448.00
26165,683.00,3.00,81.00,300.00,14964.00,-4060.00,-2480.00
26181,651.00,-75.00,-237.00,588.00,15268.00,-3988.00,-2464.00
26198,1082.00,-59.00,-82.00,692.00,14988.00,-4200.00,-2480.00
26215,1521.00,-187.00,422.00,680.00,15212.00,-4108.00,-2448.00
26231,1889.00,-234.00,471.00,480.00,15224.00,-4196.00,-2464.00
26248,2323.00,-183.00,108.00,552.00,15276.00,-4244.00,-2448.00
26264,2210.00,-107.00,-184.00,688.00,15560.00,-4196.00,-2464.00
26280,1514.00,18.00,-127.00,612.00,15304.00,-4344.00,-2480.00
26298,465.00,-11.00,-198.00,408.00,15296.00,-4104.00,-2448.00
26314,40.00,98.00,-325.00,140.00,14840.00,-4344.00,-2464.00
26331,203.00,27.00,-357.00,840.00,15424.00,-4388.00,-2480.00
26347,595.00,-216.00,-23.00,276.00,14868.00,-4536.00,-2480.00
26363,600.00,-236.00,152.00,380.00,15316.00,-4232.00,-2432.00
26380,400.00,-108.00,46.00,784.00,14920.00,-4480.00,-2496.00
26396,431.00,262.00,-307.00,568.00,15168.00,-4464.00,-2480.00
26414,504.00,200.00,-270.00,768.00,15260.00,-4588.00,-2480.00
26430,614.00,121.00,-102.00,456.00,15232.00,-4368.00,-2448.00
26446,581.00,259.00,-84.00,588.00,14996.00,-4560.00,-2464.00
26463,737.00,294.00,-174.00,772.00,15044.00,-4500.00,-2464.00
26479,926.00,132.00,-92.00,784.00,15248.00,-4452.00,-2448.00
26496,989.00,46.00,-147.00,684.00,15116.00,-4592.00,-2448.00
26513,1033.00,-72.00,-145.00,592.00,14912.00,-4816.00,-2480.00
26529,1395.00,-234.00,-21.00,528.00,14908.00,-4756.00,-2464.00
26546,1570.00,-136.00,21.00,608.00,14884.00,-4716.00,-2480.00
26562,1673.00,-107.00,56.00,588.00,15048.00,-4744.00,-2480.00
26578,1743.00,-138.00,-200.00,432.00,15072.00,-4600.00,-2464.00
26595,1741.00,82.00,-482.00,516.00,14756.00,-4820.00,-2480.00
26612,1696.00,88.00,-520.00,596.00,14984.00,-4832.00,-2496.00
26629,1841.00,-67.00,-370.00,812.00,14952.00,-5052.00,-2464.00
26645,2093.00,-126.00,-353.00,708.00,14996.00,-5052.00,-2448.00
26661,2206.00,6.00,-242.00,844.00,14836.00,-5060.00,-2464.00
26678,2101.00,-200.00,221.00,904.00,14916.00,-5376.00,-2464.00
26695,1871.00,-380.00,396.00,488.00,14732.00,-5368.00,-2448.00
26712,1764.00,6.00,-193.00,688.00,14848.00,-5276.00,-2496.00
26728,1719.00,30.00,-166.00,668.00,14904.00,-5332.00,-2464.00
26744,1643.00,-129.00,13.00,428.00,14712.00,-5364.00,-2480.00
26761,1389.00,-187.00,181.00,340.00,14700.00,-5400.00,-2480.00
26777,1161.00,-199.00,98.00,320.00,14856.00,-5288.00,-2480.00
26795,998.00,127.00,-436.00,536.00,14652.00,-5396.00,-2448.00
26811,1147.00,-102.00,-283.00,828.00,14588.00,-5688.00,-2464.00
26827,1651.00,-392.00,82.00,828.00,14476.00,-5904.00,-2512.00
26844,2145.00,-89.00,-168.00,604.00,14528.00,-5664.00,-2480.00
26860,2317.00,-108.00,-229.00,860.00,14844.00,-5384.00,-2496.00
26877,1911.00,-131.00,-81.00,704.00,14660.00,-5472.00,-2480.00
26894,1573.00,-140.00,74.00,612.00,14356.00,-5776.00,-2432.00
26910,1650.00,-52.00,-219.00,708.00,14328.00,-5864.00,-2464.00
26927,1985.00,6.00,-122.00,532.00,14128.00,-6044.00,-2480.00
26943,2159.00,-55.00,-241.00,332.00,14364.00,-5932.00,-2448.00
26960,2281.00,-129.00,-193.00,536.00,14372.00,-6080.00,-2464.00
26977,2352.00,-31.00,110.00,684.00,14296.00,-6324.00,-2480.00
26993,2342.00,-118.00,346.00,668.00,14432.00,-6336.00,-2464.00
27010,2245.00,-181.00,206.00,684.00,14232.00,-6500.00,-2480.00
27026,2502.00,-262.00,2.00,612.00,14348.00,-6272.00,-2448.00
27042,2411.00,-24.00,-305.00,700.00,14284.00,-6260.00,-2464.00
27060,2003.00,187.00,-331.00,692.00,14320.00,-6272.00,-2480.00
27076,1546.00,-66.00,38.00,672.00,14344.00,-6504.00,-2464.00
27092,1123.00,-116.00,-15.00,352.00,13992.00,-6400.00,-2464.00
27109,843.00,6.00,-274.00,520.00,14264.00,-6536.00,-2480.00
27125,982.00,-43.00,-489.00,784.00,14024.00,-6784.00,-2464.00
27142,1117.00,7.00,-344.00,684.00,14032.00,-6668.00,-2480.00
27159,1373.00,-50.00,-130.00,736.00,13924.00,-7008.00,-2448.00
27175,1549.00,16.00,-8.00,640.00,14028.00,-6736.00,-2448.00
27192,1581.00,111.00,-26.00,484.00,13940.00,-6844.00,-2480.00
27208,1894.00,-77.00,-12.00,692.00,14008.00,-6916.00,-2432.00
27225,1973.00,-167.00,-53.00,660.00,13864.00,-6844.00,-2464.00
27241,1958.00,-186.00,85.00,644.00,13896.00,-7004.00,-2448.00
27257,1892.00,-57.00,-112.00,700.00,13828.00,-7036.00,-2448.00
27275,2088.00,22.00,-390.00,656.00,13652.00,-7160.00,-2496.00
27291,2231.00,-36.00,-505.00,624.00,13764.00,-7104.00,-2480.00
27308,2108.00,-178.00,36.00,784.00,13572.00,-7264.00,-2448.00
27324,1704.00,-143.00,345.00,588.00,13540.00,-7388.00,-2432.00
27340,1159.00,-76.00,77.00,776.00,13932.00,-7260.00,-2480.00
27358,762.00,-106.00,-201.00,708.00,13764.00,-7268.00,-2480.00
27374,448.00,-75.00,-223.00,572.00,13836.00,-7316.00,-2432.00
27390,441.00,152.00,-392.00,524.00,13540.00,-7436.00,-2464.00
27407,457.00,167.00,-474.00,712.00,13800.00,-7508.00,-2448.00
27423,25.00,-72.00,-216.00,524.00,13736.00,-7252.00,-2448.00
27440,-110.00,-64.00,-374.00,560.00,13592.00,-7376.00,-2448.00
27456,14.00,-61.00,-92.00,816.00,13624.00,-7412.00,-2448.00
27472,427.00,-15.00,87.00,764.00,13544.00,-7420.00,-2480.00
27490,778.00,66.00,-111.00,588.00,13488.00,-7408.00,-2448.00
27506,897.00,115.00,-372.00,640.00,13396.00,-7620.00,-2480.00
27523,1124.00,-94.00,-302.00,592.00,13468.00,-7416.00,-2448.00
27539,1201.00,-180.00,-290.00,504.00,13504.00,-7384.00,-2448.00
27555,1266.00,-108.00,-340.00,588.00,13528.00,-7384.00,-2480.00
27572,1450.00,8.00,-325.00,568.00,13272.00,-7532.00,-2496.00
27589,1524.00,-131.00,-239.00,472.00,13496.00,-7492.00,-2464.00
27606,1273.00,6.00,-243.00,532.00,13560.00,-7620.00,-2480.00
27622,1191.00,12.00,-32.00,824.00,13476.00,-7784.00,-2480.00
27638,1532.00,118.00,-133.00,648.00,13356.00,-7848.00,-2480.00
27655,1528.00,88.00,-239.00,664.00,13748.00,-7696.00,-2464.00
27672,1265.00,67.00,4.00,780.00,13592.00,-7696.00,-2480.00
27688,903.00,-71.00,265.00,696.00,13424.00,-7824.00,-2448.00
27705,457.00,26.00,-2.00,388.00,13376.00,-7728.00,-2448.00
27721,444.00,25.00,-430.00,504.00,13280.00,-7780.00,-2464.00
27738,535.00,149.00,-727.00,288.00,13128.00,-8068.00,-2448.00
27754,645.00,265.00,-589.00,596.00,13144.00,-7888.00,-2448.00
27770,668.00,5.00,-170.00,676.00,13404.00,-7948.00,-2464.00
27787,736.00,95.00,-369.00,368.00,13108.00,-8080.00,-2464.00
27803,779.00,244.00,-642.00,564.00,13332.00,-7908.00,-2464.00
27821,920.00,242.00,-455.00,776.00,13352.00,-8028.00,-2464.00
27837,1359.00,11.00,92.00,1048.00,13176.00,-8316.00,-2448.00
27853,1676.00,-321.00,262.00,552.00,12948.00,-8168.00,-2448.00
27870,1644.00,-228.00,-27.00,488.00,13280.00,-7936.00,-2464.00
27886,1048.00,-170.00,28.00,460.00,13156.00,-8064.00,-2448.00
27904,658.00,95.00,-84.00,208.00,13160.00,-8004.00,-2496.00
27920,761.00,104.00,-130.00,416.00,13156.00,-8268.00,-2448.00
27936,986.00,33.00,-453.00,548.00,13108.00,-8248.00,-2464.00
27953,1220.00,10.00,-499.00,652.00,13192.00,-8180.00,-2496.00
27969,871.00,-16.00,-363.00,600.00,13180.00,-8392.00,-2480.00
27985,509.00,59.00,-245.00,552.00,13112.00,-8188.00,-2448.00
28002,743.00,-105.00,-58.00,764.00,12924.00,-8404.00,-2448.00
28018,1022.00,-104.00,-60.00,648.00,13072.00,-8476.00,-2480.00
28036,1238.00,-59.00,-38.00,624.00,13112.00,-8268.00,-2464.00
28052,1372.00,76.00,-82.00,400.00,12716.00,-8412.00,-2464.00
28068,1134.00,51.00,-6.00,492.00,12968.00,-8288.00,-2432.00
28085,976.00,-69.00,-41.00,468.00,12776.00,-8432.00,-2464.00
28101,905.00,-23.00,-252.00,340.00,12908.00,-8352.00,-2464.00
28118,1056.00,55.00,-296.00,576.00,12828.00,-8464.00,-2464.00
28134,1272.00,-106.00,-82.00,592.00,12696.00,-8500.00,-2480.00
28151,1243.00,-62.00,-69.00,544.00,13100.00,-8592.00,-2448.00
28168,988.00,32.00,-239.00,544.00,12832.00,-8596.00,-2480.00
28184,925.00,-50.00,-148.00,620.00,12936.00,-8564.00,-2432.00
28200,988.00,-38.00,22.00,540.00,12712.00,-8564.00,-2464.00
28217,823.00,32.00,-91.00,412.00,12764.00,-8680.00,-2448.00
28233,361.00,7.00,-99.00,560.00,13004.00,-8624.00,-2480.00
28250,179.00,0.00,-163.00,656.00,12692.00,-8792.00,-2448.00
28266,461.00,35.00,-326.00,684.00,12548.00,-8884.00,-2464.00
28282,698.00,-96.00,-222.00,620.00,12680.00,-8868.00,-2416.00
28299,898.00,-167.00,-87.00,428.00,12636.00,-8708.00,-2480.00
28316,475.00,83.00,-295.00,488.00,12656.00,-8616.00,-2480.00
28333,94.00,15.00,-238.00,484.00,12700.00,-8500.00,-2448.00
28349,141.00,75.00,-460.00,492.00,12508.00,-8636.00,-2480.00
28365,354.00,131.00,-485.00,560.00,12680.00,-8664.00,-2480.00
28382,643.00,73.00,-214.00,752.00,12516.00,-8844.00,-2432.00
28398,1028.00,-17.00,93.00,632.00,12484.00,-8848.00,-2464.00
28414,1076.00,-50.00,185.00,520.00,12716.00,-8844.00,-2464.00
28432,769.00,-82.00,164.00,696.00,12732.00,-8800.00,-2448.00
28448,857.00,85.00,2.00,796.00,12648.00,-8880.00,-2448.00
28465,1266.00,12.00,-16.00,508.00,12572.00,-8852.00,-2464.00
28481,1733.00,-76.00,-47.00,448.00,12636.00,-8844.00,-2464.00
28497,1954.00,-61.00,-182.00,516.00,12392.00,-9104.00,-2432.00
28514,1749.00,-139.00,-325.00,520.00,12468.00,-8964.00,-2480.00
28530,1224.00,-151.00,-217.00,444.00,12576.00,-8908.00,-2464.00
28548,749.00,-16.00,-113.00,640.00,12284.00,-9076.00,-2448.00
28564,880.00,192.00,-171.00,760.00,12452.00,-8956.00,-2480.00
28580,1132.00,226.00,-171.00,716.00,12552.00,-9196.00,-2432.00
28597,1109.00,51.00,21.00,644.00,12304.00,-9520.00,-2448.00
28613,1130.00,-23.00,184.00,628.00,12096.00,-9564.00,-2480.00
28630,1266.00,-182.00,242.00,424.00,12244.00,-9176.00,-2464.00
28647,1161.00,-222.00,310.00,452.00,12328.00,-8964.00,-2448.00
28663,849.00,88.00,46.00,532.00,12336.00,-9016.00,-2496.00
28680,978.00,30.00,-52.00,748.00,12104.00,-9392.00,-2432.00
28696,927.00,-90.00,-93.00,696.00,12140.00,-9276.00,-2464.00
28712,725.00,-35.00,-15.00,620.00,12216.00,-9340.00,-2464.00
28729,551.00,-206.00,41.00,424.00,12332.00,-9316.00,-2448.00
28745,563.00,-198.00,-135.00,536.00,12100.00,-9132.00,-2464.00
28762,637.00,96.00,-299.00,624.00,12000.00,-9256.00,-2432.00
28779,840.00,180.00,-344.00,660.00,12192.00,-9512.00,-2448.00
28795,769.00,-14.00,-147.00,700.00,12424.00,-9380.00,-2448.00
28812,495.00,-21.00,-124.00,384.00,12160.00,-9488.00,-2464.00
28828,292.00,9.00,-246.00,660.00,12388.00,-9592.00,-2464.00
28845,251.00,-57.00,-44.00,684.00,12132.00,-9580.00,-2464.00
28861,507.00,-71.00,100.00,612.00,12036.00,-9440.00,-2432.00
28877,569.00,145.00,-101.00,336.00,11824.00,-9532.00,-2432.00
28895,666.00,111.00,-233.00,620.00,12044.00,-9476.00,-2480.00
28911,582.00,-10.00,-206.00,656.00,12044.00,-9548.00,-2464.00
28928,452.00,-90.00,-7.00,596.00,11904.00,-9604.00,-2464.00
28944,650.00,-169.00,195.00,596.00,11972.00,-9552.00,-2480.00
28960,657.00,-154.00,-87.00,516.00,12096.00,-9440.00,-2432.00
28977,622.00,-255.00,-241.00,608.00,12052.00,-9488.00,-2432.00
28993,250.00,-50.00,-167.00,712.00,12188.00,-9396.00,-2448.00
29009,308.00,102.00,-177.00,876.00,11888.00,-9740.00,-2448.00
29027,768.00,-39.00,-271.00,448.00,11708.00,-9664.00,-2432.00
29043,991.00,-210.00,-477.00,408.00,11880.00,-9656.00,-2464.00
29060,883.00,-157.00,-386.00,500.00,12196.00,-9420.00,-2448.00
29076,614.00,-56.00,-139.00,464.00,12060.00,-9652.00,-2448.00
29092,454.00,101.00,-296.00,592.00,11852.00,-9700.00,-2432.00
29109,781.00,45.00,-509.00,892.00,11920.00,-9904.00,-2464.00
29126,856.00,-139.00,-261.00,748.00,11892.00,-9880.00,-2432.00
29143,624.00,-132.00,34.00,596.00,11840.00,-9816.00,-2480.00
29159,518.00,-42.00,208.00,660.00,11896.00,-9712.00,-2448.00
29175,476.00,5.00,205.00,568.00,11700.00,-9716.00,-2464.00
29192,508.00,-129.00,98.00,612.00,12016.00,-9764.00,-2480.00
29208,599.00,-181.00,-106.00,492.00,11876.00,-9768.00,-2464.00
29224,695.00,-171.00,-190.00,540.00,11820.00,-9764.00,-2432.00
29242,548.00,2.00,-153.00,512.00,11744.00,-9724.00,-2480.00
29258,657.00,67.00,-127.00,500.00,11696.00,-9796.00,-2480.00
29275,796.00,42.00,-123.00,612.00,11724.00,-9916.00,-2480.00
29291,809.00,-2.00,77.00,720.00,11720.00,-9920.00,-2480.00
29307,690.00,-134.00,122.00,380.00,11564.00,-9940.00,-2464.00
29324,785.00,-70.00,25.00,548.00,11808.00,-9784.00,-2448.00
29340,840.00,-18.00,-118.00,312.00,11656.00,-9788.00,-2480.00
29357,1123.00,-67.00,-414.00,360.00,11688.00,-9780.00,-2448.00
29373,1014.00,16.00,-614.00,440.00,11960.00,-9744.00,-2432.00
29390,615.00,191.00,-308.00,680.00,11636.00,-9912.00,-2416.00
29407,696.00,110.00,110.00,616.00,11280.00,-10076.00,-2448.00
29423,1045.00,70.00,-73.00,668.00,11532.00,-10048.00,-2464.00
29440,1441.00,33.00,-12.00,704.00,11492.00,-10128.00,-2480.00
29456,1590.00,-48.00,19.00,656.00,11572.00,-10196.00,-2464.00
29473,1449.00,-54.00,44.00,904.00,11532.00,-10204.00,-2464.00
29490,1058.00,-19.00,151.00,584.00,11596.00,-10120.00,-2480.00
29506,506.00,-41.00,240.00,592.00,11792.00,-10004.00,-2432.00
29522,-75.00,-35.00,38.00,432.00,11736.00,-9856.00,-2480.00
29539,-60.00,-97.00,-275.00,420.00,11360.00,-10156.00,-2432.00
29555,-95.00,10.00,-451.00,356.00,11404.00,-9968.00,-2480.00
29572,-160.00,42.00,-521.00,304.00,11232.00,-10280.00,-2448.00
29589,-21.00,93.00,-457.00,476.00,11380.00,-10044.00,-2480.00
29605,80.00,92.00,-460.00,436.00,11560.00,-9988.00,-2464.00
29622,328.00,165.00,-490.00,520.00,11484.00,-9980.00,-2448.00
29638,643.00,181.00,-488.00,888.00,11648.00,-10228.00,-2464.00
29655,977.00,241.00,-154.00,944.00,11300.00,-10468.00,-2448.00
29671,1183.00,159.00,-165.00,580.00,11428.00,-10200.00,-2432.00
29688,1003.00,124.00,-456.00,488.00,11484.00,-10172.00,-2432.00
29705,807.00,65.00,-176.00,732.00,11528.00,-10116.00,-2448.00
29721,769.00,179.00,129.00,676.00,11308.00,-10152.00,-2448.00
29737,855.00,103.00,274.00,560.00,11388.00,-10096.00,-2480.00
29755,804.00,54.00,28.00,760.00,11284.00,-10344.00,-2432.00
29771,700.00,-17.00,116.00,392.00,11260.00,-10328.00,-2464.00
29788,657.00,25.00,-63.00,376.00,11256.00,-10188.00,-2448.00
29804,763.00,-6.00,-393.00,524.00,11208.00,-10212.00,-2480.00
29820,863.00,-37.00,-248.00,672.00,11256.00,-10344.00,-2480.00
29837,872.00,-5.00,-160.00,504.00,11216.00,-10256.00,-2464.00
29853,836.00,43.00,-263.00,688.00,11204.00,-10416.00,-2464.00
29871,730.00,22.00,-238.00,596.00,11264.00,-10452.00,-2448.00
29887,775.00,23.00,-297.00,752.00,11212.00,-10444.00,-2480.00
29903,1015.00,27.00,-171.00,536.00,11084.00,-10460.00,-2432.00
29920,1158.00,-3.00,51.00,464.00,10924.00,-10412.00,-2480.00
29936,1243.00,-12.00,95.00,728.00,10916.00,-10596.00,-2448.00
29953,1000.00,-24.00,-29.00,264.00,11152.00,-10524.00,-2464.00
29970,645.00,-5.00,-319.00,480.00,11092.00,-10448.00,-2448.00
29986,852.00,41.00,-195.00,708.00,10972.00,-10608.00,-2480.00
30003,971.00,2.00,173.00,612.00,11156.00,-10576.00,-2464.00
30019,1189.00,-15.00,239.00,812.00,10920.00,-10544.00,-2432.00
30035,1414.00,-41.00,77.00,684.00,10964.00,-10616.00,-2480.00
30052,1088.00,69.00,83.00,480.00,11048.00,-10656.00,-2464.00
30069,977.00,106.00,-35.00,616.00,10936.00,-10636.00,-2432.00
30086,1043.00,-51.00,40.00,688.00,10916.00,-10772.00,-2480.00
30102,1081.00,-19.00,-99.00,564.00,10996.00,-10420.00,-2448.00
30118,919.00,140.00,-261.00,652.00,10768.00,-10684.00,-2464.00
30135,1029.00,39.00,-205.00,800.00,10792.00,-10852.00,-2480.00
30152,821.00,51.00,-296.00,660.00,10920.00,-10752.00,-2496.00
30169,571.00,-62.00,-332.00,828.00,10628.00,-10920.00,-2480.00
30185,651.00,-63.00,-229.00,596.00,10756.00,-10864.00,-2464.00
30201,371.00,-82.00,-28.00,388.00,11028.00,-10560.00,-2496.00
30218,156.00,24.00,-20.00,576.00,10716.00,-10732.00,-2416.00
30234,478.00,39.00,-176.00,572.00,10304.00,-10716.00,-2448.00
30252,755.00,128.00,-163.00,664.00,10476.00,-10868.00,-2464.00
30268,1087.00,86.00,96.00,644.00,10556.00,-10980.00,-2448.00
30284,1144.00,-8.00,140.00,644.00,10676.00,-11012.00,-2480.00
30301,1019.00,-20.00,-13.00,832.00,10944.00,-10928.00,-2464.00
30317,733.00,-88.00,83.00,892.00,10676.00,-10944.00,-2448.00
30333,554.00,-95.00,48.00,772.00,10668.00,-10816.00,-2448.00
30351,483.00,-4.00,-204.00,544.00,10376.00,-10756.00,-2480.00
30367,523.00,-94.00,-360.00,652.00,10616.00,-10796.00,-2464.00
30384,343.00,6.00,-448.00,388.00,10620.00,-10932.00,-2464.00
30400,-62.00,18.00,-330.00,576.00,10776.00,-11012.00,-2480.00
30416,-141.00,74.00,-195.00,512.00,10652.00,-10832.00,-2448.00
30433,129.00,119.00,-106.00,792.00,10240.00,-11040.00,-2464.00
30450,630.00,57.00,-262.00,512.00,10276.00,-10948.00,-2448.00
30467,630.00,13.00,-508.00,424.00,10780.00,-10840.00,-2448.00
30483,575.00,53.00,-517.00,828.00,10512.00,-11156.00,-2464.00
30499,494.00,139.00,-344.00,756.00,10576.00,-11140.00,-2448.00
30516,464.00,8.00,150.00,884.00,10596.00,-11172.00,-2432.00
30532,604.00,35.00,248.00,772.00,10432.00,-10896.00,-2432.00
30550,896.00,91.00,204.00,804.00,10440.00,-11156.00,-2480.00
30566,1075.00,41.00,-52.00,624.00,10244.00,-11136.00,-2464.00
30582,935.00,78.00,-223.00,580.00,10460.00,-11004.00,-2464.00
30599,688.00,-54.00,-150.00,572.00,10336.00,-11144.00,-2448.00
30615,591.00,-142.00,-264.00,656.00,10376.00,-11148.00,-2432.00
30631,695.00,-110.00,-452.00,628.00,10348.00,-11088.00,-2448.00
30649,790.00,-57.00,-380.00,608.00,10636.00,-11208.00,-2496.00
30665,723.00,-13.00,-370.00,600.00,10616.00,-11060.00,-2448.00
30682,491.00,-37.00,-321.00,740.00,10584.00,-11100.00,-2448.00
30698,117.00,-62.00,8.00,648.00,10304.00,-11192.00,-2432.00
30714,-26.00,26.00,67.00,480.00,10204.00,-11184.00,-2432.00
30731,379.00,161.00,-131.00,636.00,10120.00,-11160.00,-2464.00
30748,534.00,45.00,-137.00,656.00,10320.00,-11040.00,-2480.00
30765,484.00,122.00,-71.00,556.00,10224.00,-10992.00,-2464.00
30781,720.00,36.00,137.00,816.00,10268.00,-11460.00,-2432.00
30797,995.00,7.00,-57.00,428.00,9968.00,-11080.00,-2480.00
30814,954.00,-74.00,-204.00,744.00,10400.00,-11268.00,-2464.00
30830,688.00,-21.00,-14.00,740.00,10144.00,-11340.00,-2480.00
30846,853.00,-14.00,29.00,768.00,10268.00,-11244.00,-2464.00
30864,1102.00,-31.00,89.00,856.00,10180.00,-11388.00,-2432.00
30880,1201.00,12.00,-73.00,420.00,10228.00,-11164.00,-2432.00
30897,1143.00,56.00,-305.00,676.00,10440.00,-11292.00,-2448.00
30913,923.00,70.00,-318.00,712.00,10228.00,-11320.00,-2464.00
30929,770.00,16.00,-91.00,816.00,10184.00,-11548.00,-2448.00
30947,704.00,-67.00,-179.00,784.00,9764.00,-11404.00,-2480.00
30963,852.00,11.00,-238.00,816.00,10096.00,-11544.00,-2496.00
30980,786.00,0.00,-164.00,680.00,10240.00,-11392.00,-2464.00
30996,312.00,82.00,-23.00,364.00,10212.00,-11184.00,-2464.00
31012,109.00,99.00,-237.00,864.00,9848.00,-11544.00,-2480.00
31029,295.00,-69.00,-308.00,684.00,9964.00,-11376.00,-2448.00
31045,156.00,-50.00,-234.00,652.00,9944.00,-11420.00,-2480.00
31062,191.00,70.00,-77.00,628.00,9984.00,-11380.00,-2464.00
31079,244.00,-20.00,44.00,548.00,10188.00,-11408.00,-2416.00
31095,348.00,34.00,49.00,656.00,10120.00,-11652.00,-2432.00
31112,566.00,63.00,-80.00,552.00,9636.00,-11492.00,-2432.00
31128,825.00,133.00,-240.00,720.00,9888.00,-11528.00,-2432.00
31144,1029.00,19.00,12.00,848.00,9840.00,-11748.00,-2480.00
31161,1003.00,-98.00,54.00,660.00,10048.00,-11568.00,-2480.00
31177,614.00,-83.00,-265.00,624.00,9960.00,-11336.00,-2432.00
31194,343.00,-167.00,-418.00,528.00,9992.00,-11540.00,-2464.00
31211,250.00,-76.00,-348.00,656.00,9972.00,-11496.00,-2448.00
31227,331.00,28.00,-141.00,600.00,9804.00,-11596.00,-2480.00
31244,445.00,61.00,-105.00,516.00,9852.00,-11524.00,-2480.00
31260,481.00,89.00,-97.00,680.00,9796.00,-11528.00,-2480.00
31277,642.00,45.00,-49.00,636.00,9748.00,-11420.00,-2464.00
31293,712.00,61.00,-130.00,544.00,9844.00,-11444.00,-2448.00
31309,841.00,100.00,-126.00,732.00,9712.00,-11644.00,-2464.00
31326,1108.00,-59.00,121.00,764.00,9720.00,-11752.00,-2448.00
31343,1151.00,-73.00,169.00,584.00,9792.00,-11720.00,-2416.00
31360,959.00,-97.00,146.00,832.00,9764.00,-11692.00,-2464.00
31376,739.00,-112.00,155.00,604.00,9864.00,-11632.00,-2464.00
31392,355.00,-57.00,-69.00,552.00,9660.00,-11576.00,-2416.00
31409,311.00,-62.00,-229.00,428.00,9960.00,-11524.00,-2448.00
31425,170.00,45.00,-608.00,552.00,9920.00,-11492.00,-2448.00
31441,-179.00,163.00,-1112.00,744.00,9660.00,-11536.00,-2448.00
31459,-256.00,267.00,-663.00,788.00,10084.00,-11908.00,-2480.00
31475,-134.00,53.00,-186.00,1252.00,9468.00,-11844.00,-2464.00
31492,381.00,-12.00,51.00,1020.00,9540.00,-11808.00,-2480.00
31508,661.00,-18.00,22.00,896.00,9776.00,-11744.00,-2480.00
31524,584.00,19.00,-80.00,532.00,9864.00,-11600.00,-2480.00
31541,347.00,135.00,-127.00,668.00,9832.00,-11784.00,-2480.00
31558,199.00,73.00,71.00,676.00,9524.00,-11672.00,-2480.00
31575,397.00,-17.00,20.00,580.00,9612.00,-11732.00,-2416.00
31591,647.00,-10.00,-269.00,476.00,9660.00,-11620.00,-2448.00
31607,711.00,57.00,-394.00,416.00,9668.00,-11408.00,-2448.00
31624,775.00,73.00,-435.00,736.00,9464.00,-11628.00,-2448.00
31640,735.00,67.00,-98.00,776.00,9524.00,-11788.00,-2432.00
31656,683.00,34.00,25.00,632.00,9660.00,-11936.00,-2432.00
31673,740.00,-34.00,-33.00,724.00,9660.00,-11784.00,-2496.00
31689,881.00,-58.00,-62.00,804.00,9532.00,-11832.00,-2432.00
31706,1069.00,30.00,-47.00,516.00,9484.00,-11808.00,-2432.00
31723,859.00,146.00,15.00,676.00,9704.00,-11916.00,-2432.00
31739,560.00,25.00,157.00,612.00,9376.00,-11884.00,-2432.00
31756,590.00,43.00,15.00,612.00,9532.00,-12008.00,-2432.00
31772,705.00,111.00,-185.00,668.00,9272.00,-11800.00,-2432.00
31789,995.00,5.00,-179.00,872.00,9496.00,-11876.00,-2448.00
31805,903.00,109.00,-179.00,604.00,9308.00,-11764.00,-2448.00
31821,859.00,78.00,-245.00,888.00,9376.00,-12040.00,-2448.00
31838,1339.00,-175.00,-175.00,864.00,9820.00,-12088.00,-2432.00
