t,gx,gy,gz,ax,ay,az,temp
3,90.00,21.00,-180.00,1228.00,-192.00,18580.00,-2816.00
19,80.00,20.00,-209.00,1196.00,-228.00,18648.00,-2848.00
35,82.00,35.00,-154.00,968.00,-196.00,18732.00,-2848.00
51,91.00,5.00,-149.00,1056.00,-204.00,18600.00,-2848.00
67,111.00,1.00,-137.00,1304.00,-124.00,18776.00,-2832.00
83,97.00,4.00,-191.00,1272.00,-188.00,18820.00,-2864.00
100,99.00,-3.00,-180.00,1228.00,-120.00,18720.00,-2864.00
116,99.00,29.00,-180.00,1080.00,-228.00,18736.00,-2864.00
133,86.00,7.00,-177.00,1080.00,-216.00,18796.00,-2832.00
149,102.00,-1.00,-142.00,1220.00,-172.00,18904.00,-2832.00
165,93.00,19.00,-162.00,1244.00,-132.00,18712.00,-2848.00
182,100.00,32.00,-164.00,1228.00,-192.00,18832.00,-2832.00
198,90.00,9.00,-191.00,1112.00,-212.00,18776.00,-2880.00
215,70.00,10.00,-178.00,1136.00,-124.00,18816.00,-2848.00
231,89.00,12.00,-133.00,1096.00,-136.00,18828.00,-2864.00
247,74.00,13.00,-156.00,1204.00,-232.00,18784.00,-2848.00
264,108.00,7.00,-200.00,1260.00,-224.00,18804.00,-2864.00
280,84.00,27.00,-201.00,1168.00,-212.00,18624.00,-2848.00
296,89.00,8.00,-181.00,1092.00,-296.00,18804.00,-2864.00
313,94.00,13.00,-167.00,1168.00,-204.00,18940.00,-2832.00
329,79.00,28.00,-167.00,1228.00,-228.00,18716.00,-2848.00
346,93.00,1.00,-207.00,1256.00,-308.00,18664.00,-2864.00
362,104.00,0.00,-206.00,1132.00,-152.00,18820.00,-2864.00
378,75.00,29.00,-184.00,1156.00,-152.00,18724.00,-2880.00
395,96.00,23.00,-191.00,1024.00,-212.00,18896.00,-2864.00
411,101.00,9.00,-176.00,1080.00,-236.00,18704.00,-2880.00
427,90.00,13.00,-161.00,1192.00,-204.00,18844.00,-2832.00
443,64.00,26.00,-176.00,1140.00,-280.00,18852.00,-2864.00
459,89.00,12.00,-159.00,1068.00,-252.00,18692.00,-2880.00
476,90.00,-3.00,-154.00,1164.00,-192.00,18900.00,-2832.00
492,110.00,11.00,-150.00,1140.00,-228.00,18684.00,-2816.00
508,90.00,7.00,-151.00,1336.00,-164.00,18656.00,-2864.00
525,84.00,19.00,-173.00,1152.00,-252.00,18756.00,-2848.00
541,91.00,20.00,-177.00,1184.00,-200.00,18748.00,-2864.00
558,108.00,45.00,-195.00,1192.00,-220.00,18876.00,-2880.00
574,89.00,14.00,-161.00,1172.00,-164.00,18824.00,-2864.00
590,96.00,30.00,-182.00,1184.00,-172.00,18824.00,-2848.00
607,86.00,5.00,-160.00,1236.00,-232.00,18840.00,-2832.00
623,105.00,-9.00,-215.00,1288.00,-144.00,18696.00,-2864.00
640,87.00,-5.00,-174.00,1164.00,-196.00,18976.00,-2880.00
656,94.00,33.00,-160.00,1188.00,-216.00,18596.00,-2864.00
672,91.00,36.00,-208.00,1220.00,-184.00,18800.00,-2864.00
689,53.00,4.00,-210.00,1112.00,-232.00,18656.00,-2848.00
705,101.00,27.00,-168.00,1052.00,-184.00,18792.00,-2864.00
721,97.00,12.00,-189.00,1028.00,-160.00,18900.00,-2848.00
738,86.00,10.00,-153.00,1084.00,-188.00,18800.00,-2832.00
754,97.00,11.00,-193.00,1164.00,-300.00,18704.00,-2848.00
771,110.00,12.00,-194.00,1152.00,-232.00,18676.00,-2864.00
787,94.00,11.00,-182.00,1152.00,-272.00,18792.00,-2880.00
803,103.00,46.00,-166.00,1164.00,-144.00,18732.00,-2864.00
820,90.00,-29.00,-166.00,1232.00,-244.00,18612.00,-2816.00
836,103.00,0.00,-168.00,1240.00,-252.00,18784.00,-2864.00
852,107.00,38.00,-189.00,1152.00,-180.00,18740.00,-2864.00
869,72.00,19.00,-187.00,1096.00,-188.00,18832.00,-2864.00
885,104.00,8.00,-180.00,1104.00,-140.00,18864.00,-2848.00
902,83.00,-19.00,-173.00,1128.00,-292.00,18764.00,-2816.00
918,92.00,25.00,-183.00,1116.00,-244.00,18808.00,-2832.00
934,82.00,0.00,-180.00,1164.00,-252.00,18716.00,-2848.00
951,96.00,24.00,-173.00,1140.00,-232.00,18872.00,-2832.00
967,98.00,7.00,-187.00,1172.00,-268.00,18764.00,-2832.00
984,96.00,18.00,-182.00,1144.00,-264.00,18752.00,-2848.00
1000,100.00,21.00,-172.00,1160.00,-140.00,18860.00,-2864.00
1016,72.00,24.00,-164.00,1256.00,-212.00,18684.00,-2848.00
1033,107.00,-10.00,-159.00,1192.00,-88.00,18872.00,-2832.00
1049,98.00,-13.00,-178.00,1140.00,-132.00,18764.00,-2864.00
1065,89.00,-5.00,-193.00,1216.00,-132.00,18712.00,-2848.00
1082,92.00,2.00,-163.00,1248.00,-168.00,18884.00,-2864.00
1098,90.00,12.00,-185.00,1332.00,-216.00,18684.00,-2832.00
1115,85.00,18.00,-192.00,1224.00,-304.00,18792.00,-2832.00
1131,85.00,-33.00,-177.00,1156.00,-216.00,18752.00,-2880.00
1147,104.00,25.00,-200.00,1008.00,-268.00,18840.00,-2864.00
1164,77.00,7.00,-192.00,1148.00,-256.00,18760.00,-2832.00
1180,98.00,28.00,-171.00,1196.00,-248.00,18724.00,-2848.00
1197,98.00,32.00,-185.00,1128.00,-200.00,18824.00,-2832.00
1213,99.00,25.00,-174.00,1184.00,-184.00,18540.00,-2848.00
1229,100.00,-11.00,-201.00,1172.00,-136.00,18852.00,-2832.00
1246,92.00,1.00,-178.00,1172.00,-60.00,18784.00,-2832.00
1262,86.00,28.00,-154.00,1124.00,-232.00,18752.00,-2864.00
1278,96.00,12.00,-207.00,1168.00,-108.00,18632.00,-2832.00
1295,102.00,13.00,-174.00,1144.00,-116.00,18848.00,-2848.00
1311,89.00,2.00,-181.00,1172.00,-132.00,18640.00,-2832.00
1328,99.00,15.00,-159.00,1168.00,-108.00,18808.00,-2880.00
1344,97.00,5.00,-172.00,1156.00,-244.00,18708.00,-2864.00
1360,86.00,8.00,-192.00,1116.00,-260.00,18724.00,-2848.00
1377,97.00,-19.00,-171.00,1116.00,-164.00,18672.00,-2864.00
1393,95.00,26.00,-142.00,1216.00,-140.00,18760.00,-2816.00
1410,86.00,26.00,-178.00,1108.00,-168.00,18676.00,-2832.00
1426,85.00,27.00,-191.00,1192.00,-240.00,18640.00,-2864.00
1442,63.00,26.00,-183.00,1160.00,-276.00,18800.00,-2848.00
1459,91.00,6.00,-159.00,1160.00,-64.00,18764.00,-2864.00
1475,88.00,11.00,-158.00,1136.00,-164.00,18548.00,-2848.00
1491,80.00,-2.00,-184.00,1180.00,-260.00,18772.00,-2864.00
1508,98.00,25.00,-169.00,1124.00,-216.00,18748.00,-2816.00
1524,83.00,15.00,-208.00,1068.00,-140.00,18960.00,-2864.00
1541,104.00,-3.00,-185.00,1148.00,-168.00,18648.00,-2848.00
1557,104.00,2.00,-205.00,1256.00,-232.00,18800.00,-2848.00
1573,100.00,11.00,-192.00,1216.00,-292.00,18892.00,-2864.00
1591,87.00,-1.00,-157.00,1196.00,-208.00,18840.00,-2864.00
1607,107.00,12.00,-204.00,1152.00,-128.00,18620.00,-2864.00
1624,73.00,18.00,-173.00,1176.00,-232.00,18664.00,-2864.00
1640,93.00,-9.00,-180.00,1136.00,-160.00,18628.00,-2848.00
1656,118.00,24.00,-174.00,1072.00,-180.00,18656.00,-2864.00
1673,88.00,21.00,-196.00,1152.00,-196.00,18792.00,-2848.00
1689,111.00,3.00,-199.00,1256.00,-200.00,18904.00,-2848.00
1705,78.00,8.00,-180.00,1136.00,-216.00,18856.00,-2832.00
1722,107.00,12.00,-202.00,1152.00,-248.00,18848.00,-2816.00
1738,108.00,4.00,-189.00,1148.00,-176.00,18784.00,-2864.00
1755,104.00,1.00,-186.00,1184.00,-280.00,18616.00,-2848.00
1771,108.00,13.00,-206.00,1280.00,-196.00,18756.00,-2864.00
1787,106.00,41.00,-173.00,1168.00,-204.00,18748.00,-2864.00
1804,98.00,25.00,-225.00,1124.00,-168.00,18936.00,-2832.00
1820,84.00,22.00,-181.00,1196.00,-284.00,18924.00,-2864.00
1837,90.00,-10.00,-186.00,1144.00,-284.00,18788.00,-2864.00
1853,111.00,24.00,-209.00,1184.00,-136.00,18708.00,-2848.00
1869,83.00,29.00,-192.00,1144.00,-184.00,18920.00,-2848.00
1886,86.00,19.00,-177.00,1140.00,-160.00,18788.00,-2832.00
1902,94.00,8.00,-188.00,1200.00,-180.00,18880.00,-2880.00
1918,83.00,5.00,-182.00,1172.00,-152.00,18724.00,-2864.00
1935,91.00,22.00,-169.00,1092.00,-168.00,18760.00,-2848.00
1951,92.00,-27.00,-180.00,1232.00,-196.00,18848.00,-2832.00
1968,69.00,30.00,-186.00,1204.00,-148.00,18704.00,-2848.00
1984,96.00,9.00,-177.00,1152.00,-184.00,18852.00,-2832.00
2000,89.00,44.00,-200.00,1164.00,-252.00,18840.00,-2832.00
2017,78.00,39.00,-172.00,1236.00,-144.00,18852.00,-2848.00
2033,95.00,0.00,-185.00,1172.00,-224.00,18888.00,-2832.00
2050,112.00,-11.00,-195.00,1144.00,-228.00,18740.00,-2848.00
2066,112.00,21.00,-165.00,1232.00,-268.00,18712.00,-2832.00
2082,86.00,6.00,-171.00,1184.00,-200.00,18704.00,-2832.00
2099,106.00,-22.00,-181.00,1184.00,-96.00,18640.00,-2848.00
2115,85.00,39.00,-169.00,1080.00,-192.00,18824.00,-2832.00
2131,91.00,15.00,-169.00,1168.00,-104.00,18984.00,-2880.00
2148,105.00,34.00,-166.00,1124.00,-304.00,18628.00,-2864.00
2164,87.00,7.00,-196.00,1156.00,-168.00,18732.00,-2832.00
2181,110.00,5.00,-182.00,1160.00,-252.00,18736.00,-2848.00
2197,82.00,13.00,-189.00,1212.00,-232.00,18832.00,-2864.00
2213,98.00,-4.00,-182.00,1200.00,-104.00,18984.00,-2816.00
2230,94.00,-3.00,-197.00,1184.00,-212.00,18668.00,-2832.00
2246,87.00,31.00,-202.00,1152.00,-216.00,18884.00,-2880.00
2263,99.00,-16.00,-161.00,1068.00,-136.00,18820.00,-2864.00
2280,104.00,9.00,-167.00,1184.00,-240.00,18780.00,-2864.00
2296,74.00,20.00,-185.00,1028.00,-144.00,18832.00,-2880.00
2313,100.00,11.00,-202.00,1148.00,-248.00,18868.00,-2864.00
2329,86.00,11.00,-172.00,1220.00,-196.00,18888.00,-2848.00
2345,98.00,20.00,-181.00,1164.00,-200.00,18716.00,-2880.00
2362,111.00,20.00,-179.00,1176.00,-204.00,18840.00,-2864.00
2378,86.00,-16.00,-174.00,1200.00,-100.00,18844.00,-2816.00
2395,117.00,-21.00,-173.00,1180.00,-196.00,18684.00,-2864.00
2411,96.00,22.00,-188.00,1112.00,-260.00,18768.00,-2832.00
2427,87.00,25.00,-184.00,1200.00,-272.00,18780.00,-2848.00
2444,113.00,18.00,-192.00,1220.00,-192.00,18800.00,-2864.00
2460,93.00,33.00,-147.00,1220.00,-260.00,18640.00,-2832.00
2477,85.00,31.00,-166.00,1208.00,-184.00,18804.00,-2848.00
2493,91.00,8.00,-174.00,1212.00,-208.00,18692.00,-2864.00
2509,104.00,31.00,-191.00,1112.00,-188.00,18740.00,-2880.00
2526,96.00,18.00,-186.00,1200.00,-120.00,18724.00,-2848.00
2542,92.00,26.00,-171.00,1136.00,-292.00,18812.00,-2864.00
2558,109.00,37.00,-184.00,1112.00,-228.00,18760.00,-2848.00
2575,82.00,23.00,-178.00,1180.00,-176.00,18792.00,-2880.00
2591,85.00,34.00,-186.00,1140.00,-140.00,18732.00,-2864.00
2608,95.00,10.00,-209.00,1132.00,-212.00,18900.00,-2880.00
2624,87.00,-16.00,-184.00,1212.00,-212.00,18792.00,-2864.00
2640,96.00,20.00,-195.00,1148.00,-240.00,18704.00,-2864.00
2657,104.00,-9.00,-171.00,1144.00,-208.00,18824.00,-2848.00
2673,63.00,25.00,-170.00,1172.00,-184.00,18664.00,-2864.00
2690,82.00,-10.00,-175.00,1244.00,-176.00,18736.00,-2832.00
2706,86.00,15.00,-176.00,1064.00,-148.00,18696.00,-2880.00
2722,114.00,-5.00,-171.00,1044.00,-144.00,18868.00,-2832.00
2739,110.00,22.00,-162.00,1120.00,-276.00,18772.00,-2848.00
2756,87.00,4.00,-150.00,1192.00,-156.00,18740.00,-2848.00
2772,110.00,18.00,-172.00,1132.00,-224.00,18724.00,-2864.00
2789,91.00,-15.00,-199.00,1144.00,-188.00,18832.00,-2848.00
2805,122.00,-12.00,-206.00,1304.00,-240.00,18880.00,-2848.00
2822,100.00,-18.00,-163.00,1152.00,-188.00,18880.00,-2864.00
2838,95.00,33.00,-185.00,1148.00,-144.00,18868.00,-2864.00
2854,84.00,-7.00,-199.00,1168.00,-232.00,18660.00,-2848.00
2871,106.00,-11.00,-203.00,1084.00,-204.00,18848.00,-2864.00
2887,79.00,37.00,-209.00,1164.00,-264.00,18672.00,-2848.00
2904,93.00,14.00,-184.00,1164.00,-240.00,18680.00,-2864.00
2920,110.00,26.00,-177.00,1160.00,-244.00,18648.00,-2864.00
2936,71.00,0.00,-182.00,1168.00,-196.00,18828.00,-2880.00
2953,92.00,22.00,-173.00,1200.00,-160.00,18772.00,-2864.00
2969,121.00,18.00,-182.00,1128.00,-216.00,18696.00,-2880.00
2985,94.00,33.00,-176.00,1188.00,-304.00,18656.00,-2848.00
3002,92.00,13.00,-172.00,1116.00,-260.00,18536.00,-2864.00
3018,101.00,3.00,-143.00,1212.00,-184.00,18792.00,-2816.00
3035,66.00,17.00,-176.00,1152.00,-328.00,18716.00,-2864.00
3051,86.00,11.00,-177.00,1084.00,-260.00,18768.00,-2832.00
3067,90.00,24.00,-182.00,1056.00,-232.00,18832.00,-2880.00
3084,81.00,13.00,-206.00,1180.00,-232.00,18800.00,-2832.00
3100,72.00,1.00,-204.00,1088.00,-276.00,18828.00,-2832.00
3117,108.00,50.00,-189.00,1192.00,-176.00,18828.00,-2864.00
3133,86.00,16.00,-205.00,1056.00,-28.00,18848.00,-2832.00
3149,71.00,-4.00,-194.00,1208.00,-232.00,18552.00,-2848.00
3166,83.00,25.00,-143.00,1164.00,-172.00,18800.00,-2832.00
3182,83.00,-4.00,-190.00,1172.00,-136.00,18820.00,-2880.00
3198,82.00,-6.00,-182.00,1156.00,-164.00,18868.00,-2864.00
3215,82.00,34.00,-185.00,1152.00,-132.00,18684.00,-2848.00
3231,106.00,15.00,-159.00,1192.00,-168.00,18744.00,-2848.00
3248,82.00,4.00,-188.00,1216.00,-172.00,18724.00,-2832.00
3264,94.00,23.00,-182.00,1244.00,-200.00,18756.00,-2848.00
3280,114.00,14.00,-186.00,1164.00,-148.00,18668.00,-2864.00
3297,99.00,16.00,-199.00,1220.00,-232.00,18704.00,-2864.00
3313,94.00,41.00,-177.00,1160.00,-160.00,18716.00,-2816.00
3330,100.00,26.00,-178.00,1172.00,-300.00,18716.00,-2848.00
3347,102.00,-13.00,-203.00,1120.00,-216.00,18656.00,-2864.00
3363,94.00,3.00,-197.00,1168.00,-120.00,18696.00,-2832.00
3380,89.00,14.00,-188.00,1200.00,-248.00,18776.00,-2848.00
3396,109.00,1.00,-202.00,1248.00,-312.00,18912.00,-2864.00
3412,107.00,8.00,-170.00,1220.00,-184.00,18840.00,-2848.00
3429,96.00,22.00,-187.00,1136.00,-152.00,18908.00,-2864.00
3445,100.00,-12.00,-187.00,1220.00,-116.00,18748.00,-2864.00
3462,102.00,-8.00,-159.00,1108.00,-200.00,18820.00,-2848.00
3478,83.00,-8.00,-182.00,1300.00,-108.00,18780.00,-2864.00
3494,107.00,31.00,-189.00,1176.00,-156.00,18624.00,-2880.00
3511,101.00,11.00,-173.00,1196.00,-224.00,18864.00,-2848.00
3527,84.00,15.00,-194.00,1196.00,-204.00,18856.00,-2832.00
3544,97.00,5.00,-186.00,1128.00,-232.00,18784.00,-2864.00
3560,99.00,32.00,-180.00,1096.00,-204.00,18692.00,-2832.00
3576,88.00,25.00,-172.00,1300.00,-204.00,18780.00,-2864.00
3593,91.00,12.00,-162.00,1076.00,-204.00,18760.00,-2880.00
3609,92.00,-19.00,-181.00,1220.00,-152.00,18736.00,-2832.00
3625,100.00,1.00,-197.00,1160.00,-220.00,18572.00,-2848.00
3642,122.00,-4.00,-183.00,1176.00,-164.00,18824.00,-2864.00
3658,98.00,27.00,-201.00,1164.00,-204.00,18736.00,-2880.00
3675,92.00,27.00,-185.00,1156.00,-188.00,18748.00,-2816.00
3691,89.00,25.00,-201.00,1192.00,-252.00,18900.00,-2864.00
3707,115.00,1.00,-192.00,1092.00,-228.00,18832.00,-2816.00
3724,104.00,15.00,-185.00,1244.00,-228.00,18620.00,-2832.00
3740,89.00,25.00,-180.00,1144.00,-148.00,18832.00,-2864.00
3757,82.00,29.00,-157.00,1152.00,-208.00,18912.00,-2816.00
3773,65.00,20.00,-179.00,1216.00,-116.00,18896.00,-2832.00
3789,98.00,-10.00,-187.00,1132.00,-248.00,18900.00,-2864.00
3806,108.00,21.00,-164.00,1128.00,-300.00,18780.00,-2848.00
3822,99.00,6.00,-143.00,1160.00,-252.00,18756.00,-2848.00
3838,85.00,-2.00,-175.00,1200.00,-144.00,18844.00,-2880.00
3855,77.00,28.00,-163.00,1140.00,-216.00,18792.00,-2864.00
3871,100.00,2.00,-159.00,1084.00,-212.00,18748.00,-2832.00
3888,98.00,11.00,-161.00,1228.00,-260.00,18568.00,-2864.00
3904,102.00,29.00,-174.00,1212.00,-264.00,18704.00,-2864.00
3920,95.00,3.00,-181.00,1172.00,-232.00,18736.00,-2832.00
3937,94.00,22.00,-183.00,1224.00,-204.00,18832.00,-2816.00
3953,71.00,11.00,-199.00,1152.00,-232.00,18816.00,-2896.00
3970,114.00,10.00,-187.00,1188.00,-104.00,18704.00,-2880.00
3987,86.00,24.00,-175.00,1172.00,-184.00,18704.00,-2880.00
4003,100.00,27.00,-158.00,1192.00,-252.00,18864.00,-2864.00
4020,114.00,14.00,-167.00,1180.00,-152.00,18932.00,-2896.00
4036,78.00,-16.00,-177.00,1108.00,-200.00,18764.00,-2848.00
4052,102.00,11.00,-169.00,1216.00,-136.00,18728.00,-2848.00
4069,95.00,-8.00,-180.00,1192.00,-160.00,18748.00,-2896.00
4085,104.00,0.00,-164.00,1224.00,-180.00,18764.00,-2848.00
4102,108.00,29.00,-202.00,1132.00,-236.00,18732.00,-2832.00
4118,111.00,4.00,-205.00,1140.00,-232.00,18604.00,-2832.00
4134,102.00,-3.00,-179.00,1172.00,-256.00,18720.00,-2848.00
4151,92.00,-2.00,-181.00,1128.00,-208.00,18704.00,-2864.00
4167,105.00,31.00,-190.00,1180.00,-216.00,18888.00,-2848.00
4184,104.00,28.00,-180.00,1104.00,-200.00,18900.00,-2848.00
4200,92.00,7.00,-161.00,1124.00,-184.00,18804.00,-2864.00
4216,107.00,9.00,-167.00,1260.00,-320.00,18728.00,-2848.00
4233,101.00,23.00,-135.00,1204.00,-252.00,18796.00,-2816.00
4249,105.00,10.00,-185.00,1184.00,-176.00,18780.00,-2832.00
4265,118.00,29.00,-161.00,1188.00,-192.00,18824.00,-2864.00
4282,102.00,11.00,-177.00,1180.00,-180.00,18612.00,-2880.00
4298,104.00,18.00,-165.00,1144.00,-180.00,18736.00,-2848.00
4315,100.00,7.00,-146.00,1144.00,-276.00,18692.00,-2864.00
4331,96.00,22.00,-153.00,1156.00,-224.00,18700.00,-2864.00
4347,79.00,13.00,-161.00,1204.00,-180.00,18724.00,-2832.00
4364,115.00,14.00,-187.00,1192.00,-304.00,18784.00,-2848.00
4381,93.00,-3.00,-188.00,1176.00,-188.00,18648.00,-2864.00
4397,84.00,29.00,-180.00,1180.00,-196.00,18748.00,-2848.00
4414,89.00,25.00,-175.00,1200.00,-212.00,18896.00,-2848.00
4430,93.00,12.00,-172.00,1268.00,-264.00,18744.00,-2832.00
4447,94.00,48.00,-209.00,1136.00,-236.00,18896.00,-2848.00
4463,101.00,25.00,-188.00,1140.00,-240.00,18812.00,-2864.00
4480,105.00,35.00,-185.00,1144.00,-236.00,18720.00,-2864.00
4496,85.00,17.00,-191.00,1156.00,-92.00,18784.00,-2832.00
4512,105.00,14.00,-207.00,1156.00,-244.00,18936.00,-2864.00
4529,111.00,26.00,-185.00,1148.00,-144.00,18740.00,-2864.00
4545,77.00,-5.00,-165.00,1164.00,-144.00,18856.00,-2864.00
4561,107.00,11.00,-198.00,1204.00,-248.00,18828.00,-2832.00
4578,116.00,2.00,-157.00,1180.00,-212.00,18924.00,-2832.00
4594,100.00,-12.00,-166.00,1248.00,-156.00,18856.00,-2848.00
4611,94.00,20.00,-196.00,1160.00,-168.00,18792.00,-2848.00
4627,55.00,24.00,-174.00,1176.00,-192.00,18844.00,-2864.00
4643,89.00,1.00,-181.00,1136.00,-212.00,18660.00,-2816.00
4660,77.00,15.00,-182.00,1132.00,-180.00,18840.00,-2864.00
4676,109.00,50.00,-177.00,1136.00,-180.00,18940.00,-2816.00
4692,99.00,7.00,-199.00,1200.00,-164.00,18732.00,-2848.00
4709,105.00,1.00,-170.00,1120.00,-216.00,18696.00,-2832.00
4725,95.00,-15.00,-203.00,1188.00,-336.00,18800.00,-2848.00
4742,105.00,9.00,-172.00,1148.00,-188.00,18636.00,-2864.00
4758,87.00,14.00,-189.00,1256.00,-260.00,18780.00,-2832.00
4774,125.00,19.00,-180.00,1196.00,-216.00,18812.00,-2880.00
4791,104.00,7.00,-187.00,1084.00,-192.00,18844.00,-2864.00
4807,67.00,41.00,-183.00,1244.00,-376.00,18772.00,-2864.00
4824,81.00,38.00,-183.00,1164.00,-220.00,18820.00,-2848.00
4840,99.00,38.00,-176.00,1116.00,-168.00,18884.00,-2848.00
4856,77.00,9.00,-174.00,1128.00,-216.00,18736.00,-2864.00
4873,99.00,36.00,-197.00,1120.00,-188.00,18812.00,-2848.00
4889,108.00,16.00,-181.00,1256.00,-240.00,18904.00,-2864.00
4905,100.00,6.00,-172.00,1164.00,-164.00,18824.00,-2864.00
4922,86.00,34.00,-185.00,1096.00,-120.00,18832.00,-2848.00
4938,74.00,13.00,-191.00,1156.00,-108.00,18700.00,-2848.00
4955,89.00,31.00,-164.00,1268.00,-272.00,18856.00,-2832.00
4972,95.00,-14.00,-182.00,1148.00,-244.00,18796.00,-2880.00
4988,95.00,-3.00,-184.00,1204.00,-108.00,18792.00,-2864.00
5005,111.00,19.00,-179.00,1188.00,-120.00,18824.00,-2832.00
5021,82.00,27.00,-180.00,1164.00,-140.00,18804.00,-2880.00
5038,80.00,26.00,-187.00,1252.00,-228.00,18712.00,-2848.00
5054,96.00,0.00,-175.00,1152.00,-108.00,18608.00,-2832.00
5070,83.00,-9.00,-171.00,1160.00,-96.00,18748.00,-2832.00
5087,88.00,4.00,-186.00,1224.00,-200.00,18768.00,-2848.00
5103,71.00,14.00,-184.00,1164.00,-180.00,18716.00,-2864.00
5120,109.00,7.00,-184.00,1184.00,-280.00,18648.00,-2848.00
5136,79.00,9.00,-193.00,1204.00,-260.00,18764.00,-2832.00
5152,124.00,-9.00,-195.00,1112.00,-168.00,18732.00,-2848.00
5169,97.00,-9.00,-201.00,1112.00,-192.00,18696.00,-2832.00
5185,109.00,20.00,-204.00,1160.00,-276.00,18900.00,-2848.00
5201,83.00,-3.00,-181.00,1216.00,-128.00,18904.00,-2848.00
5218,91.00,40.00,-145.00,1112.00,-100.00,18840.00,-2864.00
5234,87.00,12.00,-206.00,1148.00,-180.00,18904.00,-2848.00
5251,106.00,18.00,-181.00,1156.00,-176.00,18944.00,-2832.00
5267,68.00,10.00,-170.00,1032.00,-88.00,19000.00,-2864.00
5283,85.00,14.00,-158.00,1136.00,-232.00,18808.00,-2864.00
5300,89.00,6.00,-184.00,1088.00,-200.00,18856.00,-2864.00
5316,77.00,17.00,-189.00,1236.00,-152.00,18692.00,-2848.00
5332,119.00,7.00,-193.00,1184.00,-180.00,18708.00,-2864.00
5349,110.00,19.00,-157.00,1068.00,-176.00,18760.00,-2848.00
5365,78.00,20.00,-169.00,1116.00,-268.00,18808.00,-2864.00
5382,82.00,19.00,-182.00,1172.00,-152.00,18736.00,-2864.00
5398,97.00,12.00,-158.00,1164.00,-180.00,18892.00,-2848.00
5414,96.00,17.00,-170.00,1216.00,-176.00,18768.00,-2832.00
5431,77.00,6.00,-155.00,1224.00,-204.00,18768.00,-2880.00
5447,92.00,-6.00,-194.00,1084.00,-264.00,18832.00,-2864.00
5464,74.00,38.00,-187.00,1128.00,-156.00,18864.00,-2848.00
5480,91.00,-3.00,-184.00,1196.00,-212.00,18800.00,-2864.00
5496,85.00,12.00,-162.00,1180.00,-168.00,18680.00,-2864.00
5513,103.00,33.00,-169.00,1164.00,-264.00,18740.00,-2832.00
5529,64.00,18.00,-192.00,1176.00,-112.00,18748.00,-2864.00
5545,111.00,10.00,-165.00,1152.00,-196.00,18852.00,-2848.00
5562,71.00,8.00,-168.00,1164.00,-256.00,18816.00,-2864.00
5578,89.00,9.00,-189.00,1108.00,-112.00,18796.00,-2848.00
5595,83.00,-3.00,-185.00,1176.00,-172.00,18880.00,-2864.00
5611,90.00,9.00,-171.00,1132.00,-228.00,18700.00,-2816.00
5627,77.00,5.00,-179.00,1284.00,-220.00,18812.00,-2848.00
5644,92.00,23.00,-203.00,1144.00,-216.00,18744.00,-2832.00
5660,115.00,13.00,-177.00,1184.00,-164.00,18696.00,-2848.00
5677,95.00,-3.00,-166.00,1064.00,-164.00,18656.00,-2880.00
5693,113.00,16.00,-222.00,1116.00,-196.00,18756.00,-2832.00
5709,114.00,22.00,-181.00,1112.00,-232.00,18716.00,-2848.00
5726,103.00,9.00,-192.00,1060.00,-288.00,18684.00,-2880.00
5742,87.00,-1.00,-200.00,1216.00,-200.00,18812.00,-2864.00
5758,91.00,-11.00,-161.00,1104.00,-236.00,18864.00,-2848.00
5775,115.00,2.00,-149.00,1160.00,-168.00,18700.00,-2848.00
5791,96.00,44.00,-177.00,1092.00,-132.00,18904.00,-2864.00
5808,106.00,22.00,-182.00,1232.00,-200.00,18796.00,-2848.00
5824,107.00,13.00,-149.00,1120.00,-212.00,18648.00,-2832.00
5840,90.00,13.00,-177.00,1104.00,-212.00,18772.00,-2864.00
5857,97.00,-11.00,-189.00,1256.00,-200.00,18864.00,-2864.00
5873,95.00,31.00,-190.00,1188.00,-248.00,18672.00,-2848.00
5890,99.00,13.00,-167.00,1156.00,-228.00,18756.00,-2832.00
5906,90.00,25.00,-180.00,1152.00,-252.00,18780.00,-2896.00
5922,86.00,33.00,-221.00,1244.00,-252.00,18808.00,-2848.00
5939,101.00,6.00,-177.00,1176.00,-196.00,18856.00,-2864.00
5955,92.00,8.00,-171.00,1124.00,-220.00,18820.00,-2848.00
5971,105.00,-2.00,-169.00,1208.00,-232.00,18820.00,-2864.00
5989,107.00,18.00,-190.00,1148.00,-136.00,18816.00,-2864.00
6005,77.00,4.00,-181.00,1012.00,-196.00,18868.00,-2848.00
6022,82.00,-8.00,-165.00,1164.00,-248.00,18776.00,-2832.00
6038,95.00,19.00,-191.00,1212.00,-136.00,18876.00,-2848.00
6054,97.00,21.00,-185.00,1200.00,-196.00,18712.00,-2864.00
6071,73.00,24.00,-164.00,1104.00,-232.00,18800.00,-2848.00
6087,94.00,16.00,-193.00,1108.00,-228.00,18776.00,-2864.00
6104,95.00,21.00,-197.00,1132.00,-100.00,18744.00,-2864.00
6120,96.00,8.00,-179.00,1168.00,-236.00,18772.00,-2816.00
6136,123.00,12.00,-182.00,1168.00,-256.00,18672.00,-2832.00
6153,87.00,28.00,-179.00,1132.00,-188.00,18768.00,-2848.00
6169,100.00,-1.00,-189.00,1196.00,-152.00,18760.00,-2864.00
6185,104.00,-26.00,-192.00,1204.00,-228.00,18772.00,-2864.00
6202,96.00,-3.00,-181.00,1232.00,-160.00,18776.00,-2848.00
6218,93.00,12.00,-173.00,1112.00,-212.00,18776.00,-2864.00
6235,115.00,45.00,-189.00,1040.00,-140.00,18832.00,-2880.00
6251,100.00,25.00,-166.00,1096.00,-176.00,18696.00,-2816.00
6267,93.00,11.00,-195.00,1196.00,-216.00,18788.00,-2864.00
6284,110.00,34.00,-179.00,1180.00,-228.00,18756.00,-2816.00
6300,95.00,30.00,-163.00,1148.00,-88.00,18820.00,-2848.00
6317,91.00,3.00,-114.00,1068.00,-296.00,18740.00,-2864.00
6333,83.00,27.00,-188.00,1040.00,-172.00,18908.00,-2816.00
6349,99.00,-5.00,-200.00,1196.00,-284.00,18800.00,-2864.00
6366,97.00,13.00,-163.00,1188.00,-192.00,18736.00,-2848.00
6382,86.00,-5.00,-170.00,1188.00,-180.00,18752.00,-2896.00
6398,109.00,-8.00,-172.00,1192.00,-180.00,18904.00,-2896.00
6415,94.00,9.00,-174.00,1024.00,-144.00,18604.00,-2832.00
6431,93.00,17.00,-155.00,1136.00,-188.00,18856.00,-2848.00
6448,122.00,6.00,-188.00,1240.00,-160.00,18924.00,-2864.00
6464,103.00,1.00,-177.00,1116.00,-192.00,18840.00,-2848.00
6480,88.00,-2.00,-177.00,1188.00,-236.00,18784.00,-2832.00
6497,90.00,17.00,-216.00,1132.00,-220.00,18508.00,-2848.00
6513,72.00,21.00,-197.00,1052.00,-196.00,18776.00,-2848.00
6530,94.00,28.00,-204.00,1108.00,-180.00,18824.00,-2832.00
6546,83.00,20.00,-215.00,1168.00,-220.00,18908.00,-2848.00
6562,90.00,15.00,-184.00,1104.00,-232.00,18756.00,-2864.00
6579,73.00,16.00,-175.00,1136.00,-176.00,18540.00,-2864.00
6595,84.00,18.00,-190.00,1152.00,-304.00,18652.00,-2880.00
6611,76.00,-4.00,-151.00,1196.00,-192.00,18752.00,-2896.00
6628,99.00,4.00,-182.00,1168.00,-128.00,18828.00,-2880.00
6644,102.00,-5.00,-166.00,1140.00,-272.00,18752.00,-2832.00
6661,106.00,22.00,-162.00,1164.00,-216.00,18652.00,-2848.00
6677,99.00,9.00,-180.00,1140.00,-244.00,18816.00,-2848.00
6693,89.00,21.00,-182.00,1120.00,-220.00,18648.00,-2832.00
6710,81.00,28.00,-161.00,1148.00,-200.00,18764.00,-2848.00
6726,112.00,16.00,-195.00,1268.00,-140.00,18876.00,-2864.00
6743,76.00,39.00,-169.00,1164.00,-160.00,18672.00,-2864.00
6759,75.00,18.00,-182.00,1112.00,-200.00,18724.00,-2848.00
6775,112.00,9.00,-147.00,1092.00,-176.00,18676.00,-2864.00
6792,98.00,17.00,-196.00,1184.00,-228.00,18716.00,-2832.00
6808,120.00,31.00,-157.00,1172.00,-204.00,18868.00,-2848.00
6825,101.00,18.00,-179.00,1232.00,-112.00,18772.00,-2880.00
6842,98.00,33.00,-190.00,1208.00,-196.00,18576.00,-2864.00
6858,104.00,6.00,-181.00,1140.00,-216.00,18804.00,-2880.00
6875,103.00,35.00,-183.00,1180.00,-224.00,18744.00,-2864.00
6891,119.00,12.00,-158.00,1128.00,-212.00,18764.00,-2864.00
6907,116.00,14.00,-174.00,1148.00,-196.00,18732.00,-2848.00
6924,108.00,32.00,-174.00,1164.00,-204.00,18768.00,-2816.00
6940,94.00,-12.00,-190.00,1180.00,-212.00,18796.00,-2832.00
6957,116.00,12.00,-193.00,1184.00,-184.00,18812.00,-2832.00
6973,89.00,1.00,-190.00,1188.00,-196.00,18780.00,-2848.00
6989,85.00,38.00,-183.00,1092.00,-108.00,18832.00,-2864.00
7006,96.00,-12.00,-182.00,1180.00,-216.00,18660.00,-2848.00
7022,84.00,23.00,-148.00,1160.00,-200.00,18820.00,-2864.00
7038,99.00,1.00,-193.00,1248.00,-216.00,18628.00,-2864.00
7055,66.00,19.00,-185.00,1152.00,-256.00,18676.00,-2896.00
7071,103.00,5.00,-157.00,1176.00,-232.00,18748.00,-2864.00
7088,105.00,4.00,-173.00,1248.00,-244.00,18748.00,-2848.00
7104,98.00,17.00,-204.00,1196.00,-188.00,18832.00,-2864.00
7120,86.00,40.00,-185.00,1232.00,-176.00,18768.00,-2880.00
7137,77.00,-4.00,-173.00,1156.00,-80.00,18848.00,-2880.00
7153,96.00,7.00,-173.00,1096.00,-200.00,18812.00,-2848.00
7170,101.00,-3.00,-196.00,1188.00,-224.00,18804.00,-2864.00
7186,104.00,-1.00,-204.00,1156.00,-212.00,18644.00,-2880.00
7202,103.00,43.00,-179.00,1164.00,-112.00,18804.00,-2848.00
7219,105.00,-6.00,-146.00,1080.00,-348.00,18776.00,-2864.00
7235,98.00,33.00,-195.00,1156.00,-220.00,18712.00,-2880.00
7251,98.00,20.00,-179.00,1140.00,-236.00,18840.00,-2864.00
7268,102.00,0.00,-192.00,1140.00,-256.00,18720.00,-2864.00
7284,91.00,-6.00,-186.00,1108.00,-224.00,18768.00,-2816.00
7301,73.00,-15.00,-160.00,1220.00,-140.00,18688.00,-2864.00
7317,105.00,32.00,-181.00,1128.00,-208.00,18800.00,-2880.00
7333,69.00,16.00,-146.00,1132.00,-224.00,18780.00,-2848.00
7350,88.00,15.00,-188.00,1144.00,-192.00,18728.00,-2864.00
7367,94.00,0.00,-205.00,1192.00,-268.00,18636.00,-2880.00
7383,78.00,13.00,-170.00,1120.00,-240.00,18844.00,-2864.00
7400,83.00,-13.00,-155.00,1100.00,-220.00,18808.00,-2848.00
7416,66.00,-21.00,-176.00,1160.00,-140.00,18852.00,-2864.00
7433,108.00,13.00,-195.00,1132.00,-256.00,18740.00,-2864.00
7449,105.00,36.00,-168.00,1232.00,-240.00,18780.00,-2848.00
7465,99.00,8.00,-198.00,1052.00,-224.00,18760.00,-2880.00
7482,79.00,18.00,-180.00,1228.00,-208.00,18828.00,-2864.00
7498,100.00,0.00,-184.00,1164.00,-168.00,18824.00,-2864.00
7515,112.00,-21.00,-172.00,1236.00,-180.00,18720.00,-2864.00
7531,86.00,17.00,-180.00,1096.00,-260.00,18660.00,-2848.00
7547,110.00,2.00,-147.00,1204.00,-232.00,18752.00,-2880.00
7564,106.00,9.00,-192.00,1012.00,-156.00,18692.00,-2864.00
7580,114.00,-4.00,-176.00,1200.00,-256.00,18712.00,-2848.00
7597,92.00,30.00,-191.00,1240.00,-220.00,18744.00,-2864.00
7613,98.00,-12.00,-184.00,1256.00,-160.00,18704.00,-2848.00
7629,107.00,45.00,-160.00,1204.00,-72.00,18800.00,-2848.00
7646,98.00,-16.00,-186.00,1176.00,-152.00,18804.00,-2832.00
7662,102.00,-8.00,-200.00,1184.00,-180.00,18796.00,-2848.00
7678,101.00,1.00,-220.00,1164.00,-208.00,18656.00,-2896.00
7695,99.00,-10.00,-192.00,1080.00,-232.00,18668.00,-2864.00
7711,119.00,53.00,-184.00,1188.00,-188.00,18780.00,-2880.00
7728,80.00,5.00,-193.00,1196.00,-296.00,18836.00,-2864.00
7744,106.00,-9.00,-174.00,1140.00,-312.00,18752.00,-2880.00
7760,84.00,7.00,-164.00,1136.00,-196.00,18704.00,-2848.00
7777,101.00,29.00,-165.00,1204.00,-200.00,18812.00,-2848.00
7793,91.00,-5.00,-180.00,1100.00,-240.00,18756.00,-2848.00
7810,92.00,9.00,-167.00,1132.00,-176.00,18772.00,-2832.00
7826,97.00,-12.00,-173.00,1164.00,-188.00,18744.00,-2864.00
7842,106.00,13.00,-202.00,1196.00,-168.00,18816.00,-2864.00
7859,100.00,7.00,-183.00,1204.00,-96.00,18696.00,-2864.00
7875,128.00,9.00,-148.00,1188.00,-216.00,18692.00,-2848.00
7891,96.00,6.00,-185.00,1180.00,-152.00,18780.00,-2864.00
7908,101.00,19.00,-203.00,1188.00,-184.00,18744.00,-2864.00
7924,103.00,-7.00,-223.00,1176.00,-296.00,18692.00,-2864.00
7941,89.00,15.00,-166.00,1240.00,-264.00,18724.00,-2832.00
7957,94.00,-13.00,-185.00,1168.00,-256.00,18744.00,-2848.00
7973,59.00,9.00,-178.00,1152.00,-80.00,18748.00,-2864.00
7990,86.00,11.00,-174.00,1108.00,-176.00,18796.00,-2864.00
8006,84.00,-13.00,-127.00,1192.00,-232.00,18760.00,-2864.00
8023,79.00,22.00,-167.00,1180.00,-112.00,18644.00,-2848.00
8039,86.00,10.00,-192.00,1136.00,-92.00,18672.00,-2832.00
8055,73.00,2.00,-180.00,1228.00,-140.00,18696.00,-2848.00
8072,105.00,1.00,-170.00,1088.00,-212.00,18808.00,-2832.00
8088,92.00,10.00,-171.00,1232.00,-256.00,18844.00,-2880.00
8104,92.00,21.00,-201.00,1124.00,-220.00,18768.00,-2864.00
8122,79.00,-22.00,-205.00,1256.00,-152.00,18620.00,-2864.00
8138,79.00,-8.00,-185.00,1168.00,-152.00,18768.00,-2848.00
8155,89.00,5.00,-209.00,1196.00,-260.00,18788.00,-2864.00
8170,91.00,30.00,-170.00,1068.00,-248.00,18656.00,-2864.00
8187,112.00,-2.00,-186.00,1128.00,-280.00,18740.00,-2864.00
8204,121.00,25.00,-186.00,1032.00,-208.00,18880.00,-2880.00
8220,124.00,23.00,-209.00,1160.00,-92.00,18820.00,-2864.00
8237,85.00,33.00,-181.00,1192.00,-296.00,18708.00,-2832.00
8253,91.00,16.00,-185.00,1132.00,-204.00,18848.00,-2880.00
8269,124.00,7.00,-182.00,1088.00,-204.00,18824.00,-2864.00
8286,96.00,14.00,-186.00,1232.00,-168.00,18756.00,-2848.00
8302,99.00,22.00,-185.00,1224.00,-144.00,18796.00,-2864.00
8318,72.00,-6.00,-197.00,1156.00,-260.00,18660.00,-2864.00
8335,117.00,15.00,-192.00,1152.00,-184.00,18804.00,-2848.00
8351,112.00,21.00,-195.00,1072.00,-224.00,18884.00,-2864.00
8368,95.00,4.00,-205.00,1180.00,-164.00,18860.00,-2864.00
8384,91.00,-26.00,-182.00,1148.00,-304.00,18812.00,-2864.00
8400,94.00,18.00,-165.00,1132.00,-208.00,18880.00,-2864.00
8417,92.00,-14.00,-191.00,1132.00,-264.00,18792.00,-2848.00
8433,80.00,18.00,-161.00,1216.00,-180.00,18768.00,-2864.00
8450,92.00,-2.00,-138.00,1124.00,-268.00,18900.00,-2880.00
8466,89.00,3.00,-157.00,1180.00,-248.00,18732.00,-2832.00
8482,98.00,36.00,-206.00,1172.00,-140.00,18792.00,-2880.00
8499,125.00,-9.00,-167.00,1176.00,-184.00,18848.00,-2896.00
8515,84.00,6.00,-202.00,1260.00,-232.00,18792.00,-2848.00
8531,104.00,28.00,-209.00,1092.00,-140.00,18608.00,-2864.00
8548,121.00,19.00,-200.00,1096.00,-244.00,18772.00,-2848.00
8564,81.00,-12.00,-199.00,1108.00,-252.00,18708.00,-2880.00
8581,98.00,11.00,-197.00,1176.00,-192.00,18768.00,-2864.00
8597,69.00,16.00,-186.00,1100.00,-228.00,18744.00,-2848.00
8613,97.00,-21.00,-173.00,1108.00,-132.00,18716.00,-2832.00
8630,87.00,13.00,-146.00,1160.00,-252.00,18732.00,-2864.00
8646,93.00,10.00,-181.00,1124.00,-260.00,18864.00,-2848.00
8663,107.00,18.00,-157.00,1080.00,-108.00,18760.00,-2864.00
8679,110.00,54.00,-192.00,1104.00,-344.00,18732.00,-2864.00
8695,85.00,28.00,-185.00,1132.00,-236.00,18592.00,-2864.00
8712,102.00,10.00,-183.00,1120.00,-252.00,18732.00,-2848.00
8728,100.00,13.00,-204.00,1168.00,-196.00,18696.00,-2864.00
8745,92.00,14.00,-181.00,1176.00,-184.00,18696.00,-2832.00
8762,95.00,-2.00,-188.00,1208.00,-208.00,18868.00,-2864.00
8778,89.00,25.00,-188.00,1160.00,-216.00,18840.00,-2864.00
8795,89.00,12.00,-164.00,1196.00,-208.00,18788.00,-2864.00
8811,91.00,-8.00,-197.00,1160.00,-256.00,18732.00,-2832.00
8827,103.00,23.00,-195.00,1160.00,-208.00,18752.00,-2832.00
8844,106.00,17.00,-177.00,1132.00,-220.00,18756.00,-2848.00
8860,103.00,41.00,-183.00,1152.00,-236.00,18784.00,-2848.00
8877,108.00,1.00,-194.00,1136.00,-224.00,18824.00,-2864.00
8893,113.00,13.00,-169.00,1208.00,-196.00,18660.00,-2864.00
8909,95.00,27.00,-163.00,1120.00,-160.00,18768.00,-2848.00
8926,91.00,7.00,-187.00,1092.00,-188.00,18880.00,-2864.00
8942,101.00,9.00,-166.00,1160.00,-140.00,18832.00,-2880.00
8958,91.00,-4.00,-179.00,1116.00,-208.00,18792.00,-2832.00
8975,99.00,-5.00,-189.00,1148.00,-124.00,18760.00,-2848.00
8991,99.00,4.00,-149.00,1120.00,-192.00,18752.00,-2832.00
9008,92.00,34.00,-189.00,1208.00,-236.00,18652.00,-2848.00
9024,104.00,5.00,-191.00,1104.00,-192.00,18680.00,-2864.00
9040,91.00,30.00,-193.00,1064.00,-152.00,18660.00,-2848.00
9057,82.00,8.00,-178.00,1124.00,-284.00,18736.00,-2832.00
9073,84.00,13.00,-146.00,1124.00,-256.00,18820.00,-2848.00
9090,90.00,52.00,-139.00,1092.00,-140.00,18576.00,-2880.00
9106,93.00,17.00,-190.00,1180.00,-160.00,18732.00,-2864.00
9122,87.00,48.00,-171.00,1172.00,-192.00,18860.00,-2880.00
9139,84.00,16.00,-183.00,1176.00,-232.00,18764.00,-2864.00
9155,92.00,12.00,-205.00,1204.00,-232.00,18820.00,-2848.00
9171,108.00,35.00,-168.00,1208.00,-184.00,18824.00,-2848.00
9188,93.00,-8.00,-207.00,1116.00,-164.00,18928.00,-2832.00
9204,93.00,-2.00,-190.00,1184.00,-204.00,18728.00,-2848.00
9221,104.00,22.00,-177.00,1160.00,-176.00,18912.00,-2864.00
9237,67.00,13.00,-201.00,1164.00,-96.00,18724.00,-2896.00
9253,91.00,11.00,-195.00,1136.00,-284.00,18572.00,-2864.00
9270,94.00,30.00,-182.00,1296.00,-144.00,18736.00,-2880.00
9286,70.00,4.00,-176.00,1212.00,-104.00,18848.00,-2848.00
9303,89.00,13.00,-172.00,1072.00,-144.00,18888.00,-2832.00
9319,97.00,27.00,-174.00,1152.00,-276.00,18756.00,-2880.00
9335,100.00,21.00,-159.00,1068.00,-216.00,18652.00,-2832.00
9352,96.00,6.00,-156.00,1108.00,-212.00,18612.00,-2864.00
9368,82.00,17.00,-181.00,1180.00,-180.00,18872.00,-2864.00
9384,82.00,-2.00,-181.00,1184.00,-280.00,18692.00,-2864.00
9401,102.00,-1.00,-201.00,1192.00,-188.00,18744.00,-2880.00
9417,72.00,-4.00,-151.00,1176.00,-216.00,18704.00,-2864.00
9434,102.00,10.00,-178.00,1140.00,-212.00,18608.00,-2864.00
9450,81.00,25.00,-165.00,1140.00,-136.00,18812.00,-2864.00
9466,89.00,34.00,-202.00,1176.00,-240.00,18744.00,-2864.00
9483,109.00,33.00,-203.00,1108.00,-224.00,18744.00,-2848.00
9499,102.00,-8.00,-194.00,1116.00,-192.00,18756.00,-2880.00
9516,79.00,-6.00,-194.00,1152.00,-188.00,18856.00,-2864.00
9532,94.00,13.00,-170.00,1184.00,-216.00,18732.00,-2848.00
9548,94.00,22.00,-168.00,1128.00,-316.00,18796.00,-2864.00
9565,102.00,-7.00,-174.00,1216.00,-248.00,18692.00,-2864.00
9581,102.00,18.00,-166.00,1108.00,-276.00,18816.00,-2880.00
9598,89.00,11.00,-175.00,1152.00,-208.00,18732.00,-2848.00
9615,95.00,41.00,-162.00,1128.00,-124.00,18640.00,-2832.00
9631,91.00,0.00,-176.00,1200.00,-176.00,18752.00,-2848.00
9648,101.00,10.00,-195.00,1108.00,-152.00,18720.00,-2864.00
9664,101.00,18.00,-188.00,1108.00,-168.00,18708.00,-2880.00
9680,110.00,55.00,-144.00,1208.00,-204.00,18704.00,-2880.00
9697,109.00,27.00,-173.00,1200.00,-236.00,18636.00,-2864.00
9713,90.00,1.00,-198.00,1208.00,-108.00,18864.00,-2864.00
9730,80.00,-7.00,-186.00,1080.00,-196.00,18788.00,-2848.00
9746,69.00,11.00,-183.00,1224.00,-156.00,18852.00,-2864.00
9762,73.00,10.00,-168.00,1160.00,-280.00,18800.00,-2848.00
9779,86.00,28.00,-193.00,1180.00,-224.00,18924.00,-2864.00
9795,109.00,-2.00,-176.00,1232.00,-172.00,18644.00,-2848.00
9811,120.00,16.00,-195.00,1144.00,-120.00,18776.00,-2864.00
9828,82.00,22.00,-178.00,1152.00,-176.00,18748.00,-2896.00
9844,81.00,19.00,-188.00,1152.00,-240.00,18780.00,-2880.00
9861,110.00,16.00,-191.00,1156.00,-260.00,18808.00,-2832.00
9877,96.00,-6.00,-149.00,1056.00,-236.00,18844.00,-2864.00
9893,80.00,11.00,-160.00,1192.00,-92.00,18844.00,-2848.00
9910,86.00,37.00,-190.00,1244.00,-248.00,18772.00,-2864.00
9926,95.00,-7.00,-173.00,1192.00,-280.00,18712.00,-2880.00
9943,81.00,0.00,-186.00,1192.00,-240.00,18728.00,-2832.00
9959,103.00,40.00,-205.00,1160.00,-200.00,18756.00,-2832.00
9975,87.00,24.00,-196.00,1196.00,-140.00,18772.00,-2896.00
9992,86.00,18.00,-189.00,1144.00,-240.00,18804.00,-2880.00
10008,110.00,29.00,-189.00,1196.00,-232.00,18728.00,-2864.00
10024,115.00,19.00,-160.00,1160.00,-276.00,18744.00,-2864.00
10041,97.00,-3.00,-185.00,1224.00,-124.00,18840.00,-2864.00
10057,96.00,23.00,-183.00,1168.00,-184.00,18740.00,-2864.00
10074,90.00,40.00,-191.00,1108.00,-212.00,18824.00,-2880.00
10090,92.00,11.00,-195.00,1124.00,-136.00,18788.00,-2848.00
10107,102.00,10.00,-186.00,1264.00,-232.00,18716.00,-2896.00
10124,89.00,32.00,-191.00,1260.00,-108.00,18828.00,-2864.00
10140,99.00,7.00,-175.00,1092.00,-60.00,18744.00,-2864.00
10157,85.00,5.00,-202.00,1180.00,-168.00,18908.00,-2848.00
10173,98.00,-8.00,-179.00,1224.00,-228.00,18700.00,-2896.00
10189,100.00,3.00,-162.00,1096.00,-168.00,18808.00,-2848.00
10206,76.00,-16.00,-190.00,1228.00,-172.00,18748.00,-2880.00
10222,100.00,43.00,-173.00,1092.00,-208.00,18760.00,-2864.00
10238,103.00,16.00,-202.00,1148.00,-240.00,18804.00,-2864.00
10255,98.00,13.00,-189.00,1120.00,-144.00,18696.00,-2832.00
10271,90.00,1.00,-183.00,1144.00,-140.00,18732.00,-2832.00
10288,89.00,23.00,-182.00,1112.00,-120.00,18732.00,-2848.00
10304,116.00,10.00,-172.00,1136.00,-68.00,18716.00,-2864.00
10320,101.00,12.00,-163.00,1196.00,-216.00,18792.00,-2864.00
10337,109.00,-1.00,-162.00,1196.00,-144.00,18680.00,-2864.00
10354,96.00,25.00,-224.00,1228.00,-236.00,18772.00,-2896.00
10371,108.00,17.00,-200.00,1176.00,-196.00,18772.00,-2848.00
10387,96.00,-3.00,-217.00,1140.00,-120.00,18596.00,-2912.00
10403,118.00,14.00,-185.00,1072.00,-320.00,18744.00,-2864.00
10420,120.00,14.00,-198.00,1052.00,-220.00,18816.00,-2832.00
10436,68.00,10.00,-188.00,1156.00,-172.00,18796.00,-2832.00
10452,92.00,15.00,-180.00,1168.00,-176.00,18896.00,-2848.00
10469,97.00,10.00,-175.00,1108.00,-228.00,18712.00,-2848.00
10485,112.00,12.00,-176.00,1104.00,-184.00,18868.00,-2848.00
10502,97.00,12.00,-180.00,1184.00,-284.00,18628.00,-2848.00
10518,103.00,11.00,-163.00,1156.00,-96.00,18788.00,-2832.00
10534,86.00,-11.00,-190.00,1208.00,-124.00,18828.00,-2896.00
10551,100.00,-7.00,-192.00,1204.00,-220.00,18736.00,-2896.00
10568,115.00,-3.00,-175.00,1096.00,-152.00,18704.00,-2880.00
10585,97.00,-10.00,-175.00,1152.00,-232.00,18856.00,-2864.00
10601,92.00,26.00,-172.00,1220.00,-248.00,18720.00,-2864.00
10617,104.00,12.00,-188.00,1156.00,-216.00,18736.00,-2832.00
10634,80.00,3.00,-180.00,1128.00,-152.00,18732.00,-2832.00
10650,104.00,18.00,-170.00,1152.00,-208.00,18796.00,-2816.00
10667,112.00,13.00,-191.00,1180.00,-176.00,18820.00,-2880.00
10683,70.00,36.00,-177.00,1152.00,-196.00,18724.00,-2848.00
10699,86.00,18.00,-174.00,1104.00,-196.00,18848.00,-2864.00
10716,93.00,14.00,-150.00,1140.00,-228.00,18756.00,-2864.00
10732,97.00,-15.00,-194.00,1168.00,-252.00,18784.00,-2848.00
10748,88.00,-5.00,-175.00,1080.00,-168.00,18752.00,-2880.00
10765,91.00,29.00,-189.00,1184.00,-200.00,18828.00,-2864.00
10781,112.00,35.00,-178.00,1108.00,-68.00,18872.00,-2864.00
10799,86.00,32.00,-171.00,1148.00,-188.00,18724.00,-2848.00
10815,89.00,10.00,-178.00,1140.00,-224.00,18700.00,-2848.00
10831,88.00,19.00,-173.00,1136.00,-164.00,18792.00,-2832.00
10848,86.00,-8.00,-195.00,1112.00,-108.00,18676.00,-2864.00
10864,89.00,10.00,-177.00,1100.00,-140.00,18756.00,-2848.00
10881,92.00,11.00,-193.00,1120.00,-144.00,18664.00,-2864.00
10897,86.00,-10.00,-175.00,1088.00,-164.00,18700.00,-2864.00
10913,93.00,0.00,-184.00,1164.00,-140.00,18700.00,-2864.00
10930,99.00,16.00,-149.00,1100.00,-220.00,18772.00,-2848.00
10946,95.00,20.00,-184.00,1284.00,-116.00,18960.00,-2864.00
10962,112.00,-6.00,-172.00,1212.00,-232.00,18788.00,-2864.00
10979,84.00,-1.00,-165.00,1108.00,-240.00,18852.00,-2880.00
10995,96.00,30.00,-167.00,1096.00,-228.00,18644.00,-2864.00
11012,90.00,-3.00,-174.00,1104.00,-168.00,18824.00,-2864.00
11028,89.00,-9.00,-168.00,1100.00,-212.00,18716.00,-2848.00
11044,92.00,35.00,-181.00,1156.00,-68.00,18784.00,-2816.00
11061,93.00,-1.00,-190.00,1128.00,-220.00,18956.00,-2832.00
11077,79.00,14.00,-187.00,1216.00,-168.00,18704.00,-2848.00
11094,93.00,19.00,-188.00,1136.00,-196.00,18636.00,-2880.00
11110,95.00,5.00,-187.00,1224.00,-140.00,18684.00,-2864.00
11127,94.00,13.00,-163.00,1076.00,-232.00,18848.00,-2880.00
11144,100.00,43.00,-170.00,1188.00,-216.00,18916.00,-2880.00
11160,100.00,15.00,-193.00,1152.00,-156.00,18896.00,-2880.00
11176,78.00,15.00,-181.00,1108.00,-268.00,18792.00,-2848.00
11193,102.00,12.00,-180.00,1180.00,-212.00,18900.00,-2864.00
11209,68.00,-5.00,-169.00,1084.00,-140.00,18892.00,-2864.00
11226,100.00,14.00,-172.00,1272.00,-196.00,18692.00,-2832.00
11242,99.00,19.00,-186.00,1196.00,-224.00,18772.00,-2848.00
11258,67.00,18.00,-171.00,1124.00,-152.00,18788.00,-2848.00
11275,102.00,-15.00,-189.00,1328.00,-188.00,18644.00,-2880.00
11291,97.00,13.00,-204.00,1248.00,-292.00,18748.00,-2864.00
11308,101.00,2.00,-161.00,1152.00,-232.00,18868.00,-2832.00
11325,104.00,24.00,-179.00,1128.00,-260.00,18744.00,-2864.00
11341,74.00,20.00,-181.00,1100.00,-276.00,18748.00,-2864.00
11358,73.00,9.00,-181.00,1108.00,-192.00,18652.00,-2848.00
11374,74.00,3.00,-186.00,1132.00,-268.00,18944.00,-2848.00
11390,92.00,39.00,-197.00,1100.00,-248.00,18764.00,-2864.00
11407,107.00,20.00,-160.00,1036.00,-228.00,18928.00,-2848.00
11423,95.00,-3.00,-156.00,1180.00,-152.00,18716.00,-2848.00
11440,86.00,25.00,-186.00,1252.00,-216.00,18600.00,-2864.00
11456,84.00,25.00,-176.00,1120.00,-180.00,18812.00,-2864.00
11472,85.00,12.00,-195.00,1140.00,-188.00,18708.00,-2880.00
11489,89.00,-8.00,-178.00,1160.00,-96.00,18708.00,-2848.00
11505,75.00,31.00,-170.00,1128.00,-92.00,18820.00,-2848.00
11522,104.00,16.00,-190.00,1136.00,-160.00,18728.00,-2864.00
11538,89.00,6.00,-196.00,1160.00,-288.00,18708.00,-2832.00
11554,98.00,15.00,-194.00,1216.00,-156.00,18668.00,-2880.00
11571,101.00,23.00,-169.00,1016.00,-96.00,18804.00,-2880.00
11587,118.00,14.00,-182.00,1096.00,-232.00,18728.00,-2880.00
11604,88.00,23.00,-203.00,1112.00,-196.00,18740.00,-2864.00
11621,87.00,51.00,-183.00,1092.00,-280.00,18736.00,-2864.00
11637,101.00,13.00,-159.00,1208.00,-196.00,18960.00,-2880.00
11654,89.00,-2.00,-191.00,1164.00,-132.00,18844.00,-2848.00
11670,99.00,22.00,-188.00,1176.00,-108.00,18712.00,-2864.00
11686,79.00,18.00,-211.00,1156.00,-224.00,18724.00,-2864.00
11703,82.00,17.00,-180.00,1168.00,-212.00,18764.00,-2848.00
11719,80.00,22.00,-188.00,1160.00,-260.00,18744.00,-2848.00
11736,100.00,8.00,-181.00,1144.00,-300.00,18980.00,-2864.00
11752,81.00,19.00,-182.00,1160.00,-176.00,18768.00,-2864.00
11768,91.00,15.00,-137.00,1124.00,-252.00,18788.00,-2880.00
11785,80.00,27.00,-157.00,1080.00,-124.00,18836.00,-2848.00
11801,88.00,10.00,-195.00,1168.00,-152.00,18832.00,-2864.00
11817,102.00,26.00,-171.00,1200.00,-248.00,18784.00,-2832.00
11835,82.00,28.00,-187.00,1212.00,-304.00,18796.00,-2864.00
11851,85.00,58.00,-178.00,1160.00,-132.00,18680.00,-2848.00
11868,103.00,21.00,-180.00,1080.00,-196.00,18836.00,-2848.00
11884,84.00,28.00,-163.00,1188.00,-128.00,19032.00,-2880.00
11900,118.00,-5.00,-193.00,1184.00,-264.00,18780.00,-2832.00
11917,86.00,6.00,-207.00,1152.00,-268.00,18732.00,-2864.00
11933,69.00,5.00,-161.00,1176.00,-208.00,18728.00,-2832.00
11950,101.00,11.00,-188.00,1192.00,-144.00,18900.00,-2864.00
11966,104.00,13.00,-204.00,1108.00,-116.00,18828.00,-2832.00
11982,94.00,9.00,-168.00,1116.00,-224.00,18728.00,-2864.00
11999,97.00,-2.00,-183.00,1208.00,-264.00,18716.00,-2880.00
12015,116.00,10.00,-176.00,1252.00,-232.00,18696.00,-2864.00
12032,73.00,-9.00,-189.00,1276.00,-256.00,18812.00,-2864.00
12048,93.00,-10.00,-169.00,1120.00,-264.00,18680.00,-2816.00
12064,121.00,-10.00,-201.00,1152.00,-188.00,18780.00,-2848.00
12082,91.00,18.00,-198.00,1204.00,-172.00,18844.00,-2864.00
12098,76.00,3.00,-175.00,1196.00,-216.00,18796.00,-2864.00
12114,82.00,-3.00,-177.00,1064.00,-168.00,18996.00,-2880.00
12131,94.00,14.00,-172.00,1064.00,-176.00,18916.00,-2864.00
12147,85.00,-9.00,-180.00,1152.00,-156.00,18748.00,-2832.00
12164,116.00,3.00,-191.00,1148.00,-248.00,18760.00,-2864.00
12180,83.00,29.00,-201.00,1192.00,-232.00,18792.00,-2864.00
12196,95.00,11.00,-185.00,1116.00,-204.00,18844.00,-2864.00
12213,112.00,34.00,-177.00,1092.00,-260.00,18740.00,-2848.00
12229,96.00,44.00,-177.00,1136.00,-152.00,18788.00,-2848.00
12246,106.00,4.00,-188.00,1208.00,-140.00,18664.00,-2880.00
12262,104.00,11.00,-203.00,1136.00,-192.00,18820.00,-2864.00
12278,109.00,24.00,-163.00,1300.00,-260.00,18724.00,-2864.00
12295,86.00,10.00,-187.00,1132.00,-232.00,18892.00,-2864.00
12312,78.00,9.00,-176.00,1104.00,-48.00,18740.00,-2864.00
12327,90.00,23.00,-180.00,1092.00,-140.00,18716.00,-2864.00
12345,99.00,33.00,-150.00,1084.00,-200.00,18924.00,-2864.00
12361,83.00,2.00,-169.00,1148.00,-176.00,18656.00,-2848.00
12378,85.00,-3.00,-151.00,1100.00,-256.00,18868.00,-2864.00
12394,95.00,11.00,-228.00,1160.00,-108.00,18780.00,-2864.00
12410,95.00,26.00,-173.00,1164.00,-108.00,18800.00,-2880.00
12427,99.00,29.00,-170.00,1180.00,-352.00,18776.00,-2864.00
12443,90.00,8.00,-163.00,1124.00,-68.00,18792.00,-2864.00
12460,100.00,20.00,-168.00,1204.00,-112.00,18648.00,-2848.00
12476,99.00,-18.00,-216.00,1192.00,-164.00,18792.00,-2848.00
12492,95.00,25.00,-182.00,1144.00,-252.00,18796.00,-2864.00
12509,83.00,20.00,-182.00,1180.00,-192.00,18744.00,-2832.00
12525,87.00,21.00,-166.00,1084.00,-176.00,18796.00,-2880.00
12541,90.00,38.00,-205.00,1100.00,-216.00,18876.00,-2848.00
12558,101.00,27.00,-170.00,1152.00,-156.00,18852.00,-2848.00
12574,90.00,-2.00,-178.00,1148.00,-212.00,18812.00,-2864.00
12591,96.00,9.00,-159.00,1140.00,-348.00,18696.00,-2896.00
12607,61.00,24.00,-182.00,1112.00,-208.00,18688.00,-2848.00
12624,107.00,-14.00,-169.00,1212.00,-212.00,18844.00,-2880.00
12641,77.00,32.00,-173.00,1120.00,-48.00,18888.00,-2864.00
12657,73.00,1.00,-165.00,1132.00,-124.00,18772.00,-2832.00
12674,89.00,20.00,-207.00,1184.00,-176.00,18752.00,-2848.00
12690,108.00,24.00,-203.00,1164.00,-168.00,18784.00,-2864.00
12706,111.00,-9.00,-181.00,1160.00,-152.00,18864.00,-2832.00
12723,70.00,-22.00,-200.00,1192.00,-172.00,18892.00,-2832.00
12739,69.00,6.00,-174.00,1172.00,-84.00,18724.00,-2848.00
12755,86.00,17.00,-189.00,1092.00,-260.00,18732.00,-2832.00
12772,83.00,-6.00,-194.00,1044.00,-188.00,18664.00,-2912.00
12788,102.00,2.00,-158.00,1152.00,-192.00,18656.00,-2848.00
12805,85.00,11.00,-186.00,1212.00,-148.00,18648.00,-2864.00
12821,78.00,17.00,-180.00,1196.00,-272.00,18804.00,-2864.00
12837,101.00,18.00,-196.00,1152.00,-180.00,18728.00,-2848.00
12854,113.00,10.00,-166.00,1260.00,-180.00,18696.00,-2880.00
12871,82.00,20.00,-204.00,1212.00,-96.00,18852.00,-2848.00
12888,101.00,33.00,-190.00,1096.00,-128.00,18900.00,-2864.00
12904,98.00,-6.00,-184.00,1120.00,-100.00,18592.00,-2864.00
12920,96.00,-22.00,-214.00,1132.00,-132.00,18848.00,-2880.00
12937,97.00,3.00,-190.00,1184.00,-252.00,18720.00,-2880.00
12953,91.00,-13.00,-189.00,1148.00,-148.00,18848.00,-2896.00
12969,94.00,16.00,-186.00,1052.00,-240.00,18568.00,-2848.00
12986,93.00,-1.00,-187.00,1268.00,-140.00,18768.00,-2848.00
13002,111.00,21.00,-189.00,1124.00,-92.00,18820.00,-2864.00
13019,105.00,26.00,-184.00,1068.00,-160.00,18812.00,-2848.00
13035,89.00,28.00,-189.00,1148.00,-140.00,18836.00,-2848.00
13051,85.00,-14.00,-180.00,1188.00,-252.00,18760.00,-2880.00
13068,90.00,-15.00,-182.00,1216.00,-132.00,18756.00,-2832.00
13084,115.00,-17.00,-192.00,1204.00,-196.00,18900.00,-2864.00
13101,98.00,44.00,-187.00,1212.00,-196.00,18724.00,-2832.00
13117,91.00,22.00,-191.00,1176.00,-336.00,18708.00,-2832.00
13134,98.00,39.00,-184.00,1108.00,-212.00,18804.00,-2848.00
13151,84.00,3.00,-178.00,1144.00,-176.00,18836.00,-2848.00
13167,112.00,17.00,-192.00,1132.00,-120.00,18704.00,-2864.00
13184,89.00,34.00,-181.00,1188.00,-108.00,18724.00,-2832.00
13200,93.00,9.00,-164.00,1204.00,-196.00,18800.00,-2848.00
13216,107.00,20.00,-197.00,1124.00,-84.00,18828.00,-2864.00
13233,109.00,14.00,-190.00,1156.00,-180.00,18824.00,-2832.00
13249,92.00,20.00,-174.00,1200.00,-248.00,18752.00,-2864.00
13265,76.00,-33.00,-173.00,1152.00,-256.00,18772.00,-2848.00
13282,89.00,3.00,-184.00,1064.00,-192.00,18888.00,-2848.00
13298,114.00,1.00,-167.00,1124.00,-340.00,18792.00,-2864.00
13315,89.00,4.00,-194.00,1208.00,-196.00,18832.00,-2848.00
13331,99.00,-10.00,-187.00,1156.00,-140.00,18840.00,-2832.00
13347,90.00,8.00,-172.00,1176.00,-224.00,18740.00,-2896.00
13364,86.00,14.00,-179.00,1052.00,-148.00,18788.00,-2912.00
13380,103.00,37.00,-171.00,1236.00,-196.00,18736.00,-2848.00
13398,84.00,19.00,-178.00,1192.00,-140.00,18676.00,-2848.00
13414,99.00,12.00,-160.00,1088.00,-188.00,18768.00,-2864.00
13430,103.00,13.00,-140.00,1160.00,-228.00,18820.00,-2896.00
13447,94.00,15.00,-169.00,1204.00,-104.00,18704.00,-2896.00
13463,98.00,12.00,-181.00,1152.00,-276.00,18820.00,-2848.00
13479,103.00,13.00,-172.00,1140.00,-148.00,18736.00,-2832.00
13496,95.00,3.00,-176.00,1172.00,-168.00,18792.00,-2864.00
13512,118.00,-7.00,-167.00,1164.00,-168.00,18848.00,-2880.00
13529,91.00,5.00,-184.00,1156.00,-152.00,18772.00,-2880.00
13545,88.00,5.00,-192.00,1152.00,-148.00,18868.00,-2864.00
13561,79.00,21.00,-162.00,1184.00,-168.00,18864.00,-2848.00
13578,105.00,4.00,-163.00,1132.00,-204.00,18824.00,-2880.00
13594,83.00,34.00,-189.00,1104.00,-244.00,18760.00,-2864.00
13611,116.00,18.00,-165.00,1264.00,-88.00,18888.00,-2864.00
13627,111.00,26.00,-168.00,1212.00,-312.00,18692.00,-2880.00
13644,88.00,14.00,-181.00,1104.00,-92.00,18672.00,-2848.00
13661,121.00,25.00,-181.00,1188.00,-180.00,18784.00,-2864.00
13677,95.00,7.00,-196.00,1120.00,-260.00,18704.00,-2832.00
13693,87.00,-8.00,-175.00,1088.00,-220.00,18704.00,-2880.00
13710,106.00,-8.00,-182.00,1180.00,-312.00,18716.00,-2832.00
13726,101.00,-6.00,-147.00,1040.00,-156.00,18796.00,-2864.00
13743,92.00,11.00,-178.00,1056.00,-256.00,18792.00,-2848.00
13759,97.00,11.00,-168.00,1112.00,-196.00,18576.00,-2848.00
13775,79.00,34.00,-174.00,1132.00,-144.00,18872.00,-2864.00
13792,100.00,1.00,-182.00,1212.00,-208.00,18824.00,-2864.00
13808,113.00,0.00,-180.00,1236.00,-208.00,18788.00,-2832.00
13825,106.00,12.00,-166.00,1272.00,-180.00,18872.00,-2848.00
13841,104.00,32.00,-195.00,1124.00,-216.00,18900.00,-2880.00
13857,113.00,20.00,-164.00,1248.00,-108.00,18856.00,-2880.00
13875,100.00,2.00,-194.00,1132.00,-212.00,18708.00,-2848.00
13891,109.00,20.00,-170.00,1136.00,-284.00,18864.00,-2864.00
13907,98.00,2.00,-194.00,1116.00,-188.00,18712.00,-2864.00
13924,91.00,7.00,-160.00,1128.00,-180.00,18800.00,-2912.00
13940,108.00,19.00,-176.00,1212.00,-288.00,18812.00,-2864.00
13957,105.00,7.00,-166.00,1100.00,-124.00,18748.00,-2864.00
13973,60.00,31.00,-177.00,1196.00,-300.00,18696.00,-2864.00
13989,114.00,8.00,-204.00,1208.00,-224.00,18664.00,-2880.00
14006,87.00,17.00,-199.00,1180.00,-204.00,18780.00,-2864.00
14022,110.00,21.00,-182.00,1180.00,-116.00,18804.00,-2864.00
14039,93.00,3.00,-208.00,1208.00,-80.00,18788.00,-2864.00
14055,122.00,22.00,-170.00,1108.00,-144.00,18800.00,-2848.00
14071,83.00,29.00,-180.00,1204.00,-132.00,18848.00,-2848.00
14088,98.00,-3.00,-187.00,1176.00,-228.00,18816.00,-2864.00
14104,92.00,8.00,-182.00,1104.00,-284.00,18776.00,-2864.00
14120,81.00,0.00,-180.00,1120.00,-260.00,18904.00,-2832.00
14137,90.00,24.00,-201.00,1148.00,-208.00,18764.00,-2864.00
14154,94.00,12.00,-195.00,1248.00,-216.00,18928.00,-2848.00
14171,83.00,-5.00,-173.00,1172.00,-188.00,18672.00,-2848.00
14187,87.00,8.00,-205.00,1264.00,-172.00,18512.00,-2864.00
14203,92.00,15.00,-176.00,1208.00,-284.00,18772.00,-2880.00
14220,66.00,-3.00,-202.00,1196.00,-168.00,18620.00,-2832.00
14236,77.00,37.00,-169.00,1200.00,-172.00,18800.00,-2864.00
14253,72.00,10.00,-189.00,1080.00,-88.00,18748.00,-2848.00
14269,77.00,13.00,-177.00,1212.00,-108.00,18724.00,-2864.00
14285,95.00,20.00,-192.00,1072.00,-124.00,18796.00,-2864.00
14302,108.00,25.00,-197.00,1152.00,-136.00,18852.00,-2848.00
14318,102.00,8.00,-181.00,1076.00,-176.00,18708.00,-2848.00
14334,88.00,-2.00,-167.00,1200.00,-204.00,18676.00,-2848.00
14351,65.00,13.00,-204.00,1124.00,-220.00,18756.00,-2864.00
14367,79.00,28.00,-176.00,1088.00,-212.00,18724.00,-2848.00
14384,98.00,16.00,-198.00,1236.00,-216.00,18672.00,-2880.00
14400,99.00,17.00,-173.00,1176.00,-152.00,18788.00,-2864.00
14416,82.00,9.00,-159.00,1152.00,-212.00,18856.00,-2864.00
14433,81.00,-3.00,-190.00,1216.00,-196.00,18760.00,-2880.00
14449,72.00,20.00,-200.00,1220.00,-132.00,18888.00,-2896.00
14467,106.00,12.00,-169.00,1104.00,-160.00,18716.00,-2864.00
14483,109.00,27.00,-192.00,1180.00,-260.00,18620.00,-2864.00
14499,103.00,4.00,-162.00,1200.00,-188.00,18664.00,-2832.00
14516,88.00,18.00,-195.00,1168.00,-252.00,18756.00,-2848.00
14532,82.00,10.00,-160.00,1188.00,-164.00,18676.00,-2880.00
14548,114.00,12.00,-170.00,1140.00,-184.00,18792.00,-2864.00
14565,79.00,17.00,-192.00,1176.00,-204.00,18780.00,-2864.00
14581,94.00,27.00,-170.00,1104.00,-248.00,18828.00,-2864.00
14598,99.00,13.00,-205.00,1164.00,-272.00,18700.00,-2848.00
14614,87.00,19.00,-168.00,1136.00,-216.00,18636.00,-2864.00
14630,73.00,5.00,-169.00,1160.00,-152.00,18684.00,-2864.00
14647,89.00,-10.00,-186.00,1132.00,-308.00,18852.00,-2848.00
14663,114.00,36.00,-171.00,1196.00,-268.00,18704.00,-2880.00
14681,83.00,21.00,-195.00,1068.00,-192.00,18792.00,-2848.00
14697,105.00,53.00,-146.00,1260.00,-156.00,18700.00,-2880.00
14713,94.00,13.00,-167.00,1244.00,-260.00,18812.00,-2864.00
14730,92.00,31.00,-196.00,1152.00,-212.00,18592.00,-2864.00
14746,89.00,-1.00,-200.00,1124.00,-280.00,18880.00,-2848.00
14763,87.00,32.00,-190.00,1136.00,-208.00,18716.00,-2832.00
14779,81.00,35.00,-168.00,1072.00,-204.00,18732.00,-2832.00
14795,92.00,14.00,-197.00,1164.00,-292.00,18824.00,-2896.00
14812,81.00,16.00,-154.00,1048.00,-192.00,18876.00,-2848.00
14828,123.00,30.00,-186.00,1252.00,-212.00,18708.00,-2880.00
14844,106.00,0.00,-183.00,1220.00,-176.00,18792.00,-2848.00
14861,76.00,21.00,-175.00,1132.00,-216.00,18588.00,-2864.00
14877,94.00,19.00,-187.00,1072.00,-92.00,18688.00,-2864.00
14894,102.00,19.00,-170.00,1076.00,-184.00,18656.00,-2880.00
14911,131.00,-3.00,-149.00,1156.00,-168.00,18772.00,-2864.00
14927,103.00,7.00,-201.00,1172.00,-220.00,18640.00,-2864.00
14944,85.00,2.00,-173.00,1192.00,-272.00,18676.00,-2832.00
14960,117.00,8.00,-176.00,1168.00,-252.00,18872.00,-2848.00
14977,101.00,8.00,-171.00,1140.00,-236.00,18728.00,-2864.00
14993,94.00,23.00,-154.00,1232.00,-252.00,18772.00,-2864.00
15009,74.00,-1.00,-185.00,1232.00,-176.00,18684.00,-2864.00
15026,107.00,26.00,-176.00,1184.00,-188.00,18768.00,-2832.00
15042,93.00,-8.00,-188.00,1168.00,-256.00,18840.00,-2848.00
15058,87.00,-5.00,-150.00,1136.00,-148.00,18660.00,-2864.00
15075,91.00,12.00,-159.00,1132.00,-156.00,18848.00,-2848.00
15091,84.00,17.00,-156.00,1216.00,-224.00,18728.00,-2880.00
15108,92.00,11.00,-162.00,1136.00,-284.00,18732.00,-2848.00
15124,90.00,29.00,-170.00,1124.00,-204.00,18752.00,-2864.00
15140,93.00,3.00,-175.00,1212.00,-168.00,18836.00,-2864.00
15157,102.00,25.00,-178.00,1240.00,-156.00,18792.00,-2848.00
15174,96.00,3.00,-179.00,1140.00,-184.00,18744.00,-2880.00
15191,112.00,42.00,-177.00,1128.00,-236.00,18716.00,-2864.00
15207,100.00,9.00,-186.00,1152.00,-192.00,18780.00,-2896.00
15223,67.00,11.00,-170.00,1124.00,-104.00,18856.00,-2832.00
15240,90.00,15.00,-182.00,1172.00,-260.00,18752.00,-2864.00
15256,93.00,34.00,-175.00,1060.00,-204.00,18664.00,-2880.00
15272,95.00,41.00,-181.00,1168.00,-240.00,18820.00,-2880.00
15289,84.00,16.00,-168.00,1172.00,-236.00,18808.00,-2864.00
15305,97.00,5.00,-185.00,1164.00,-112.00,18748.00,-2864.00
15322,79.00,29.00,-157.00,1152.00,-176.00,18824.00,-2848.00
15338,113.00,15.00,-178.00,1184.00,-100.00,18760.00,-2880.00
15354,88.00,2.00,-196.00,1168.00,-144.00,18800.00,-2832.00
15371,106.00,-11.00,-190.00,1172.00,-216.00,18752.00,-2864.00
15387,90.00,-14.00,-165.00,1112.00,-160.00,18868.00,-2864.00
15405,85.00,-6.00,-166.00,1152.00,-196.00,18736.00,-2864.00
15421,84.00,8.00,-176.00,1140.00,-184.00,18792.00,-2880.00
15437,109.00,16.00,-186.00,1196.00,-196.00,18888.00,-2896.00
15454,91.00,22.00,-192.00,1188.00,-196.00,18688.00,-2864.00
15470,107.00,34.00,-213.00,1152.00,-164.00,18856.00,-2864.00
15486,105.00,-6.00,-169.00,1108.00,-236.00,18796.00,-2864.00
15503,78.00,-3.00,-191.00,1184.00,-148.00,18676.00,-2848.00
15519,120.00,32.00,-208.00,1204.00,-204.00,18796.00,-2848.00
15536,97.00,29.00,-188.00,1196.00,-188.00,18760.00,-2864.00
15552,84.00,13.00,-172.00,1160.00,-132.00,18868.00,-2864.00
15568,102.00,30.00,-201.00,1164.00,-204.00,18788.00,-2832.00
15585,112.00,25.00,-166.00,1136.00,-156.00,18648.00,-2864.00
15601,95.00,-6.00,-187.00,1152.00,-244.00,18744.00,-2864.00
15618,101.00,45.00,-147.00,1196.00,-200.00,18660.00,-2880.00
15635,103.00,-21.00,-188.00,1160.00,-216.00,18672.00,-2848.00
15651,108.00,0.00,-214.00,1180.00,-152.00,18772.00,-2848.00
15668,103.00,19.00,-188.00,1112.00,-168.00,18756.00,-2848.00
15684,69.00,19.00,-165.00,1208.00,-212.00,18764.00,-2848.00
15700,91.00,-9.00,-198.00,1152.00,-216.00,18776.00,-2864.00
15717,84.00,24.00,-225.00,1156.00,-152.00,18856.00,-2848.00
15733,112.00,34.00,-174.00,1144.00,-284.00,18716.00,-2848.00
15750,91.00,32.00,-195.00,1116.00,-240.00,18784.00,-2848.00
15766,100.00,17.00,-192.00,1160.00,-176.00,18832.00,-2880.00
15782,91.00,42.00,-184.00,1156.00,-260.00,18628.00,-2896.00
15799,89.00,12.00,-162.00,1140.00,-248.00,18820.00,-2896.00
15815,98.00,17.00,-158.00,1080.00,-168.00,18868.00,-2832.00
15833,98.00,19.00,-156.00,1212.00,-312.00,18820.00,-2864.00
15849,96.00,-20.00,-185.00,1112.00,-156.00,18648.00,-2848.00
15865,91.00,-1.00,-176.00,1184.00,-252.00,18768.00,-2848.00
15882,87.00,-6.00,-182.00,1208.00,-304.00,18672.00,-2864.00
15898,113.00,2.00,-205.00,1072.00,-252.00,18732.00,-2880.00
15915,120.00,18.00,-188.00,1180.00,-204.00,18724.00,-2848.00
15931,87.00,10.00,-161.00,1040.00,-124.00,18904.00,-2864.00
15947,103.00,9.00,-184.00,1092.00,-200.00,18796.00,-2832.00
15964,89.00,21.00,-161.00,1132.00,-92.00,18700.00,-2864.00
15980,108.00,40.00,-176.00,1144.00,-192.00,18708.00,-2848.00
15996,88.00,15.00,-210.00,1244.00,-208.00,18820.00,-2848.00
16013,93.00,24.00,-181.00,1156.00,-264.00,18736.00,-2848.00
16029,103.00,29.00,-170.00,1204.00,-128.00,18772.00,-2848.00
16046,71.00,10.00,-181.00,1148.00,-244.00,18752.00,-2848.00
16062,102.00,29.00,-198.00,1244.00,-304.00,18684.00,-2832.00
16079,102.00,25.00,-201.00,1180.00,-180.00,18708.00,-2832.00
16096,82.00,10.00,-189.00,1164.00,-296.00,18676.00,-2896.00
16112,83.00,12.00,-165.00,1220.00,-244.00,18632.00,-2832.00
16129,96.00,9.00,-180.00,1212.00,-72.00,18696.00,-2864.00
16145,83.00,34.00,-164.00,1136.00,-236.00,18764.00,-2864.00
16161,97.00,-1.00,-191.00,1136.00,-184.00,18860.00,-2864.00
16178,111.00,67.00,-177.00,1148.00,-208.00,18720.00,-2880.00
16194,101.00,15.00,-199.00,1216.00,-216.00,18732.00,-2880.00
16210,93.00,14.00,-176.00,1120.00,-176.00,18736.00,-2880.00
16227,94.00,7.00,-180.00,1068.00,-216.00,18700.00,-2880.00
16243,85.00,27.00,-171.00,1164.00,-244.00,18732.00,-2864.00
16260,91.00,34.00,-173.00,1184.00,-176.00,18812.00,-2832.00
16276,101.00,2.00,-202.00,1092.00,-160.00,18628.00,-2880.00
16292,89.00,4.00,-193.00,1148.00,-244.00,18616.00,-2880.00
16309,101.00,-5.00,-163.00,1232.00,-188.00,18728.00,-2896.00
16326,101.00,33.00,-154.00,1184.00,-152.00,18776.00,-2832.00
16343,97.00,1.00,-204.00,1196.00,-276.00,18800.00,-2832.00
16359,109.00,24.00,-184.00,1120.00,-232.00,18676.00,-2880.00
16375,81.00,43.00,-177.00,1136.00,-220.00,18624.00,-2848.00
16392,89.00,-5.00,-183.00,1104.00,-228.00,18860.00,-2848.00
16408,84.00,25.00,-207.00,1072.00,-156.00,18800.00,-2864.00
16424,97.00,29.00,-190.00,1116.00,-192.00,18888.00,-2832.00
16441,108.00,-3.00,-156.00,1224.00,-188.00,18676.00,-2848.00
16457,99.00,-5.00,-201.00,1140.00,-200.00,18720.00,-2848.00
16474,99.00,14.00,-170.00,1164.00,-132.00,18656.00,-2864.00
16490,110.00,8.00,-172.00,1188.00,-244.00,18788.00,-2896.00
16506,110.00,5.00,-166.00,1212.00,-136.00,18824.00,-2864.00
16523,92.00,7.00,-189.00,1184.00,-228.00,18656.00,-2880.00
16539,87.00,4.00,-160.00,1044.00,-196.00,18724.00,-2896.00
16556,103.00,1.00,-194.00,1244.00,-160.00,18852.00,-2896.00
16572,80.00,11.00,-175.00,1084.00,-224.00,18800.00,-2848.00
16588,88.00,13.00,-206.00,1124.00,-132.00,18812.00,-2880.00
16606,92.00,20.00,-179.00,1256.00,-164.00,18820.00,-2848.00
16622,87.00,20.00,-192.00,1184.00,-116.00,18700.00,-2832.00
16638,91.00,15.00,-152.00,1240.00,-200.00,18800.00,-2864.00
16655,113.00,14.00,-195.00,1232.00,-180.00,18904.00,-2848.00
16671,102.00,3.00,-182.00,1140.00,-140.00,18904.00,-2848.00
16688,72.00,11.00,-171.00,1180.00,-324.00,18896.00,-2848.00
16704,105.00,-20.00,-181.00,1108.00,-228.00,18676.00,-2848.00
16720,96.00,-4.00,-173.00,1088.00,-268.00,18780.00,-2880.00
16737,94.00,10.00,-206.00,1248.00,-164.00,18636.00,-2864.00
16753,87.00,0.00,-178.00,1108.00,-260.00,18764.00,-2832.00
16770,100.00,47.00,-164.00,1112.00,-248.00,18872.00,-2832.00
16786,109.00,2.00,-175.00,1180.00,-248.00,18684.00,-2880.00
16802,92.00,17.00,-183.00,1228.00,-160.00,18744.00,-2864.00
16819,98.00,-6.00,-191.00,1120.00,-160.00,18704.00,-2832.00
16835,90.00,33.00,-187.00,1192.00,-124.00,18752.00,-2848.00
16852,105.00,-12.00,-192.00,1168.00,-152.00,18656.00,-2848.00
16869,87.00,19.00,-202.00,1192.00,-244.00,18756.00,-2880.00
16885,85.00,-1.00,-171.00,1140.00,-248.00,18824.00,-2832.00
16902,83.00,19.00,-207.00,1100.00,-200.00,18788.00,-2864.00
16918,72.00,27.00,-193.00,1180.00,-236.00,18716.00,-2880.00
16934,113.00,25.00,-154.00,1088.00,-240.00,18728.00,-2848.00
16951,103.00,18.00,-167.00,1088.00,-276.00,18888.00,-2864.00
16967,115.00,23.00,-192.00,1152.00,-240.00,18796.00,-2848.00
16984,79.00,17.00,-167.00,1164.00,-160.00,18804.00,-2864.00
17000,110.00,-3.00,-158.00,1120.00,-136.00,18740.00,-2848.00
17016,86.00,10.00,-183.00,1208.00,-176.00,18820.00,-2864.00
17033,102.00,17.00,-171.00,1204.00,-104.00,18760.00,-2864.00
17050,67.00,17.00,-197.00,1180.00,-108.00,18656.00,-2832.00
17067,92.00,20.00,-175.00,1128.00,-196.00,18848.00,-2816.00
17083,94.00,-5.00,-178.00,1100.00,-204.00,18836.00,-2848.00
17099,78.00,-10.00,-211.00,1172.00,-228.00,18784.00,-2896.00
17116,104.00,26.00,-190.00,1104.00,-196.00,18616.00,-2832.00
17132,108.00,-2.00,-193.00,1136.00,-168.00,18780.00,-2880.00
17148,85.00,-3.00,-163.00,1180.00,-252.00,18852.00,-2848.00
17165,96.00,5.00,-174.00,1096.00,-196.00,18700.00,-2832.00
17181,100.00,15.00,-207.00,1260.00,-200.00,18724.00,-2848.00
17198,91.00,33.00,-197.00,1164.00,-160.00,18772.00,-2848.00
17214,97.00,51.00,-192.00,1272.00,-252.00,18772.00,-2848.00
17230,108.00,28.00,-159.00,1212.00,-196.00,18800.00,-2864.00
17247,108.00,37.00,-170.00,1168.00,-188.00,18752.00,-2864.00
17263,107.00,-10.00,-173.00,1096.00,-268.00,18700.00,-2864.00
17281,105.00,11.00,-168.00,1084.00,-240.00,18728.00,-2864.00
17297,106.00,34.00,-154.00,1140.00,-132.00,18736.00,-2864.00
17313,79.00,20.00,-166.00,1212.00,-232.00,18828.00,-2864.00
17330,105.00,29.00,-170.00,1096.00,-204.00,18712.00,-2864.00
17346,115.00,-5.00,-155.00,1116.00,-252.00,18744.00,-2832.00
17362,104.00,15.00,-162.00,1112.00,-256.00,18748.00,-2864.00
17379,79.00,23.00,-180.00,1204.00,-156.00,18772.00,-2864.00
17395,84.00,-7.00,-196.00,1156.00,-196.00,18680.00,-2880.00
17412,104.00,33.00,-165.00,1108.00,-212.00,18700.00,-2864.00
17428,81.00,23.00,-168.00,1052.00,-236.00,18724.00,-2880.00
17444,78.00,1.00,-191.00,1152.00,-116.00,18848.00,-2864.00
17461,87.00,13.00,-172.00,1144.00,-240.00,18764.00,-2848.00
17478,92.00,33.00,-166.00,1236.00,-164.00,18720.00,-2880.00
17495,113.00,16.00,-174.00,1148.00,-220.00,18684.00,-2816.00
17511,102.00,-6.00,-201.00,1188.00,-168.00,18688.00,-2816.00
17527,105.00,20.00,-222.00,1120.00,-232.00,18664.00,-2864.00
17544,81.00,-10.00,-184.00,1180.00,-176.00,18620.00,-2832.00
17560,83.00,34.00,-177.00,1148.00,-140.00,18756.00,-2864.00
17576,76.00,-17.00,-179.00,1156.00,-232.00,18832.00,-2848.00
17593,98.00,11.00,-170.00,1140.00,-248.00,18604.00,-2848.00
17609,95.00,19.00,-183.00,1096.00,-276.00,18832.00,-2816.00
17626,84.00,-11.00,-178.00,1108.00,-240.00,18744.00,-2864.00
17642,101.00,23.00,-171.00,1088.00,-208.00,18720.00,-2864.00
17658,109.00,12.00,-187.00,1104.00,-264.00,18836.00,-2832.00
17676,118.00,7.00,-190.00,1116.00,-124.00,18608.00,-2832.00
17692,104.00,20.00,-183.00,1236.00,-156.00,18760.00,-2864.00
17709,93.00,19.00,-185.00,1256.00,-144.00,18900.00,-2864.00
17725,77.00,44.00,-189.00,1192.00,-244.00,18696.00,-2848.00
17741,115.00,22.00,-199.00,1148.00,-196.00,18812.00,-2848.00
17758,91.00,63.00,-183.00,1136.00,-104.00,18840.00,-2848.00
17774,92.00,9.00,-177.00,1128.00,-104.00,18800.00,-2864.00
17790,74.00,11.00,-196.00,1136.00,-180.00,18680.00,-2832.00
17807,103.00,3.00,-174.00,1160.00,-160.00,18740.00,-2880.00
17823,113.00,10.00,-171.00,1100.00,-224.00,18692.00,-2848.00
17840,101.00,34.00,-199.00,1148.00,-148.00,18764.00,-2848.00
17856,88.00,23.00,-167.00,1136.00,-156.00,18780.00,-2848.00
17873,97.00,-14.00,-173.00,1160.00,-164.00,18796.00,-2864.00
17890,105.00,46.00,-208.00,1152.00,-136.00,18928.00,-2864.00
17906,105.00,28.00,-151.00,1132.00,-196.00,18716.00,-2864.00
17923,102.00,-20.00,-194.00,1200.00,-140.00,18808.00,-2864.00
17939,108.00,23.00,-162.00,1180.00,-188.00,18800.00,-2864.00
17955,101.00,15.00,-184.00,1160.00,-240.00,18648.00,-2832.00
17972,105.00,3.00,-185.00,1164.00,-240.00,18736.00,-2864.00
17988,90.00,-11.00,-181.00,1152.00,-204.00,18836.00,-2832.00
18004,78.00,1.00,-192.00,1088.00,-136.00,18584.00,-2880.00
18021,89.00,12.00,-184.00,1196.00,-280.00,18708.00,-2880.00
18037,99.00,14.00,-183.00,1152.00,-228.00,18876.00,-2832.00
18054,100.00,39.00,-166.00,1160.00,-156.00,18852.00,-2864.00
18071,92.00,55.00,-173.00,1084.00,-336.00,18744.00,-2832.00
18087,115.00,20.00,-182.00,1128.00,-104.00,18856.00,-2848.00
18104,99.00,33.00,-186.00,1108.00,-180.00,18860.00,-2816.00
18120,85.00,-11.00,-181.00,1140.00,-244.00,18720.00,-2880.00
18137,90.00,12.00,-185.00,1140.00,-84.00,18676.00,-2864.00
18153,96.00,10.00,-194.00,1148.00,-228.00,18780.00,-2864.00
18169,93.00,-23.00,-186.00,1176.00,-192.00,18760.00,-2848.00
18186,103.00,16.00,-170.00,1068.00,-176.00,18696.00,-2848.00
18202,91.00,-5.00,-148.00,1144.00,-136.00,18876.00,-2848.00
18219,102.00,4.00,-169.00,1156.00,-172.00,18764.00,-2864.00
18235,97.00,35.00,-188.00,1160.00,-232.00,18716.00,-2832.00
18251,94.00,9.00,-171.00,1160.00,-160.00,18984.00,-2832.00
18268,128.00,29.00,-169.00,1248.00,-188.00,18868.00,-2832.00
18284,74.00,38.00,-174.00,1184.00,-272.00,18728.00,-2880.00
18301,102.00,33.00,-175.00,1120.00,-260.00,18816.00,-2864.00
18318,100.00,9.00,-181.00,1244.00,-112.00,18760.00,-2864.00
18334,97.00,2.00,-208.00,1220.00,-164.00,18700.00,-2832.00
18351,95.00,29.00,-189.00,1180.00,-176.00,18692.00,-2816.00
18367,93.00,30.00,-168.00,1216.00,-180.00,18704.00,-2848.00
18383,90.00,14.00,-156.00,1120.00,-252.00,18720.00,-2832.00
18400,91.00,43.00,-173.00,1160.00,-252.00,18716.00,-2864.00
18416,89.00,6.00,-178.00,1084.00,-136.00,18816.00,-2864.00
18433,91.00,0.00,-150.00,1092.00,-144.00,18712.00,-2816.00
18449,101.00,-35.00,-179.00,1168.00,-168.00,18748.00,-2864.00
18465,103.00,15.00,-188.00,1204.00,-160.00,18700.00,-2832.00
18482,97.00,-8.00,-174.00,1172.00,-260.00,18604.00,-2864.00
18498,90.00,13.00,-189.00,1112.00,-172.00,18856.00,-2848.00
18514,102.00,22.00,-160.00,1132.00,-144.00,18732.00,-2848.00
18531,77.00,-5.00,-188.00,1056.00,-124.00,18772.00,-2848.00
18548,94.00,-6.00,-155.00,1152.00,-220.00,18780.00,-2832.00
18565,114.00,4.00,-193.00,1156.00,-236.00,18712.00,-2832.00
18581,83.00,3.00,-177.00,1016.00,-212.00,18788.00,-2848.00
18597,100.00,2.00,-178.00,1160.00,-232.00,18984.00,-2832.00
18614,98.00,-6.00,-182.00,1204.00,-164.00,18872.00,-2864.00
18630,85.00,-3.00,-173.00,1196.00,-200.00,18640.00,-2880.00
18647,116.00,1.00,-158.00,1248.00,-304.00,18808.00,-2864.00
18663,94.00,6.00,-181.00,1156.00,-112.00,18672.00,-2832.00
18679,107.00,4.00,-164.00,1148.00,-120.00,18732.00,-2880.00
18696,76.00,38.00,-177.00,1132.00,-232.00,18876.00,-2880.00
18712,86.00,-5.00,-176.00,1120.00,-220.00,18792.00,-2864.00
18728,97.00,22.00,-159.00,1140.00,-280.00,18828.00,-2848.00
18745,95.00,16.00,-158.00,1120.00,-164.00,18880.00,-2880.00
18761,87.00,54.00,-205.00,1124.00,-188.00,18620.00,-2880.00
18778,74.00,33.00,-190.00,1176.00,-88.00,18844.00,-2864.00
18794,111.00,14.00,-189.00,1208.00,-220.00,18792.00,-2880.00
18810,94.00,2.00,-194.00,1156.00,-160.00,18944.00,-2848.00
18827,100.00,11.00,-192.00,1232.00,-232.00,18672.00,-2864.00
18843,100.00,24.00,-185.00,1192.00,-76.00,18668.00,-2880.00
18860,56.00,12.00,-179.00,1132.00,-212.00,18748.00,-2864.00
18877,97.00,24.00,-197.00,1172.00,-248.00,18744.00,-2832.00
18893,102.00,31.00,-162.00,1084.00,-220.00,18668.00,-2848.00
18910,98.00,40.00,-181.00,1152.00,-184.00,18752.00,-2848.00
18926,72.00,6.00,-183.00,1084.00,-188.00,18768.00,-2880.00
18942,77.00,14.00,-161.00,1228.00,-216.00,18704.00,-2864.00
18959,66.00,3.00,-193.00,1184.00,-168.00,18896.00,-2848.00
18975,80.00,19.00,-166.00,1208.00,-300.00,18876.00,-2832.00
18992,112.00,2.00,-144.00,1220.00,-160.00,18964.00,-2864.00
19008,101.00,3.00,-179.00,1136.00,-176.00,18780.00,-2848.00
19024,94.00,-19.00,-176.00,1180.00,-168.00,18736.00,-2848.00
19041,80.00,42.00,-165.00,1216.00,-156.00,18868.00,-2880.00
19057,121.00,2.00,-142.00,1220.00,-232.00,18744.00,-2864.00
19074,103.00,6.00,-197.00,1112.00,-176.00,18952.00,-2864.00
19090,99.00,8.00,-163.00,1156.00,-196.00,18752.00,-2848.00
19106,127.00,25.00,-166.00,1160.00,-240.00,18824.00,-2848.00
19123,89.00,24.00,-177.00,1160.00,-232.00,18808.00,-2864.00
19140,115.00,41.00,-195.00,1244.00,-268.00,18716.00,-2864.00
19156,98.00,28.00,-189.00,1152.00,-172.00,18728.00,-2864.00
19173,100.00,8.00,-181.00,1100.00,-140.00,18832.00,-2864.00
19189,81.00,-14.00,-185.00,1152.00,-96.00,18928.00,-2880.00
19206,116.00,9.00,-167.00,1080.00,-212.00,18732.00,-2832.00
19222,91.00,15.00,-185.00,1252.00,-196.00,18904.00,-2864.00
19238,106.00,25.00,-177.00,1192.00,-184.00,18756.00,-2848.00
19255,93.00,16.00,-178.00,1060.00,-188.00,18820.00,-2848.00
19271,77.00,29.00,-167.00,1160.00,-308.00,18708.00,-2880.00
19288,87.00,7.00,-173.00,1096.00,-196.00,18672.00,-2880.00
19304,89.00,-8.00,-197.00,1104.00,-80.00,18800.00,-2864.00
19320,96.00,7.00,-176.00,1316.00,-208.00,18788.00,-2880.00
19337,92.00,4.00,-172.00,1140.00,-240.00,18764.00,-2864.00
19353,88.00,-6.00,-195.00,1236.00,-220.00,18696.00,-2848.00
19369,94.00,10.00,-160.00,1164.00,-292.00,18880.00,-2864.00
19386,78.00,9.00,-190.00,1196.00,-148.00,18768.00,-2864.00
19402,101.00,8.00,-196.00,1180.00,-216.00,18876.00,-2848.00
19419,87.00,-7.00,-176.00,1132.00,-52.00,18840.00,-2848.00
19435,85.00,28.00,-183.00,1168.00,-132.00,18892.00,-2896.00
19452,94.00,27.00,-198.00,1180.00,-236.00,18812.00,-2880.00
19469,89.00,37.00,-191.00,1100.00,-160.00,18744.00,-2864.00
19485,80.00,50.00,-184.00,1056.00,-180.00,18752.00,-2832.00
19502,86.00,6.00,-156.00,1056.00,-92.00,18812.00,-2864.00
19518,105.00,-3.00,-175.00,1184.00,-232.00,18640.00,-2880.00
19534,98.00,14.00,-164.00,1096.00,-224.00,18696.00,-2864.00
19551,98.00,-6.00,-181.00,1188.00,-196.00,18816.00,-2864.00
19567,104.00,-27.00,-182.00,1208.00,-204.00,18744.00,-2848.00
19584,91.00,-20.00,-171.00,1152.00,-224.00,18860.00,-2864.00
19600,108.00,25.00,-177.00,1160.00,-180.00,18896.00,-2864.00
19616,91.00,18.00,-197.00,1164.00,-152.00,18836.00,-2832.00
19633,79.00,-2.00,-169.00,1156.00,-96.00,18784.00,-2864.00
19649,91.00,20.00,-176.00,1208.00,-172.00,18752.00,-2848.00
19665,78.00,24.00,-177.00,1168.00,-192.00,18780.00,-2848.00
19682,106.00,-16.00,-176.00,1156.00,-224.00,18792.00,-2864.00
19698,84.00,21.00,-172.00,1188.00,-220.00,18788.00,-2832.00
19716,90.00,22.00,-158.00,1132.00,-228.00,18728.00,-2864.00
19732,102.00,22.00,-183.00,1204.00,-192.00,18676.00,-2848.00
19748,85.00,11.00,-211.00,1124.00,-272.00,18920.00,-2848.00
19765,110.00,11.00,-191.00,1152.00,-160.00,18824.00,-2848.00
19781,89.00,23.00,-170.00,1180.00,-100.00,18776.00,-2848.00
19798,102.00,-3.00,-172.00,1132.00,-208.00,18844.00,-2832.00
19814,74.00,11.00,-202.00,1144.00,-168.00,18772.00,-2896.00
19830,112.00,4.00,-193.00,1276.00,-300.00,18828.00,-2832.00
19847,107.00,36.00,-158.00,1124.00,-160.00,18756.00,-2848.00
19863,123.00,23.00,-201.00,1220.00,-216.00,18784.00,-2848.00
19879,113.00,-26.00,-170.00,1128.00,-188.00,18824.00,-2880.00
19897,105.00,18.00,-167.00,1260.00,-208.00,18832.00,-2848.00
19913,82.00,17.00,-192.00,1128.00,-240.00,18640.00,-2848.00
19930,111.00,-10.00,-147.00,1220.00,-268.00,18756.00,-2848.00
19946,99.00,19.00,-168.00,1204.00,-200.00,18924.00,-2816.00
19962,85.00,24.00,-198.00,1168.00,-240.00,18780.00,-2896.00
19979,73.00,15.00,-189.00,1148.00,-212.00,18696.00,-2864.00
19995,91.00,21.00,-198.00,1136.00,-216.00,18868.00,-2880.00
20012,86.00,48.00,-165.00,1144.00,-204.00,18796.00,-2880.00
20028,108.00,17.00,-213.00,1164.00,-176.00,18628.00,-2848.00
20044,93.00,4.00,-218.00,1152.00,-136.00,18836.00,-2864.00
20061,103.00,-7.00,-169.00,1164.00,-160.00,18776.00,-2864.00
20077,70.00,27.00,-182.00,1236.00,-184.00,18856.00,-2848.00
20093,111.00,0.00,-163.00,1120.00,-168.00,18724.00,-2880.00
20111,65.00,7.00,-179.00,1148.00,-216.00,18684.00,-2832.00
20127,108.00,37.00,-159.00,1168.00,-184.00,18800.00,-2864.00
20144,76.00,27.00,-176.00,1172.00,-216.00,18800.00,-2848.00
20160,73.00,39.00,-215.00,1140.00,-196.00,18724.00,-2848.00
20176,100.00,30.00,-170.00,1164.00,-112.00,18760.00,-2848.00
20193,107.00,19.00,-209.00,1168.00,-256.00,18720.00,-2864.00
20209,103.00,20.00,-203.00,1008.00,-152.00,18832.00,-2832.00
20226,105.00,28.00,-165.00,1092.00,-248.00,18780.00,-2864.00
20242,102.00,31.00,-208.00,1192.00,-200.00,18716.00,-2864.00
20258,83.00,25.00,-182.00,1132.00,-196.00,18760.00,-2864.00
20275,83.00,13.00,-205.00,1140.00,-184.00,18704.00,-2832.00
20292,96.00,5.00,-172.00,1084.00,-116.00,18828.00,-2896.00
20308,92.00,-11.00,-160.00,1204.00,-172.00,18676.00,-2880.00
20325,103.00,22.00,-190.00,1160.00,-172.00,18716.00,-2896.00
20341,86.00,6.00,-203.00,1132.00,-244.00,18796.00,-2864.00
20358,99.00,20.00,-175.00,1096.00,-160.00,18756.00,-2880.00
20374,75.00,37.00,-157.00,1292.00,-204.00,18744.00,-2864.00
20390,77.00,-1.00,-188.00,1056.00,-108.00,18868.00,-2864.00
20407,80.00,16.00,-184.00,1084.00,-288.00,18716.00,-2880.00
20423,113.00,16.00,-188.00,1108.00,-308.00,18632.00,-2880.00
20440,85.00,1.00,-177.00,1084.00,-128.00,18656.00,-2880.00
20456,98.00,18.00,-170.00,1200.00,-176.00,18664.00,-2864.00
20472,112.00,25.00,-191.00,1192.00,-224.00,18820.00,-2896.00
20489,102.00,15.00,-178.00,1168.00,-184.00,18744.00,-2864.00
20505,81.00,14.00,-189.00,1216.00,-116.00,18816.00,-2864.00
20521,108.00,30.00,-190.00,1316.00,-176.00,18816.00,-2832.00
20539,95.00,31.00,-190.00,1176.00,-180.00,18768.00,-2848.00
20555,80.00,42.00,-191.00,1124.00,-160.00,18836.00,-2848.00
20572,105.00,15.00,-187.00,1132.00,-228.00,18744.00,-2848.00
20588,90.00,10.00,-196.00,1100.00,-88.00,18844.00,-2864.00
20604,91.00,12.00,-192.00,1080.00,-280.00,18660.00,-2864.00
20621,111.00,22.00,-185.00,1144.00,-236.00,18852.00,-2880.00
20637,84.00,11.00,-185.00,1144.00,-268.00,18560.00,-2848.00
20654,88.00,-20.00,-174.00,1132.00,-260.00,18716.00,-2848.00
20670,108.00,4.00,-189.00,1096.00,-180.00,18748.00,-2848.00
20686,110.00,20.00,-170.00,1132.00,-244.00,18812.00,-2864.00
20703,109.00,29.00,-184.00,1112.00,-192.00,18824.00,-2864.00
20719,101.00,42.00,-162.00,1240.00,-244.00,18780.00,-2864.00
20737,106.00,11.00,-179.00,1184.00,-164.00,18744.00,-2832.00
20753,101.00,41.00,-172.00,1208.00,-184.00,18784.00,-2832.00
20769,92.00,1.00,-171.00,1260.00,-128.00,18744.00,-2864.00
20786,93.00,6.00,-156.00,1156.00,-240.00,18760.00,-2880.00
20802,111.00,19.00,-165.00,1104.00,-180.00,18796.00,-2864.00
20818,101.00,-6.00,-194.00,1228.00,-192.00,18752.00,-2864.00
20835,90.00,31.00,-179.00,1036.00,-92.00,18652.00,-2864.00
20851,86.00,32.00,-182.00,1108.00,-276.00,18912.00,-2848.00
20868,61.00,36.00,-186.00,1064.00,-152.00,18888.00,-2880.00
20884,99.00,33.00,-181.00,1172.00,-168.00,18764.00,-2864.00
20900,104.00,7.00,-185.00,1192.00,-68.00,18820.00,-2864.00
20917,88.00,16.00,-188.00,1052.00,-128.00,18628.00,-2912.00
20933,84.00,31.00,-181.00,1120.00,-228.00,18744.00,-2848.00
20950,87.00,-18.00,-186.00,1144.00,-252.00,18780.00,-2864.00
20966,93.00,1.00,-180.00,1148.00,-216.00,18820.00,-2832.00
20982,108.00,-6.00,-158.00,1136.00,-312.00,18720.00,-2848.00
21000,116.00,-7.00,-178.00,1148.00,-236.00,18868.00,-2816.00
21016,74.00,6.00,-201.00,1184.00,-160.00,18944.00,-2848.00
21032,86.00,9.00,-187.00,1220.00,-164.00,18668.00,-2864.00
21049,104.00,4.00,-157.00,1156.00,-248.00,18796.00,-2848.00
21065,78.00,28.00,-181.00,1164.00,-232.00,18796.00,-2864.00
21082,93.00,2.00,-167.00,1140.00,-180.00,18768.00,-2832.00
21098,99.00,22.00,-171.00,1120.00,-200.00,18784.00,-2848.00
21114,100.00,22.00,-146.00,1096.00,-144.00,18732.00,-2880.00
21131,93.00,-8.00,-181.00,1080.00,-112.00,18744.00,-2848.00
21147,77.00,29.00,-173.00,1112.00,-160.00,18812.00,-2864.00
21164,86.00,-9.00,-167.00,1164.00,-260.00,18772.00,-2848.00
21180,90.00,26.00,-150.00,1196.00,-188.00,18744.00,-2896.00
21196,97.00,-8.00,-162.00,1172.00,-228.00,18796.00,-2896.00
21213,101.00,28.00,-204.00,1152.00,-204.00,18744.00,-2864.00
21229,83.00,19.00,-175.00,1264.00,-316.00,18724.00,-2864.00
21245,107.00,3.00,-196.00,1208.00,-204.00,18656.00,-2880.00
21262,87.00,-7.00,-179.00,1264.00,-136.00,18752.00,-2880.00
21278,101.00,41.00,-166.00,1204.00,-92.00,18716.00,-2864.00
21296,84.00,-6.00,-191.00,1172.00,-176.00,18672.00,-2864.00
21312,79.00,26.00,-152.00,1124.00,-276.00,18700.00,-2848.00
21328,117.00,0.00,-201.00,1092.00,-212.00,18760.00,-2832.00
21345,108.00,-7.00,-188.00,1280.00,-276.00,18668.00,-2864.00
21361,91.00,16.00,-180.00,1156.00,-216.00,18780.00,-2832.00
21378,97.00,16.00,-196.00,1188.00,-268.00,18844.00,-2880.00
21394,112.00,2.00,-184.00,1160.00,-124.00,18776.00,-2848.00
21410,118.00,26.00,-189.00,1188.00,-252.00,18764.00,-2864.00
21427,110.00,25.00,-195.00,1148.00,-128.00,18832.00,-2864.00
21443,94.00,7.00,-190.00,1160.00,-260.00,18724.00,-2864.00
21459,96.00,26.00,-216.00,1176.00,-192.00,18604.00,-2864.00
21476,100.00,5.00,-198.00,1108.00,-160.00,18836.00,-2848.00
21492,84.00,25.00,-205.00,1176.00,-208.00,18812.00,-2880.00
21509,82.00,18.00,-171.00,1092.00,-324.00,18744.00,-2832.00
21526,100.00,15.00,-173.00,1204.00,-176.00,18728.00,-2864.00
21542,84.00,23.00,-194.00,1064.00,-244.00,18624.00,-2864.00
21559,93.00,26.00,-191.00,1180.00,-200.00,18744.00,-2864.00
21575,84.00,-3.00,-175.00,1236.00,-224.00,18748.00,-2880.00
21592,73.00,-27.00,-162.00,1276.00,-160.00,18688.00,-2848.00
21608,74.00,34.00,-182.00,1036.00,-224.00,18772.00,-2832.00
21624,103.00,18.00,-185.00,1232.00,-172.00,18876.00,-2832.00
21641,97.00,9.00,-181.00,1168.00,-232.00,18644.00,-2832.00
21657,97.00,26.00,-186.00,1220.00,-136.00,18668.00,-2848.00
21673,86.00,36.00,-163.00,1144.00,-248.00,18724.00,-2848.00
21690,80.00,35.00,-188.00,1196.00,-204.00,18848.00,-2864.00
21706,77.00,12.00,-172.00,1144.00,-196.00,18772.00,-2864.00
21723,96.00,-6.00,-172.00,1100.00,-236.00,18704.00,-2896.00
21739,86.00,34.00,-177.00,1148.00,-140.00,18712.00,-2880.00
21755,110.00,0.00,-178.00,1132.00,-168.00,18728.00,-2848.00
21772,79.00,24.00,-199.00,1132.00,-180.00,18816.00,-2864.00
21789,94.00,18.00,-178.00,1068.00,-216.00,18700.00,-2864.00
21806,97.00,10.00,-169.00,1148.00,-264.00,18736.00,-2848.00
21822,105.00,26.00,-186.00,1192.00,-196.00,18720.00,-2880.00
21838,72.00,24.00,-190.00,1180.00,-72.00,18844.00,-2896.00
21855,79.00,12.00,-200.00,1260.00,-236.00,18772.00,-2864.00
21871,93.00,36.00,-193.00,1176.00,-208.00,18796.00,-2848.00
21888,107.00,13.00,-185.00,1176.00,-144.00,18944.00,-2880.00
21904,110.00,14.00,-186.00,1140.00,-324.00,18748.00,-2848.00
21920,75.00,20.00,-164.00,1220.00,-208.00,18668.00,-2848.00
21937,109.00,22.00,-195.00,1148.00,-176.00,18616.00,-2864.00
21953,119.00,4.00,-214.00,1148.00,-168.00,18936.00,-2864.00
21969,101.00,38.00,-208.00,1120.00,-160.00,18700.00,-2864.00
21987,92.00,-12.00,-175.00,1136.00,-192.00,18676.00,-2832.00
22003,91.00,-9.00,-197.00,1216.00,-120.00,18832.00,-2832.00
22020,87.00,21.00,-171.00,1144.00,-188.00,18768.00,-2864.00
22036,74.00,10.00,-157.00,1140.00,-132.00,18720.00,-2864.00
22052,79.00,4.00,-176.00,1180.00,-256.00,18792.00,-2832.00
22069,86.00,18.00,-187.00,1160.00,-168.00,18772.00,-2880.00
22085,84.00,1.00,-161.00,1236.00,-164.00,18744.00,-2880.00
22102,84.00,-19.00,-189.00,1148.00,-232.00,18740.00,-2864.00
22118,103.00,-2.00,-208.00,1208.00,-196.00,18872.00,-2848.00
22134,114.00,-15.00,-158.00,1232.00,-160.00,18832.00,-2848.00
22151,91.00,30.00,-155.00,1200.00,-188.00,18652.00,-2848.00
22167,108.00,19.00,-174.00,1108.00,-224.00,18892.00,-2864.00
22183,90.00,40.00,-185.00,1116.00,-196.00,18736.00,-2848.00
22200,101.00,-5.00,-165.00,1144.00,-128.00,18828.00,-2832.00
22216,99.00,13.00,-193.00,1164.00,-132.00,18704.00,-2864.00
22234,80.00,15.00,-211.00,1160.00,-256.00,18768.00,-2864.00
22250,87.00,-6.00,-145.00,1120.00,-276.00,18784.00,-2848.00
22266,94.00,-8.00,-195.00,1128.00,-128.00,18780.00,-2880.00
22283,98.00,27.00,-178.00,1096.00,-144.00,18840.00,-2832.00
22299,95.00,27.00,-182.00,1124.00,-208.00,18712.00,-2880.00
22316,102.00,43.00,-215.00,1160.00,-240.00,18640.00,-2896.00
22332,89.00,7.00,-178.00,1132.00,-304.00,18724.00,-2880.00
22348,113.00,22.00,-207.00,1104.00,-212.00,18628.00,-2864.00
22365,95.00,25.00,-158.00,1224.00,-140.00,18916.00,-2832.00
22381,109.00,25.00,-185.00,1196.00,-124.00,18812.00,-2848.00
22397,97.00,-5.00,-181.00,1204.00,-184.00,18636.00,-2848.00
22414,106.00,34.00,-188.00,1128.00,-228.00,18804.00,-2848.00
22430,87.00,-6.00,-174.00,1188.00,-180.00,18900.00,-2848.00
22447,122.00,5.00,-167.00,1224.00,-132.00,18960.00,-2832.00
22463,110.00,34.00,-169.00,1204.00,-288.00,18800.00,-2864.00
22480,68.00,16.00,-171.00,1136.00,-216.00,18944.00,-2864.00
22497,105.00,47.00,-145.00,1140.00,-196.00,18760.00,-2880.00
22513,85.00,-6.00,-179.00,1164.00,-124.00,18768.00,-2848.00
22530,73.00,17.00,-207.00,1244.00,-136.00,18756.00,-2864.00
22546,103.00,-24.00,-179.00,1204.00,-220.00,18716.00,-2864.00
22562,101.00,6.00,-192.00,1216.00,-320.00,18660.00,-2864.00
22579,90.00,9.00,-170.00,1140.00,-248.00,18672.00,-2880.00
22595,87.00,16.00,-172.00,1080.00,-184.00,18680.00,-2848.00
22611,106.00,2.00,-216.00,1208.00,-100.00,18772.00,-2832.00
22628,87.00,1.00,-198.00,1224.00,-196.00,18732.00,-2832.00
22644,82.00,16.00,-176.00,1112.00,-116.00,18844.00,-2848.00
22661,81.00,14.00,-166.00,1124.00,-184.00,18600.00,-2848.00
22677,100.00,11.00,-189.00,1140.00,-184.00,18888.00,-2832.00
22693,107.00,-3.00,-160.00,1168.00,-196.00,18720.00,-2848.00
22711,111.00,-8.00,-176.00,1136.00,-188.00,18916.00,-2896.00
22727,80.00,30.00,-178.00,1132.00,-212.00,18692.00,-2864.00
22744,90.00,7.00,-168.00,1200.00,-232.00,18860.00,-2848.00
22760,97.00,5.00,-171.00,1288.00,-248.00,18836.00,-2848.00
22776,89.00,0.00,-159.00,1176.00,-224.00,18724.00,-2864.00
22793,100.00,16.00,-162.00,1128.00,-112.00,18844.00,-2832.00
22809,93.00,25.00,-179.00,1084.00,-236.00,18732.00,-2848.00
22825,58.00,29.00,-207.00,1136.00,-232.00,18752.00,-2864.00
22842,91.00,6.00,-157.00,1204.00,-224.00,18740.00,-2864.00
22858,114.00,3.00,-195.00,1152.00,-164.00,18788.00,-2848.00
22875,109.00,30.00,-188.00,1104.00,-152.00,18772.00,-2848.00
22891,96.00,-10.00,-193.00,1164.00,-312.00,18716.00,-2880.00
22907,82.00,39.00,-198.00,1128.00,-120.00,18836.00,-2832.00
22924,89.00,0.00,-185.00,1132.00,-220.00,18728.00,-2864.00
22940,93.00,-19.00,-187.00,1276.00,-264.00,18696.00,-2848.00
22957,89.00,2.00,-172.00,1128.00,-196.00,18672.00,-2848.00
22973,90.00,23.00,-177.00,1220.00,-188.00,18720.00,-2832.00
22989,99.00,9.00,-173.00,1272.00,-204.00,18616.00,-2864.00
23006,118.00,9.00,-128.00,1160.00,-164.00,18824.00,-2848.00
23023,79.00,26.00,-167.00,1224.00,-124.00,18772.00,-2832.00
23040,87.00,15.00,-177.00,1160.00,-128.00,18820.00,-2864.00
23056,94.00,15.00,-183.00,1168.00,-156.00,18812.00,-2880.00
23072,96.00,-7.00,-156.00,1088.00,-164.00,18780.00,-2848.00
23089,83.00,23.00,-184.00,1224.00,-260.00,18760.00,-2864.00
23105,80.00,-16.00,-181.00,1188.00,-244.00,18736.00,-2832.00
23121,78.00,2.00,-165.00,1056.00,-196.00,18668.00,-2848.00
23138,97.00,8.00,-170.00,1164.00,-184.00,18716.00,-2880.00
23154,69.00,5.00,-201.00,1140.00,-252.00,18740.00,-2864.00
23171,98.00,-21.00,-164.00,1172.00,-320.00,18820.00,-2848.00
23187,83.00,22.00,-186.00,1048.00,-276.00,18824.00,-2848.00
23203,89.00,9.00,-156.00,1164.00,-176.00,18612.00,-2864.00
23220,79.00,26.00,-175.00,1064.00,-192.00,18724.00,-2880.00
23236,95.00,8.00,-190.00,1188.00,-296.00,18696.00,-2880.00
23252,93.00,-8.00,-171.00,1092.00,-168.00,18744.00,-2864.00
23269,118.00,15.00,-160.00,1180.00,-176.00,18636.00,-2848.00
23285,113.00,15.00,-151.00,1192.00,-276.00,18880.00,-2864.00
23302,102.00,24.00,-186.00,1204.00,-100.00,18852.00,-2864.00
23319,109.00,29.00,-204.00,1212.00,-276.00,18832.00,-2848.00
23335,122.00,31.00,-181.00,1184.00,-124.00,18616.00,-2816.00
23352,113.00,30.00,-200.00,1188.00,-152.00,18864.00,-2880.00
23368,117.00,44.00,-181.00,1136.00,-144.00,18744.00,-2880.00
23385,99.00,23.00,-194.00,1276.00,-216.00,18596.00,-2848.00
23401,98.00,30.00,-151.00,1164.00,-176.00,18748.00,-2880.00
23417,114.00,27.00,-183.00,1092.00,-188.00,18676.00,-2864.00
23434,103.00,20.00,-174.00,1128.00,-188.00,18820.00,-2832.00
23450,88.00,27.00,-165.00,1076.00,-208.00,18624.00,-2832.00
23467,111.00,7.00,-172.00,1108.00,-268.00,18812.00,-2864.00
23484,106.00,9.00,-188.00,1152.00,-236.00,18764.00,-2864.00
23500,107.00,31.00,-190.00,1104.00,-276.00,18664.00,-2848.00
23517,74.00,24.00,-152.00,1148.00,-228.00,18876.00,-2848.00
23533,109.00,23.00,-174.00,1156.00,-140.00,18804.00,-2848.00
23549,91.00,14.00,-195.00,1208.00,-116.00,18756.00,-2880.00
23566,85.00,11.00,-170.00,1216.00,-180.00,18788.00,-2864.00
23582,85.00,13.00,-203.00,1148.00,-232.00,18844.00,-2864.00
23599,73.00,48.00,-186.00,1244.00,-204.00,18684.00,-2864.00
23615,90.00,25.00,-162.00,1128.00,-340.00,18752.00,-2880.00
23631,85.00,30.00,-184.00,1112.00,-220.00,18888.00,-2880.00
23648,95.00,-4.00,-200.00,1152.00,-268.00,18840.00,-2848.00
23664,87.00,19.00,-201.00,1100.00,-152.00,18844.00,-2864.00
23681,100.00,11.00,-216.00,1252.00,-196.00,18820.00,-2848.00
23698,93.00,1.00,-185.00,1144.00,-188.00,18828.00,-2880.00
23714,112.00,31.00,-184.00,1196.00,-80.00,18780.00,-2880.00
23731,109.00,3.00,-179.00,1164.00,-188.00,18728.00,-2832.00
23747,101.00,13.00,-197.00,1180.00,-180.00,18728.00,-2864.00
23763,98.00,7.00,-203.00,1128.00,-128.00,18764.00,-2864.00
23780,104.00,18.00,-181.00,1120.00,-108.00,18808.00,-2880.00
23796,101.00,16.00,-178.00,1148.00,-248.00,18804.00,-2848.00
23813,97.00,-1.00,-203.00,1132.00,-188.00,18728.00,-2864.00
23829,110.00,25.00,-198.00,1084.00,-144.00,18672.00,-2864.00
23845,104.00,10.00,-170.00,1192.00,-264.00,18716.00,-2896.00
23862,88.00,-4.00,-180.00,1204.00,-248.00,18788.00,-2832.00
23878,96.00,7.00,-166.00,1080.00,-236.00,18772.00,-2880.00
23895,107.00,12.00,-153.00,1136.00,-204.00,18752.00,-2880.00
23911,93.00,-3.00,-174.00,1108.00,-180.00,18808.00,-2848.00
23927,99.00,2.00,-196.00,1172.00,-204.00,18724.00,-2832.00
23944,87.00,29.00,-197.00,1180.00,-192.00,18796.00,-2848.00
23961,108.00,12.00,-196.00,1052.00,-164.00,18780.00,-2864.00
23977,98.00,32.00,-180.00,1184.00,-180.00,18948.00,-2880.00
23994,95.00,-11.00,-187.00,1280.00,-224.00,18716.00,-2864.00
24010,111.00,46.00,-202.00,1164.00,-120.00,18880.00,-2832.00
24027,98.00,12.00,-204.00,1168.00,-176.00,18716.00,-2864.00
24043,87.00,31.00,-174.00,1008.00,-272.00,18808.00,-2848.00
24059,98.00,17.00,-146.00,1204.00,-180.00,18688.00,-2880.00
24076,78.00,19.00,-179.00,1120.00,-292.00,18696.00,-2864.00
24092,87.00,9.00,-198.00,1188.00,-176.00,18800.00,-2864.00
24109,87.00,6.00,-171.00,1136.00,-232.00,18804.00,-2848.00
24125,101.00,1.00,-194.00,1108.00,-192.00,18804.00,-2832.00
24141,101.00,7.00,-191.00,1196.00,-172.00,18872.00,-2832.00
24158,90.00,-1.00,-191.00,1192.00,-252.00,18640.00,-2864.00
24174,103.00,-1.00,-168.00,1180.00,-96.00,18752.00,-2848.00
24190,104.00,33.00,-176.00,1128.00,-132.00,18820.00,-2864.00
24208,96.00,35.00,-216.00,1104.00,-148.00,18900.00,-2832.00
24224,112.00,0.00,-205.00,1180.00,-168.00,18756.00,-2864.00
24241,86.00,13.00,-205.00,1220.00,-156.00,18776.00,-2848.00
24257,97.00,9.00,-200.00,1232.00,-156.00,18744.00,-2864.00
24273,118.00,7.00,-189.00,1264.00,-168.00,18760.00,-2864.00
24290,86.00,11.00,-211.00,1208.00,-252.00,18772.00,-2832.00
24306,98.00,-6.00,-179.00,1056.00,-180.00,18692.00,-2848.00
24323,88.00,-14.00,-169.00,1088.00,-204.00,18740.00,-2864.00
24339,97.00,-8.00,-172.00,1244.00,-164.00,18696.00,-2864.00
24355,125.00,-11.00,-207.00,1232.00,-168.00,18876.00,-2848.00
24372,74.00,33.00,-199.00,1068.00,-156.00,18844.00,-2880.00
24388,97.00,3.00,-193.00,1108.00,-224.00,18900.00,-2848.00
24404,88.00,31.00,-158.00,1044.00,-228.00,18684.00,-2864.00
24421,106.00,-1.00,-168.00,1088.00,-272.00,18708.00,-2864.00
24437,120.00,9.00,-159.00,1088.00,-336.00,18972.00,-2848.00
24454,106.00,14.00,-157.00,1116.00,-244.00,18820.00,-2848.00
24471,94.00,-1.00,-147.00,1132.00,-220.00,18804.00,-2848.00
24487,128.00,7.00,-152.00,1124.00,-168.00,18816.00,-2864.00
24504,99.00,14.00,-161.00,1152.00,-192.00,18708.00,-2864.00
24520,100.00,-6.00,-145.00,1252.00,-176.00,18692.00,-2848.00
24537,78.00,5.00,-140.00,1328.00,-132.00,18780.00,-2848.00
24553,114.00,4.00,-196.00,1296.00,-148.00,18864.00,-2864.00
24569,86.00,36.00,-168.00,1176.00,-212.00,18584.00,-2864.00
24586,100.00,14.00,-204.00,1092.00,-268.00,18816.00,-2816.00
24602,85.00,44.00,-179.00,1204.00,-268.00,18796.00,-2816.00
24619,91.00,16.00,-170.00,1160.00,-224.00,18656.00,-2848.00
24635,81.00,16.00,-166.00,1116.00,-132.00,18948.00,-2848.00
24651,98.00,-6.00,-190.00,1200.00,-180.00,18680.00,-2832.00
24668,105.00,25.00,-162.00,1132.00,-200.00,18624.00,-2880.00
24684,96.00,6.00,-192.00,1144.00,-204.00,18808.00,-2848.00
24700,97.00,5.00,-196.00,1220.00,-200.00,18844.00,-2864.00
24717,100.00,26.00,-165.00,1204.00,-156.00,18812.00,-2832.00
24734,92.00,5.00,-166.00,1200.00,-252.00,18504.00,-2864.00
24751,95.00,-20.00,-185.00,1188.00,-268.00,18724.00,-2848.00
24767,102.00,9.00,-159.00,1120.00,-160.00,18868.00,-2848.00
24783,100.00,12.00,-163.00,1140.00,-216.00,18876.00,-2864.00
24800,114.00,-1.00,-170.00,1100.00,-212.00,18816.00,-2896.00
24816,98.00,-5.00,-172.00,1180.00,-264.00,18800.00,-2832.00
24833,70.00,-28.00,-176.00,1176.00,-92.00,18788.00,-2848.00
24849,96.00,22.00,-177.00,1164.00,-140.00,18696.00,-2832.00
24865,88.00,14.00,-169.00,1132.00,-172.00,18944.00,-2864.00
24882,128.00,6.00,-182.00,1084.00,-216.00,18660.00,-2848.00
24898,97.00,17.00,-147.00,1212.00,-188.00,18744.00,-2848.00
24914,117.00,12.00,-164.00,1156.00,-124.00,18832.00,-2848.00
24931,84.00,1.00,-156.00,1260.00,-256.00,18832.00,-2848.00
24947,86.00,4.00,-172.00,1204.00,-232.00,18768.00,-2864.00
24964,73.00,15.00,-172.00,1236.00,-256.00,18652.00,-2848.00
24980,102.00,2.00,-200.00,1296.00,-172.00,18704.00,-2848.00
24996,90.00,34.00,-186.00,1188.00,-228.00,18724.00,-2864.00
25014,96.00,30.00,-176.00,1200.00,-168.00,18692.00,-2864.00
25030,84.00,29.00,-176.00,1192.00,-204.00,18804.00,-2864.00
25047,85.00,-1.00,-177.00,1200.00,-128.00,18956.00,-2880.00
25063,92.00,5.00,-183.00,1244.00,-224.00,18812.00,-2880.00
25079,87.00,22.00,-196.00,1204.00,-212.00,18720.00,-2864.00
25096,96.00,23.00,-190.00,1132.00,-224.00,18668.00,-2848.00
25112,72.00,23.00,-194.00,1092.00,-248.00,18792.00,-2832.00
25128,98.00,28.00,-162.00,1256.00,-92.00,18816.00,-2864.00
25145,117.00,8.00,-189.00,1116.00,-148.00,18652.00,-2880.00
25161,91.00,23.00,-164.00,1180.00,-244.00,18748.00,-2848.00
25178,114.00,-4.00,-194.00,1264.00,-240.00,18828.00,-2848.00
25194,90.00,27.00,-201.00,1188.00,-200.00,18936.00,-2832.00
25210,89.00,7.00,-179.00,1072.00,-308.00,18852.00,-2832.00
25227,102.00,26.00,-168.00,1168.00,-180.00,18768.00,-2880.00
25243,109.00,36.00,-191.00,1160.00,-188.00,18708.00,-2880.00
25260,112.00,-1.00,-202.00,1168.00,-120.00,18652.00,-2880.00
25277,98.00,3.00,-194.00,1172.00,-236.00,18900.00,-2848.00
25293,89.00,1.00,-196.00,1096.00,-144.00,18852.00,-2896.00
25310,97.00,18.00,-161.00,1200.00,-192.00,18752.00,-2848.00
25326,93.00,27.00,-163.00,1216.00,-252.00,18724.00,-2880.00
25342,107.00,19.00,-184.00,1168.00,-208.00,18692.00,-2848.00
25359,91.00,7.00,-196.00,1208.00,-208.00,18868.00,-2864.00
25375,96.00,36.00,-187.00,1208.00,-168.00,18736.00,-2864.00
25392,90.00,17.00,-179.00,1168.00,-124.00,18848.00,-2848.00
25408,111.00,-2.00,-190.00,1204.00,-244.00,18740.00,-2848.00
25424,100.00,20.00,-187.00,1164.00,-356.00,18692.00,-2848.00
25441,80.00,32.00,-171.00,1092.00,-168.00,18704.00,-2864.00
25457,85.00,11.00,-193.00,1160.00,-240.00,18816.00,-2896.00
25474,105.00,3.00,-189.00,1044.00,-172.00,18776.00,-2864.00
25490,67.00,10.00,-174.00,1180.00,-252.00,18800.00,-2896.00
25506,94.00,12.00,-185.00,1252.00,-156.00,18732.00,-2880.00
25524,70.00,33.00,-200.00,1252.00,-148.00,18864.00,-2880.00
25540,85.00,10.00,-174.00,1112.00,-196.00,18824.00,-2880.00
25556,95.00,-8.00,-173.00,1184.00,-124.00,18860.00,-2864.00
25573,101.00,23.00,-181.00,1148.00,-216.00,18804.00,-2880.00
25589,94.00,38.00,-167.00,1108.00,-244.00,18684.00,-2848.00
25606,96.00,4.00,-165.00,1096.00,-232.00,18884.00,-2880.00
25622,88.00,2.00,-175.00,1120.00,-180.00,18960.00,-2864.00
25638,63.00,19.00,-163.00,1224.00,-160.00,18660.00,-2848.00
25655,84.00,0.00,-184.00,1188.00,-144.00,18760.00,-2880.00
25671,89.00,0.00,-190.00,1244.00,-156.00,18924.00,-2864.00
25688,91.00,32.00,-171.00,1172.00,-144.00,18648.00,-2848.00
25704,80.00,28.00,-166.00,1136.00,-256.00,18732.00,-2864.00
25720,86.00,26.00,-181.00,1184.00,-272.00,18744.00,-2864.00
25737,108.00,15.00,-175.00,1088.00,-232.00,18736.00,-2864.00
25753,104.00,7.00,-182.00,1136.00,-264.00,18716.00,-2864.00
25769,98.00,-4.00,-172.00,1216.00,-168.00,18812.00,-2832.00
25786,84.00,-3.00,-173.00,1108.00,-228.00,18960.00,-2848.00
25802,102.00,5.00,-186.00,1160.00,-108.00,18812.00,-2864.00
25819,104.00,36.00,-146.00,1264.00,-260.00,18724.00,-2832.00
25836,115.00,-14.00,-168.00,1272.00,-232.00,18684.00,-2864.00
25852,103.00,11.00,-153.00,1120.00,-252.00,18848.00,-2864.00
25869,93.00,25.00,-200.00,1156.00,-120.00,18852.00,-2864.00
25885,113.00,22.00,-197.00,1208.00,-112.00,18948.00,-2848.00
25902,91.00,20.00,-181.00,1188.00,-96.00,18668.00,-2848.00
25918,87.00,23.00,-162.00,1212.00,-200.00,18632.00,-2864.00
25934,89.00,-1.00,-157.00,1164.00,-236.00,18824.00,-2832.00
25951,100.00,43.00,-201.00,1236.00,-240.00,18952.00,-2880.00
25967,99.00,30.00,-184.00,1224.00,-232.00,18820.00,-2848.00
25984,114.00,9.00,-212.00,1224.00,-188.00,18804.00,-2880.00
26000,95.00,40.00,-172.00,1208.00,-228.00,18724.00,-2864.00
26016,96.00,13.00,-147.00,1160.00,-156.00,18656.00,-2832.00
26033,108.00,8.00,-175.00,1168.00,-192.00,18872.00,-2896.00
26050,84.00,14.00,-178.00,1176.00,-184.00,18832.00,-2880.00
26066,102.00,-6.00,-162.00,1204.00,-116.00,18700.00,-2864.00
26083,108.00,32.00,-169.00,1132.00,-216.00,18572.00,-2864.00
26099,92.00,13.00,-161.00,1148.00,-260.00,18896.00,-2864.00
26116,102.00,16.00,-171.00,1040.00,-224.00,18832.00,-2864.00
26132,76.00,1.00,-183.00,1120.00,-212.00,18848.00,-2864.00
26148,93.00,21.00,-176.00,1148.00,-168.00,18684.00,-2848.00
26165,97.00,6.00,-167.00,1188.00,-108.00,18712.00,-2848.00
26181,100.00,41.00,-179.00,1136.00,-196.00,18684.00,-2832.00
26198,87.00,21.00,-177.00,1120.00,-256.00,18848.00,-2864.00
26214,83.00,-10.00,-178.00,1236.00,-248.00,18872.00,-2864.00
