t,gx,gy,gz,ax,ay,az,temp
3,227.00,-209.00,-214.00,948.00,1044.00,18692.00,-2736.00
19,133.00,-173.00,-82.00,920.00,868.00,18688.00,-2720.00
35,169.00,-105.00,-5.00,1124.00,1044.00,18792.00,-2688.00
52,135.00,-4.00,62.00,968.00,1140.00,18740.00,-2704.00
68,25.00,192.00,132.00,960.00,980.00,18756.00,-2704.00
83,203.00,97.00,58.00,972.00,684.00,18756.00,-2672.00
100,561.00,-37.00,-83.00,908.00,924.00,18760.00,-2672.00
116,483.00,-75.00,-223.00,956.00,1292.00,18652.00,-2720.00
133,217.00,189.00,-158.00,1012.00,1052.00,18396.00,-2704.00
149,252.00,85.00,-229.00,588.00,936.00,18476.00,-2704.00
165,314.00,-31.00,-164.00,812.00,1172.00,18404.00,-2688.00
182,201.00,79.00,28.00,776.00,1292.00,18236.00,-2720.00
198,218.00,-69.00,-95.00,568.00,1312.00,18412.00,-2704.00
215,210.00,-167.00,-122.00,820.00,1344.00,18552.00,-2704.00
231,146.00,-81.00,54.00,836.00,1280.00,18512.00,-2704.00
247,85.00,-135.00,-163.00,908.00,1296.00,18680.00,-2688.00
264,-51.00,-62.00,-389.00,1092.00,1232.00,18680.00,-2688.00
280,-88.00,-29.00,-157.00,928.00,620.00,18556.00,-2704.00
296,136.00,-92.00,-80.00,980.00,880.00,18592.00,-2704.00
313,44.00,-64.00,-327.00,1104.00,1152.00,18820.00,-2720.00
329,-104.00,222.00,-47.00,988.00,1000.00,18508.00,-2688.00
346,29.00,297.00,378.00,436.00,284.00,18536.00,-2672.00
362,489.00,-330.00,-437.00,652.00,992.00,18644.00,-2720.00
378,236.00,-228.00,-603.00,1304.00,1632.00,18800.00,-2704.00
396,-200.00,395.00,38.00,1188.00,1280.00,18472.00,-2720.00
412,-111.00,261.00,392.00,460.00,440.00,18676.00,-2704.00
429,451.00,-407.00,-365.00,456.00,1012.00,18640.00,-2704.00
445,225.00,-264.00,-482.00,1088.00,1564.00,18580.00,-2704.00
461,-36.00,295.00,346.00,1084.00,844.00,18516.00,-2704.00
478,213.00,-50.00,-14.00,848.00,836.00,18692.00,-2688.00
494,334.00,-211.00,-476.00,1004.00,1280.00,18808.00,-2704.00
510,78.00,120.00,-196.00,1108.00,1128.00,18588.00,-2704.00
527,-19.00,366.00,271.00,972.00,912.00,18588.00,-2704.00
543,126.00,192.00,10.00,696.00,912.00,18620.00,-2720.00
560,267.00,-56.00,-325.00,508.00,1100.00,18452.00,-2704.00
576,366.00,-182.00,-538.00,780.00,1136.00,18752.00,-2688.00
592,279.00,-206.00,-587.00,780.00,1092.00,18480.00,-2720.00
609,163.00,-19.00,-240.00,1092.00,1140.00,18524.00,-2672.00
625,13.00,105.00,-121.00,848.00,1188.00,18500.00,-2672.00
642,24.00,47.00,-121.00,756.00,1036.00,18476.00,-2720.00
658,140.00,-12.00,-134.00,740.00,948.00,18508.00,-2672.00
674,249.00,-40.00,-200.00,736.00,1060.00,18536.00,-2720.00
691,267.00,-164.00,-272.00,848.00,1244.00,18760.00,-2688.00
707,110.00,-80.00,-211.00,792.00,1164.00,18644.00,-2704.00
723,47.00,-44.00,-264.00,956.00,1168.00,18636.00,-2704.00
740,20.00,-4.00,-267.00,1080.00,976.00,18624.00,-2688.00
756,104.00,-4.00,-192.00,900.00,844.00,18664.00,-2672.00
773,264.00,-26.00,-151.00,988.00,952.00,18516.00,-2704.00
789,183.00,99.00,-77.00,892.00,1216.00,18592.00,-2688.00
805,150.00,199.00,-100.00,764.00,1120.00,18660.00,-2672.00
822,132.00,33.00,-316.00,648.00,928.00,18700.00,-2704.00
838,166.00,6.00,-136.00,716.00,1032.00,18384.00,-2688.00
855,281.00,-60.00,-125.00,904.00,988.00,18500.00,-2704.00
871,222.00,-10.00,-114.00,976.00,1268.00,18428.00,-2688.00
887,147.00,82.00,-72.00,984.00,1260.00,18696.00,-2736.00
904,119.00,95.00,-77.00,796.00,1196.00,18596.00,-2720.00
920,229.00,-8.00,-286.00,776.00,1308.00,18676.00,-2736.00
936,123.00,17.00,-319.00,936.00,1192.00,18584.00,-2704.00
953,42.00,98.00,-209.00,864.00,976.00,18508.00,-2704.00
969,288.00,-127.00,-246.00,720.00,876.00,18412.00,-2688.00
986,330.00,-212.00,-398.00,948.00,1360.00,18616.00,-2736.00
1002,22.00,50.00,-226.00,884.00,1136.00,18820.00,-2704.00
1018,26.00,103.00,-184.00,920.00,1076.00,18584.00,-2720.00
1035,117.00,181.00,-180.00,984.00,1112.00,18432.00,-2688.00
1051,85.00,106.00,-189.00,724.00,1072.00,18516.00,-2688.00
1068,213.00,-58.00,-254.00,644.00,956.00,18384.00,-2720.00
1085,387.00,-234.00,-295.00,684.00,1184.00,18544.00,-2704.00
1101,258.00,-207.00,-124.00,1028.00,1524.00,18580.00,-2688.00
1118,-35.00,45.00,23.00,1008.00,1428.00,18716.00,-2688.00
1134,-1.00,139.00,-100.00,1020.00,1168.00,18620.00,-2704.00
1150,22.00,53.00,-277.00,820.00,924.00,18560.00,-2704.00
1167,95.00,-54.00,-339.00,816.00,1104.00,18532.00,-2688.00
1183,41.00,67.00,-95.00,876.00,948.00,18612.00,-2704.00
1200,106.00,39.00,-73.00,816.00,868.00,18708.00,-2656.00
1216,327.00,-68.00,-203.00,636.00,1012.00,18620.00,-2704.00
1232,263.00,-91.00,-232.00,940.00,1208.00,18632.00,-2704.00
1249,124.00,86.00,-136.00,704.00,1296.00,18584.00,-2720.00
1265,163.00,-5.00,-111.00,872.00,1072.00,18664.00,-2720.00
1282,124.00,-45.00,-183.00,968.00,1176.00,18692.00,-2704.00
1298,36.00,48.00,-70.00,1148.00,1332.00,18640.00,-2672.00
1314,75.00,144.00,-16.00,1076.00,1064.00,18540.00,-2688.00
1331,200.00,70.00,-119.00,916.00,1240.00,18704.00,-2688.00
1347,141.00,82.00,-257.00,1044.00,1304.00,18548.00,-2720.00
1363,3.00,168.00,-188.00,832.00,1116.00,18560.00,-2720.00
1380,19.00,58.00,-218.00,580.00,1008.00,18496.00,-2704.00
1396,31.00,106.00,45.00,704.00,892.00,18644.00,-2704.00
1413,87.00,174.00,188.00,652.00,1020.00,18500.00,-2688.00
1429,209.00,54.00,23.00,624.00,980.00,18540.00,-2704.00
1445,250.00,-22.00,-62.00,972.00,1056.00,18640.00,-2720.00
1462,229.00,-26.00,-79.00,960.00,1156.00,18612.00,-2704.00
1478,201.00,-2.00,-135.00,856.00,1164.00,18632.00,-2672.00
1496,103.00,65.00,-33.00,848.00,1156.00,18720.00,-2720.00
1512,180.00,126.00,79.00,952.00,1072.00,18732.00,-2720.00
1528,259.00,52.00,-186.00,912.00,1000.00,18560.00,-2704.00
1545,365.00,7.00,-128.00,960.00,1216.00,18600.00,-2704.00
1561,206.00,172.00,254.00,1132.00,1432.00,18528.00,-2720.00
1577,58.00,251.00,194.00,876.00,1508.00,18500.00,-2704.00
1594,83.00,57.00,-284.00,720.00,1548.00,18628.00,-2720.00
1610,-87.00,191.00,-323.00,988.00,1380.00,18416.00,-2672.00
1627,-154.00,227.00,-4.00,760.00,852.00,18396.00,-2672.00
1643,46.00,101.00,88.00,684.00,976.00,18660.00,-2688.00
1659,69.00,2.00,-239.00,824.00,1152.00,18696.00,-2704.00
1676,45.00,109.00,-238.00,808.00,1088.00,18396.00,-2688.00
1692,101.00,22.00,-149.00,724.00,940.00,18716.00,-2704.00
1709,234.00,-85.00,-136.00,772.00,1128.00,18672.00,-2704.00
1725,161.00,-158.00,-245.00,896.00,1324.00,18560.00,-2704.00
1741,-39.00,-3.00,-63.00,936.00,1448.00,18636.00,-2672.00
1758,-13.00,89.00,-12.00,940.00,1320.00,18628.00,-2688.00
1774,-75.00,83.00,-139.00,1212.00,1412.00,18668.00,-2704.00
1790,-317.00,388.00,-35.00,864.00,1176.00,18636.00,-2688.00
1807,-204.00,277.00,-232.00,524.00,844.00,18540.00,-2720.00
1823,168.00,-62.00,-394.00,404.00,636.00,18580.00,-2688.00
1840,321.00,-238.00,-397.00,712.00,972.00,18652.00,-2672.00
1856,129.00,-121.00,-244.00,976.00,1444.00,18680.00,-2656.00
1873,-218.00,227.00,-73.00,772.00,1200.00,18684.00,-2704.00
1890,-124.00,154.00,-135.00,708.00,956.00,18656.00,-2720.00
1906,-35.00,-53.00,-138.00,824.00,972.00,18324.00,-2736.00
1923,118.00,-63.00,-38.00,932.00,1016.00,18332.00,-2720.00
1939,226.00,-254.00,-384.00,844.00,1312.00,18568.00,-2720.00
1955,-8.00,-92.00,-337.00,996.00,1412.00,18680.00,-2720.00
1972,-100.00,116.00,-216.00,916.00,1308.00,18720.00,-2704.00
1988,-69.00,-6.00,-461.00,964.00,892.00,18796.00,-2704.00
2004,51.00,67.00,-362.00,1392.00,524.00,19152.00,-2720.00
2021,170.00,184.00,-370.00,1772.00,460.00,19304.00,-2672.00
2037,302.00,387.00,-399.00,1432.00,772.00,19188.00,-2704.00
2054,288.00,678.00,-409.00,1328.00,976.00,19064.00,-2704.00
2070,195.00,797.00,-479.00,900.00,1344.00,18660.00,-2688.00
2086,137.00,890.00,-190.00,292.00,1248.00,18228.00,-2720.00
2104,121.00,546.00,-48.00,88.00,1200.00,17836.00,-2688.00
2120,184.00,240.00,-233.00,172.00,1388.00,18052.00,-2704.00
2137,127.00,27.00,-547.00,392.00,1264.00,18308.00,-2704.00
2153,72.00,30.00,-655.00,764.00,1124.00,18512.00,-2672.00
2169,97.00,27.00,-594.00,668.00,1144.00,18556.00,-2720.00
2186,40.00,97.00,-456.00,680.00,1052.00,18588.00,-2656.00
2202,-179.00,276.00,-31.00,540.00,1208.00,18420.00,-2704.00
2219,-145.00,187.00,-2.00,308.00,888.00,18480.00,-2704.00
2235,-47.00,-17.00,-43.00,284.00,944.00,18536.00,-2672.00
2251,-111.00,103.00,261.00,344.00,1236.00,18364.00,-2688.00
2268,-225.00,91.00,314.00,-36.00,1132.00,18316.00,-2688.00
2284,-106.00,-263.00,-52.00,28.00,1104.00,18288.00,-2720.00
2300,-22.00,-543.00,-404.00,336.00,1108.00,18220.00,-2704.00
2317,43.00,-638.00,-336.00,732.00,676.00,18604.00,-2736.00
2333,302.00,-760.00,-431.00,968.00,712.00,18860.00,-2704.00
2350,544.00,-781.00,-565.00,1484.00,708.00,19168.00,-2704.00
2366,405.00,-334.00,-213.00,1732.00,832.00,19388.00,-2672.00
2382,282.00,58.00,-98.00,1388.00,1088.00,19012.00,-2704.00
2400,53.00,372.00,-147.00,1136.00,1340.00,18972.00,-2736.00
2416,-133.00,555.00,-73.00,836.00,1348.00,18672.00,-2736.00
2433,-106.00,518.00,-5.00,740.00,1044.00,18308.00,-2704.00
2449,-42.00,436.00,245.00,616.00,1048.00,18168.00,-2688.00
2465,36.00,421.00,151.00,396.00,1288.00,18400.00,-2656.00
2482,16.00,164.00,-302.00,176.00,1428.00,18248.00,-2704.00
2498,-36.00,-4.00,-506.00,168.00,1172.00,18136.00,-2704.00
2514,-32.00,-122.00,-367.00,568.00,964.00,18252.00,-2688.00
2531,105.00,-226.00,-249.00,412.00,796.00,18448.00,-2688.00
2547,141.00,-361.00,-161.00,788.00,936.00,18600.00,-2688.00
2564,-27.00,-19.00,70.00,796.00,1076.00,18804.00,-2672.00
2580,-64.00,-2.00,18.00,564.00,712.00,18860.00,-2720.00
2596,135.00,-223.00,-217.00,700.00,940.00,18660.00,-2704.00
2613,178.00,-225.00,-174.00,1012.00,1192.00,18756.00,-2688.00
2629,69.00,-44.00,-5.00,1152.00,1236.00,18716.00,-2704.00
2646,95.00,66.00,-15.00,1040.00,1136.00,18852.00,-2688.00
2662,-12.00,83.00,-261.00,1140.00,1340.00,18776.00,-2704.00
2678,-319.00,292.00,-61.00,952.00,1020.00,18780.00,-2736.00
2695,-321.00,304.00,3.00,632.00,732.00,18676.00,-2704.00
2711,65.00,134.00,-107.00,604.00,608.00,18500.00,-2720.00
2727,276.00,71.00,-339.00,732.00,996.00,18860.00,-2672.00
2744,107.00,256.00,-268.00,644.00,1072.00,18732.00,-2672.00
2761,68.00,220.00,-123.00,432.00,912.00,18360.00,-2704.00
2778,258.00,51.00,-56.00,484.00,1088.00,18328.00,-2720.00
2794,225.00,-151.00,-256.00,556.00,1336.00,18492.00,-2736.00
2810,36.00,-81.00,-122.00,880.00,1520.00,18544.00,-2704.00
2827,-240.00,170.00,116.00,776.00,1268.00,18604.00,-2736.00
2843,-118.00,-1.00,-250.00,444.00,888.00,18400.00,-2704.00
2860,201.00,-297.00,-556.00,720.00,1044.00,18460.00,-2672.00
2876,79.00,-164.00,-380.00,968.00,1068.00,18508.00,-2720.00
2892,-48.00,113.00,-145.00,1188.00,1044.00,18612.00,-2704.00
2909,-135.00,222.00,-235.00,712.00,948.00,18672.00,-2672.00
2925,-104.00,294.00,-125.00,712.00,1016.00,18648.00,-2704.00
2941,-140.00,235.00,-86.00,508.00,776.00,18512.00,-2672.00
2958,100.00,34.00,-342.00,452.00,760.00,18564.00,-2704.00
2974,86.00,-73.00,-555.00,568.00,1020.00,18492.00,-2720.00
2992,-39.00,-24.00,-304.00,664.00,1016.00,18460.00,-2704.00
3008,-194.00,115.00,-37.00,476.00,904.00,18676.00,-2704.00
3024,-141.00,4.00,-10.00,420.00,900.00,18844.00,-2688.00
3040,-132.00,17.00,-151.00,1012.00,732.00,18736.00,-2720.00
3057,-39.00,-38.00,-231.00,748.00,804.00,18532.00,-2688.00
3074,223.00,-50.00,-296.00,1044.00,1044.00,18652.00,-2704.00
3090,-76.00,4.00,-541.00,920.00,1060.00,18712.00,-2672.00
3106,-65.00,96.00,-360.00,592.00,1064.00,18676.00,-2720.00
3123,-213.00,-45.00,-400.00,768.00,920.00,18496.00,-2704.00
3139,-160.00,-25.00,-312.00,588.00,900.00,18536.00,-2688.00
3155,45.00,-154.00,-253.00,696.00,792.00,18444.00,-2720.00
3172,-29.00,-124.00,-68.00,828.00,932.00,18736.00,-2704.00
3188,46.00,-145.00,-209.00,672.00,820.00,18584.00,-2688.00
3205,140.00,-269.00,-648.00,472.00,868.00,18588.00,-2672.00
3221,62.00,-89.00,-240.00,632.00,888.00,18544.00,-2736.00
3237,-50.00,-101.00,17.00,564.00,824.00,18676.00,-2688.00
3254,-131.00,-118.00,0.00,768.00,772.00,18552.00,-2672.00
3270,-40.00,-23.00,41.00,772.00,664.00,18464.00,-2704.00
3287,17.00,-9.00,-160.00,892.00,808.00,18464.00,-2688.00
3303,233.00,1.00,-263.00,668.00,984.00,18560.00,-2688.00
3319,235.00,-69.00,-440.00,920.00,1124.00,18596.00,-2704.00
3336,11.00,-102.00,-566.00,812.00,1216.00,18488.00,-2704.00
3352,-174.00,45.00,-400.00,920.00,1012.00,18744.00,-2736.00
3368,-275.00,216.00,-41.00,876.00,564.00,18484.00,-2688.00
3385,-120.00,206.00,133.00,628.00,608.00,18652.00,-2704.00
3401,55.00,-36.00,-235.00,556.00,832.00,18696.00,-2736.00
3418,25.00,2.00,-313.00,584.00,756.00,18676.00,-2672.00
3434,14.00,-30.00,-314.00,544.00,904.00,18532.00,-2688.00
3450,-61.00,-34.00,-223.00,640.00,772.00,18716.00,-2672.00
3467,-77.00,-20.00,-164.00,816.00,776.00,18556.00,-2720.00
3483,156.00,1.00,-129.00,856.00,652.00,18704.00,-2704.00
3500,129.00,-70.00,-376.00,800.00,868.00,18772.00,-2720.00
3516,-77.00,128.00,-149.00,832.00,800.00,18716.00,-2704.00
3532,-108.00,99.00,-60.00,892.00,628.00,18772.00,-2688.00
3549,89.00,44.00,-110.00,732.00,616.00,18652.00,-2704.00
3565,164.00,-2.00,-237.00,716.00,780.00,18680.00,-2688.00
3581,83.00,87.00,-103.00,708.00,696.00,18764.00,-2704.00
3598,182.00,-93.00,-369.00,664.00,888.00,18460.00,-2704.00
3614,-15.00,19.00,-343.00,752.00,1056.00,18464.00,-2704.00
3631,-142.00,93.00,-47.00,592.00,612.00,18396.00,-2720.00
3647,98.00,-65.00,-193.00,636.00,764.00,18480.00,-2704.00
3663,151.00,-198.00,-253.00,752.00,1084.00,18628.00,-2720.00
3680,-50.00,-104.00,-254.00,764.00,1112.00,18544.00,-2688.00
3696,-184.00,-78.00,-370.00,924.00,760.00,18448.00,-2720.00
3713,-98.00,-103.00,-411.00,736.00,616.00,18696.00,-2704.00
3729,29.00,-135.00,-394.00,944.00,632.00,18568.00,-2672.00
3745,8.00,-39.00,-296.00,768.00,780.00,18580.00,-2720.00
3762,-5.00,15.00,-233.00,692.00,676.00,18616.00,-2688.00
3778,34.00,-64.00,-333.00,640.00,660.00,18568.00,-2704.00
3794,-44.00,-7.00,-144.00,764.00,568.00,18560.00,-2688.00
3811,7.00,11.00,-128.00,568.00,640.00,18728.00,-2656.00
3827,152.00,6.00,-204.00,788.00,720.00,18668.00,-2640.00
3844,-3.00,-43.00,-240.00,788.00,856.00,18572.00,-2672.00
3860,-43.00,-68.00,-73.00,696.00,752.00,18508.00,-2672.00
3875,113.00,-145.00,-181.00,888.00,744.00,18728.00,-2688.00
3893,187.00,-79.00,-232.00,836.00,772.00,18648.00,-2720.00
3909,159.00,43.00,-225.00,1080.00,804.00,18732.00,-2704.00
3926,86.00,125.00,-265.00,800.00,820.00,18628.00,-2704.00
3942,11.00,23.00,-215.00,776.00,808.00,18752.00,-2688.00
3958,-87.00,43.00,-105.00,720.00,768.00,18552.00,-2704.00
3975,-101.00,-39.00,-271.00,552.00,792.00,18420.00,-2688.00
3991,-7.00,-122.00,-307.00,740.00,660.00,18456.00,-2704.00
4007,-25.00,-144.00,-254.00,732.00,636.00,18544.00,-2688.00
4024,37.00,-66.00,-230.00,740.00,484.00,18720.00,-2704.00
4040,33.00,-152.00,-400.00,816.00,752.00,18600.00,-2720.00
4057,-69.00,20.00,-132.00,832.00,780.00,18448.00,-2688.00
4073,-102.00,83.00,5.00,692.00,552.00,18568.00,-2688.00
4089,94.00,-144.00,-330.00,808.00,580.00,18748.00,-2704.00
4106,220.00,-138.00,-284.00,832.00,520.00,18668.00,-2720.00
4122,135.00,28.00,10.00,1060.00,756.00,18764.00,-2720.00
4139,-8.00,100.00,-124.00,884.00,856.00,18688.00,-2736.00
4155,-86.00,86.00,-274.00,712.00,808.00,18612.00,-2688.00
4171,-30.00,34.00,-226.00,576.00,668.00,18444.00,-2704.00
4188,134.00,-167.00,-420.00,736.00,708.00,18532.00,-2688.00
4204,102.00,-191.00,-401.00,920.00,744.00,18540.00,-2704.00
4220,-11.00,75.00,-43.00,980.00,704.00,18676.00,-2704.00
4237,-98.00,108.00,-166.00,720.00,808.00,18524.00,-2672.00
4253,-69.00,39.00,-258.00,616.00,568.00,18480.00,-2704.00
4270,152.00,-94.00,-335.00,608.00,612.00,18564.00,-2720.00
4286,222.00,-71.00,-220.00,908.00,560.00,18540.00,-2704.00
4302,135.00,-126.00,-186.00,836.00,628.00,18696.00,-2688.00
4319,83.00,-20.00,-190.00,1028.00,712.00,18844.00,-2688.00
4335,-147.00,77.00,-138.00,960.00,644.00,18668.00,-2704.00
4352,-189.00,109.00,-156.00,952.00,440.00,18708.00,-2720.00
4368,64.00,-6.00,-291.00,764.00,444.00,18472.00,-2720.00
4384,268.00,3.00,-111.00,864.00,584.00,18568.00,-2672.00
4401,158.00,51.00,-155.00,680.00,624.00,18700.00,-2704.00
4417,234.00,-33.00,-302.00,812.00,508.00,18608.00,-2704.00
4433,388.00,-220.00,-557.00,880.00,708.00,18464.00,-2688.00
4450,172.00,37.00,-204.00,1080.00,876.00,18504.00,-2720.00
4466,-94.00,137.00,1.00,792.00,872.00,18516.00,-2704.00
4483,9.00,100.00,100.00,716.00,692.00,18436.00,-2704.00
4499,105.00,-62.00,-118.00,636.00,712.00,18584.00,-2688.00
4515,244.00,-99.00,-176.00,752.00,912.00,18684.00,-2688.00
4532,68.00,-54.00,-358.00,844.00,928.00,18728.00,-2704.00
4548,-116.00,-117.00,-477.00,844.00,668.00,18604.00,-2688.00
4564,-105.00,-13.00,-285.00,1044.00,516.00,18684.00,-2704.00
4581,-160.00,105.00,-209.00,908.00,332.00,18744.00,-2704.00
4597,43.00,120.00,-210.00,832.00,192.00,18568.00,-2704.00
4614,273.00,36.00,-243.00,688.00,560.00,18764.00,-2688.00
4630,165.00,20.00,-223.00,696.00,700.00,18612.00,-2704.00
4646,9.00,24.00,-214.00,616.00,632.00,18520.00,-2704.00
4663,43.00,-81.00,-303.00,756.00,408.00,18428.00,-2672.00
4679,94.00,-111.00,-56.00,792.00,428.00,18476.00,-2720.00
4696,152.00,-118.00,-97.00,896.00,668.00,18852.00,-2672.00
4712,77.00,-37.00,-162.00,980.00,760.00,18752.00,-2704.00
4728,49.00,73.00,-109.00,916.00,660.00,18804.00,-2704.00
4745,27.00,112.00,-162.00,880.00,656.00,18676.00,-2688.00
4761,102.00,-2.00,-283.00,684.00,420.00,18600.00,-2688.00
4777,272.00,2.00,-178.00,876.00,704.00,18452.00,-2672.00
4794,128.00,23.00,-55.00,860.00,776.00,18560.00,-2688.00
4810,89.00,50.00,-202.00,916.00,752.00,18628.00,-2720.00
4827,19.00,36.00,-272.00,764.00,720.00,18420.00,-2672.00
4843,47.00,19.00,-244.00,848.00,624.00,18628.00,-2688.00
4859,76.00,73.00,-178.00,848.00,584.00,18508.00,-2704.00
4876,70.00,64.00,-137.00,732.00,540.00,18596.00,-2688.00
4892,136.00,-54.00,-276.00,716.00,540.00,18664.00,-2704.00
4909,103.00,-50.00,-288.00,824.00,524.00,18608.00,-2704.00
4925,50.00,-40.00,-156.00,748.00,488.00,18592.00,-2704.00
4941,152.00,-96.00,-120.00,888.00,556.00,18756.00,-2688.00
4958,226.00,-140.00,-298.00,920.00,744.00,18728.00,-2704.00
4974,110.00,56.00,-143.00,912.00,804.00,18584.00,-2672.00
4990,-46.00,106.00,-199.00,892.00,664.00,18452.00,-2720.00
5007,-40.00,183.00,41.00,876.00,560.00,18468.00,-2720.00
5023,100.00,117.00,-56.00,780.00,680.00,18424.00,-2704.00
5040,163.00,-53.00,-329.00,580.00,580.00,18520.00,-2688.00
5056,249.00,-128.00,-487.00,836.00,616.00,18800.00,-2704.00
5072,174.00,-99.00,-401.00,980.00,728.00,18600.00,-2704.00
5089,22.00,40.00,-155.00,884.00,588.00,18636.00,-2704.00
5105,106.00,75.00,-111.00,820.00,464.00,18568.00,-2704.00
5122,142.00,26.00,-151.00,804.00,520.00,18788.00,-2704.00
5138,115.00,2.00,-109.00,764.00,636.00,18676.00,-2720.00
5154,59.00,-32.00,-241.00,796.00,756.00,18632.00,-2672.00
5171,100.00,-13.00,-321.00,820.00,688.00,18536.00,-2688.00
5187,106.00,-79.00,-395.00,836.00,752.00,18608.00,-2672.00
5203,-22.00,15.00,-342.00,1040.00,652.00,18604.00,-2672.00
5220,-93.00,147.00,-141.00,892.00,296.00,18488.00,-2688.00
5236,185.00,11.00,-46.00,824.00,364.00,18640.00,-2704.00
5253,124.00,150.00,-108.00,1332.00,856.00,18824.00,-2720.00
5270,-184.00,379.00,-186.00,784.00,776.00,18856.00,-2720.00
5286,79.00,184.00,-350.00,468.00,128.00,18364.00,-2688.00
5303,378.00,-196.00,-429.00,700.00,436.00,18252.00,-2704.00
5319,214.00,-44.00,-94.00,800.00,620.00,18428.00,-2672.00
5336,79.00,8.00,41.00,828.00,552.00,18576.00,-2688.00
5352,283.00,-89.00,-77.00,480.00,744.00,18500.00,-2720.00
5368,282.00,-191.00,-317.00,644.00,1100.00,18512.00,-2704.00
5385,39.00,-33.00,-371.00,732.00,1132.00,18452.00,-2704.00
5401,-22.00,-129.00,-407.00,796.00,612.00,18436.00,-2688.00
5417,102.00,-235.00,-207.00,1152.00,504.00,18640.00,-2720.00
5434,-24.00,-69.00,-87.00,1260.00,532.00,18684.00,-2688.00
5450,-148.00,103.00,-159.00,1032.00,668.00,18748.00,-2704.00
5467,-105.00,200.00,-307.00,752.00,416.00,18932.00,-2704.00
5483,51.00,146.00,-265.00,700.00,160.00,18704.00,-2688.00
5499,245.00,30.00,-145.00,768.00,208.00,18600.00,-2704.00
5516,291.00,-42.00,-114.00,668.00,328.00,18724.00,-2704.00
5532,270.00,-24.00,-41.00,968.00,488.00,18684.00,-2656.00
5549,162.00,24.00,61.00,968.00,636.00,18764.00,-2704.00
5565,98.00,83.00,-103.00,888.00,752.00,18740.00,-2688.00
5581,85.00,37.00,-203.00,860.00,820.00,18588.00,-2720.00
5598,106.00,48.00,-132.00,972.00,716.00,18412.00,-2736.00
5614,248.00,16.00,-134.00,1004.00,420.00,18412.00,-2672.00
5630,184.00,-51.00,-108.00,1036.00,716.00,18308.00,-2720.00
5647,35.00,129.00,-3.00,892.00,916.00,18760.00,-2720.00
5663,-49.00,192.00,-75.00,956.00,672.00,18516.00,-2720.00
5680,18.00,155.00,-237.00,628.00,616.00,18632.00,-2736.00
5696,114.00,65.00,-125.00,596.00,448.00,18588.00,-2688.00
5712,154.00,-74.00,-178.00,776.00,424.00,18540.00,-2672.00
5729,163.00,-43.00,-249.00,1004.00,660.00,18772.00,-2672.00
5745,-49.00,128.00,-166.00,964.00,652.00,18676.00,-2704.00
5762,-80.00,260.00,-92.00,564.00,560.00,18572.00,-2720.00
5778,3.00,35.00,-219.00,496.00,636.00,18592.00,-2736.00
5794,115.00,-96.00,-127.00,524.00,348.00,18448.00,-2704.00
5811,224.00,-237.00,-133.00,832.00,496.00,18648.00,-2704.00
5827,189.00,-149.00,-65.00,1072.00,724.00,18660.00,-2688.00
5843,94.00,66.00,-23.00,1160.00,832.00,18800.00,-2720.00
5860,52.00,148.00,-237.00,928.00,844.00,18624.00,-2672.00
5876,-18.00,125.00,-378.00,724.00,888.00,18528.00,-2688.00
5893,-181.00,82.00,-370.00,876.00,532.00,18680.00,-2720.00
5909,-59.00,-106.00,-165.00,676.00,384.00,18372.00,-2704.00
5925,-56.00,-134.00,-124.00,892.00,776.00,18500.00,-2688.00
5942,33.00,31.00,-120.00,816.00,428.00,18616.00,-2688.00
5958,71.00,-43.00,-376.00,880.00,540.00,18516.00,-2704.00
5975,-46.00,105.00,-221.00,796.00,548.00,18616.00,-2688.00
5991,-55.00,79.00,-73.00,672.00,408.00,18736.00,-2704.00
6007,50.00,-73.00,-290.00,796.00,312.00,18664.00,-2688.00
6024,256.00,-142.00,-273.00,968.00,388.00,18452.00,-2672.00
6040,147.00,3.00,-110.00,968.00,696.00,18636.00,-2752.00
6056,0.00,113.00,-81.00,948.00,520.00,18636.00,-2704.00
6073,10.00,100.00,-230.00,836.00,688.00,18544.00,-2688.00
6089,-12.00,93.00,-368.00,804.00,500.00,18584.00,-2704.00
6106,31.00,58.00,-283.00,860.00,504.00,18548.00,-2720.00
6122,55.00,36.00,-129.00,804.00,444.00,18452.00,-2672.00
6138,124.00,11.00,-130.00,636.00,456.00,18500.00,-2688.00
6155,166.00,-53.00,-213.00,592.00,368.00,18584.00,-2704.00
6171,276.00,-154.00,-309.00,712.00,716.00,18540.00,-2720.00
6188,99.00,-10.00,-127.00,876.00,928.00,18416.00,-2688.00
6204,-67.00,57.00,-97.00,796.00,836.00,18632.00,-2672.00
6220,-44.00,-94.00,-197.00,836.00,616.00,18512.00,-2688.00
6237,-34.00,-170.00,-193.00,880.00,612.00,18768.00,-2672.00
6253,19.00,-81.00,-180.00,908.00,664.00,18780.00,-2720.00
6269,-62.00,-77.00,-214.00,1060.00,440.00,18752.00,-2672.00
6286,-99.00,81.00,-150.00,1132.00,308.00,18824.00,-2656.00
6302,-55.00,169.00,-184.00,1056.00,216.00,18740.00,-2656.00
6319,68.00,168.00,-229.00,888.00,60.00,18556.00,-2704.00
6335,231.00,37.00,-246.00,596.00,316.00,18520.00,-2720.00
6351,357.00,-27.00,-238.00,700.00,532.00,18604.00,-2688.00
6368,228.00,43.00,-73.00,800.00,608.00,18548.00,-2704.00
6384,43.00,131.00,72.00,784.00,544.00,18388.00,-2720.00
6401,80.00,29.00,10.00,668.00,444.00,18532.00,-2704.00
6417,138.00,-29.00,-76.00,804.00,548.00,18616.00,-2736.00
6433,159.00,-46.00,-82.00,860.00,480.00,18456.00,-2656.00
6450,199.00,-127.00,-153.00,884.00,552.00,18760.00,-2704.00
6466,283.00,-133.00,-283.00,1040.00,576.00,18748.00,-2704.00
6483,253.00,-30.00,-264.00,1288.00,640.00,18512.00,-2672.00
6500,110.00,148.00,-142.00,1152.00,684.00,18780.00,-2704.00
6516,94.00,216.00,-170.00,980.00,616.00,18692.00,-2704.00
6533,110.00,209.00,-156.00,604.00,684.00,18360.00,-2720.00
6549,96.00,99.00,-267.00,628.00,664.00,18496.00,-2688.00
6565,15.00,36.00,-232.00,628.00,496.00,18336.00,-2688.00
6582,43.00,15.00,-83.00,668.00,408.00,18592.00,-2704.00
6598,192.00,11.00,-106.00,832.00,328.00,18572.00,-2720.00
6615,238.00,1.00,-199.00,824.00,508.00,18780.00,-2704.00
6631,162.00,50.00,-170.00,788.00,508.00,18696.00,-2720.00
6647,180.00,-78.00,-280.00,864.00,600.00,18580.00,-2704.00
6664,166.00,-19.00,-192.00,848.00,456.00,18448.00,-2688.00
6680,197.00,-94.00,-185.00,1000.00,524.00,18684.00,-2736.00
6696,109.00,57.00,-54.00,912.00,608.00,18584.00,-2672.00
6713,84.00,54.00,-59.00,832.00,544.00,18556.00,-2688.00
6729,156.00,111.00,-111.00,904.00,468.00,18548.00,-2688.00
6746,104.00,42.00,-281.00,828.00,676.00,18536.00,-2704.00
6762,49.00,86.00,-252.00,796.00,640.00,18548.00,-2672.00
6778,16.00,91.00,-202.00,700.00,544.00,18628.00,-2688.00
6795,-11.00,-4.00,-261.00,736.00,604.00,18388.00,-2704.00
6811,-11.00,20.00,21.00,704.00,400.00,18644.00,-2704.00
6828,141.00,-101.00,-163.00,748.00,436.00,18756.00,-2688.00
6844,112.00,-157.00,-428.00,908.00,712.00,18608.00,-2704.00
6860,2.00,-20.00,-301.00,1044.00,712.00,18908.00,-2672.00
6877,-38.00,121.00,-100.00,836.00,388.00,18604.00,-2688.00
6893,64.00,36.00,-239.00,832.00,376.00,18584.00,-2704.00
6909,31.00,56.00,-200.00,860.00,456.00,18480.00,-2688.00
6926,84.00,117.00,14.00,856.00,328.00,18512.00,-2704.00
6942,214.00,7.00,-166.00,648.00,280.00,18668.00,-2688.00
6959,298.00,-85.00,-280.00,956.00,484.00,18624.00,-2688.00
6975,221.00,188.00,-140.00,988.00,796.00,18556.00,-2688.00
6991,9.00,232.00,-207.00,620.00,688.00,18472.00,-2704.00
7008,93.00,88.00,-236.00,588.00,268.00,18352.00,-2656.00
7024,328.00,-294.00,-330.00,736.00,464.00,18348.00,-2704.00
7041,309.00,-259.00,-259.00,1044.00,724.00,18608.00,-2704.00
7057,110.00,-87.00,-129.00,1052.00,768.00,18560.00,-2672.00
7073,4.00,-3.00,-96.00,848.00,884.00,18716.00,-2672.00
7090,6.00,-14.00,-248.00,572.00,760.00,18648.00,-2688.00
7106,-26.00,-67.00,-195.00,808.00,536.00,18732.00,-2672.00
7122,77.00,-78.00,-305.00,904.00,300.00,18584.00,-2688.00
7139,49.00,-105.00,-428.00,1216.00,440.00,18580.00,-2688.00
7155,-82.00,141.00,-121.00,1176.00,428.00,18584.00,-2720.00
7172,-91.00,233.00,-38.00,944.00,260.00,18664.00,-2704.00
7188,55.00,74.00,-279.00,592.00,264.00,18684.00,-2672.00
7204,247.00,-27.00,-242.00,720.00,388.00,18668.00,-2672.00
7221,225.00,-47.00,-168.00,640.00,504.00,18552.00,-2704.00
7237,107.00,50.00,-41.00,720.00,572.00,18600.00,-2688.00
7254,49.00,25.00,-143.00,764.00,352.00,18624.00,-2704.00
7270,116.00,-59.00,-181.00,868.00,392.00,18664.00,-2688.00
7286,107.00,-77.00,-136.00,772.00,360.00,18628.00,-2704.00
7303,175.00,-98.00,-169.00,808.00,584.00,18696.00,-2688.00
7319,134.00,-90.00,-145.00,1096.00,760.00,18700.00,-2720.00
7335,-16.00,102.00,-180.00,1172.00,696.00,18572.00,-2672.00
7352,-61.00,237.00,-101.00,1192.00,484.00,18576.00,-2672.00
7368,35.00,165.00,-90.00,704.00,276.00,18500.00,-2688.00
7385,141.00,65.00,-172.00,744.00,612.00,18580.00,-2704.00
7401,136.00,-24.00,-292.00,692.00,608.00,18556.00,-2720.00
7417,42.00,10.00,-325.00,816.00,652.00,18672.00,-2704.00
7434,-53.00,58.00,-292.00,680.00,364.00,18704.00,-2704.00
7450,33.00,-1.00,-113.00,672.00,348.00,18696.00,-2704.00
7467,39.00,-11.00,-50.00,648.00,412.00,18524.00,-2672.00
7483,83.00,20.00,-97.00,712.00,424.00,18712.00,-2688.00
7499,83.00,17.00,-175.00,808.00,460.00,18652.00,-2736.00
7516,149.00,-117.00,-215.00,788.00,372.00,18664.00,-2704.00
7532,239.00,-148.00,-205.00,880.00,324.00,18764.00,-2704.00
7548,229.00,-149.00,-250.00,1092.00,560.00,18624.00,-2672.00
7565,116.00,24.00,-100.00,1092.00,700.00,18616.00,-2704.00
7581,-17.00,256.00,12.00,1060.00,684.00,18692.00,-2720.00
7598,33.00,176.00,-240.00,820.00,716.00,18504.00,-2720.00
7614,43.00,88.00,-280.00,744.00,424.00,18504.00,-2672.00
7630,31.00,-3.00,-229.00,608.00,376.00,18460.00,-2704.00
7647,29.00,58.00,-168.00,804.00,472.00,18452.00,-2688.00
7663,31.00,-17.00,-238.00,676.00,524.00,18592.00,-2704.00
7680,57.00,-91.00,-193.00,720.00,404.00,18780.00,-2688.00
7696,34.00,-33.00,-74.00,740.00,428.00,18644.00,-2704.00
7712,30.00,31.00,-86.00,900.00,476.00,18488.00,-2704.00
7729,119.00,-46.00,-247.00,824.00,472.00,18780.00,-2704.00
7745,210.00,-178.00,-377.00,864.00,508.00,18500.00,-2704.00
7761,158.00,-130.00,-235.00,900.00,452.00,18848.00,-2704.00
7778,50.00,87.00,-85.00,944.00,584.00,18648.00,-2688.00
7794,4.00,164.00,-105.00,816.00,276.00,18676.00,-2704.00
7811,165.00,133.00,-106.00,840.00,448.00,18708.00,-2704.00
7827,122.00,205.00,-74.00,1052.00,724.00,18668.00,-2704.00
7843,-19.00,327.00,-63.00,520.00,320.00,18700.00,-2672.00
7860,234.00,-15.00,-261.00,480.00,232.00,18424.00,-2688.00
7876,343.00,-265.00,-387.00,700.00,456.00,18580.00,-2704.00
7892,177.00,-89.00,-37.00,1108.00,604.00,18652.00,-2720.00
7909,48.00,95.00,77.00,1060.00,756.00,18696.00,-2688.00
7925,29.00,167.00,-85.00,712.00,868.00,18748.00,-2720.00
7942,48.00,23.00,-248.00,544.00,720.00,18564.00,-2704.00
7958,49.00,-58.00,-182.00,784.00,540.00,18440.00,-2688.00
7974,144.00,-219.00,-352.00,948.00,456.00,18616.00,-2704.00
7991,33.00,-188.00,-426.00,1068.00,512.00,18544.00,-2672.00
8007,-116.00,71.00,-237.00,1152.00,460.00,18712.00,-2688.00
8024,-105.00,259.00,-151.00,904.00,212.00,18724.00,-2688.00
8040,80.00,43.00,-270.00,576.00,220.00,18680.00,-2720.00
8056,116.00,90.00,-96.00,812.00,372.00,18696.00,-2672.00
8073,71.00,75.00,-54.00,728.00,132.00,18596.00,-2672.00
8089,293.00,-112.00,-203.00,584.00,240.00,18732.00,-2656.00
8105,285.00,-80.00,-325.00,956.00,588.00,18812.00,-2720.00
8122,-45.00,123.00,-125.00,884.00,456.00,18676.00,-2704.00
8138,-17.00,103.00,7.00,604.00,140.00,18596.00,-2720.00
8155,286.00,-189.00,-232.00,744.00,308.00,18508.00,-2704.00
8171,227.00,-164.00,-266.00,972.00,656.00,18796.00,-2688.00
8187,81.00,118.00,-21.00,1152.00,672.00,18732.00,-2656.00
8204,-104.00,238.00,-78.00,960.00,712.00,18548.00,-2672.00
8220,-182.00,257.00,-222.00,696.00,644.00,18664.00,-2704.00
8237,-94.00,87.00,-529.00,816.00,568.00,18636.00,-2688.00
8253,70.00,-29.00,-454.00,872.00,76.00,18644.00,-2704.00
8269,400.00,-265.00,-356.00,980.00,204.00,18588.00,-2688.00
8286,232.00,-150.00,-306.00,980.00,628.00,18808.00,-2720.00
8302,-62.00,192.00,-106.00,964.00,328.00,18852.00,-2688.00
8318,-26.00,211.00,-187.00,592.00,156.00,18612.00,-2672.00
8336,220.00,16.00,-282.00,548.00,44.00,18556.00,-2688.00
8351,272.00,-85.00,-52.00,708.00,248.00,18488.00,-2704.00
8368,305.00,-91.00,-57.00,732.00,512.00,18700.00,-2720.00
8384,318.00,-112.00,-216.00,816.00,728.00,18520.00,-2704.00
8401,169.00,-13.00,-317.00,1076.00,776.00,18560.00,-2704.00
8418,8.00,159.00,-252.00,980.00,708.00,18612.00,-2688.00
8434,-12.00,67.00,-300.00,956.00,532.00,18580.00,-2672.00
8451,20.00,75.00,-223.00,908.00,468.00,18500.00,-2688.00
8467,61.00,-6.00,-119.00,864.00,412.00,18664.00,-2672.00
8482,75.00,28.00,-298.00,760.00,596.00,18740.00,-2704.00
8499,-64.00,78.00,-371.00,816.00,488.00,18632.00,-2688.00
8515,-102.00,113.00,-224.00,672.00,196.00,18696.00,-2704.00
8531,57.00,83.00,-110.00,588.00,56.00,18548.00,-2704.00
8548,238.00,-149.00,-166.00,524.00,0.00,18800.00,-2672.00
8564,273.00,-192.00,-114.00,860.00,408.00,18680.00,-2720.00
8581,170.00,-71.00,-52.00,832.00,472.00,18808.00,-2688.00
8597,148.00,-29.00,-263.00,828.00,472.00,18532.00,-2672.00
8613,134.00,25.00,-266.00,848.00,464.00,18664.00,-2688.00
8631,166.00,-32.00,-257.00,696.00,336.00,18504.00,-2704.00
8647,238.00,-96.00,-32.00,716.00,164.00,18292.00,-2736.00
8664,362.00,-151.00,-5.00,1160.00,488.00,18692.00,-2720.00
8680,189.00,45.00,-91.00,1104.00,788.00,18532.00,-2672.00
8696,26.00,269.00,-48.00,1012.00,544.00,18744.00,-2688.00
8713,96.00,113.00,-170.00,748.00,416.00,18440.00,-2704.00
8729,189.00,-36.00,-240.00,728.00,444.00,18424.00,-2704.00
8745,191.00,-83.00,-160.00,820.00,584.00,18388.00,-2720.00
8762,119.00,12.00,-61.00,836.00,512.00,18704.00,-2704.00
8778,108.00,32.00,-209.00,820.00,792.00,18484.00,-2688.00
8795,-45.00,264.00,-114.00,984.00,912.00,18708.00,-2704.00
8811,-140.00,139.00,-404.00,620.00,464.00,18528.00,-2688.00
8827,-114.00,-39.00,-425.00,836.00,200.00,18676.00,-2688.00
8844,-8.00,13.00,-105.00,1000.00,24.00,18512.00,-2704.00
8860,25.00,64.00,8.00,744.00,140.00,18708.00,-2720.00
8877,123.00,80.00,-82.00,888.00,168.00,18792.00,-2688.00
8893,131.00,93.00,-215.00,580.00,432.00,18780.00,-2720.00
8909,116.00,116.00,-208.00,576.00,460.00,18604.00,-2720.00
8926,113.00,-41.00,-216.00,592.00,340.00,18408.00,-2704.00
8942,243.00,-241.00,-170.00,732.00,200.00,18424.00,-2672.00
8958,170.00,-214.00,-166.00,928.00,584.00,18664.00,-2688.00
8975,59.00,-59.00,-163.00,1052.00,592.00,18720.00,-2688.00
8991,39.00,58.00,-98.00,908.00,504.00,18756.00,-2704.00
9008,2.00,136.00,-44.00,1028.00,356.00,18700.00,-2704.00
9024,159.00,65.00,-97.00,832.00,136.00,18524.00,-2688.00
9040,340.00,-37.00,-162.00,1100.00,256.00,18656.00,-2704.00
9057,204.00,66.00,-182.00,1068.00,640.00,18632.00,-2704.00
9073,36.00,276.00,-80.00,812.00,628.00,18740.00,-2688.00
9090,-18.00,245.00,-195.00,628.00,484.00,18564.00,-2704.00
9106,71.00,137.00,-278.00,580.00,444.00,18416.00,-2688.00
9122,235.00,-36.00,-245.00,512.00,320.00,18252.00,-2688.00
9139,325.00,-201.00,-280.00,596.00,388.00,18624.00,-2704.00
9155,272.00,-218.00,-327.00,788.00,544.00,18624.00,-2704.00
9171,112.00,-110.00,-291.00,840.00,704.00,18648.00,-2720.00
9188,-38.00,-1.00,-220.00,864.00,384.00,18632.00,-2656.00
9204,60.00,-27.00,-131.00,784.00,280.00,18616.00,-2672.00
9221,181.00,-68.00,-50.00,960.00,352.00,18628.00,-2688.00
9237,204.00,-44.00,-31.00,1092.00,488.00,18776.00,-2704.00
9253,212.00,53.00,-199.00,996.00,560.00,18800.00,-2736.00
9270,150.00,55.00,-245.00,928.00,600.00,18736.00,-2704.00
9286,91.00,147.00,-263.00,944.00,324.00,18616.00,-2688.00
9303,198.00,132.00,-328.00,1032.00,352.00,18648.00,-2720.00
9319,74.00,174.00,-104.00,560.00,228.00,18448.00,-2688.00
9335,191.00,154.00,178.00,744.00,72.00,18640.00,-2672.00
9352,369.00,1.00,-73.00,696.00,492.00,18600.00,-2704.00
9368,346.00,-26.00,-159.00,828.00,788.00,18584.00,-2704.00
9384,15.00,300.00,191.00,852.00,944.00,18268.00,-2704.00
9401,-161.00,332.00,340.00,696.00,664.00,18320.00,-2720.00
9417,130.00,-103.00,-53.00,492.00,404.00,18404.00,-2688.00
9434,338.00,-425.00,-582.00,956.00,812.00,18488.00,-2736.00
9450,-50.00,-101.00,-478.00,1136.00,1132.00,18684.00,-2704.00
9467,-376.00,212.00,-198.00,888.00,612.00,18820.00,-2672.00
9484,-189.00,218.00,-23.00,812.00,72.00,18720.00,-2704.00
9500,115.00,31.00,-197.00,868.00,-84.00,18748.00,-2688.00
9517,312.00,44.00,-285.00,1056.00,196.00,18964.00,-2704.00
9533,219.00,217.00,-127.00,1072.00,528.00,18764.00,-2688.00
9549,144.00,260.00,-115.00,908.00,664.00,18720.00,-2688.00
9566,-60.00,329.00,-125.00,672.00,704.00,18304.00,-2720.00
9582,-115.00,149.00,-160.00,320.00,380.00,18248.00,-2672.00
9598,163.00,-246.00,-257.00,268.00,388.00,18324.00,-2672.00
9615,267.00,-327.00,-105.00,592.00,504.00,18596.00,-2672.00
9631,103.00,-156.00,-1.00,892.00,620.00,18504.00,-2688.00
9648,-20.00,51.00,78.00,908.00,424.00,18652.00,-2704.00
9664,-51.00,34.00,-103.00,932.00,204.00,18732.00,-2688.00
9680,124.00,-51.00,-159.00,848.00,232.00,18688.00,-2704.00
9697,316.00,-73.00,-237.00,1152.00,272.00,18928.00,-2688.00
9713,286.00,37.00,-148.00,960.00,556.00,18784.00,-2672.00
9730,173.00,174.00,-99.00,952.00,600.00,18820.00,-2672.00
9746,79.00,212.00,-228.00,544.00,576.00,18700.00,-2720.00
9762,4.00,87.00,-253.00,540.00,400.00,18332.00,-2688.00
9779,64.00,17.00,-172.00,588.00,280.00,18504.00,-2720.00
9795,164.00,-72.00,-163.00,576.00,192.00,18632.00,-2672.00
9811,237.00,-199.00,-200.00,712.00,364.00,18588.00,-2640.00
9828,172.00,-37.00,-141.00,924.00,508.00,18640.00,-2720.00
9844,133.00,67.00,-189.00,960.00,556.00,18512.00,-2688.00
9861,141.00,142.00,-207.00,896.00,636.00,18372.00,-2704.00
9877,22.00,122.00,-220.00,692.00,432.00,18464.00,-2688.00
9893,141.00,-105.00,-124.00,488.00,128.00,18588.00,-2688.00
9910,400.00,-295.00,-149.00,564.00,376.00,18564.00,-2704.00
9926,299.00,-260.00,-269.00,1092.00,692.00,18648.00,-2672.00
9944,-28.00,66.00,-68.00,1204.00,664.00,18732.00,-2704.00
9960,-96.00,223.00,-93.00,920.00,564.00,18892.00,-2656.00
9976,-85.00,145.00,-375.00,804.00,472.00,18692.00,-2704.00
9993,-153.00,171.00,-238.00,744.00,140.00,18636.00,-2688.00
10009,57.00,80.00,71.00,676.00,-72.00,18424.00,-2688.00
10025,359.00,-169.00,-199.00,760.00,244.00,18736.00,-2720.00
10042,316.00,-200.00,-464.00,916.00,572.00,18636.00,-2688.00
10058,80.00,156.00,-140.00,776.00,720.00,18552.00,-2688.00
10075,-42.00,138.00,-157.00,644.00,500.00,18588.00,-2720.00
10091,61.00,6.00,-264.00,728.00,380.00,18660.00,-2672.00
10107,154.00,-63.00,-171.00,772.00,324.00,18664.00,-2688.00
10124,191.00,-23.00,-156.00,1044.00,400.00,18764.00,-2720.00
10140,145.00,-69.00,-369.00,964.00,552.00,18628.00,-2704.00
10157,-2.00,108.00,-280.00,752.00,612.00,18528.00,-2688.00
10173,-22.00,70.00,-257.00,588.00,308.00,18572.00,-2704.00
10189,141.00,-100.00,-341.00,592.00,344.00,18596.00,-2688.00
10206,171.00,-105.00,-160.00,652.00,400.00,18576.00,-2688.00
10222,197.00,15.00,77.00,1024.00,396.00,18744.00,-2688.00
10240,198.00,-22.00,-153.00,1064.00,368.00,18868.00,-2688.00
10256,142.00,13.00,-292.00,1080.00,616.00,18672.00,-2688.00
10272,-20.00,148.00,-249.00,988.00,560.00,18664.00,-2688.00
10289,48.00,37.00,-309.00,756.00,312.00,18648.00,-2704.00
10305,50.00,-392.00,-497.00,464.00,272.00,18804.00,-2720.00
10321,311.00,-26.00,-253.00,876.00,356.00,18792.00,-2688.00
10338,136.00,-5.00,-269.00,956.00,652.00,18544.00,-2688.00
10354,-50.00,123.00,-187.00,692.00,512.00,18548.00,-2672.00
10371,-5.00,145.00,-93.00,548.00,56.00,18444.00,-2688.00
10387,390.00,-149.00,-233.00,568.00,216.00,18316.00,-2704.00
10403,458.00,-270.00,-268.00,784.00,788.00,18512.00,-2704.00
10420,152.00,-123.00,-142.00,920.00,664.00,18488.00,-2704.00
10436,107.00,-154.00,-115.00,848.00,612.00,18740.00,-2672.00
10452,65.00,-107.00,-140.00,940.00,580.00,18584.00,-2672.00
10470,129.00,-56.00,-15.00,900.00,332.00,18764.00,-2672.00
10486,260.00,19.00,-61.00,1040.00,380.00,18740.00,-2688.00
10503,233.00,64.00,-199.00,1184.00,432.00,18608.00,-2672.00
10519,68.00,290.00,-35.00,976.00,364.00,18540.00,-2720.00
10535,69.00,264.00,-14.00,768.00,220.00,18484.00,-2704.00
10552,247.00,34.00,-209.00,528.00,416.00,18604.00,-2688.00
10568,351.00,-32.00,-283.00,680.00,572.00,18424.00,-2736.00
10585,173.00,34.00,-166.00,648.00,804.00,18548.00,-2672.00
10601,-68.00,47.00,-328.00,736.00,800.00,18600.00,-2704.00
10617,-259.00,73.00,-256.00,896.00,452.00,18400.00,-2736.00
10634,-233.00,110.00,31.00,732.00,-84.00,18588.00,-2672.00
10650,275.00,-155.00,-114.00,620.00,-44.00,18716.00,-2704.00
10667,404.00,-257.00,-410.00,1012.00,536.00,18816.00,-2688.00
10683,159.00,-68.00,-271.00,880.00,616.00,18808.00,-2704.00
10699,74.00,86.00,-189.00,960.00,616.00,18732.00,-2672.00
10716,89.00,125.00,-108.00,960.00,380.00,18496.00,-2688.00
10733,90.00,121.00,-189.00,832.00,612.00,18572.00,-2672.00
10749,-20.00,133.00,-65.00,932.00,496.00,18428.00,-2704.00
10766,-56.00,197.00,27.00,584.00,404.00,18512.00,-2688.00
10782,173.00,-47.00,-278.00,564.00,368.00,18516.00,-2704.00
10799,171.00,-92.00,-362.00,880.00,472.00,18876.00,-2704.00
10815,110.00,36.00,-226.00,844.00,288.00,18772.00,-2672.00
10831,163.00,5.00,-158.00,916.00,316.00,18656.00,-2688.00
10848,260.00,-22.00,-208.00,628.00,452.00,18600.00,-2672.00
10864,218.00,21.00,-106.00,928.00,476.00,18776.00,-2672.00
10881,101.00,190.00,68.00,904.00,540.00,18548.00,-2720.00
10897,106.00,137.00,0.00,848.00,524.00,18612.00,-2720.00
10913,119.00,24.00,-155.00,864.00,536.00,18460.00,-2672.00
10930,207.00,-79.00,-295.00,796.00,564.00,18508.00,-2688.00
10946,183.00,-41.00,-276.00,776.00,468.00,18616.00,-2656.00
10962,82.00,-4.00,-266.00,744.00,416.00,18704.00,-2688.00
10979,44.00,-33.00,-225.00,708.00,440.00,18648.00,-2704.00
10995,69.00,-54.00,-166.00,568.00,320.00,18460.00,-2672.00
11012,280.00,-224.00,-201.00,616.00,200.00,18596.00,-2672.00
11028,325.00,-203.00,-74.00,1148.00,672.00,18620.00,-2672.00
11044,72.00,160.00,167.00,1084.00,712.00,18928.00,-2672.00
11062,9.00,164.00,-262.00,860.00,648.00,18668.00,-2672.00
11078,59.00,70.00,-403.00,972.00,456.00,18640.00,-2720.00
11095,5.00,63.00,-58.00,752.00,156.00,18544.00,-2672.00
11111,137.00,-46.00,-30.00,844.00,380.00,18660.00,-2672.00
11127,109.00,33.00,-168.00,872.00,596.00,18744.00,-2672.00
11144,101.00,39.00,-313.00,888.00,560.00,18812.00,-2656.00
11160,-22.00,212.00,-136.00,916.00,500.00,18680.00,-2720.00
11176,-29.00,196.00,-172.00,668.00,168.00,18680.00,-2688.00
11193,202.00,-66.00,-187.00,672.00,248.00,18516.00,-2704.00
11209,246.00,-22.00,-163.00,724.00,592.00,18572.00,-2704.00
11226,106.00,-12.00,-229.00,708.00,648.00,18644.00,-2720.00
11242,-29.00,55.00,-118.00,632.00,404.00,18548.00,-2688.00
11258,31.00,-25.00,-123.00,996.00,396.00,18624.00,-2704.00
11275,57.00,58.00,-44.00,800.00,456.00,18708.00,-2720.00
11291,173.00,11.00,-111.00,748.00,428.00,18536.00,-2672.00
11308,106.00,-39.00,-140.00,752.00,512.00,18596.00,-2704.00
11324,201.00,-20.00,-164.00,736.00,556.00,18808.00,-2688.00
11340,167.00,-84.00,-301.00,800.00,476.00,18860.00,-2656.00
11357,191.00,-51.00,-212.00,1160.00,516.00,18604.00,-2688.00
11373,129.00,139.00,-37.00,1124.00,588.00,18680.00,-2704.00
11390,50.00,285.00,-127.00,1012.00,412.00,18640.00,-2688.00
11407,-28.00,328.00,-231.00,748.00,408.00,18552.00,-2736.00
11423,-35.00,159.00,-115.00,496.00,376.00,18492.00,-2672.00
11440,16.00,105.00,-51.00,408.00,416.00,18512.00,-2672.00
11456,118.00,-7.00,-167.00,572.00,228.00,18800.00,-2688.00
11472,321.00,-134.00,-150.00,616.00,400.00,18524.00,-2672.00
11489,240.00,-88.00,-82.00,804.00,556.00,18768.00,-2704.00
11505,-15.00,-46.00,-129.00,900.00,548.00,18704.00,-2688.00
11522,-35.00,52.00,4.00,816.00,280.00,18632.00,-2704.00
11538,113.00,-34.00,-93.00,636.00,296.00,18552.00,-2688.00
11554,339.00,-155.00,-211.00,892.00,552.00,18856.00,-2672.00
11571,221.00,-100.00,-196.00,956.00,612.00,18576.00,-2672.00
11587,188.00,66.00,-181.00,1224.00,564.00,18688.00,-2672.00
11603,28.00,232.00,-184.00,980.00,728.00,18604.00,-2672.00
11620,-83.00,244.00,-318.00,796.00,648.00,18548.00,-2688.00
11636,-31.00,31.00,-305.00,456.00,240.00,18244.00,-2688.00
11653,115.00,23.00,-2.00,768.00,224.00,18668.00,-2672.00
11669,272.00,-66.00,-187.00,728.00,364.00,18684.00,-2720.00
11685,219.00,32.00,-270.00,972.00,644.00,18656.00,-2688.00
11703,4.00,215.00,-124.00,860.00,576.00,18744.00,-2704.00
11719,24.00,63.00,-247.00,580.00,340.00,18688.00,-2704.00
11736,160.00,21.00,-199.00,600.00,300.00,18512.00,-2688.00
11752,155.00,-43.00,11.00,804.00,320.00,18448.00,-2672.00
11768,246.00,-8.00,-28.00,852.00,464.00,18696.00,-2688.00
11785,210.00,-4.00,-160.00,784.00,600.00,18576.00,-2704.00
11801,47.00,3.00,-272.00,696.00,840.00,18660.00,-2656.00
11817,-55.00,-20.00,-274.00,576.00,700.00,18516.00,-2672.00
11834,16.00,-41.00,-243.00,820.00,540.00,18568.00,-2688.00
11850,-25.00,79.00,26.00,896.00,260.00,18504.00,-2688.00
11867,111.00,35.00,-95.00,960.00,344.00,18800.00,-2688.00
11883,92.00,23.00,-235.00,744.00,520.00,18648.00,-2704.00
11899,83.00,128.00,-142.00,840.00,616.00,18556.00,-2704.00
11916,123.00,62.00,-282.00,788.00,288.00,18548.00,-2688.00
11932,133.00,-79.00,-236.00,712.00,412.00,18716.00,-2720.00
11949,88.00,-49.00,-114.00,760.00,468.00,18552.00,-2704.00
11965,63.00,12.00,-144.00,752.00,504.00,18560.00,-2672.00
11981,27.00,-16.00,-192.00,796.00,492.00,18656.00,-2688.00
11998,-42.00,36.00,-123.00,684.00,524.00,18616.00,-2704.00
12014,-33.00,86.00,-86.00,836.00,352.00,18644.00,-2688.00
12030,55.00,-82.00,-241.00,876.00,344.00,18724.00,-2704.00
12047,131.00,-37.00,-170.00,772.00,232.00,18660.00,-2688.00
12063,191.00,5.00,-141.00,828.00,488.00,18756.00,-2688.00
12080,65.00,80.00,-234.00,888.00,560.00,18600.00,-2704.00
12096,-122.00,273.00,-90.00,748.00,252.00,18504.00,-2656.00
12112,25.00,74.00,-201.00,652.00,336.00,18364.00,-2688.00
12129,117.00,12.00,-290.00,716.00,492.00,18572.00,-2672.00
12145,76.00,60.00,-185.00,768.00,236.00,18624.00,-2720.00
12162,166.00,-8.00,-120.00,540.00,116.00,18460.00,-2672.00
12178,434.00,-252.00,-357.00,812.00,508.00,18616.00,-2672.00
12194,193.00,-140.00,-348.00,1040.00,824.00,18348.00,-2704.00
12211,-86.00,126.00,-114.00,984.00,580.00,18536.00,-2688.00
12228,-101.00,83.00,-99.00,712.00,488.00,18572.00,-2672.00
12244,-71.00,21.00,-102.00,592.00,404.00,18532.00,-2656.00
12261,54.00,15.00,-1.00,792.00,244.00,18828.00,-2688.00
12276,224.00,-37.00,-228.00,1048.00,184.00,18996.00,-2720.00
12294,200.00,67.00,-188.00,1116.00,288.00,18636.00,-2720.00
12310,118.00,191.00,-34.00,884.00,380.00,18504.00,-2704.00
12326,94.00,243.00,-61.00,600.00,512.00,18656.00,-2736.00
12343,56.00,245.00,-246.00,460.00,564.00,18500.00,-2688.00
12359,-5.00,140.00,-297.00,484.00,528.00,18384.00,-2720.00
12376,-23.00,-19.00,-198.00,568.00,256.00,18424.00,-2672.00
12392,103.00,-217.00,-164.00,576.00,124.00,18684.00,-2688.00
12408,243.00,-280.00,-291.00,844.00,448.00,18600.00,-2688.00
12425,54.00,-65.00,-61.00,916.00,312.00,18724.00,-2688.00
12441,60.00,118.00,51.00,852.00,368.00,18840.00,-2672.00
12457,111.00,35.00,-270.00,824.00,488.00,18700.00,-2720.00
12474,5.00,130.00,-179.00,956.00,460.00,18636.00,-2688.00
12490,19.00,150.00,-10.00,852.00,228.00,18524.00,-2704.00
12507,136.00,69.00,16.00,864.00,256.00,18548.00,-2688.00
12523,253.00,29.00,-141.00,712.00,352.00,18564.00,-2672.00
12539,251.00,16.00,-323.00,764.00,748.00,18580.00,-2672.00
12556,-30.00,138.00,-254.00,856.00,772.00,18632.00,-2704.00
12572,-144.00,268.00,12.00,696.00,204.00,18540.00,-2688.00
12589,108.00,45.00,-40.00,588.00,-8.00,18536.00,-2688.00
12605,314.00,-54.00,-131.00,656.00,304.00,18544.00,-2688.00
12621,180.00,2.00,-302.00,868.00,620.00,18580.00,-2688.00
12638,42.00,118.00,-275.00,684.00,488.00,18536.00,-2704.00
12655,18.00,29.00,-343.00,544.00,500.00,18536.00,-2672.00
12672,5.00,-15.00,-194.00,728.00,440.00,18648.00,-2688.00
12688,-77.00,88.00,229.00,796.00,420.00,18540.00,-2704.00
12704,-35.00,67.00,184.00,740.00,380.00,18748.00,-2672.00
12721,92.00,-33.00,-259.00,796.00,508.00,18712.00,-2672.00
12737,50.00,-14.00,-379.00,956.00,616.00,18500.00,-2688.00
12753,-236.00,-121.00,-369.00,792.00,568.00,18644.00,-2704.00
12770,-37.00,80.00,-58.00,852.00,212.00,18556.00,-2704.00
12786,54.00,-51.00,-295.00,776.00,144.00,18568.00,-2688.00
12803,203.00,-93.00,-294.00,768.00,264.00,18628.00,-2704.00
12819,54.00,143.00,-72.00,932.00,348.00,18620.00,-2672.00
12835,-65.00,249.00,-112.00,716.00,444.00,18680.00,-2688.00
12852,-63.00,118.00,-209.00,620.00,64.00,18656.00,-2688.00
12868,55.00,22.00,-122.00,528.00,156.00,18544.00,-2672.00
12884,96.00,-491.00,-477.00,688.00,408.00,19004.00,-2720.00
12901,282.00,-192.00,-268.00,796.00,460.00,18608.00,-2704.00
12917,55.00,-148.00,-238.00,956.00,420.00,18644.00,-2672.00
12934,3.00,131.00,-91.00,940.00,556.00,18692.00,-2672.00
12950,-78.00,184.00,-192.00,780.00,544.00,18548.00,-2720.00
12966,-29.00,192.00,-151.00,596.00,68.00,18632.00,-2672.00
12983,240.00,-10.00,-61.00,604.00,84.00,18580.00,-2672.00
12999,281.00,-132.00,-331.00,948.00,548.00,18508.00,-2656.00
13016,-26.00,122.00,-339.00,728.00,704.00,18660.00,-2704.00
13032,-149.00,224.00,-205.00,624.00,372.00,18392.00,-2672.00
13049,-9.00,59.00,-213.00,608.00,372.00,18284.00,-2704.00
13066,100.00,-96.00,-91.00,696.00,396.00,18308.00,-2688.00
13082,128.00,-133.00,-94.00,628.00,384.00,18508.00,-2672.00
13099,31.00,-127.00,-224.00,780.00,436.00,18800.00,-2736.00
13115,-42.00,-23.00,-320.00,844.00,444.00,18716.00,-2704.00
13131,-120.00,61.00,-240.00,868.00,236.00,18760.00,-2672.00
13148,40.00,83.00,-73.00,956.00,-92.00,18636.00,-2672.00
13164,233.00,13.00,-150.00,824.00,240.00,18552.00,-2688.00
13180,272.00,36.00,-144.00,684.00,348.00,18528.00,-2704.00
13197,112.00,126.00,-101.00,764.00,492.00,18568.00,-2672.00
13213,50.00,119.00,-192.00,412.00,516.00,18536.00,-2704.00
13230,1.00,42.00,-287.00,472.00,428.00,18464.00,-2656.00
13246,32.00,-67.00,-293.00,652.00,312.00,18568.00,-2704.00
13262,38.00,-73.00,-114.00,652.00,-24.00,18756.00,-2688.00
13279,122.00,-114.00,-125.00,820.00,140.00,18948.00,-2640.00
13295,136.00,23.00,-58.00,884.00,344.00,18732.00,-2672.00
13312,-13.00,114.00,-60.00,756.00,264.00,18676.00,-2688.00
13328,75.00,70.00,-204.00,692.00,376.00,18664.00,-2704.00
13344,82.00,53.00,-304.00,704.00,416.00,18432.00,-2704.00
13361,11.00,7.00,-163.00,756.00,328.00,18368.00,-2688.00
13377,80.00,31.00,-59.00,784.00,300.00,18500.00,-2672.00
13393,189.00,-62.00,-225.00,684.00,544.00,18532.00,-2672.00
13410,105.00,1.00,-294.00,752.00,588.00,18672.00,-2704.00
13426,-90.00,109.00,-278.00,820.00,532.00,18648.00,-2720.00
13443,-113.00,183.00,-140.00,644.00,236.00,18616.00,-2656.00
13459,66.00,69.00,-95.00,544.00,-128.00,18492.00,-2688.00
13475,258.00,-54.00,-73.00,732.00,12.00,18596.00,-2672.00
13492,209.00,-41.00,-179.00,620.00,368.00,18844.00,-2704.00
13508,65.00,80.00,-225.00,764.00,436.00,18752.00,-2704.00
13524,-66.00,221.00,-102.00,708.00,408.00,18628.00,-2688.00
13541,-131.00,165.00,-74.00,680.00,156.00,18508.00,-2688.00
13558,124.00,-68.00,-26.00,616.00,-136.00,18508.00,-2688.00
13575,301.00,-127.00,-195.00,800.00,308.00,18628.00,-2672.00
13591,176.00,45.00,-183.00,916.00,464.00,18580.00,-2672.00
13607,69.00,198.00,-106.00,816.00,556.00,18636.00,-2688.00
13624,-60.00,267.00,-161.00,668.00,392.00,18576.00,-2688.00
13640,-43.00,155.00,-260.00,600.00,108.00,18652.00,-2704.00
13657,119.00,-22.00,-226.00,632.00,-20.00,18432.00,-2704.00
13673,219.00,-97.00,-123.00,840.00,196.00,18664.00,-2720.00
13689,80.00,65.00,-136.00,656.00,396.00,18704.00,-2656.00
13706,35.00,173.00,-192.00,652.00,452.00,18692.00,-2672.00
13722,-50.00,191.00,-283.00,644.00,248.00,18560.00,-2672.00
13739,-22.00,30.00,-306.00,336.00,28.00,18400.00,-2656.00
13755,135.00,-75.00,-83.00,628.00,-24.00,18640.00,-2672.00
13771,262.00,-199.00,-285.00,640.00,152.00,18608.00,-2688.00
13788,229.00,-130.00,-238.00,1028.00,384.00,18760.00,-2688.00
13804,64.00,249.00,11.00,976.00,408.00,18792.00,-2672.00
13820,-97.00,299.00,-43.00,816.00,268.00,18856.00,-2688.00
13837,-58.00,277.00,-30.00,540.00,28.00,18620.00,-2672.00
13853,191.00,91.00,-127.00,512.00,156.00,18472.00,-2688.00
13871,236.00,77.00,-252.00,448.00,268.00,18520.00,-2672.00
13887,212.00,-76.00,-409.00,500.00,288.00,18468.00,-2672.00
13903,204.00,-122.00,-424.00,528.00,428.00,18452.00,-2704.00
13920,63.00,-65.00,-321.00,644.00,552.00,18428.00,-2704.00
13936,-183.00,75.00,-60.00,724.00,376.00,18512.00,-2688.00
13953,-87.00,79.00,34.00,660.00,16.00,18636.00,-2672.00
13969,115.00,-73.00,14.00,736.00,88.00,18860.00,-2704.00
13985,182.00,19.00,-43.00,892.00,264.00,19012.00,-2688.00
14002,99.00,124.00,-217.00,924.00,424.00,18840.00,-2672.00
14018,55.00,107.00,-389.00,904.00,420.00,18664.00,-2672.00
14034,-51.00,182.00,-203.00,836.00,124.00,18612.00,-2688.00
14051,68.00,111.00,-129.00,652.00,92.00,18452.00,-2688.00
14067,180.00,44.00,-231.00,504.00,220.00,18604.00,-2672.00
14084,113.00,71.00,-198.00,484.00,372.00,18452.00,-2672.00
14100,60.00,104.00,-74.00,400.00,296.00,18552.00,-2656.00
14116,85.00,47.00,-222.00,508.00,144.00,18724.00,-2640.00
14133,153.00,-153.00,-254.00,508.00,-104.00,18636.00,-2688.00
14149,277.00,-200.00,-118.00,560.00,108.00,18776.00,-2704.00
14166,269.00,-167.00,-169.00,716.00,180.00,18684.00,-2704.00
14182,183.00,-101.00,-141.00,680.00,396.00,18780.00,-2704.00
14199,189.00,94.00,-112.00,928.00,472.00,18616.00,-2640.00
14216,-32.00,209.00,-260.00,1036.00,568.00,18584.00,-2688.00
14232,-110.00,291.00,-195.00,956.00,372.00,18512.00,-2688.00
14248,30.00,255.00,15.00,444.00,-108.00,18512.00,-2656.00
14265,271.00,-51.00,-314.00,440.00,72.00,18428.00,-2672.00
14281,364.00,-189.00,-476.00,720.00,232.00,18568.00,-2672.00
14298,156.00,34.00,-254.00,920.00,500.00,18572.00,-2704.00
14314,38.00,157.00,-210.00,684.00,440.00,18644.00,-2688.00
14330,-28.00,105.00,-238.00,524.00,124.00,18560.00,-2656.00
14347,-6.00,79.00,-155.00,524.00,144.00,18556.00,-2720.00
14363,95.00,27.00,-160.00,476.00,180.00,18412.00,-2720.00
14380,113.00,-85.00,-274.00,364.00,88.00,18504.00,-2688.00
14396,216.00,-236.00,-360.00,508.00,272.00,18572.00,-2672.00
14412,230.00,-217.00,-204.00,604.00,148.00,18648.00,-2704.00
14429,312.00,-257.00,-126.00,780.00,280.00,18752.00,-2672.00
14446,212.00,-119.00,-16.00,836.00,400.00,18844.00,-2672.00
14462,61.00,37.00,-74.00,1024.00,540.00,18832.00,-2704.00
14479,-33.00,158.00,-77.00,884.00,356.00,18704.00,-2688.00
14495,-72.00,193.00,-267.00,696.00,440.00,18644.00,-2672.00
14512,-54.00,179.00,-597.00,480.00,428.00,18432.00,-2688.00
14528,73.00,50.00,-713.00,444.00,-116.00,18568.00,-2688.00
14544,321.00,-190.00,-439.00,116.00,-108.00,18464.00,-2704.00
14561,358.00,-249.00,-96.00,580.00,128.00,18724.00,-2672.00
14577,58.00,-9.00,159.00,948.00,312.00,18792.00,-2672.00
14594,-78.00,214.00,153.00,928.00,276.00,18924.00,-2688.00
14610,74.00,114.00,-161.00,680.00,304.00,18748.00,-2704.00
14626,229.00,-112.00,-308.00,568.00,164.00,18556.00,-2704.00
14643,343.00,-212.00,-334.00,680.00,416.00,18800.00,-2672.00
14659,280.00,-112.00,-348.00,732.00,376.00,18628.00,-2704.00
14676,145.00,8.00,-115.00,828.00,360.00,18784.00,-2672.00
14693,38.00,148.00,65.00,788.00,244.00,18672.00,-2704.00
14709,9.00,226.00,0.00,592.00,200.00,18680.00,-2720.00
14725,74.00,239.00,18.00,668.00,124.00,18628.00,-2688.00
14741,212.00,125.00,-131.00,572.00,408.00,18568.00,-2672.00
14758,100.00,21.00,-276.00,532.00,176.00,18620.00,-2704.00
14775,56.00,-44.00,-134.00,448.00,124.00,18492.00,-2688.00
14791,291.00,-183.00,-76.00,584.00,120.00,18440.00,-2704.00
14808,357.00,-178.00,-132.00,852.00,292.00,18336.00,-2672.00
14824,166.00,-88.00,-122.00,848.00,488.00,18748.00,-2704.00
14840,98.00,126.00,108.00,668.00,404.00,18716.00,-2688.00
14857,93.00,74.00,-40.00,596.00,316.00,18612.00,-2720.00
14873,143.00,-22.00,-95.00,504.00,504.00,18560.00,-2704.00
14889,182.00,-30.00,-188.00,804.00,240.00,18896.00,-2672.00
14906,186.00,-61.00,-235.00,892.00,164.00,18544.00,-2704.00
14922,243.00,35.00,-224.00,876.00,308.00,18676.00,-2672.00
14939,114.00,175.00,-235.00,664.00,520.00,18732.00,-2672.00
14955,-106.00,287.00,-201.00,556.00,336.00,18648.00,-2672.00
14971,-12.00,268.00,-115.00,420.00,128.00,18552.00,-2672.00
14988,173.00,-19.00,-253.00,364.00,-20.00,18492.00,-2656.00
15004,307.00,-169.00,-283.00,564.00,208.00,18608.00,-2656.00
15022,258.00,-131.00,-233.00,800.00,180.00,18628.00,-2688.00
15038,82.00,-3.00,-45.00,692.00,116.00,18800.00,-2688.00
15054,108.00,20.00,-80.00,720.00,264.00,18948.00,-2656.00
15071,85.00,31.00,-104.00,660.00,144.00,18784.00,-2672.00
15087,216.00,33.00,80.00,700.00,172.00,18796.00,-2656.00
15104,350.00,9.00,-41.00,684.00,196.00,18668.00,-2672.00
15120,447.00,-117.00,-380.00,776.00,480.00,18544.00,-2656.00
15136,262.00,36.00,-225.00,816.00,572.00,18608.00,-2688.00
15153,85.00,142.00,-69.00,748.00,548.00,18564.00,-2672.00
15169,-82.00,146.00,-13.00,652.00,464.00,18584.00,-2704.00
15185,34.00,23.00,-144.00,428.00,308.00,18568.00,-2688.00
15202,209.00,-115.00,-191.00,608.00,276.00,18712.00,-2672.00
15218,85.00,-65.00,-187.00,516.00,372.00,18600.00,-2672.00
15235,121.00,-91.00,-348.00,516.00,172.00,18596.00,-2688.00
15251,80.00,-77.00,-284.00,744.00,444.00,18692.00,-2688.00
15267,-201.00,173.00,-102.00,820.00,432.00,18644.00,-2672.00
15284,-305.00,161.00,-113.00,668.00,364.00,18536.00,-2704.00
15300,-134.00,-37.00,-93.00,644.00,-92.00,18440.00,-2640.00
15316,236.00,-223.00,-158.00,608.00,88.00,18632.00,-2688.00
15333,282.00,-280.00,-469.00,796.00,396.00,18780.00,-2688.00
15350,13.00,-98.00,-486.00,916.00,608.00,18764.00,-2656.00
15367,-167.00,75.00,-349.00,764.00,444.00,18752.00,-2704.00
15383,-26.00,-3.00,-204.00,644.00,-136.00,18580.00,-2672.00
15399,267.00,-105.00,-36.00,964.00,-4.00,18640.00,-2656.00
15416,249.00,23.00,-96.00,844.00,408.00,18636.00,-2704.00
15432,51.00,228.00,-130.00,680.00,400.00,18648.00,-2656.00
15449,27.00,132.00,-214.00,532.00,256.00,18496.00,-2656.00
15465,143.00,-87.00,-439.00,368.00,164.00,18660.00,-2672.00
15481,118.00,-95.00,-451.00,684.00,368.00,18568.00,-2672.00
15498,-36.00,114.00,-32.00,748.00,364.00,18568.00,-2688.00
15514,-119.00,159.00,72.00,608.00,264.00,18624.00,-2656.00
15531,-97.00,35.00,-82.00,660.00,-24.00,18788.00,-2672.00
15547,49.00,9.00,-244.00,800.00,128.00,18616.00,-2656.00
15563,144.00,40.00,-92.00,688.00,236.00,18568.00,-2656.00
15580,254.00,-75.00,-213.00,528.00,504.00,18756.00,-2672.00
15596,142.00,-50.00,-224.00,608.00,380.00,18632.00,-2704.00
15612,70.00,-94.00,-195.00,652.00,612.00,18500.00,-2672.00
15629,-79.00,55.00,-288.00,876.00,512.00,18500.00,-2688.00
15645,-243.00,184.00,-195.00,848.00,268.00,18504.00,-2640.00
15662,-112.00,203.00,-162.00,836.00,252.00,18512.00,-2704.00
15678,-18.00,67.00,-240.00,652.00,244.00,18596.00,-2704.00
15694,63.00,-23.00,-289.00,472.00,132.00,18556.00,-2688.00
15711,113.00,-167.00,-460.00,388.00,300.00,18580.00,-2672.00
15727,217.00,-348.00,-656.00,868.00,272.00,18608.00,-2704.00
15745,133.00,-152.00,-325.00,840.00,316.00,18692.00,-2688.00
15761,-140.00,87.00,-113.00,912.00,524.00,18868.00,-2704.00
15777,-465.00,64.00,-150.00,392.00,524.00,18712.00,-2704.00
15794,-450.00,356.00,156.00,828.00,-632.00,18972.00,-2704.00
15810,247.00,-119.00,-256.00,756.00,-448.00,18604.00,-2704.00
15826,493.00,-105.00,-455.00,1052.00,384.00,18704.00,-2704.00
15843,45.00,228.00,-211.00,1092.00,688.00,18572.00,-2688.00
15859,-266.00,468.00,36.00,416.00,212.00,18496.00,-2672.00
15876,-143.00,253.00,-43.00,476.00,-128.00,18436.00,-2672.00
15893,82.00,64.00,-35.00,508.00,-60.00,18512.00,-2704.00
15908,141.00,-42.00,-201.00,516.00,304.00,18568.00,-2672.00
15926,85.00,-55.00,-236.00,512.00,236.00,18528.00,-2672.00
15942,3.00,-69.00,-231.00,516.00,188.00,18652.00,-2720.00
15959,5.00,-207.00,-109.00,456.00,48.00,18652.00,-2640.00
15974,51.00,-138.00,-49.00,876.00,164.00,18860.00,-2720.00
15990,30.00,-38.00,-186.00,960.00,152.00,18752.00,-2672.00
16008,-3.00,201.00,104.00,856.00,216.00,18744.00,-2688.00
16024,-82.00,232.00,36.00,692.00,156.00,18452.00,-2704.00
16040,35.00,1.00,-128.00,660.00,208.00,18476.00,-2704.00
16057,113.00,-56.00,-194.00,688.00,20.00,18516.00,-2672.00
16073,273.00,-92.00,-290.00,692.00,60.00,18664.00,-2704.00
16090,243.00,-74.00,-283.00,820.00,340.00,18668.00,-2688.00
16106,4.00,76.00,-157.00,816.00,604.00,18552.00,-2672.00
16122,-274.00,229.00,-150.00,952.00,436.00,18656.00,-2688.00
16139,-279.00,211.00,-195.00,392.00,52.00,18448.00,-2688.00
16155,41.00,-137.00,-285.00,468.00,-96.00,18404.00,-2688.00
16172,134.00,-167.00,-310.00,680.00,112.00,18656.00,-2672.00
16188,17.00,-65.00,-246.00,828.00,144.00,18656.00,-2704.00
16204,-62.00,115.00,-170.00,636.00,152.00,18608.00,-2688.00
16221,-53.00,-17.00,-237.00,616.00,72.00,18524.00,-2672.00
16237,104.00,-30.00,-79.00,620.00,-192.00,18792.00,-2672.00
16253,259.00,-141.00,-52.00,608.00,-16.00,18512.00,-2688.00
16270,254.00,-181.00,-135.00,728.00,348.00,18688.00,-2704.00
16286,23.00,17.00,-205.00,912.00,460.00,18692.00,-2672.00
16303,-195.00,141.00,-241.00,788.00,424.00,18552.00,-2688.00
16319,-133.00,109.00,-324.00,700.00,-24.00,18420.00,-2688.00
16335,88.00,-91.00,-254.00,588.00,-96.00,18656.00,-2688.00
16352,144.00,-75.00,-165.00,680.00,156.00,18668.00,-2672.00
16368,-14.00,14.00,-159.00,768.00,228.00,18716.00,-2704.00
16385,-177.00,228.00,-66.00,724.00,16.00,18672.00,-2688.00
16401,-254.00,263.00,-98.00,532.00,-128.00,18688.00,-2672.00
16418,-31.00,70.00,-175.00,540.00,-320.00,18484.00,-2672.00
16435,205.00,-114.00,-110.00,596.00,-36.00,18380.00,-2688.00
16451,137.00,-104.00,-137.00,884.00,220.00,18796.00,-2704.00
16467,-16.00,-2.00,-239.00,800.00,68.00,18504.00,-2688.00
16484,95.00,65.00,-229.00,892.00,92.00,18720.00,-2688.00
16500,51.00,101.00,-298.00,656.00,364.00,18644.00,-2704.00
16517,-96.00,142.00,-104.00,524.00,-196.00,18520.00,-2656.00
16533,109.00,-15.00,27.00,468.00,-240.00,18560.00,-2720.00
16549,197.00,-128.00,-185.00,640.00,104.00,18588.00,-2672.00
16566,51.00,-122.00,-336.00,608.00,180.00,18764.00,-2672.00
16582,-2.00,-13.00,-252.00,832.00,184.00,18916.00,-2672.00
16599,-45.00,8.00,-250.00,712.00,0.00,18672.00,-2640.00
16615,23.00,18.00,-31.00,784.00,-164.00,18504.00,-2704.00
16631,150.00,125.00,16.00,940.00,208.00,18664.00,-2720.00
16648,94.00,240.00,-107.00,956.00,308.00,18536.00,-2688.00
16664,-43.00,341.00,-163.00,656.00,232.00,18552.00,-2704.00
16680,11.00,228.00,-196.00,432.00,-208.00,18448.00,-2704.00
16697,228.00,-140.00,-405.00,228.00,-136.00,18520.00,-2688.00
16713,319.00,-227.00,-433.00,416.00,-32.00,18768.00,-2672.00
16730,177.00,-147.00,-280.00,504.00,84.00,18664.00,-2688.00
16746,74.00,-46.00,-191.00,720.00,316.00,18732.00,-2720.00
16762,-37.00,21.00,-163.00,836.00,216.00,18492.00,-2672.00
16779,-45.00,57.00,57.00,792.00,-152.00,18604.00,-2688.00
16795,122.00,-70.00,51.00,692.00,-256.00,18808.00,-2640.00
16812,286.00,-90.00,-122.00,792.00,-216.00,18776.00,-2672.00
16828,353.00,-96.00,-228.00,772.00,0.00,18608.00,-2688.00
16844,262.00,-15.00,-226.00,908.00,120.00,18752.00,-2672.00
16861,132.00,140.00,-60.00,740.00,176.00,18448.00,-2672.00
16878,175.00,101.00,-116.00,708.00,100.00,18444.00,-2656.00
16894,248.00,96.00,-134.00,452.00,140.00,18512.00,-2688.00
16911,182.00,48.00,-72.00,476.00,208.00,18540.00,-2688.00
16927,150.00,18.00,-201.00,452.00,72.00,18488.00,-2672.00
16944,68.00,-88.00,-283.00,488.00,216.00,18480.00,-2688.00
16960,-39.00,-29.00,-269.00,448.00,76.00,18616.00,-2672.00
16976,44.00,-66.00,-47.00,480.00,-296.00,18580.00,-2656.00
16993,280.00,-256.00,-83.00,616.00,-252.00,18632.00,-2672.00
17009,402.00,-198.00,-118.00,1076.00,60.00,18676.00,-2672.00
17026,247.00,15.00,-50.00,1120.00,308.00,18748.00,-2672.00
17042,75.00,96.00,-96.00,984.00,260.00,18536.00,-2656.00
17058,53.00,85.00,-218.00,776.00,220.00,18720.00,-2672.00
17075,91.00,93.00,-292.00,832.00,180.00,18540.00,-2688.00
17091,28.00,54.00,-329.00,740.00,16.00,18524.00,-2672.00
17107,139.00,90.00,-147.00,472.00,-136.00,18436.00,-2656.00
17124,111.00,82.00,-142.00,640.00,168.00,18484.00,-2704.00
17140,87.00,6.00,-164.00,480.00,-108.00,18532.00,-2672.00
17157,232.00,-23.00,-138.00,512.00,56.00,18644.00,-2656.00
17173,161.00,-2.00,-229.00,652.00,36.00,18628.00,-2672.00
17189,67.00,-56.00,-182.00,672.00,200.00,18364.00,-2688.00
17206,73.00,-21.00,-97.00,756.00,104.00,18652.00,-2672.00
17222,26.00,-52.00,-213.00,600.00,-60.00,18580.00,-2688.00
17239,166.00,-62.00,-68.00,764.00,-212.00,18664.00,-2672.00
17255,242.00,-40.00,-74.00,788.00,280.00,18576.00,-2688.00
17271,230.00,-76.00,-368.00,708.00,228.00,18588.00,-2672.00
17288,124.00,8.00,-234.00,844.00,112.00,18684.00,-2704.00
17304,78.00,86.00,46.00,884.00,64.00,18652.00,-2688.00
17320,147.00,56.00,-49.00,652.00,72.00,18724.00,-2688.00
17337,160.00,-40.00,-268.00,704.00,120.00,18580.00,-2672.00
17353,140.00,-8.00,-215.00,648.00,76.00,18608.00,-2688.00
17370,187.00,-21.00,-141.00,736.00,-60.00,18732.00,-2672.00
17386,222.00,-57.00,-187.00,856.00,-96.00,18708.00,-2688.00
17402,316.00,18.00,-26.00,872.00,-108.00,18828.00,-2720.00
17419,344.00,133.00,-18.00,940.00,272.00,18684.00,-2672.00
17435,203.00,269.00,-29.00,664.00,216.00,18596.00,-2688.00
17452,243.00,187.00,-60.00,520.00,136.00,18360.00,-2688.00
17468,318.00,54.00,-337.00,464.00,196.00,18400.00,-2672.00
17484,252.00,1.00,-397.00,464.00,96.00,18480.00,-2704.00
17501,159.00,-51.00,-245.00,300.00,40.00,18364.00,-2720.00
17517,257.00,-170.00,-96.00,504.00,-204.00,18684.00,-2672.00
17533,314.00,-244.00,-14.00,544.00,0.00,18796.00,-2672.00
17550,238.00,-99.00,49.00,824.00,148.00,18764.00,-2688.00
17566,113.00,39.00,111.00,736.00,-124.00,18788.00,-2672.00
17583,423.00,-161.00,-138.00,720.00,0.00,18856.00,-2672.00
17599,462.00,-213.00,-376.00,928.00,464.00,18744.00,-2656.00
17616,158.00,-49.00,-293.00,832.00,472.00,18520.00,-2688.00
17633,182.00,98.00,-182.00,856.00,372.00,18572.00,-2688.00
17649,177.00,30.00,-179.00,808.00,216.00,18424.00,-2672.00
17666,175.00,7.00,-62.00,616.00,376.00,18540.00,-2672.00
17682,109.00,36.00,-75.00,692.00,244.00,18672.00,-2688.00
17698,-9.00,73.00,-118.00,628.00,320.00,18432.00,-2672.00
17715,-68.00,97.00,-37.00,688.00,0.00,18440.00,-2672.00
17730,229.00,-65.00,0.00,436.00,-196.00,18440.00,-2704.00
17746,412.00,-304.00,-289.00,744.00,168.00,18736.00,-2656.00
17764,151.00,-71.00,-219.00,948.00,352.00,18640.00,-2688.00
17780,-96.00,141.00,-65.00,672.00,256.00,18480.00,-2704.00
17797,75.00,1.00,-157.00,760.00,128.00,18636.00,-2672.00
17813,170.00,-117.00,-267.00,772.00,140.00,18588.00,-2688.00
17829,247.00,-110.00,-164.00,840.00,92.00,18584.00,-2688.00
17846,276.00,-137.00,-196.00,872.00,256.00,18708.00,-2704.00
17862,204.00,-10.00,-266.00,956.00,284.00,18804.00,-2704.00
17879,159.00,31.00,-227.00,860.00,236.00,18688.00,-2704.00
17895,30.00,269.00,42.00,708.00,68.00,18656.00,-2656.00
17911,113.00,237.00,-35.00,496.00,188.00,18464.00,-2672.00
17928,246.00,69.00,-134.00,436.00,80.00,18516.00,-2672.00
17944,194.00,-36.00,-181.00,596.00,260.00,18452.00,-2720.00
17960,90.00,-62.00,-212.00,728.00,284.00,18556.00,-2688.00
17977,47.00,-5.00,-266.00,680.00,236.00,18576.00,-2704.00
17993,29.00,-1.00,-261.00,740.00,96.00,18488.00,-2688.00
18010,50.00,-37.00,-185.00,584.00,-4.00,18624.00,-2688.00
18026,276.00,-142.00,-64.00,752.00,-156.00,18772.00,-2672.00
18042,352.00,-163.00,-130.00,772.00,316.00,18624.00,-2688.00
18059,164.00,86.00,-25.00,816.00,352.00,18780.00,-2656.00
18075,127.00,158.00,-58.00,792.00,300.00,18556.00,-2688.00
18092,122.00,153.00,-236.00,768.00,244.00,18492.00,-2672.00
18108,56.00,11.00,-224.00,816.00,300.00,18560.00,-2672.00
18125,88.00,-27.00,-213.00,724.00,124.00,18560.00,-2656.00
18142,276.00,-119.00,-206.00,704.00,208.00,18620.00,-2688.00
18158,208.00,-123.00,-180.00,748.00,432.00,18724.00,-2656.00
18174,125.00,14.00,-13.00,812.00,284.00,18840.00,-2688.00
18191,113.00,41.00,-166.00,752.00,340.00,18784.00,-2672.00
18207,4.00,182.00,-230.00,844.00,252.00,18688.00,-2656.00
18224,1.00,212.00,-147.00,684.00,104.00,18412.00,-2672.00
18240,3.00,119.00,-79.00,564.00,20.00,18540.00,-2656.00
18256,131.00,69.00,-161.00,724.00,124.00,18636.00,-2736.00
18273,161.00,-15.00,-128.00,528.00,132.00,18444.00,-2688.00
18289,179.00,-13.00,-107.00,604.00,148.00,18716.00,-2672.00
18306,235.00,-74.00,-73.00,628.00,220.00,18588.00,-2704.00
18322,184.00,-81.00,-158.00,848.00,168.00,18680.00,-2672.00
18338,161.00,11.00,-137.00,920.00,52.00,18820.00,-2656.00
18355,184.00,83.00,-125.00,788.00,180.00,18872.00,-2704.00
18371,159.00,123.00,-145.00,876.00,120.00,18564.00,-2704.00
18387,177.00,66.00,-73.00,564.00,292.00,18400.00,-2672.00
18404,265.00,-16.00,-105.00,692.00,252.00,18588.00,-2656.00
18420,213.00,94.00,-73.00,780.00,252.00,18636.00,-2688.00
18437,205.00,39.00,-184.00,684.00,324.00,18648.00,-2672.00
18453,194.00,90.00,-158.00,836.00,424.00,18804.00,-2672.00
18469,127.00,107.00,-140.00,716.00,312.00,18528.00,-2656.00
18487,174.00,27.00,-176.00,572.00,100.00,18552.00,-2688.00
18503,212.00,14.00,-91.00,764.00,228.00,18756.00,-2688.00
18520,194.00,62.00,-82.00,612.00,152.00,18488.00,-2672.00
18536,293.00,-11.00,-151.00,504.00,20.00,18704.00,-2656.00
18552,284.00,-51.00,-209.00,788.00,304.00,18612.00,-2672.00
18569,116.00,158.00,-11.00,756.00,348.00,18748.00,-2672.00
18585,136.00,115.00,-58.00,704.00,192.00,18568.00,-2656.00
18601,195.00,127.00,-14.00,696.00,56.00,18488.00,-2656.00
18618,238.00,22.00,-119.00,804.00,244.00,18624.00,-2672.00
18634,143.00,73.00,-150.00,504.00,380.00,18676.00,-2656.00
18651,220.00,37.00,-177.00,532.00,164.00,18684.00,-2688.00
18667,245.00,-144.00,-382.00,788.00,432.00,18716.00,-2704.00
18683,42.00,32.00,-313.00,1040.00,420.00,18716.00,-2656.00
18700,-54.00,146.00,-224.00,960.00,-96.00,18680.00,-2672.00
18716,193.00,132.00,-114.00,880.00,-80.00,18792.00,-2672.00
18733,379.00,146.00,-241.00,876.00,176.00,18716.00,-2720.00
18749,134.00,390.00,-83.00,908.00,524.00,18696.00,-2688.00
18766,-39.00,506.00,7.00,352.00,332.00,18560.00,-2688.00
18783,188.00,175.00,-330.00,396.00,264.00,18472.00,-2704.00
18799,202.00,69.00,-202.00,388.00,200.00,18412.00,-2672.00
18816,258.00,-43.00,-91.00,204.00,144.00,18360.00,-2688.00
18832,343.00,-164.00,-127.00,584.00,220.00,18404.00,-2704.00
18848,163.00,-77.00,-169.00,760.00,476.00,18484.00,-2672.00
18865,-78.00,193.00,183.00,616.00,252.00,18664.00,-2672.00
18881,-55.00,64.00,149.00,436.00,20.00,18620.00,-2688.00
18897,185.00,-71.00,-18.00,692.00,292.00,18776.00,-2672.00
18914,116.00,164.00,-43.00,1100.00,464.00,18880.00,-2688.00
18930,32.00,362.00,-126.00,864.00,288.00,18772.00,-2688.00
18947,132.00,334.00,-481.00,896.00,460.00,18756.00,-2688.00
18963,750.00,-492.00,-1634.00,500.00,92.00,18704.00,-2688.00
18979,970.00,-557.00,-1984.00,1084.00,-276.00,19004.00,-2656.00
18997,477.00,-184.00,-1300.00,1696.00,724.00,18984.00,-2672.00
19013,-295.00,1052.00,182.00,1892.00,784.00,19272.00,-2688.00
19030,-820.00,1824.00,968.00,772.00,192.00,18660.00,-2672.00
19046,-666.00,1724.00,1335.00,-516.00,-388.00,18256.00,-2704.00
19062,103.00,857.00,823.00,-1268.00,-388.00,18028.00,-2688.00
19080,836.00,-204.00,-27.00,-632.00,100.00,18048.00,-2672.00
19096,797.00,-408.00,-94.00,376.00,652.00,18312.00,-2672.00
19112,274.00,-94.00,215.00,664.00,940.00,18380.00,-2688.00
19129,-30.00,34.00,296.00,388.00,756.00,18248.00,-2656.00
19145,72.00,-219.00,202.00,160.00,500.00,18000.00,-2704.00
19162,230.00,-523.00,-21.00,448.00,732.00,18364.00,-2688.00
19178,174.00,-556.00,-239.00,820.00,916.00,18528.00,-2688.00
19194,5.00,-516.00,-433.00,772.00,576.00,18604.00,-2688.00
19211,-21.00,-546.00,-348.00,848.00,284.00,18640.00,-2688.00
19227,-8.00,-331.00,-22.00,976.00,352.00,18832.00,-2672.00
19244,6.00,-158.00,-151.00,892.00,420.00,18952.00,-2656.00
19260,-28.00,-155.00,-489.00,760.00,324.00,18692.00,-2640.00
19276,-99.00,-74.00,-448.00,928.00,532.00,18876.00,-2672.00
19293,-322.00,209.00,-97.00,628.00,272.00,18664.00,-2672.00
19309,-233.00,102.00,-35.00,288.00,-208.00,18440.00,-2688.00
19326,93.00,-255.00,-284.00,412.00,-16.00,18540.00,-2688.00
19343,171.00,-271.00,-279.00,624.00,128.00,18648.00,-2672.00
19359,166.00,-126.00,-80.00,800.00,184.00,18636.00,-2704.00
19376,-50.00,39.00,13.00,604.00,308.00,18724.00,-2672.00
19392,15.00,42.00,-101.00,540.00,108.00,18736.00,-2672.00
19408,149.00,-43.00,-78.00,588.00,108.00,18656.00,-2704.00
19425,196.00,-181.00,-171.00,792.00,192.00,18744.00,-2656.00
19441,148.00,-88.00,62.00,888.00,164.00,18740.00,-2688.00
19458,59.00,-42.00,-151.00,952.00,424.00,18652.00,-2672.00
19474,21.00,43.00,-220.00,876.00,388.00,18656.00,-2688.00
19490,-46.00,96.00,-170.00,768.00,232.00,18800.00,-2672.00
19507,52.00,105.00,-35.00,540.00,32.00,18720.00,-2656.00
19523,136.00,162.00,21.00,744.00,36.00,18496.00,-2672.00
19539,158.00,166.00,8.00,628.00,152.00,18436.00,-2688.00
19556,254.00,68.00,-81.00,512.00,200.00,18504.00,-2672.00
19572,339.00,-122.00,-200.00,664.00,236.00,18564.00,-2688.00
19589,356.00,-56.00,-105.00,680.00,708.00,18604.00,-2720.00
19605,153.00,90.00,-48.00,708.00,692.00,18556.00,-2688.00
19621,156.00,-35.00,-183.00,604.00,560.00,18244.00,-2672.00
19638,156.00,-93.00,-258.00,680.00,540.00,18436.00,-2704.00
19654,25.00,-81.00,-171.00,644.00,264.00,18300.00,-2704.00
19671,33.00,-127.00,-194.00,716.00,228.00,18736.00,-2656.00
19687,46.00,-119.00,-206.00,804.00,252.00,18792.00,-2672.00
19703,31.00,-8.00,-264.00,748.00,272.00,18900.00,-2672.00
19720,-36.00,71.00,-309.00,700.00,112.00,18792.00,-2688.00
19736,-107.00,59.00,-213.00,628.00,56.00,18756.00,-2672.00
19752,-55.00,61.00,-314.00,580.00,40.00,18704.00,-2672.00
19769,-22.00,25.00,-262.00,556.00,-312.00,18904.00,-2640.00
19785,211.00,-50.00,-76.00,640.00,-288.00,18636.00,-2704.00
19802,429.00,-67.00,-120.00,972.00,192.00,18908.00,-2688.00
19819,225.00,234.00,25.00,956.00,536.00,18752.00,-2656.00
19835,52.00,413.00,51.00,612.00,344.00,18756.00,-2656.00
19852,186.00,179.00,-9.00,304.00,248.00,18424.00,-2672.00
19868,353.00,-143.00,-171.00,568.00,460.00,18188.00,-2656.00
19885,200.00,-103.00,-121.00,724.00,596.00,18472.00,-2672.00
19901,202.00,-54.00,-99.00,620.00,700.00,18460.00,-2688.00
19917,155.00,-95.00,-249.00,816.00,852.00,18548.00,-2704.00
19934,-16.00,-29.00,-227.00,796.00,784.00,18628.00,-2640.00
19950,-68.00,15.00,-331.00,728.00,484.00,18644.00,-2688.00
19966,-77.00,-39.00,-408.00,788.00,372.00,18584.00,-2672.00
19983,-142.00,119.00,-314.00,692.00,68.00,18792.00,-2656.00
19999,-105.00,34.00,-365.00,500.00,-204.00,18628.00,-2688.00
20016,70.00,-23.00,-315.00,432.00,-236.00,18568.00,-2688.00
20032,135.00,-76.00,-322.00,616.00,112.00,18600.00,-2672.00
20048,19.00,55.00,-143.00,612.00,248.00,18780.00,-2672.00
20065,60.00,59.00,-22.00,588.00,88.00,18756.00,-2720.00
20081,258.00,-166.00,-364.00,640.00,124.00,18668.00,-2656.00
20098,330.00,-99.00,-319.00,912.00,344.00,18744.00,-2672.00
20114,44.00,241.00,-59.00,992.00,380.00,18856.00,-2656.00
20130,9.00,288.00,-158.00,656.00,384.00,18484.00,-2656.00
20147,41.00,219.00,-285.00,636.00,304.00,18584.00,-2704.00
20164,102.00,185.00,-188.00,520.00,212.00,18492.00,-2688.00
20180,258.00,75.00,-144.00,380.00,364.00,18264.00,-2688.00
20197,261.00,40.00,-326.00,540.00,676.00,18504.00,-2688.00
20213,25.00,-43.00,-394.00,580.00,672.00,18400.00,-2688.00
20230,-166.00,68.00,-374.00,588.00,408.00,18556.00,-2672.00
20246,-218.00,-23.00,-401.00,440.00,28.00,18612.00,-2704.00
20262,-43.00,-144.00,-379.00,616.00,-92.00,18472.00,-2688.00
20279,79.00,-223.00,-329.00,840.00,4.00,18740.00,-2704.00
20295,121.00,34.00,-217.00,796.00,96.00,18920.00,-2656.00
20312,22.00,142.00,-180.00,780.00,172.00,18844.00,-2656.00
20328,-5.00,159.00,-210.00,704.00,68.00,18648.00,-2704.00
20344,64.00,111.00,-229.00,636.00,4.00,18652.00,-2656.00
20361,162.00,74.00,-247.00,664.00,144.00,18592.00,-2640.00
20377,148.00,161.00,-253.00,668.00,328.00,18480.00,-2656.00
20393,81.00,131.00,-212.00,516.00,408.00,18392.00,-2672.00
20410,-9.00,66.00,-162.00,612.00,260.00,18536.00,-2688.00
20426,138.00,-4.00,-216.00,452.00,192.00,18628.00,-2672.00
20443,123.00,-41.00,-282.00,796.00,348.00,18648.00,-2672.00
20459,27.00,64.00,-345.00,664.00,404.00,18584.00,-2688.00
20475,-5.00,-43.00,-498.00,496.00,128.00,18668.00,-2720.00
20492,96.00,-61.00,-244.00,500.00,120.00,18548.00,-2672.00
20508,41.00,33.00,-140.00,656.00,184.00,18496.00,-2688.00
20525,102.00,-29.00,-155.00,584.00,72.00,18676.00,-2672.00
20541,63.00,-38.00,-180.00,772.00,192.00,18804.00,-2672.00
20557,-14.00,56.00,-86.00,672.00,308.00,18664.00,-2688.00
20574,1.00,79.00,-167.00,612.00,296.00,18820.00,-2672.00
20590,7.00,62.00,-309.00,788.00,288.00,18468.00,-2688.00
20606,-87.00,102.00,-266.00,616.00,168.00,18704.00,-2656.00
20623,-35.00,157.00,-138.00,644.00,20.00,18692.00,-2656.00
20639,148.00,22.00,-234.00,616.00,96.00,18560.00,-2656.00
20656,145.00,-40.00,-258.00,576.00,200.00,18488.00,-2640.00
20672,92.00,41.00,-186.00,652.00,168.00,18724.00,-2672.00
20688,45.00,100.00,-68.00,708.00,228.00,18664.00,-2688.00
20705,26.00,170.00,-131.00,596.00,116.00,18800.00,-2672.00
20722,20.00,69.00,-303.00,732.00,72.00,18772.00,-2672.00
20738,161.00,61.00,-174.00,640.00,0.00,18676.00,-2640.00
20754,312.00,44.00,-198.00,692.00,300.00,18656.00,-2656.00
20770,146.00,178.00,-115.00,712.00,288.00,18664.00,-2688.00
20788,-3.00,214.00,-92.00,372.00,280.00,18500.00,-2688.00
20804,106.00,40.00,-268.00,384.00,192.00,18448.00,-2672.00
20820,161.00,-56.00,-183.00,492.00,400.00,18460.00,-2704.00
20837,53.00,-114.00,-158.00,660.00,480.00,18444.00,-2656.00
20853,133.00,-133.00,-193.00,656.00,480.00,18476.00,-2672.00
20870,46.00,-140.00,-253.00,700.00,536.00,18520.00,-2688.00
20886,-128.00,7.00,-139.00,696.00,392.00,18684.00,-2672.00
20902,-153.00,6.00,-344.00,720.00,144.00,18628.00,-2672.00
20919,28.00,-5.00,-467.00,724.00,-68.00,18668.00,-2688.00
20935,32.00,21.00,-425.00,796.00,-120.00,18816.00,-2672.00
20952,79.00,47.00,-311.00,548.00,4.00,18632.00,-2688.00
20968,49.00,40.00,-194.00,520.00,16.00,18656.00,-2688.00
20984,0.00,88.00,-184.00,488.00,-36.00,18720.00,-2704.00
21001,26.00,120.00,-84.00,448.00,-28.00,18576.00,-2672.00
21017,120.00,103.00,27.00,452.00,-120.00,18536.00,-2688.00
21033,245.00,60.00,-2.00,628.00,4.00,18764.00,-2688.00
21050,169.00,9.00,-139.00,456.00,148.00,18580.00,-2688.00
21066,137.00,11.00,-98.00,516.00,176.00,18756.00,-2672.00
21083,181.00,-42.00,-102.00,672.00,252.00,18524.00,-2656.00
21099,163.00,-75.00,-116.00,688.00,328.00,18496.00,-2720.00
21115,82.00,20.00,-59.00,748.00,308.00,18680.00,-2672.00
21132,107.00,7.00,-280.00,784.00,252.00,18600.00,-2656.00
21148,120.00,24.00,-305.00,492.00,276.00,18588.00,-2704.00
21165,73.00,-46.00,-407.00,548.00,292.00,18640.00,-2704.00
21181,108.00,11.00,-232.00,476.00,72.00,18616.00,-2656.00
21197,250.00,-101.00,-193.00,464.00,240.00,18520.00,-2672.00
21214,142.00,0.00,-121.00,620.00,360.00,18548.00,-2672.00
21230,-13.00,50.00,-87.00,608.00,240.00,18612.00,-2672.00
21246,-32.00,132.00,21.00,448.00,72.00,18688.00,-2672.00
21263,74.00,-7.00,-166.00,472.00,-24.00,18572.00,-2688.00
21279,170.00,-145.00,-222.00,592.00,144.00,18608.00,-2672.00
21296,161.00,-99.00,-176.00,800.00,144.00,18792.00,-2704.00
21312,53.00,93.00,-60.00,968.00,172.00,18876.00,-2688.00
21328,-16.00,183.00,-127.00,652.00,168.00,18900.00,-2672.00
21345,0.00,245.00,-78.00,540.00,4.00,18740.00,-2640.00
21361,92.00,171.00,-69.00,460.00,48.00,18408.00,-2672.00
21378,174.00,81.00,-134.00,560.00,176.00,18556.00,-2704.00
21394,221.00,159.00,-32.00,544.00,136.00,18412.00,-2672.00
21410,87.00,155.00,26.00,544.00,216.00,18544.00,-2704.00
21427,124.00,57.00,-110.00,424.00,404.00,18416.00,-2688.00
21443,39.00,23.00,-229.00,436.00,380.00,18472.00,-2672.00
21459,-14.00,-34.00,-292.00,496.00,184.00,18440.00,-2672.00
21476,120.00,-59.00,-37.00,548.00,56.00,18560.00,-2672.00
21492,196.00,-115.00,-120.00,712.00,244.00,18596.00,-2672.00
21509,165.00,9.00,-156.00,560.00,312.00,18648.00,-2672.00
21525,142.00,-43.00,-275.00,756.00,64.00,18744.00,-2688.00
21541,134.00,-3.00,-268.00,724.00,276.00,18644.00,-2704.00
21558,12.00,55.00,-206.00,752.00,128.00,18700.00,-2672.00
21574,-65.00,63.00,-168.00,640.00,112.00,18676.00,-2688.00
21591,76.00,71.00,-217.00,524.00,88.00,18652.00,-2672.00
21607,209.00,-99.00,-312.00,444.00,184.00,18444.00,-2688.00
21623,175.00,-108.00,-149.00,736.00,148.00,18564.00,-2656.00
21640,73.00,151.00,139.00,764.00,84.00,18404.00,-2688.00
21656,315.00,58.00,-46.00,640.00,200.00,18648.00,-2672.00
21672,201.00,46.00,-200.00,604.00,572.00,18552.00,-2672.00
21689,-1.00,120.00,-116.00,420.00,240.00,18556.00,-2688.00
21705,112.00,-68.00,-256.00,492.00,160.00,18496.00,-2672.00
21722,169.00,-58.00,-179.00,720.00,224.00,18524.00,-2704.00
21739,48.00,-21.00,-245.00,556.00,264.00,18532.00,-2704.00
