t,gx,gy,gz,ax,ay,az,temp
3,213.00,142.00,-449.00,580.00,2440.00,18320.00,-2320.00
19,244.00,157.00,-326.00,772.00,2420.00,18424.00,-2320.00
35,81.00,-93.00,-91.00,708.00,2472.00,18660.00,-2320.00
52,19.00,-67.00,-30.00,740.00,2428.00,18556.00,-2320.00
68,104.00,-66.00,-133.00,756.00,2324.00,18424.00,-2320.00
84,201.00,54.00,-255.00,752.00,2392.00,18576.00,-2368.00
100,247.00,94.00,-209.00,812.00,2296.00,18348.00,-2320.00
116,211.00,93.00,-70.00,832.00,2512.00,18676.00,-2336.00
133,235.00,113.00,131.00,700.00,2528.00,18500.00,-2320.00
150,308.00,149.00,-91.00,460.00,2484.00,18344.00,-2352.00
166,303.00,135.00,-249.00,556.00,2692.00,18448.00,-2336.00
183,275.00,79.00,-165.00,724.00,2772.00,18484.00,-2336.00
199,224.00,-41.00,-121.00,488.00,2548.00,18544.00,-2320.00
216,106.00,-80.00,-14.00,552.00,2628.00,18640.00,-2336.00
232,160.00,-158.00,11.00,572.00,2576.00,18452.00,-2320.00
248,298.00,-49.00,-260.00,644.00,2676.00,18688.00,-2352.00
265,403.00,220.00,-393.00,800.00,2744.00,18568.00,-2336.00
281,267.00,227.00,-313.00,944.00,2892.00,18652.00,-2368.00
297,7.00,168.00,-84.00,732.00,2792.00,18636.00,-2320.00
314,-126.00,-61.00,47.00,652.00,2440.00,18388.00,-2320.00
330,32.00,105.00,-235.00,348.00,2352.00,18364.00,-2352.00
347,208.00,126.00,-432.00,692.00,2408.00,18328.00,-2368.00
363,385.00,190.00,-253.00,676.00,2352.00,18312.00,-2336.00
379,359.00,145.00,-253.00,636.00,2448.00,18368.00,-2320.00
396,259.00,37.00,-188.00,756.00,2716.00,18392.00,-2320.00
412,291.00,-10.00,-93.00,580.00,2676.00,18420.00,-2336.00
429,249.00,-58.00,-146.00,400.00,2468.00,18492.00,-2320.00
445,307.00,-276.00,-125.00,656.00,2456.00,18348.00,-2352.00
461,330.00,-324.00,-110.00,628.00,2496.00,18360.00,-2336.00
478,354.00,-307.00,-291.00,688.00,2648.00,18440.00,-2304.00
494,308.00,-153.00,-172.00,732.00,2756.00,18456.00,-2336.00
510,273.00,-186.00,-40.00,648.00,2552.00,18416.00,-2368.00
527,214.00,-263.00,-109.00,552.00,2928.00,18464.00,-2336.00
543,270.00,-230.00,-51.00,628.00,2684.00,18320.00,-2320.00
560,280.00,-194.00,-122.00,680.00,2680.00,18616.00,-2320.00
577,321.00,-48.00,-86.00,804.00,2924.00,18652.00,-2352.00
592,283.00,-68.00,-114.00,920.00,2872.00,18720.00,-2304.00
610,147.00,-199.00,-123.00,848.00,2764.00,18524.00,-2352.00
626,223.00,-50.00,36.00,520.00,2636.00,18396.00,-2320.00
643,346.00,61.00,-214.00,596.00,2612.00,18304.00,-2336.00
659,384.00,84.00,-362.00,696.00,2780.00,18388.00,-2320.00
675,290.00,-62.00,-344.00,760.00,2972.00,18656.00,-2336.00
692,52.00,-268.00,-23.00,1004.00,2880.00,18632.00,-2320.00
708,-53.00,-126.00,210.00,616.00,2876.00,18536.00,-2352.00
724,-30.00,-37.00,5.00,668.00,2792.00,18528.00,-2368.00
741,58.00,-15.00,-125.00,748.00,2640.00,18340.00,-2320.00
757,93.00,-145.00,-79.00,572.00,2540.00,18084.00,-2368.00
774,133.00,-203.00,97.00,380.00,2600.00,18232.00,-2320.00
790,-63.00,-430.00,87.00,392.00,2668.00,18512.00,-2336.00
806,-207.00,-592.00,312.00,804.00,2848.00,18344.00,-2352.00
823,-169.00,-522.00,41.00,764.00,2800.00,18572.00,-2320.00
839,52.00,-236.00,-397.00,1396.00,2852.00,18536.00,-2336.00
856,189.00,76.00,-333.00,1492.00,2676.00,18620.00,-2336.00
872,198.00,-86.00,-106.00,1012.00,2704.00,18664.00,-2368.00
888,-46.00,-365.00,67.00,772.00,2636.00,18460.00,-2352.00
905,-136.00,-282.00,264.00,512.00,2748.00,18576.00,-2320.00
921,-80.00,-282.00,65.00,980.00,2668.00,18704.00,-2336.00
937,112.00,-156.00,-198.00,1196.00,2812.00,18712.00,-2320.00
954,379.00,48.00,-377.00,1152.00,2948.00,18680.00,-2304.00
970,317.00,81.00,-459.00,1164.00,3100.00,18676.00,-2320.00
987,280.00,173.00,-508.00,792.00,2820.00,18172.00,-2320.00
1003,400.00,162.00,-506.00,500.00,2488.00,17984.00,-2320.00
1019,512.00,-14.00,-385.00,436.00,2456.00,18232.00,-2352.00
1036,463.00,-211.00,-253.00,736.00,2792.00,18376.00,-2320.00
1053,173.00,-375.00,-134.00,912.00,2984.00,18528.00,-2352.00
1070,220.00,-355.00,-319.00,720.00,2600.00,18328.00,-2352.00
1086,272.00,-230.00,-543.00,1188.00,2716.00,18404.00,-2304.00
1102,369.00,-144.00,-389.00,1276.00,2736.00,18616.00,-2336.00
1119,260.00,-60.00,-367.00,1104.00,3000.00,18648.00,-2352.00
1135,61.00,-154.00,5.00,1224.00,3028.00,18716.00,-2352.00
1152,-177.00,-371.00,190.00,776.00,2676.00,18520.00,-2320.00
1169,-240.00,-635.00,264.00,504.00,2368.00,18144.00,-2352.00
1185,-200.00,-744.00,29.00,608.00,2660.00,18424.00,-2352.00
1202,-400.00,-763.00,-7.00,1192.00,2784.00,18664.00,-2352.00
1218,-704.00,-645.00,632.00,1336.00,2912.00,18812.00,-2320.00
1234,-919.00,-766.00,1061.00,1028.00,2836.00,18472.00,-2320.00
1251,-1326.00,-559.00,1422.00,904.00,3012.00,18860.00,-2336.00
1268,-1989.00,-649.00,2269.00,1276.00,2916.00,18548.00,-2320.00
1285,-2355.00,-619.00,2492.00,428.00,2404.00,18540.00,-2320.00
1301,-1899.00,-305.00,1532.00,1312.00,2212.00,17924.00,-2320.00
1317,-1266.00,97.00,929.00,1432.00,1948.00,18332.00,-2320.00
1334,-782.00,61.00,745.00,1228.00,1904.00,18220.00,-2336.00
1351,-900.00,51.00,1015.00,2680.00,2764.00,19448.00,-2336.00
1368,-1625.00,-871.00,3455.00,900.00,2392.00,19132.00,-2320.00
1384,-1480.00,-549.00,1582.00,1216.00,2260.00,18488.00,-2352.00
1400,-1071.00,-232.00,860.00,1336.00,2384.00,19204.00,-2320.00
1418,-1177.00,404.00,608.00,1600.00,2192.00,18584.00,-2336.00
1434,-993.00,238.00,654.00,1192.00,1944.00,18684.00,-2352.00
1451,-740.00,-177.00,603.00,908.00,1892.00,18224.00,-2304.00
1467,-996.00,-13.00,160.00,864.00,2320.00,18796.00,-2352.00
1483,-1561.00,-38.00,412.00,1500.00,1832.00,18548.00,-2336.00
1500,-1489.00,-720.00,1181.00,1204.00,1416.00,18160.00,-2368.00
1517,-1535.00,-987.00,1089.00,1364.00,1588.00,18160.00,-2304.00
1533,-1156.00,-708.00,860.00,1404.00,1688.00,18472.00,-2320.00
1550,-1068.00,-385.00,640.00,1588.00,1568.00,18512.00,-2336.00
1566,-1099.00,-422.00,772.00,1796.00,1532.00,18600.00,-2352.00
1584,-1230.00,-641.00,1225.00,1796.00,1476.00,18644.00,-2336.00
1600,-1105.00,-881.00,1426.00,1324.00,1144.00,18724.00,-2352.00
1616,-978.00,-749.00,1202.00,1748.00,1284.00,18656.00,-2384.00
1633,-710.00,-395.00,961.00,1816.00,1108.00,18844.00,-2368.00
1650,-608.00,126.00,319.00,1524.00,1432.00,18944.00,-2320.00
1667,-769.00,223.00,244.00,1976.00,1584.00,19304.00,-2336.00
1683,-1200.00,166.00,678.00,2100.00,1584.00,18956.00,-2336.00
1699,-1149.00,229.00,880.00,512.00,1016.00,17960.00,-2320.00
1716,-852.00,97.00,-573.00,1272.00,1080.00,18540.00,-2368.00
1732,-878.00,413.00,-148.00,2160.00,1532.00,19188.00,-2336.00
1750,-1196.00,233.00,13.00,1524.00,1388.00,18628.00,-2352.00
1766,-1166.00,303.00,-82.00,1348.00,1196.00,18420.00,-2320.00
1782,-943.00,216.00,122.00,1676.00,968.00,18396.00,-2336.00
1799,-990.00,406.00,372.00,2060.00,1056.00,18880.00,-2320.00
1815,-1420.00,498.00,593.00,1536.00,1128.00,18692.00,-2304.00
1832,-1471.00,322.00,778.00,1396.00,708.00,18164.00,-2288.00
1849,-1572.00,-51.00,914.00,1436.00,820.00,18376.00,-2304.00
1865,-1555.00,-63.00,995.00,1308.00,744.00,18600.00,-2336.00
1882,-1990.00,138.00,816.00,1684.00,856.00,18808.00,-2336.00
1898,-1967.00,291.00,902.00,1252.00,732.00,18284.00,-2320.00
1914,-1457.00,163.00,712.00,904.00,372.00,17992.00,-2320.00
1931,-891.00,27.00,209.00,1136.00,124.00,18372.00,-2336.00
1948,-516.00,407.00,-122.00,1568.00,636.00,18748.00,-2320.00
1965,-600.00,474.00,224.00,1748.00,756.00,18768.00,-2320.00
1981,-837.00,85.00,809.00,1684.00,496.00,18712.00,-2320.00
1997,-1045.00,-88.00,837.00,1632.00,388.00,18824.00,-2352.00
2014,-1367.00,39.00,993.00,1568.00,340.00,18908.00,-2320.00
2030,-973.00,498.00,459.00,1496.00,300.00,18544.00,-2304.00
2046,-392.00,679.00,7.00,1528.00,340.00,18336.00,-2352.00
2063,-163.00,808.00,-53.00,1712.00,436.00,18952.00,-2352.00
2079,-605.00,805.00,464.00,1476.00,324.00,18744.00,-2352.00
2096,-784.00,398.00,971.00,736.00,16.00,18252.00,-2352.00
2113,-1053.00,-45.00,1240.00,1016.00,196.00,18860.00,-2336.00
2129,-1345.00,-418.00,1302.00,1248.00,260.00,18672.00,-2320.00
2146,-1163.00,-217.00,686.00,1340.00,24.00,18644.00,-2336.00
2162,-818.00,18.00,486.00,1464.00,-264.00,18336.00,-2336.00
2179,-456.00,87.00,373.00,1044.00,56.00,18564.00,-2336.00
2195,-565.00,12.00,573.00,1140.00,-32.00,18676.00,-2384.00
2211,-368.00,-68.00,504.00,872.00,-168.00,18416.00,-2320.00
2228,-198.00,-289.00,259.00,1244.00,-240.00,18492.00,-2304.00
2244,-183.00,-273.00,168.00,1528.00,-248.00,18684.00,-2320.00
2262,-278.00,-236.00,9.00,1616.00,-192.00,18972.00,-2320.00
2278,-503.00,-157.00,173.00,1788.00,-104.00,18856.00,-2336.00
2294,-362.00,-33.00,162.00,1416.00,-332.00,18492.00,-2320.00
2311,-236.00,96.00,100.00,1524.00,-244.00,18780.00,-2336.00
2327,-126.00,182.00,152.00,1452.00,-252.00,18760.00,-2336.00
2343,-82.00,116.00,201.00,1440.00,-156.00,18644.00,-2336.00
2360,-354.00,-73.00,400.00,1532.00,0.00,18860.00,-2336.00
2376,-541.00,-289.00,494.00,1240.00,-36.00,18696.00,-2320.00
2393,-473.00,-289.00,337.00,1216.00,-464.00,18572.00,-2288.00
2409,-283.00,-11.00,-85.00,1372.00,-420.00,18484.00,-2352.00
2425,-197.00,111.00,-176.00,1396.00,-308.00,18804.00,-2336.00
2442,-200.00,-30.00,-166.00,1480.00,-280.00,18624.00,-2320.00
2458,-13.00,-101.00,-295.00,1208.00,-364.00,18548.00,-2320.00
2476,70.00,-22.00,-373.00,1364.00,-280.00,18668.00,-2320.00
2492,30.00,73.00,-473.00,1732.00,-160.00,19036.00,-2336.00
2508,-120.00,106.00,-317.00,1524.00,-32.00,19000.00,-2320.00
2525,-249.00,91.00,-88.00,1536.00,-132.00,18616.00,-2352.00
2541,-175.00,-79.00,-73.00,1248.00,-364.00,18512.00,-2384.00
2557,-15.00,-132.00,-200.00,1260.00,-368.00,18688.00,-2336.00
2574,-14.00,-99.00,-138.00,1464.00,-336.00,18600.00,-2336.00
2590,-304.00,-429.00,58.00,1564.00,-124.00,18588.00,-2352.00
2607,-218.00,-189.00,343.00,1156.00,-400.00,18672.00,-2352.00
2623,321.00,537.00,176.00,1968.00,-752.00,17308.00,-2352.00
2639,186.00,-191.00,-346.00,1152.00,-496.00,18720.00,-2304.00
2656,501.00,333.00,-359.00,1484.00,-152.00,19096.00,-2336.00
2672,313.00,161.00,-557.00,1604.00,-356.00,18200.00,-2336.00
2690,465.00,105.00,-562.00,1540.00,-440.00,18324.00,-2352.00
2706,438.00,77.00,-490.00,1512.00,40.00,18936.00,-2320.00
2722,244.00,110.00,-376.00,1492.00,-76.00,18684.00,-2336.00
2739,300.00,276.00,55.00,1788.00,-12.00,18916.00,-2304.00
2755,326.00,169.00,115.00,1024.00,-392.00,18948.00,-2320.00
2771,472.00,229.00,-179.00,1164.00,-188.00,18816.00,-2320.00
2788,145.00,-60.00,-437.00,1260.00,96.00,18988.00,-2336.00
2804,300.00,508.00,-38.00,2196.00,-80.00,18296.00,-2352.00
2821,175.00,247.00,-151.00,1012.00,-340.00,18680.00,-2320.00
2837,120.00,200.00,-565.00,1176.00,-144.00,18720.00,-2320.00
2853,348.00,761.00,-273.00,1980.00,-132.00,18636.00,-2352.00
2871,77.00,398.00,430.00,1608.00,-108.00,18740.00,-2320.00
2887,-110.00,170.00,346.00,1180.00,-4.00,18624.00,-2320.00
2904,-175.00,172.00,-28.00,948.00,-96.00,18608.00,-2384.00
2920,-60.00,36.00,-368.00,980.00,-224.00,18572.00,-2336.00
2936,25.00,-141.00,-730.00,1028.00,-188.00,18816.00,-2320.00
2953,-52.00,-117.00,-724.00,1800.00,-64.00,18776.00,-2336.00
2969,199.00,316.00,-211.00,1512.00,-216.00,19128.00,-2304.00
2985,-155.00,49.00,-486.00,1408.00,-160.00,18652.00,-2336.00
3002,-253.00,30.00,-495.00,1552.00,-80.00,18892.00,-2304.00
3018,-58.00,335.00,39.00,1660.00,-308.00,18804.00,-2320.00
3035,-298.00,-198.00,-256.00,900.00,-480.00,18200.00,-2320.00
3051,86.00,45.00,-532.00,1124.00,-348.00,18472.00,-2352.00
3067,283.00,115.00,-784.00,1388.00,-320.00,18644.00,-2336.00
3084,289.00,80.00,-644.00,1480.00,-284.00,18876.00,-2336.00
3100,147.00,-34.00,-231.00,1444.00,-384.00,18648.00,-2336.00
3117,35.00,-399.00,162.00,1468.00,-160.00,18720.00,-2336.00
3134,517.00,327.00,553.00,872.00,-404.00,19420.00,-2304.00
3150,93.00,-220.00,14.00,908.00,-404.00,18832.00,-2320.00
3167,346.00,-76.00,-441.00,1176.00,-436.00,18588.00,-2320.00
3183,476.00,-178.00,-505.00,1284.00,-168.00,18868.00,-2320.00
3200,361.00,52.00,-335.00,1628.00,108.00,18676.00,-2320.00
3216,271.00,187.00,-149.00,1640.00,72.00,18772.00,-2320.00
3232,-50.00,-323.00,321.00,1820.00,-312.00,19080.00,-2304.00
3249,-46.00,-24.00,311.00,2420.00,-440.00,17292.00,-2336.00
3265,333.00,295.00,297.00,764.00,-612.00,19168.00,-2336.00
3281,93.00,209.00,-639.00,520.00,-332.00,19032.00,-2336.00
3298,31.00,201.00,-912.00,980.00,16.00,18576.00,-2320.00
3314,24.00,81.00,-690.00,1120.00,-40.00,18508.00,-2336.00
3331,8.00,-95.00,-401.00,1324.00,-180.00,18512.00,-2320.00
3347,-93.00,-310.00,-65.00,1712.00,-144.00,19032.00,-2368.00
3363,-156.00,-278.00,-2.00,1372.00,-200.00,18648.00,-2336.00
3380,8.00,-251.00,-144.00,1384.00,-320.00,18620.00,-2304.00
3396,186.00,-123.00,-415.00,1200.00,-328.00,18856.00,-2320.00
3412,242.00,-45.00,-608.00,1400.00,-144.00,18660.00,-2352.00
3429,372.00,-64.00,-551.00,1216.00,-360.00,18444.00,-2320.00
3446,565.00,52.00,-289.00,1508.00,-276.00,18620.00,-2352.00
3463,365.00,-448.00,62.00,1520.00,-124.00,18948.00,-2320.00
3479,54.00,-673.00,190.00,1552.00,-8.00,18752.00,-2320.00
3495,-84.00,-715.00,324.00,1392.00,120.00,18720.00,-2336.00
3512,0.00,-382.00,55.00,1368.00,-96.00,18624.00,-2320.00
3528,77.00,-246.00,-130.00,1660.00,-20.00,18752.00,-2336.00
3545,256.00,231.00,101.00,1444.00,4.00,18636.00,-2352.00
3561,-30.00,582.00,317.00,1400.00,316.00,18636.00,-2320.00
3577,-407.00,589.00,1023.00,1444.00,-164.00,18708.00,-2288.00
3594,-863.00,733.00,1511.00,1512.00,-936.00,18996.00,-2320.00
3610,-808.00,-180.00,1552.00,1280.00,-1052.00,18668.00,-2336.00
3627,-418.00,-1054.00,690.00,984.00,-1024.00,18680.00,-2320.00
3644,168.00,-1397.00,-246.00,812.00,-292.00,18212.00,-2368.00
3660,314.00,-1100.00,-1111.00,904.00,-608.00,19096.00,-2336.00
3677,1140.00,574.00,-2480.00,1596.00,272.00,18532.00,-2320.00
3693,2210.00,977.00,-2331.00,1364.00,188.00,17900.00,-2336.00
3709,2653.00,871.00,-2141.00,1880.00,56.00,18828.00,-2320.00
3727,2182.00,160.00,-803.00,1768.00,288.00,19100.00,-2352.00
3743,1014.00,-379.00,240.00,1852.00,-312.00,18772.00,-2336.00
3760,528.00,211.00,-68.00,1464.00,-136.00,18856.00,-2320.00
3776,189.00,-267.00,-333.00,1408.00,248.00,18748.00,-2352.00
3792,175.00,-382.00,-445.00,1480.00,292.00,18912.00,-2320.00
3809,471.00,-624.00,-423.00,1220.00,156.00,18452.00,-2352.00
3825,846.00,57.00,-648.00,1400.00,228.00,18568.00,-2304.00
3842,880.00,294.00,-188.00,1496.00,204.00,18740.00,-2320.00
3859,339.00,472.00,250.00,1936.00,208.00,19172.00,-2304.00
3875,-105.00,268.00,249.00,1476.00,-148.00,18856.00,-2336.00
3892,26.00,605.00,-185.00,1232.00,-220.00,18812.00,-2304.00
3908,-74.00,438.00,-273.00,1360.00,28.00,18892.00,-2336.00
3924,-135.00,508.00,-215.00,1448.00,228.00,18592.00,-2320.00
3941,-31.00,579.00,190.00,1348.00,424.00,18520.00,-2320.00
3957,-146.00,1146.00,565.00,1364.00,436.00,18732.00,-2320.00
3974,-303.00,1207.00,1106.00,1212.00,284.00,18552.00,-2320.00
3990,-351.00,990.00,1138.00,1052.00,-336.00,18644.00,-2304.00
4007,-67.00,3.00,-737.00,656.00,-1372.00,19016.00,-2320.00
4024,1765.00,-1470.00,-1870.00,532.00,-520.00,18052.00,-2304.00
4040,2504.00,-1481.00,-2405.00,1340.00,488.00,18360.00,-2352.00
4057,2646.00,-1022.00,-1994.00,1712.00,784.00,18704.00,-2352.00
4073,2306.00,-391.00,-1863.00,1620.00,1132.00,18548.00,-2336.00
4090,1750.00,80.00,-1154.00,1204.00,384.00,18560.00,-2352.00
4107,878.00,114.00,-587.00,1668.00,356.00,18976.00,-2336.00
4123,-464.00,-490.00,-80.00,1480.00,756.00,18932.00,-2336.00
4140,-1048.00,-727.00,371.00,1460.00,872.00,18912.00,-2336.00
4156,-1134.00,-882.00,474.00,1560.00,964.00,18804.00,-2320.00
4173,-978.00,-733.00,853.00,1548.00,488.00,18768.00,-2304.00
4190,-1072.00,159.00,659.00,1276.00,584.00,18916.00,-2336.00
4206,-965.00,155.00,218.00,1488.00,-108.00,18260.00,-2352.00
4222,-336.00,1108.00,-637.00,1580.00,-32.00,18376.00,-2320.00
4239,-291.00,315.00,-699.00,1344.00,4.00,18860.00,-2352.00
4255,-86.00,393.00,-1258.00,1120.00,-368.00,19132.00,-2320.00
4272,258.00,-921.00,-1562.00,1500.00,160.00,18644.00,-2352.00
4288,1171.00,-903.00,-1394.00,1656.00,152.00,18624.00,-2336.00
4305,1117.00,-943.00,-1554.00,1308.00,224.00,18456.00,-2352.00
4322,1074.00,-1131.00,-1568.00,1104.00,324.00,18248.00,-2336.00
4338,567.00,811.00,-1724.00,1788.00,376.00,19048.00,-2320.00
4355,264.00,1768.00,-673.00,1872.00,1456.00,19048.00,-2336.00
4372,-653.00,2329.00,-817.00,1024.00,76.00,18792.00,-2320.00
4388,-726.00,1468.00,-1632.00,588.00,220.00,18576.00,-2336.00
4405,-450.00,1526.00,-1829.00,1388.00,-204.00,18636.00,-2336.00
4421,56.00,79.00,-1495.00,1364.00,956.00,18496.00,-2320.00
4438,543.00,-1457.00,-991.00,1296.00,556.00,18588.00,-2320.00
4454,707.00,-1375.00,-1021.00,1148.00,-124.00,18388.00,-2336.00
4471,113.00,-1407.00,-574.00,1716.00,388.00,18900.00,-2320.00
4488,166.00,-894.00,-1078.00,988.00,368.00,18244.00,-2336.00
4504,818.00,-495.00,-1124.00,1320.00,444.00,18496.00,-2336.00
4520,1002.00,-265.00,-927.00,1892.00,436.00,18900.00,-2320.00
4537,834.00,-5.00,-576.00,1684.00,1092.00,18084.00,-2320.00
4553,754.00,-297.00,97.00,2036.00,992.00,19116.00,-2320.00
4571,505.00,-405.00,694.00,2012.00,700.00,19320.00,-2352.00
4587,472.00,-1044.00,788.00,1248.00,-80.00,18512.00,-2288.00
4603,445.00,-1340.00,422.00,1308.00,-120.00,18560.00,-2320.00
4620,399.00,-1993.00,158.00,1512.00,216.00,18804.00,-2320.00
4636,194.00,-90.00,-417.00,1660.00,-96.00,18796.00,-2336.00
4653,341.00,368.00,-715.00,1356.00,1356.00,17920.00,-2320.00
4669,878.00,1275.00,-307.00,1740.00,1460.00,18292.00,-2288.00
4686,1465.00,4.00,296.00,1804.00,832.00,18308.00,-2336.00
4703,2064.00,-83.00,122.00,1580.00,412.00,18616.00,-2320.00
4719,1879.00,-747.00,180.00,1748.00,416.00,18568.00,-2320.00
4736,1030.00,-1043.00,538.00,1648.00,208.00,19048.00,-2304.00
4752,-218.00,-239.00,242.00,1332.00,232.00,18240.00,-2352.00
4768,-313.00,35.00,93.00,1512.00,1032.00,18364.00,-2320.00
4785,-16.00,1677.00,-376.00,1720.00,1432.00,18780.00,-2320.00
4802,-60.00,1704.00,-167.00,1580.00,1208.00,18676.00,-2352.00
4818,238.00,1581.00,-160.00,1184.00,716.00,18588.00,-2304.00
4835,76.00,735.00,-10.00,1380.00,672.00,18548.00,-2320.00
4851,16.00,286.00,107.00,1680.00,428.00,18804.00,-2336.00
4868,-612.00,-291.00,123.00,2020.00,252.00,19624.00,-2320.00
4884,-1212.00,-443.00,134.00,1660.00,928.00,18756.00,-2336.00
4900,-1055.00,-375.00,43.00,1616.00,828.00,18504.00,-2352.00
4917,-936.00,63.00,-195.00,1612.00,1228.00,18708.00,-2320.00
4934,-900.00,887.00,-170.00,1768.00,600.00,18756.00,-2320.00
4951,-775.00,303.00,127.00,1208.00,312.00,18428.00,-2384.00
4967,-172.00,198.00,138.00,876.00,316.00,18172.00,-2320.00
4983,293.00,170.00,-36.00,1476.00,636.00,18596.00,-2320.00
5000,257.00,-229.00,-43.00,1348.00,484.00,18608.00,-2320.00
5016,204.00,-46.00,-122.00,1488.00,556.00,18668.00,-2304.00
5032,131.00,-77.00,-238.00,1360.00,520.00,18544.00,-2336.00
5049,24.00,123.00,-118.00,1120.00,340.00,18496.00,-2336.00
5065,-30.00,442.00,-104.00,1436.00,364.00,18832.00,-2352.00
5082,-240.00,-180.00,124.00,1536.00,428.00,18832.00,-2336.00
5098,-195.00,-374.00,151.00,1316.00,460.00,18720.00,-2320.00
5115,93.00,-87.00,5.00,1444.00,436.00,18384.00,-2336.00
5132,287.00,49.00,-201.00,1480.00,444.00,18684.00,-2336.00
5148,280.00,391.00,-509.00,1364.00,324.00,18752.00,-2336.00
5165,258.00,591.00,-569.00,1400.00,444.00,18744.00,-2336.00
5181,249.00,639.00,-596.00,1540.00,372.00,18708.00,-2336.00
5197,372.00,556.00,-668.00,1428.00,464.00,18428.00,-2352.00
5214,579.00,272.00,-354.00,1384.00,720.00,18512.00,-2352.00
5230,482.00,170.00,-90.00,1408.00,636.00,18708.00,-2352.00
5246,296.00,174.00,156.00,1356.00,540.00,18592.00,-2352.00
5263,109.00,211.00,-81.00,972.00,256.00,18472.00,-2320.00
5279,370.00,447.00,-646.00,1068.00,416.00,18584.00,-2336.00
5297,701.00,345.00,-804.00,1168.00,568.00,18696.00,-2336.00
5313,760.00,258.00,-615.00,1284.00,460.00,18512.00,-2320.00
5329,736.00,309.00,-406.00,1092.00,572.00,18552.00,-2320.00
5346,547.00,86.00,-75.00,1380.00,648.00,18636.00,-2288.00
5362,234.00,-13.00,-94.00,1328.00,584.00,18888.00,-2304.00
5379,141.00,-139.00,-275.00,1324.00,508.00,18880.00,-2336.00
5395,238.00,-49.00,-606.00,1388.00,752.00,18944.00,-2304.00
5411,394.00,124.00,-595.00,1500.00,776.00,19036.00,-2336.00
5428,273.00,112.00,-263.00,1396.00,792.00,18700.00,-2336.00
5445,109.00,68.00,124.00,1208.00,624.00,18628.00,-2336.00
5462,50.00,22.00,198.00,1196.00,604.00,18572.00,-2336.00
5478,163.00,175.00,-80.00,1160.00,644.00,18340.00,-2320.00
5494,103.00,5.00,-162.00,1224.00,668.00,18660.00,-2320.00
5511,147.00,85.00,-133.00,1504.00,696.00,18492.00,-2320.00
5527,227.00,9.00,-67.00,1424.00,648.00,18572.00,-2352.00
5543,336.00,71.00,-29.00,1288.00,500.00,18684.00,-2336.00
5560,358.00,58.00,-69.00,1124.00,588.00,18636.00,-2336.00
5576,311.00,157.00,-101.00,1456.00,688.00,18972.00,-2320.00
5593,83.00,-44.00,12.00,1340.00,628.00,19012.00,-2352.00
5609,54.00,-221.00,-151.00,1140.00,560.00,18512.00,-2368.00
5625,235.00,-133.00,-319.00,1288.00,892.00,18656.00,-2320.00
5642,299.00,53.00,-526.00,1328.00,796.00,18532.00,-2336.00
5658,204.00,119.00,-316.00,1300.00,812.00,18672.00,-2320.00
5675,-39.00,-173.00,46.00,1440.00,704.00,18712.00,-2304.00
5691,-76.00,-159.00,200.00,1112.00,612.00,18512.00,-2320.00
5707,-28.00,-188.00,169.00,1320.00,676.00,18712.00,-2320.00
5724,-114.00,-448.00,30.00,1148.00,696.00,18648.00,-2320.00
5741,63.00,-341.00,-321.00,1008.00,680.00,18272.00,-2320.00
5757,302.00,-124.00,-437.00,1480.00,772.00,18472.00,-2336.00
5774,298.00,-28.00,-269.00,1576.00,736.00,18808.00,-2320.00
5790,180.00,-163.00,202.00,1432.00,712.00,18588.00,-2336.00
5807,176.00,-191.00,369.00,1300.00,748.00,18532.00,-2336.00
5823,323.00,-114.00,198.00,1260.00,660.00,18780.00,-2336.00
5839,419.00,-168.00,-208.00,1176.00,756.00,18760.00,-2320.00
5856,359.00,-256.00,-146.00,1312.00,736.00,18564.00,-2320.00
5872,139.00,-315.00,-82.00,1360.00,704.00,18684.00,-2320.00
5890,121.00,-167.00,-81.00,1240.00,612.00,18652.00,-2352.00
5906,113.00,-203.00,-178.00,1356.00,656.00,18712.00,-2320.00
5922,180.00,-207.00,-216.00,1344.00,828.00,18788.00,-2352.00
5939,326.00,-62.00,-183.00,1404.00,944.00,18568.00,-2352.00
5955,310.00,-18.00,-125.00,1536.00,752.00,18676.00,-2320.00
5971,141.00,163.00,-167.00,1504.00,696.00,18900.00,-2336.00
5988,-56.00,-23.00,-118.00,1436.00,1016.00,18888.00,-2320.00
6004,5.00,-9.00,-156.00,1456.00,804.00,18596.00,-2336.00
6021,104.00,-75.00,-144.00,1356.00,764.00,18548.00,-2352.00
6037,283.00,33.00,-189.00,1340.00,712.00,18480.00,-2320.00
6053,429.00,107.00,-366.00,1260.00,560.00,18580.00,-2288.00
6070,438.00,172.00,-306.00,1412.00,724.00,18612.00,-2352.00
6087,328.00,57.00,-183.00,1460.00,788.00,18588.00,-2320.00
6104,243.00,-103.00,-190.00,1192.00,860.00,18580.00,-2320.00
6120,248.00,-153.00,-227.00,1384.00,1144.00,18744.00,-2352.00
6136,137.00,-94.00,-65.00,1308.00,916.00,18824.00,-2288.00
6153,-69.00,-126.00,-67.00,1584.00,888.00,18772.00,-2320.00
6169,-24.00,-44.00,-68.00,1500.00,804.00,18696.00,-2336.00
6185,71.00,44.00,44.00,1548.00,776.00,18776.00,-2320.00
6202,132.00,71.00,15.00,1524.00,804.00,18780.00,-2304.00
6218,141.00,168.00,-152.00,1516.00,780.00,18844.00,-2320.00
6235,150.00,89.00,-284.00,1288.00,556.00,18688.00,-2320.00
6251,308.00,281.00,-544.00,1400.00,740.00,18532.00,-2320.00
6267,322.00,286.00,-550.00,1500.00,724.00,18768.00,-2320.00
6284,152.00,223.00,-333.00,1328.00,828.00,18652.00,-2352.00
6301,45.00,117.00,-90.00,1100.00,848.00,18468.00,-2288.00
6318,6.00,162.00,-55.00,1332.00,848.00,18592.00,-2320.00
6334,-2.00,183.00,-122.00,1248.00,668.00,18524.00,-2368.00
6350,40.00,225.00,-51.00,1484.00,676.00,18792.00,-2320.00
6367,142.00,469.00,-174.00,1488.00,796.00,18628.00,-2336.00
6383,237.00,427.00,-223.00,1280.00,724.00,18608.00,-2336.00
6400,223.00,496.00,-224.00,1384.00,964.00,18728.00,-2320.00
6416,195.00,632.00,-76.00,1372.00,940.00,18684.00,-2320.00
6432,43.00,657.00,31.00,1468.00,888.00,18872.00,-2336.00
6449,-36.00,619.00,-69.00,1192.00,824.00,18784.00,-2304.00
6465,14.00,792.00,-169.00,1104.00,776.00,18548.00,-2320.00
6481,43.00,645.00,-95.00,1096.00,724.00,18524.00,-2320.00
6498,-80.00,713.00,38.00,1196.00,696.00,18772.00,-2336.00
6514,-106.00,604.00,-6.00,1056.00,692.00,18564.00,-2320.00
6531,31.00,516.00,-18.00,1068.00,784.00,18680.00,-2352.00
6547,250.00,404.00,-309.00,1176.00,800.00,18540.00,-2304.00
6563,347.00,359.00,-355.00,1044.00,828.00,18636.00,-2320.00
6581,284.00,400.00,-273.00,1092.00,776.00,18832.00,-2352.00
6597,200.00,363.00,-132.00,1176.00,860.00,18756.00,-2352.00
6614,195.00,304.00,33.00,1168.00,756.00,18696.00,-2352.00
6630,124.00,247.00,-81.00,956.00,952.00,18620.00,-2320.00
6646,233.00,262.00,-184.00,1052.00,936.00,18680.00,-2336.00
6663,340.00,327.00,-342.00,932.00,804.00,18764.00,-2336.00
6679,337.00,242.00,-418.00,1052.00,876.00,18800.00,-2336.00
6695,276.00,210.00,-298.00,968.00,816.00,18736.00,-2304.00
6712,62.00,243.00,83.00,1124.00,828.00,18736.00,-2304.00
6728,-124.00,250.00,107.00,1064.00,728.00,18796.00,-2320.00
6745,-48.00,36.00,-17.00,844.00,776.00,18544.00,-2368.00
6761,68.00,-31.00,-149.00,928.00,744.00,18536.00,-2336.00
6777,226.00,-73.00,-249.00,1072.00,788.00,18724.00,-2320.00
6794,388.00,7.00,-321.00,1008.00,876.00,18612.00,-2320.00
6810,391.00,157.00,-169.00,1032.00,792.00,18716.00,-2352.00
6828,261.00,-59.00,-199.00,1060.00,984.00,18636.00,-2352.00
6844,88.00,-116.00,-10.00,1112.00,808.00,18588.00,-2304.00
6860,-42.00,-213.00,175.00,932.00,852.00,18604.00,-2336.00
6877,40.00,-17.00,68.00,940.00,924.00,18668.00,-2352.00
6893,181.00,-104.00,-75.00,940.00,940.00,18492.00,-2320.00
6909,419.00,-53.00,-259.00,752.00,900.00,18572.00,-2352.00
6926,460.00,71.00,-455.00,872.00,796.00,18476.00,-2336.00
6942,355.00,-56.00,-333.00,1128.00,1012.00,18664.00,-2336.00
6959,162.00,-8.00,-59.00,1080.00,1036.00,18692.00,-2368.00
6975,37.00,-22.00,133.00,1340.00,1064.00,18824.00,-2320.00
6991,-58.00,-100.00,283.00,1048.00,788.00,18740.00,-2320.00
7008,119.00,-51.00,-62.00,988.00,796.00,18648.00,-2320.00
7024,253.00,3.00,-316.00,1044.00,608.00,18560.00,-2352.00
7041,347.00,100.00,-615.00,1068.00,924.00,18712.00,-2352.00
7057,294.00,83.00,-595.00,1104.00,876.00,18600.00,-2352.00
7073,145.00,-2.00,-322.00,968.00,996.00,18684.00,-2320.00
7090,15.00,53.00,-169.00,1096.00,984.00,18644.00,-2336.00
7106,28.00,109.00,-127.00,900.00,804.00,18616.00,-2320.00
7122,84.00,118.00,-255.00,860.00,804.00,18460.00,-2336.00
7139,99.00,101.00,-177.00,860.00,840.00,18640.00,-2336.00
7155,156.00,-43.00,-186.00,860.00,900.00,18496.00,-2320.00
7172,179.00,-97.00,-129.00,1064.00,1008.00,18556.00,-2320.00
7188,88.00,-185.00,-205.00,1108.00,956.00,18692.00,-2320.00
7205,16.00,-227.00,-252.00,1056.00,1072.00,18724.00,-2352.00
7222,-15.00,-267.00,-213.00,1232.00,1060.00,18780.00,-2288.00
7238,87.00,-80.00,-255.00,1096.00,960.00,18884.00,-2320.00
7255,359.00,58.00,-349.00,928.00,876.00,18468.00,-2336.00
7271,538.00,45.00,-428.00,1104.00,848.00,18640.00,-2336.00
7287,478.00,118.00,-337.00,1264.00,1072.00,18704.00,-2320.00
7304,390.00,104.00,-209.00,1068.00,1056.00,18552.00,-2336.00
7320,308.00,221.00,-149.00,1028.00,912.00,18692.00,-2320.00
7336,233.00,117.00,-331.00,836.00,1036.00,18536.00,-2352.00
7354,337.00,47.00,-371.00,928.00,936.00,18600.00,-2320.00
7370,310.00,48.00,-154.00,1024.00,900.00,18580.00,-2336.00
7387,385.00,58.00,-190.00,836.00,832.00,18524.00,-2304.00
7403,558.00,36.00,-298.00,960.00,972.00,18780.00,-2336.00
7419,534.00,-98.00,-469.00,1100.00,1224.00,18704.00,-2320.00
7436,401.00,56.00,-388.00,1100.00,1124.00,18916.00,-2320.00
7452,291.00,105.00,-206.00,1244.00,1248.00,18828.00,-2352.00
7469,86.00,222.00,167.00,1220.00,1140.00,18680.00,-2336.00
7485,30.00,644.00,141.00,988.00,1080.00,18516.00,-2336.00
7501,173.00,734.00,97.00,628.00,992.00,18664.00,-2336.00
7518,438.00,739.00,-335.00,676.00,900.00,18504.00,-2320.00
7534,612.00,539.00,-795.00,868.00,900.00,18612.00,-2320.00
7550,662.00,351.00,-880.00,900.00,808.00,18892.00,-2320.00
7568,362.00,76.00,-702.00,1340.00,996.00,18844.00,-2320.00
7584,-112.00,21.00,-98.00,1380.00,1196.00,18792.00,-2288.00
7601,-513.00,-433.00,307.00,856.00,1148.00,18800.00,-2304.00
7617,-457.00,-401.00,10.00,576.00,1068.00,18456.00,-2352.00
7633,-408.00,-293.00,-425.00,660.00,1088.00,18240.00,-2336.00
7650,8.00,-386.00,-501.00,716.00,1032.00,18444.00,-2320.00
7666,86.00,-355.00,-336.00,984.00,1272.00,18616.00,-2304.00
7683,163.00,-236.00,-173.00,1024.00,1372.00,18544.00,-2304.00
7699,-360.00,-1116.00,450.00,1252.00,1144.00,18576.00,-2320.00
7716,-231.00,-469.00,831.00,860.00,900.00,18364.00,-2336.00
7733,-265.00,-284.00,503.00,1112.00,792.00,19080.00,-2320.00
7749,-299.00,-512.00,35.00,952.00,1024.00,18884.00,-2304.00
7766,-184.00,-407.00,-145.00,1112.00,1280.00,18588.00,-2320.00
7782,124.00,-38.00,-126.00,1160.00,1020.00,18572.00,-2336.00
7798,349.00,123.00,-9.00,1148.00,924.00,18620.00,-2336.00
7815,490.00,254.00,152.00,1048.00,808.00,18520.00,-2304.00
7831,586.00,287.00,-87.00,888.00,904.00,18588.00,-2336.00
7847,756.00,296.00,-298.00,940.00,956.00,18704.00,-2320.00
7864,683.00,265.00,-293.00,1188.00,1144.00,18636.00,-2320.00
7881,490.00,182.00,-32.00,1120.00,1120.00,18704.00,-2336.00
7898,322.00,66.00,123.00,920.00,1020.00,18608.00,-2336.00
7914,415.00,151.00,-67.00,952.00,964.00,18612.00,-2320.00
7930,432.00,228.00,-283.00,1000.00,1100.00,18740.00,-2352.00
7947,399.00,246.00,-110.00,1080.00,1156.00,18840.00,-2320.00
7963,335.00,236.00,133.00,1068.00,1024.00,18752.00,-2336.00
7980,460.00,358.00,121.00,1012.00,936.00,18732.00,-2336.00
7997,630.00,258.00,-69.00,1028.00,1008.00,18636.00,-2304.00
8013,822.00,217.00,-295.00,780.00,984.00,18504.00,-2352.00
8030,842.00,208.00,-506.00,916.00,1268.00,18720.00,-2336.00
8046,800.00,323.00,-392.00,1244.00,1272.00,18848.00,-2352.00
8062,678.00,271.00,-410.00,1012.00,1340.00,18520.00,-2320.00
8079,623.00,223.00,-262.00,888.00,1228.00,18520.00,-2320.00
8095,613.00,114.00,-28.00,900.00,1260.00,18480.00,-2336.00
8112,569.00,126.00,97.00,944.00,1272.00,18388.00,-2320.00
8128,515.00,55.00,92.00,968.00,1168.00,18740.00,-2320.00
8145,503.00,-34.00,-172.00,904.00,1188.00,18600.00,-2352.00
8162,540.00,-21.00,-382.00,780.00,1236.00,18660.00,-2320.00
8178,522.00,120.00,-304.00,992.00,1500.00,18544.00,-2336.00
8195,618.00,277.00,-192.00,924.00,1392.00,18564.00,-2320.00
8211,606.00,90.00,35.00,872.00,1376.00,18588.00,-2352.00
8227,519.00,0.00,119.00,1012.00,1404.00,18820.00,-2304.00
8244,387.00,-51.00,122.00,924.00,1428.00,18700.00,-2336.00
8260,285.00,-74.00,-23.00,1028.00,1480.00,18556.00,-2320.00
8276,227.00,43.00,-27.00,996.00,1412.00,18628.00,-2352.00
8293,439.00,79.00,-199.00,836.00,1296.00,18416.00,-2304.00
8309,827.00,64.00,-273.00,776.00,1488.00,18496.00,-2304.00
8326,1324.00,-444.00,-339.00,844.00,1532.00,18384.00,-2336.00
8343,1538.00,-134.00,-330.00,1020.00,1528.00,18660.00,-2320.00
8359,1762.00,-584.00,-271.00,1108.00,1616.00,18612.00,-2336.00
8376,1905.00,-771.00,-51.00,996.00,1764.00,18456.00,-2320.00
8392,2125.00,-253.00,303.00,1176.00,1760.00,18628.00,-2320.00
8409,2122.00,-51.00,554.00,1036.00,1696.00,18748.00,-2336.00
8426,2260.00,-299.00,489.00,932.00,1680.00,18436.00,-2320.00
8442,2366.00,-374.00,372.00,760.00,1884.00,18444.00,-2352.00
8459,2772.00,-490.00,55.00,768.00,1920.00,18020.00,-2336.00
8475,3457.00,-468.00,-316.00,1028.00,2352.00,18320.00,-2304.00
8492,4300.00,-848.00,-137.00,1320.00,2116.00,18156.00,-2320.00
8508,4780.00,-747.00,-246.00,1144.00,2256.00,18684.00,-2336.00
8525,5009.00,-98.00,2.00,1068.00,2300.00,18652.00,-2320.00
8542,5323.00,310.00,212.00,940.00,2476.00,18408.00,-2320.00
8558,5654.00,-74.00,486.00,1140.00,2728.00,18252.00,-2320.00
8574,6066.00,-420.00,712.00,972.00,3448.00,18328.00,-2304.00
8591,6256.00,-426.00,525.00,968.00,3328.00,17956.00,-2320.00
8607,6846.00,-814.00,22.00,1300.00,3676.00,17736.00,-2352.00
8625,7223.00,-1049.00,138.00,1468.00,3812.00,17928.00,-2304.00
8641,7462.00,-732.00,241.00,1492.00,4528.00,18308.00,-2320.00
8657,7456.00,303.00,885.00,1336.00,4540.00,17980.00,-2304.00
8674,7108.00,997.00,1118.00,1224.00,4596.00,18192.00,-2320.00
8691,6762.00,981.00,1598.00,988.00,4748.00,17704.00,-2320.00
8708,6812.00,902.00,1682.00,1252.00,5008.00,17740.00,-2320.00
8724,6782.00,19.00,1212.00,1004.00,6628.00,17336.00,-2320.00
8740,7320.00,-656.00,598.00,856.00,5376.00,17528.00,-2320.00
8758,7276.00,-727.00,176.00,1432.00,5768.00,18132.00,-2336.00
8774,7593.00,23.00,-24.00,1452.00,5964.00,17160.00,-2320.00
8791,7721.00,913.00,47.00,1456.00,6076.00,17332.00,-2320.00
8807,7720.00,521.00,219.00,1440.00,6712.00,17504.00,-2336.00
8823,7361.00,308.00,351.00,1256.00,6932.00,17160.00,-2320.00
8841,7149.00,88.00,-86.00,1112.00,7404.00,16768.00,-2336.00
8857,7031.00,-24.00,-22.00,1452.00,7676.00,16952.00,-2336.00
8873,6566.00,-113.00,-142.00,1464.00,7724.00,17060.00,-2336.00
8890,6382.00,-29.00,-420.00,1412.00,8056.00,16492.00,-2320.00
8906,6217.00,1235.00,-484.00,1648.00,8328.00,16936.00,-2304.00
8923,5474.00,1622.00,-358.00,1824.00,8556.00,16588.00,-2320.00
8940,5008.00,1568.00,285.00,1604.00,8460.00,16304.00,-2320.00
8956,4782.00,1868.00,849.00,1068.00,8512.00,16124.00,-2304.00
8973,4382.00,1550.00,480.00,688.00,8564.00,16188.00,-2304.00
8989,3489.00,1321.00,159.00,472.00,8492.00,16344.00,-2336.00
9007,2323.00,861.00,179.00,800.00,8640.00,16308.00,-2352.00
9023,432.00,357.00,423.00,1068.00,9036.00,16568.00,-2336.00
9039,-1886.00,360.00,700.00,1052.00,9196.00,16768.00,-2320.00
9056,-3868.00,878.00,565.00,860.00,8940.00,16456.00,-2336.00
9072,-5532.00,834.00,688.00,1028.00,8776.00,17068.00,-2336.00
9090,-7080.00,1813.00,586.00,1304.00,8696.00,17144.00,-2320.00
9106,-8214.00,1401.00,997.00,712.00,8120.00,16852.00,-2320.00
9122,-8975.00,1463.00,1145.00,940.00,7660.00,16824.00,-2320.00
9139,-9627.00,1653.00,541.00,852.00,7736.00,16964.00,-2320.00
9156,-9696.00,1800.00,-183.00,724.00,7436.00,17036.00,-2336.00
9172,-10251.00,856.00,-505.00,780.00,6944.00,18108.00,-2320.00
9189,-10683.00,1251.00,-970.00,588.00,6996.00,17576.00,-2304.00
9205,-11280.00,1408.00,-1008.00,816.00,6120.00,17904.00,-2336.00
9223,-11750.00,1119.00,-626.00,608.00,6116.00,17496.00,-2320.00
9239,-12055.00,697.00,-225.00,608.00,5600.00,17612.00,-2320.00
9255,-12545.00,346.00,448.00,468.00,5344.00,17400.00,-2336.00
9273,-12399.00,351.00,1045.00,992.00,4636.00,17612.00,-2320.00
9289,-12882.00,360.00,1154.00,980.00,4076.00,18716.00,-2304.00
9306,-12594.00,-43.00,1236.00,636.00,3520.00,18052.00,-2336.00
9322,-12013.00,379.00,749.00,620.00,2868.00,18788.00,-2352.00
9339,-11246.00,499.00,-269.00,496.00,2724.00,18264.00,-2304.00
9356,-9864.00,122.00,-555.00,372.00,2244.00,17852.00,-2352.00
9372,-8988.00,-132.00,-369.00,460.00,1840.00,18164.00,-2304.00
9389,-9144.00,-433.00,200.00,380.00,1412.00,18564.00,-2336.00
9405,-9748.00,-1400.00,570.00,680.00,984.00,18908.00,-2320.00
9422,-10879.00,-1728.00,260.00,828.00,636.00,19072.00,-2336.00
9439,-10882.00,-1578.00,-713.00,844.00,352.00,18700.00,-2320.00
9455,-10212.00,-668.00,-1960.00,172.00,84.00,18000.00,-2336.00
9472,-9421.00,-479.00,-2403.00,944.00,-20.00,18568.00,-2336.00
9488,-9476.00,-949.00,-2054.00,812.00,-580.00,18560.00,-2320.00
9504,-10488.00,-1055.00,-898.00,1092.00,-1004.00,18824.00,-2320.00
9522,-12095.00,-896.00,-282.00,732.00,-1488.00,18644.00,-2320.00
9538,-12387.00,-1451.00,-209.00,696.00,-1708.00,18316.00,-2336.00
9554,-11968.00,-1934.00,-522.00,1264.00,-2160.00,18040.00,-2336.00
9572,-11483.00,-1630.00,-1060.00,1360.00,-2664.00,18520.00,-2368.00
9588,-10841.00,-634.00,-850.00,1288.00,-2684.00,18268.00,-2336.00
9605,-10994.00,-931.00,-567.00,1436.00,-3400.00,18200.00,-2336.00
9622,-11626.00,-763.00,-1104.00,1168.00,-4176.00,18324.00,-2336.00
9638,-11126.00,-664.00,-1811.00,1724.00,-4664.00,17876.00,-2304.00
9655,-9732.00,114.00,-2775.00,1340.00,-4956.00,17964.00,-2352.00
9672,-8849.00,-959.00,-2980.00,1556.00,-5244.00,17856.00,-2320.00
9689,-9464.00,-1388.00,-1793.00,1208.00,-5600.00,17816.00,-2336.00
9705,-10124.00,-624.00,-1505.00,1496.00,-5732.00,17424.00,-2336.00
9722,-9122.00,1782.00,-1993.00,1492.00,-6620.00,17708.00,-2304.00
9739,-8183.00,2081.00,-1683.00,1360.00,-6396.00,17260.00,-2304.00
9755,-7036.00,2330.00,-1992.00,1128.00,-6316.00,17260.00,-2304.00
9773,-6549.00,1939.00,-1219.00,1316.00,-6364.00,17192.00,-2304.00
9789,-6766.00,916.00,166.00,1504.00,-6324.00,17524.00,-2336.00
9805,-6678.00,548.00,1067.00,1244.00,-6752.00,16828.00,-2320.00
9823,-5617.00,463.00,1207.00,1300.00,-7916.00,16444.00,-2288.00
9839,-4163.00,1457.00,898.00,1096.00,-8260.00,16144.00,-2304.00
9856,-2706.00,2095.00,1133.00,1152.00,-7812.00,16252.00,-2304.00
9872,-1381.00,1615.00,1536.00,596.00,-7736.00,15996.00,-2336.00
9889,88.00,900.00,1481.00,456.00,-8140.00,15972.00,-2320.00
9906,1849.00,914.00,1274.00,548.00,-8076.00,16276.00,-2352.00
9922,4126.00,859.00,1377.00,912.00,-7756.00,16224.00,-2304.00
9938,6116.00,598.00,1815.00,968.00,-7536.00,16724.00,-2336.00
9956,7505.00,48.00,1804.00,568.00,-7452.00,16672.00,-2320.00
9972,8655.00,-1635.00,1190.00,108.00,-7252.00,16304.00,-2320.00
9989,10408.00,-2432.00,235.00,528.00,-7508.00,17236.00,-2352.00
10005,12655.00,-743.00,-190.00,1144.00,-6616.00,17608.00,-2304.00
10022,13124.00,790.00,92.00,1160.00,-6560.00,17964.00,-2336.00
10039,12765.00,162.00,795.00,712.00,-5880.00,17604.00,-2336.00
10055,12486.00,-744.00,864.00,588.00,-5272.00,17524.00,-2352.00
10072,12861.00,-439.00,1019.00,844.00,-4604.00,18064.00,-2336.00
10089,13102.00,-115.00,1133.00,596.00,-4420.00,17980.00,-2368.00
10105,12906.00,-269.00,1134.00,628.00,-3904.00,18268.00,-2336.00
10122,13483.00,945.00,710.00,884.00,-3156.00,18280.00,-2304.00
10139,14611.00,4051.00,73.00,1108.00,-2436.00,18648.00,-2288.00
10156,15117.00,3857.00,308.00,632.00,-2532.00,18496.00,-2320.00
10172,14611.00,3081.00,639.00,340.00,-1800.00,18828.00,-2352.00
10189,13496.00,2470.00,1046.00,276.00,-1332.00,19128.00,-2288.00
10206,12400.00,1638.00,1644.00,144.00,-864.00,18876.00,-2320.00
10222,11921.00,1100.00,2058.00,-20.00,-144.00,18528.00,-2288.00
10240,11730.00,893.00,2202.00,40.00,468.00,18408.00,-2320.00
10256,11839.00,1296.00,1906.00,-224.00,668.00,18608.00,-2288.00
10272,11889.00,557.00,1379.00,-552.00,948.00,18320.00,-2320.00
10289,11827.00,727.00,492.00,-492.00,1540.00,18340.00,-2320.00
10306,11592.00,779.00,277.00,-148.00,2064.00,18628.00,-2368.00
10322,10742.00,508.00,369.00,-16.00,2616.00,18756.00,-2336.00
10339,10326.00,361.00,721.00,252.00,2840.00,18240.00,-2320.00
10355,10014.00,177.00,898.00,-80.00,3244.00,18216.00,-2304.00
10373,9639.00,-1079.00,1309.00,-204.00,3384.00,17992.00,-2320.00
10389,9438.00,-1405.00,1331.00,-164.00,3748.00,18056.00,-2352.00
10405,9311.00,-1704.00,1041.00,-180.00,3832.00,18108.00,-2320.00
10423,9274.00,-1612.00,1229.00,344.00,4396.00,18084.00,-2320.00
10439,9070.00,-880.00,1211.00,800.00,4708.00,18280.00,-2288.00
10456,9435.00,-466.00,1217.00,312.00,5812.00,17264.00,-2304.00
10472,10164.00,-701.00,1916.00,-104.00,5676.00,17064.00,-2288.00
10489,10595.00,-828.00,2206.00,176.00,5660.00,17068.00,-2304.00
10506,10511.00,-796.00,2296.00,556.00,6136.00,17424.00,-2304.00
10522,10311.00,-1188.00,1842.00,352.00,6520.00,17524.00,-2320.00
10540,10891.00,-986.00,905.00,504.00,6852.00,16944.00,-2320.00
10556,11718.00,-660.00,425.00,592.00,7324.00,16492.00,-2320.00
10572,11905.00,-447.00,725.00,488.00,7892.00,16616.00,-2288.00
10590,10736.00,-573.00,1543.00,560.00,8152.00,16920.00,-2336.00
10606,9716.00,40.00,1739.00,644.00,8268.00,16500.00,-2336.00
10622,9052.00,133.00,1543.00,564.00,8520.00,16756.00,-2320.00
10639,8580.00,602.00,783.00,896.00,9108.00,16812.00,-2336.00
10656,7489.00,153.00,817.00,1092.00,9472.00,16292.00,-2320.00
10673,6046.00,-86.00,1652.00,820.00,9580.00,16212.00,-2320.00
10689,4155.00,234.00,2372.00,496.00,9696.00,16112.00,-2304.00
10705,2141.00,609.00,2392.00,524.00,10032.00,16344.00,-2320.00
10723,166.00,1050.00,1416.00,1148.00,10368.00,16604.00,-2320.00
10739,-1633.00,1326.00,1012.00,1212.00,10076.00,16404.00,-2320.00
10756,-3879.00,1998.00,1335.00,1108.00,10084.00,16376.00,-2304.00
10773,-6379.00,3549.00,1954.00,944.00,9968.00,16208.00,-2320.00
10789,-8663.00,3319.00,2131.00,600.00,9728.00,16468.00,-2320.00
10806,-10942.00,2667.00,2138.00,280.00,9052.00,16632.00,-2320.00
10823,-12945.00,2260.00,1618.00,252.00,8696.00,16624.00,-2320.00
10840,-14662.00,2282.00,1767.00,292.00,8180.00,16680.00,-2352.00
10857,-16439.00,1631.00,2468.00,200.00,7696.00,16800.00,-2320.00
10873,-17851.00,1464.00,2135.00,60.00,6880.00,16856.00,-2352.00
10890,-18697.00,1104.00,997.00,28.00,6144.00,17648.00,-2320.00
10907,-18963.00,412.00,-414.00,608.00,5508.00,17476.00,-2352.00
10924,-18223.00,484.00,-1188.00,756.00,5324.00,17548.00,-2336.00
10940,-16887.00,494.00,-1842.00,740.00,4764.00,17604.00,-2336.00
10956,-15736.00,682.00,-2228.00,796.00,4148.00,17772.00,-2336.00
10974,-15780.00,-152.00,-1687.00,660.00,3776.00,18080.00,-2304.00
10990,-15836.00,-49.00,-973.00,868.00,3160.00,18116.00,-2304.00
11006,-15987.00,508.00,-989.00,1120.00,1776.00,18852.00,-2288.00
11024,-16069.00,430.00,-1574.00,332.00,1300.00,18360.00,-2320.00
11040,-15863.00,-37.00,-2140.00,332.00,708.00,18380.00,-2288.00
11057,-15241.00,368.00,-2416.00,172.00,500.00,17904.00,-2336.00
11073,-14459.00,-337.00,-2094.00,236.00,272.00,18096.00,-2320.00
11090,-14151.00,-444.00,-1266.00,820.00,-864.00,18964.00,-2320.00
11107,-14641.00,-417.00,-378.00,216.00,-1316.00,18444.00,-2320.00
11123,-14263.00,405.00,-232.00,508.00,-1980.00,18644.00,-2320.00
11141,-14101.00,1212.00,-208.00,172.00,-2532.00,17996.00,-2304.00
11157,-13937.00,591.00,-1044.00,184.00,-3136.00,18312.00,-2336.00
11173,-13438.00,352.00,-2189.00,208.00,-3340.00,18044.00,-2304.00
11191,-13717.00,256.00,-2448.00,288.00,-3684.00,18092.00,-2304.00
11207,-13852.00,112.00,-1837.00,804.00,-4676.00,17976.00,-2304.00
11224,-13618.00,427.00,-1658.00,1400.00,-4840.00,18100.00,-2304.00
11241,-13484.00,620.00,-970.00,1268.00,-5700.00,17704.00,-2304.00
11257,-13994.00,1398.00,-60.00,712.00,-6300.00,17700.00,-2304.00
11274,-14160.00,874.00,-383.00,92.00,-6360.00,17140.00,-2336.00
11290,-13633.00,695.00,-1239.00,116.00,-6952.00,16976.00,-2320.00
11308,-12701.00,681.00,-1672.00,-44.00,-7584.00,16640.00,-2288.00
11324,-11507.00,501.00,-1505.00,100.00,-8028.00,16440.00,-2304.00
11340,-10442.00,411.00,-1444.00,-20.00,-8256.00,15716.00,-2304.00
11358,-8477.00,377.00,-1565.00,92.00,-8712.00,15728.00,-2336.00
11374,-6439.00,532.00,-1604.00,448.00,-8936.00,15996.00,-2320.00
11390,-4905.00,671.00,-653.00,692.00,-8848.00,16292.00,-2336.00
11407,-3451.00,571.00,438.00,504.00,-8764.00,15992.00,-2304.00
11424,-1487.00,-188.00,1212.00,36.00,-8612.00,15684.00,-2320.00
11441,260.00,-177.00,1888.00,508.00,-9272.00,15436.00,-2336.00
11457,2190.00,79.00,2019.00,-52.00,-9548.00,15288.00,-2288.00
11473,4339.00,28.00,1553.00,92.00,-9368.00,15320.00,-2304.00
11491,6537.00,-244.00,1074.00,-44.00,-9276.00,15524.00,-2304.00
11507,8213.00,-815.00,710.00,-148.00,-8956.00,15760.00,-2320.00
11524,9913.00,-799.00,70.00,4.00,-8456.00,16024.00,-2304.00
11540,11696.00,-593.00,-413.00,76.00,-7844.00,16272.00,-2304.00
11556,12858.00,-761.00,-443.00,112.00,-7544.00,16808.00,-2320.00
11574,13204.00,-1279.00,-259.00,464.00,-7116.00,17108.00,-2320.00
11590,13636.00,-1681.00,-328.00,392.00,-6700.00,17008.00,-2320.00
11607,14401.00,-1672.00,-644.00,432.00,-6332.00,16976.00,-2320.00
11624,15645.00,-789.00,-336.00,192.00,-5156.00,17044.00,-2352.00
11640,16648.00,-586.00,-518.00,688.00,-4808.00,17572.00,-2336.00
11657,17314.00,-257.00,-574.00,368.00,-4380.00,17628.00,-2320.00
11673,17389.00,-1204.00,-528.00,276.00,-3604.00,17896.00,-2320.00
11691,17025.00,-1448.00,-128.00,604.00,-3292.00,18396.00,-2320.00
11707,16552.00,-1702.00,235.00,520.00,-2388.00,18480.00,-2320.00
11723,16394.00,-2581.00,867.00,428.00,-1984.00,17704.00,-2288.00
11741,17083.00,-2567.00,237.00,568.00,-1020.00,18328.00,-2320.00
11757,17422.00,-2131.00,8.00,1120.00,-612.00,18396.00,-2352.00
11773,17118.00,-1365.00,-25.00,1240.00,-100.00,18528.00,-2336.00
11791,16743.00,-1372.00,482.00,1324.00,308.00,18584.00,-2304.00
11807,16362.00,-1734.00,935.00,1092.00,1160.00,18364.00,-2320.00
11824,16475.00,-1871.00,1132.00,960.00,1700.00,18156.00,-2288.00
11841,16281.00,-1755.00,139.00,1260.00,2352.00,18652.00,-2320.00
11857,16545.00,-1472.00,-652.00,1360.00,3088.00,18124.00,-2304.00
11874,16412.00,-1455.00,-299.00,1352.00,3628.00,18360.00,-2304.00
11891,15944.00,-1630.00,246.00,1500.00,3880.00,18316.00,-2320.00
11908,15219.00,-1423.00,-15.00,1568.00,5048.00,18272.00,-2352.00
11924,14934.00,-1433.00,-63.00,1408.00,5232.00,17704.00,-2320.00
11941,14216.00,-2415.00,-247.00,1708.00,5868.00,18040.00,-2304.00
11958,13396.00,-1399.00,-299.00,1568.00,6724.00,17680.00,-2288.00
11975,13152.00,-1730.00,-455.00,1908.00,6724.00,17320.00,-2320.00
11992,12919.00,-1851.00,-458.00,1824.00,7108.00,16620.00,-2320.00
12008,13022.00,-1702.00,-956.00,1744.00,7408.00,16616.00,-2304.00
12025,12866.00,-1244.00,-804.00,1816.00,7948.00,16680.00,-2304.00
12042,12553.00,-768.00,-40.00,1992.00,8508.00,15972.00,-2304.00
12058,11913.00,-618.00,902.00,2048.00,9124.00,16244.00,-2304.00
12076,10968.00,-864.00,1448.00,1972.00,9264.00,16256.00,-2304.00
12092,9921.00,-1068.00,1406.00,1808.00,9568.00,15496.00,-2336.00
12108,9384.00,-311.00,871.00,2232.00,10012.00,15400.00,-2336.00
12126,8308.00,287.00,1092.00,2072.00,10128.00,15256.00,-2336.00
12142,7227.00,107.00,1175.00,2024.00,10236.00,15636.00,-2368.00
12158,5798.00,-45.00,441.00,1688.00,10108.00,15724.00,-2304.00
12176,4292.00,-401.00,-488.00,1932.00,10608.00,15608.00,-2336.00
12192,2254.00,-649.00,-1024.00,2212.00,11036.00,16072.00,-2320.00
12209,-67.00,-425.00,-1211.00,2120.00,11152.00,15512.00,-2304.00
12226,-2192.00,250.00,-1037.00,2224.00,11064.00,15496.00,-2336.00
12242,-4397.00,841.00,40.00,2092.00,11092.00,15016.00,-2336.00
12259,-6363.00,1075.00,838.00,1976.00,10792.00,15768.00,-2320.00
12276,-8185.00,1329.00,1025.00,1852.00,10340.00,16120.00,-2304.00
12293,-9504.00,1696.00,705.00,1788.00,10200.00,15972.00,-2336.00
12310,-10634.00,2192.00,399.00,1804.00,9876.00,15780.00,-2336.00
12326,-12001.00,2462.00,75.00,1800.00,9456.00,16148.00,-2352.00
12343,-12992.00,2793.00,-218.00,1908.00,9108.00,16300.00,-2336.00
12360,-14073.00,2772.00,33.00,1716.00,8576.00,16444.00,-2320.00
12377,-15309.00,2458.00,302.00,1580.00,7900.00,17056.00,-2304.00
12393,-16498.00,2146.00,-65.00,1300.00,7088.00,17372.00,-2320.00
12410,-16705.00,2571.00,-594.00,1472.00,6852.00,16584.00,-2320.00
12427,-16695.00,2869.00,-880.00,1424.00,6436.00,17296.00,-2288.00
12443,-16646.00,2160.00,-1288.00,1700.00,6084.00,17396.00,-2288.00
12461,-16535.00,1697.00,-1252.00,1564.00,5572.00,17616.00,-2304.00
12477,-16919.00,1695.00,-351.00,1384.00,4436.00,18088.00,-2320.00
12494,-17238.00,1000.00,-326.00,1192.00,3612.00,17936.00,-2352.00
12511,-17213.00,457.00,-637.00,1468.00,3268.00,18480.00,-2352.00
12527,-16690.00,88.00,-784.00,1176.00,2668.00,18016.00,-2320.00
12545,-15841.00,303.00,-1095.00,1128.00,2380.00,17932.00,-2336.00
12561,-15192.00,1085.00,-889.00,968.00,1704.00,18372.00,-2320.00
12577,-15906.00,-314.00,-375.00,1100.00,780.00,18560.00,-2320.00
12595,-15221.00,-123.00,-632.00,1196.00,696.00,18344.00,-2304.00
12611,-14282.00,118.00,-477.00,1332.00,-724.00,18580.00,-2320.00
12627,-13652.00,-208.00,-1424.00,872.00,-1152.00,18224.00,-2320.00
12644,-12610.00,-113.00,-1856.00,996.00,-1288.00,18220.00,-2288.00
12661,-12015.00,-62.00,-1803.00,1208.00,-1644.00,18516.00,-2320.00
12678,-11776.00,284.00,-1380.00,1164.00,-1972.00,18332.00,-2320.00
12694,-11374.00,210.00,-748.00,1356.00,-2716.00,18384.00,-2320.00
12711,-11077.00,-241.00,-561.00,1224.00,-3364.00,18132.00,-2320.00
12728,-10724.00,-122.00,-1089.00,1156.00,-3604.00,18552.00,-2320.00
12745,-10214.00,310.00,-2109.00,1068.00,-4060.00,18232.00,-2352.00
12762,-9875.00,772.00,-2607.00,1160.00,-4620.00,18136.00,-2336.00
12778,-9607.00,323.00,-2776.00,1304.00,-4768.00,18216.00,-2272.00
12795,-9464.00,-161.00,-2600.00,1328.00,-4768.00,17960.00,-2304.00
12812,-9427.00,-715.00,-1813.00,1048.00,-4896.00,17572.00,-2288.00
12828,-9430.00,-606.00,-1053.00,1192.00,-5564.00,17408.00,-2320.00
12846,-9186.00,-426.00,-907.00,1072.00,-6332.00,17216.00,-2320.00
12862,-8629.00,-307.00,-1240.00,1068.00,-6288.00,17120.00,-2288.00
12878,-7610.00,-494.00,-1290.00,1128.00,-6580.00,16944.00,-2320.00
12896,-6403.00,-435.00,-1637.00,1360.00,-6768.00,16848.00,-2320.00
12912,-5002.00,-251.00,-1409.00,1204.00,-6908.00,16780.00,-2320.00
12929,-3440.00,-189.00,-1098.00,1208.00,-6896.00,16708.00,-2320.00
12946,-1347.00,-290.00,-1025.00,1292.00,-7264.00,16472.00,-2288.00
12962,798.00,-87.00,-951.00,1304.00,-7604.00,16456.00,-2288.00
12979,2669.00,-71.00,-742.00,1344.00,-7456.00,16604.00,-2288.00
12995,4344.00,167.00,-405.00,1536.00,-7132.00,16748.00,-2320.00
13012,6202.00,75.00,64.00,1340.00,-6840.00,16904.00,-2336.00
13029,7881.00,-66.00,175.00,1268.00,-6776.00,16788.00,-2320.00
13045,9259.00,9.00,241.00,1072.00,-6712.00,17232.00,-2304.00
13062,10136.00,59.00,88.00,1384.00,-6428.00,17424.00,-2304.00
13078,10740.00,-6.00,-161.00,1604.00,-5956.00,17572.00,-2320.00
13095,11421.00,20.00,-52.00,1436.00,-5328.00,17924.00,-2320.00
13112,12047.00,580.00,-148.00,1476.00,-4856.00,17864.00,-2304.00
13128,12595.00,825.00,-556.00,1344.00,-4468.00,17912.00,-2352.00
13145,12701.00,516.00,-629.00,1172.00,-4172.00,18280.00,-2304.00
13162,12707.00,-79.00,-395.00,1260.00,-3496.00,18400.00,-2320.00
13178,12424.00,-46.00,263.00,1208.00,-3208.00,18320.00,-2288.00
13195,12012.00,-1165.00,1329.00,1124.00,-3196.00,18312.00,-2288.00
13212,12313.00,-1409.00,1113.00,1312.00,-2068.00,18228.00,-2320.00
13229,12769.00,-1098.00,841.00,1560.00,-1436.00,18612.00,-2304.00
13246,12931.00,-1756.00,909.00,1632.00,-1064.00,18684.00,-2304.00
13262,12960.00,-1797.00,906.00,1596.00,-572.00,18412.00,-2304.00
13279,12731.00,-1518.00,835.00,1792.00,-260.00,18620.00,-2336.00
13296,12699.00,-399.00,287.00,2020.00,128.00,18440.00,-2304.00
13313,12945.00,-303.00,-86.00,1924.00,552.00,18640.00,-2336.00
13329,13213.00,-214.00,-234.00,1656.00,1168.00,18136.00,-2320.00
13345,13247.00,-516.00,-208.00,1740.00,1808.00,18396.00,-2288.00
13363,12976.00,-669.00,-102.00,1620.00,1952.00,18564.00,-2320.00
13379,12866.00,-592.00,-119.00,1652.00,2520.00,18552.00,-2336.00
13395,12749.00,-1020.00,-45.00,1836.00,2848.00,18160.00,-2304.00
13413,12730.00,429.00,-340.00,2152.00,3476.00,17872.00,-2272.00
13429,12391.00,251.00,-79.00,1828.00,4000.00,18052.00,-2336.00
13446,12068.00,563.00,-415.00,1892.00,4160.00,18056.00,-2352.00
13463,11645.00,684.00,-658.00,1648.00,4680.00,18104.00,-2320.00
13479,10940.00,-66.00,-825.00,1684.00,5188.00,17952.00,-2320.00
13496,10421.00,-334.00,-558.00,1744.00,5772.00,17592.00,-2288.00
13512,10234.00,-433.00,-763.00,1824.00,6012.00,17448.00,-2320.00
13530,10256.00,-1211.00,-891.00,1908.00,6508.00,17024.00,-2320.00
13546,9870.00,-3000.00,-369.00,1704.00,6048.00,17680.00,-2288.00
13563,9948.00,-1629.00,-1169.00,1720.00,7500.00,17712.00,-2320.00
13580,9693.00,-662.00,-1732.00,1944.00,7404.00,17024.00,-2320.00
13596,8863.00,-1195.00,-561.00,1968.00,8192.00,16304.00,-2320.00
13614,8400.00,-1060.00,-601.00,2420.00,8452.00,16532.00,-2320.00
13630,7792.00,-1041.00,-475.00,2088.00,8192.00,16668.00,-2320.00
13646,6898.00,-608.00,-40.00,2024.00,8488.00,16356.00,-2320.00
13663,6054.00,-179.00,478.00,2256.00,8796.00,16616.00,-2336.00
13680,5163.00,-272.00,1007.00,2044.00,8828.00,16044.00,-2320.00
13697,4745.00,-253.00,1101.00,1912.00,9008.00,15664.00,-2320.00
13713,4624.00,-168.00,1087.00,1828.00,8760.00,15856.00,-2320.00
13730,3885.00,-318.00,455.00,2004.00,8864.00,16644.00,-2320.00
13747,2554.00,-356.00,-138.00,2012.00,9136.00,16564.00,-2304.00
13763,782.00,-70.00,-372.00,2136.00,9328.00,16612.00,-2304.00
13779,-1034.00,401.00,-738.00,2348.00,9548.00,16528.00,-2320.00
13797,-2998.00,1038.00,-292.00,2148.00,9740.00,16488.00,-2304.00
13813,-5245.00,897.00,955.00,2036.00,9676.00,16228.00,-2336.00
13830,-6609.00,1553.00,1098.00,2488.00,9320.00,16972.00,-2288.00
13847,-8182.00,2055.00,1245.00,1840.00,8876.00,16732.00,-2304.00
13863,-9231.00,2051.00,1116.00,1644.00,8716.00,16312.00,-2320.00
13880,-9842.00,2179.00,350.00,1728.00,8440.00,16592.00,-2304.00
13897,-10416.00,2196.00,-159.00,1740.00,7840.00,16688.00,-2336.00
13914,-10674.00,2104.00,-859.00,1924.00,7504.00,16904.00,-2304.00
13931,-11073.00,1823.00,-531.00,2088.00,7124.00,17504.00,-2320.00
13947,-11605.00,1125.00,-229.00,1988.00,6628.00,17340.00,-2320.00
13964,-11628.00,1205.00,-290.00,1644.00,6232.00,17060.00,-2288.00
13981,-12064.00,1271.00,-518.00,1936.00,6076.00,17660.00,-2320.00
13998,-12154.00,1380.00,-601.00,1832.00,5580.00,17708.00,-2272.00
14014,-12856.00,1623.00,-358.00,1872.00,4984.00,18112.00,-2272.00
14031,-12950.00,1843.00,-688.00,1532.00,4400.00,18152.00,-2304.00
14048,-13022.00,1679.00,-1118.00,1444.00,3956.00,18016.00,-2304.00
14065,-12612.00,1882.00,-1274.00,1292.00,3672.00,18024.00,-2288.00
14082,-12149.00,1616.00,-1079.00,1544.00,3204.00,18076.00,-2336.00
14098,-12024.00,1499.00,-741.00,1376.00,2740.00,18520.00,-2304.00
14115,-12037.00,1563.00,-360.00,1136.00,2064.00,18532.00,-2320.00
14132,-12068.00,1401.00,-461.00,1024.00,1708.00,18388.00,-2320.00
14149,-12186.00,874.00,-732.00,912.00,1364.00,18308.00,-2320.00
14166,-12041.00,833.00,-1225.00,1120.00,684.00,18832.00,-2304.00
14182,-12573.00,232.00,-1262.00,1144.00,136.00,18532.00,-2336.00
14198,-12829.00,934.00,-694.00,1244.00,-12.00,18536.00,-2304.00
14216,-12680.00,1360.00,-702.00,1320.00,-352.00,18528.00,-2320.00
14232,-12898.00,1124.00,84.00,492.00,-1152.00,18004.00,-2320.00
14248,-12622.00,652.00,-136.00,100.00,-1876.00,17580.00,-2320.00
14266,-12197.00,329.00,-803.00,652.00,-2424.00,18176.00,-2304.00
14282,-11706.00,791.00,-1327.00,860.00,-2668.00,18160.00,-2320.00
14299,-10745.00,466.00,-1936.00,1060.00,-3208.00,18148.00,-2320.00
14316,-10372.00,273.00,-2139.00,756.00,-3616.00,18216.00,-2304.00
14332,-10412.00,211.00,-1763.00,852.00,-4020.00,18332.00,-2352.00
14349,-10492.00,-631.00,-1836.00,1260.00,-3660.00,17980.00,-2288.00
14366,-9905.00,-35.00,-1875.00,1152.00,-4736.00,18196.00,-2336.00
14383,-9596.00,0.00,-1721.00,1236.00,-5032.00,17968.00,-2320.00
14399,-9372.00,-232.00,-1590.00,1016.00,-5380.00,17888.00,-2304.00
14415,-8959.00,115.00,-1120.00,952.00,-5476.00,17528.00,-2304.00
14433,-9009.00,59.00,-400.00,376.00,-5572.00,17000.00,-2336.00
14449,-8222.00,14.00,-483.00,408.00,-5976.00,17780.00,-2304.00
14466,-7415.00,-751.00,-1151.00,1364.00,-6420.00,17900.00,-2352.00
14482,-7261.00,-611.00,-1002.00,1224.00,-6628.00,17428.00,-2320.00
14499,-7108.00,-449.00,-811.00,1396.00,-6804.00,17152.00,-2320.00
14516,-6900.00,25.00,-100.00,1296.00,-6580.00,16980.00,-2320.00
14532,-5130.00,872.00,52.00,1108.00,-6712.00,17020.00,-2304.00
14550,-4082.00,633.00,321.00,832.00,-7464.00,16648.00,-2288.00
14566,-2704.00,581.00,127.00,788.00,-7760.00,16324.00,-2304.00
14582,-375.00,1435.00,-19.00,820.00,-7796.00,16260.00,-2352.00
14599,1312.00,2150.00,115.00,992.00,-8068.00,16248.00,-2320.00
14615,3168.00,1937.00,-158.00,828.00,-7924.00,16600.00,-2320.00
14632,5031.00,2155.00,-531.00,672.00,-7608.00,16736.00,-2320.00
14649,6709.00,1953.00,-500.00,576.00,-7412.00,17012.00,-2336.00
14665,7874.00,1720.00,-220.00,864.00,-7448.00,17316.00,-2304.00
14683,8479.00,1877.00,401.00,980.00,-7828.00,17960.00,-2352.00
14699,11173.00,-1289.00,2005.00,388.00,-6368.00,17484.00,-2304.00
14715,13259.00,-1585.00,1633.00,612.00,-6340.00,17492.00,-2352.00
14733,13000.00,-1464.00,758.00,376.00,-5800.00,17488.00,-2320.00
14749,13345.00,-2358.00,935.00,236.00,-4692.00,17168.00,-2352.00
14766,13293.00,-2712.00,1431.00,940.00,-4076.00,18320.00,-2352.00
14783,13113.00,-157.00,734.00,1040.00,-3792.00,18240.00,-2320.00
14799,14190.00,694.00,1484.00,820.00,-3408.00,18108.00,-2320.00
14816,14172.00,910.00,1637.00,512.00,-2644.00,18264.00,-2320.00
14833,15232.00,716.00,1091.00,596.00,-1888.00,18180.00,-2320.00
14850,16125.00,357.00,636.00,1108.00,-1380.00,17968.00,-2336.00
14866,16967.00,-430.00,768.00,736.00,-1444.00,18004.00,-2304.00
14882,17190.00,-573.00,118.00,704.00,-520.00,18852.00,-2336.00
14900,16999.00,-528.00,-950.00,540.00,-268.00,18444.00,-2320.00
14916,16689.00,-527.00,-2067.00,796.00,768.00,18772.00,-2336.00
14932,17069.00,-614.00,-2121.00,1092.00,1476.00,18312.00,-2320.00
14950,16978.00,-827.00,-1355.00,1124.00,2056.00,18176.00,-2320.00
14966,16414.00,-294.00,-227.00,860.00,2432.00,18352.00,-2336.00
14983,16472.00,-1172.00,112.00,524.00,2364.00,18248.00,-2304.00
15000,15769.00,-1206.00,238.00,264.00,2956.00,18256.00,-2320.00
15016,15303.00,-1987.00,-337.00,556.00,4036.00,17940.00,-2320.00
15033,15076.00,-2759.00,-574.00,1292.00,4700.00,18048.00,-2320.00
15050,14623.00,-1896.00,245.00,1028.00,5172.00,17564.00,-2336.00
15067,13391.00,-1828.00,882.00,980.00,5572.00,17620.00,-2336.00
15083,11879.00,-2446.00,1924.00,904.00,6024.00,17392.00,-2352.00
15100,11000.00,-4266.00,1479.00,932.00,6640.00,18516.00,-2304.00
15117,10402.00,-1179.00,2149.00,1472.00,7436.00,17768.00,-2304.00
15133,10738.00,-2057.00,723.00,1880.00,7420.00,17228.00,-2320.00
15151,11372.00,-1199.00,603.00,1516.00,7380.00,16612.00,-2320.00
15167,11355.00,-463.00,223.00,1788.00,7992.00,16820.00,-2288.00
15183,10633.00,-878.00,335.00,1644.00,8244.00,16560.00,-2352.00
15201,9476.00,-1243.00,994.00,1688.00,8608.00,16384.00,-2352.00
15217,8398.00,-1706.00,1414.00,1604.00,9028.00,15936.00,-2320.00
15235,8280.00,-739.00,947.00,1844.00,9240.00,15724.00,-2320.00
15251,7901.00,-616.00,284.00,2020.00,9412.00,15808.00,-2320.00
15267,7347.00,-769.00,94.00,1668.00,9764.00,15756.00,-2336.00
15284,6190.00,-359.00,101.00,1928.00,9948.00,15672.00,-2352.00
15301,4158.00,-574.00,209.00,1688.00,10016.00,16188.00,-2352.00
15318,2406.00,-713.00,-27.00,1896.00,10452.00,15924.00,-2304.00
15334,33.00,165.00,224.00,1100.00,9884.00,15352.00,-2320.00
15350,-1833.00,515.00,-368.00,1948.00,10604.00,16216.00,-2336.00
15368,-4399.00,2616.00,232.00,1912.00,10720.00,15504.00,-2304.00
15384,-6986.00,2301.00,302.00,1868.00,9956.00,16672.00,-2320.00
15400,-9523.00,2002.00,809.00,1628.00,9888.00,15792.00,-2336.00
15418,-11382.00,1873.00,898.00,1520.00,9576.00,15900.00,-2336.00
15434,-12803.00,1400.00,780.00,1424.00,9188.00,16168.00,-2304.00
15451,-14296.00,518.00,932.00,1400.00,8752.00,15920.00,-2320.00
15468,-14804.00,808.00,357.00,1828.00,7864.00,16924.00,-2320.00
15484,-15500.00,801.00,125.00,1868.00,7612.00,17216.00,-2304.00
15501,-15990.00,1502.00,-54.00,1692.00,7336.00,16564.00,-2336.00
15518,-15998.00,1505.00,-714.00,1608.00,6732.00,17284.00,-2272.00
15535,-16426.00,1004.00,-705.00,1624.00,6228.00,17280.00,-2320.00
15551,-16842.00,1103.00,-525.00,1908.00,5676.00,17676.00,-2352.00
15568,-17367.00,1550.00,-434.00,1896.00,4764.00,17912.00,-2320.00
15585,-17939.00,1623.00,-293.00,1612.00,4532.00,17468.00,-2304.00
15602,-17737.00,2010.00,-599.00,1548.00,3560.00,18196.00,-2320.00
15619,-17514.00,2089.00,-972.00,1584.00,2852.00,18156.00,-2336.00
15635,-16989.00,2498.00,-1211.00,1540.00,2276.00,18256.00,-2320.00
15652,-16495.00,2482.00,-1174.00,1592.00,1680.00,18464.00,-2320.00
15669,-15903.00,1685.00,-487.00,1432.00,-292.00,19444.00,-2304.00
15685,-15610.00,1388.00,232.00,720.00,-296.00,18480.00,-2320.00
15703,-14613.00,1159.00,-421.00,680.00,-524.00,18180.00,-2288.00
15719,-12578.00,1240.00,-1417.00,744.00,-700.00,18144.00,-2320.00
15735,-10866.00,1211.00,-1594.00,912.00,-1284.00,18392.00,-2288.00
15753,-10082.00,972.00,-1248.00,1008.00,-1640.00,18456.00,-2288.00
15769,-10609.00,834.00,-781.00,616.00,-2568.00,18456.00,-2304.00
15785,-10752.00,617.00,-977.00,568.00,-2836.00,18288.00,-2320.00
15803,-10239.00,599.00,-1608.00,888.00,-2760.00,18356.00,-2320.00
15819,-9567.00,697.00,-1780.00,1000.00,-3200.00,18216.00,-2320.00
15836,-8937.00,1050.00,-1644.00,1000.00,-3840.00,18340.00,-2288.00
15853,-8827.00,1299.00,-1577.00,664.00,-4092.00,18196.00,-2288.00
15869,-8312.00,1402.00,-1801.00,380.00,-4316.00,17868.00,-2352.00
15886,-8130.00,761.00,-1646.00,148.00,-4648.00,17444.00,-2320.00
15903,-8351.00,-76.00,-1357.00,348.00,-5288.00,17700.00,-2336.00
15920,-8584.00,-204.00,-1458.00,568.00,-5492.00,17648.00,-2336.00
15936,-7790.00,322.00,-995.00,628.00,-5392.00,17580.00,-2352.00
15952,-6475.00,275.00,-749.00,464.00,-5668.00,17232.00,-2368.00
15970,-4001.00,164.00,-1217.00,580.00,-6060.00,16928.00,-2336.00
15986,-1760.00,118.00,-1161.00,596.00,-6224.00,16984.00,-2320.00
16003,432.00,63.00,-940.00,564.00,-6444.00,17036.00,-2320.00
16019,2343.00,-129.00,-922.00,840.00,-6324.00,17264.00,-2352.00
16036,4251.00,72.00,-927.00,876.00,-5940.00,17412.00,-2304.00
16053,6236.00,-108.00,-160.00,868.00,-5576.00,17200.00,-2320.00
16069,8071.00,-1077.00,1055.00,792.00,-5420.00,17492.00,-2304.00
16086,9882.00,-780.00,1292.00,596.00,-5604.00,17400.00,-2304.00
16103,11813.00,-1439.00,886.00,556.00,-4988.00,17788.00,-2320.00
16119,13908.00,-412.00,138.00,640.00,-4444.00,17760.00,-2320.00
16136,15056.00,-306.00,-74.00,552.00,-3748.00,18360.00,-2320.00
16152,14861.00,-830.00,240.00,480.00,-3276.00,18040.00,-2304.00
16169,15192.00,-1135.00,3.00,900.00,-2916.00,18504.00,-2352.00
16186,15941.00,-938.00,99.00,1428.00,-2112.00,18532.00,-2304.00
16202,16273.00,-588.00,392.00,1292.00,-1480.00,18800.00,-2304.00
16220,15821.00,-1183.00,1061.00,868.00,-1148.00,18484.00,-2336.00
16236,15438.00,-1780.00,977.00,452.00,-632.00,18916.00,-2336.00
16252,15265.00,-1026.00,176.00,724.00,296.00,18620.00,-2352.00
16269,15204.00,-642.00,-235.00,1556.00,1400.00,18532.00,-2320.00
16286,15272.00,-211.00,365.00,1592.00,1812.00,18692.00,-2320.00
16303,14822.00,-87.00,1224.00,1200.00,1852.00,18372.00,-2320.00
16319,14232.00,-769.00,2030.00,1196.00,2216.00,18216.00,-2320.00
16336,13511.00,-1892.00,2259.00,1052.00,2772.00,18352.00,-2320.00
16353,13662.00,-2119.00,1463.00,1196.00,3188.00,17940.00,-2304.00
16370,14106.00,-2213.00,697.00,1200.00,3888.00,17900.00,-2336.00
16387,14606.00,-1560.00,225.00,1496.00,4168.00,18148.00,-2320.00
16403,14798.00,-821.00,147.00,1520.00,4764.00,17788.00,-2320.00
16420,14739.00,-699.00,326.00,1480.00,5256.00,17780.00,-2352.00
16437,13930.00,-1113.00,577.00,1296.00,5796.00,17776.00,-2288.00
16453,12874.00,-1275.00,893.00,1404.00,6396.00,18104.00,-2320.00
16471,11832.00,-713.00,1404.00,1576.00,6964.00,17484.00,-2288.00
16487,10913.00,-1008.00,1009.00,1920.00,7428.00,17244.00,-2336.00
16504,10331.00,-355.00,449.00,2232.00,7944.00,16956.00,-2272.00
16521,9993.00,887.00,611.00,1720.00,8080.00,16452.00,-2336.00
16537,9381.00,444.00,1550.00,1408.00,8176.00,16036.00,-2336.00
16553,8696.00,-386.00,1867.00,1448.00,8680.00,16048.00,-2336.00
16571,8414.00,-1382.00,1647.00,1804.00,9216.00,15496.00,-2320.00
16587,8928.00,123.00,1022.00,2124.00,9068.00,15920.00,-2320.00
16604,9216.00,697.00,313.00,2084.00,9308.00,15660.00,-2336.00
16621,9390.00,1547.00,-234.00,1928.00,9580.00,15624.00,-2320.00
16637,8377.00,1208.00,-161.00,1656.00,10024.00,15580.00,-2320.00
16654,6744.00,-16.00,-390.00,1640.00,10140.00,16008.00,-2320.00
16671,5310.00,514.00,-866.00,1812.00,10576.00,15612.00,-2320.00
16688,3509.00,774.00,-921.00,2136.00,10308.00,15784.00,-2304.00
16704,1068.00,894.00,-1082.00,1408.00,10460.00,15784.00,-2304.00
16721,-1555.00,1099.00,-959.00,1160.00,10560.00,15356.00,-2320.00
16738,-4191.00,1539.00,-518.00,1408.00,10492.00,15920.00,-2288.00
16754,-6587.00,2030.00,23.00,1604.00,10484.00,15676.00,-2320.00
16772,-8928.00,2164.00,365.00,1512.00,10740.00,15880.00,-2320.00
16788,-10621.00,2329.00,331.00,1536.00,9744.00,15316.00,-2320.00
16805,-12161.00,1837.00,228.00,1208.00,9144.00,16364.00,-2304.00
16822,-12753.00,1940.00,-354.00,1240.00,8952.00,15744.00,-2336.00
16838,-13060.00,1708.00,-495.00,1124.00,8792.00,15972.00,-2336.00
16856,-13635.00,1303.00,-423.00,1136.00,8124.00,16452.00,-2336.00
16872,-13859.00,1721.00,-677.00,1368.00,7876.00,16516.00,-2320.00
16888,-14437.00,1043.00,-1046.00,1500.00,7428.00,17488.00,-2320.00
16906,-15038.00,922.00,-956.00,1376.00,6780.00,17416.00,-2304.00
16922,-15243.00,1391.00,-950.00,1192.00,6020.00,17340.00,-2304.00
16940,-15354.00,1103.00,-782.00,1168.00,5628.00,18012.00,-2304.00
16956,-15714.00,949.00,-618.00,928.00,5256.00,17620.00,-2304.00
16972,-15836.00,964.00,-597.00,744.00,4768.00,17732.00,-2304.00
16989,-15711.00,1152.00,-718.00,1060.00,4176.00,18100.00,-2320.00
17006,-15304.00,820.00,-478.00,996.00,3644.00,17824.00,-2320.00
17022,-14417.00,1566.00,-225.00,1400.00,3168.00,18028.00,-2320.00
17040,-14177.00,1614.00,991.00,1228.00,2248.00,18364.00,-2336.00
17056,-14771.00,1846.00,1165.00,1124.00,1208.00,19116.00,-2304.00
17073,-15005.00,1694.00,540.00,628.00,1024.00,18984.00,-2304.00
17090,-14779.00,1244.00,-215.00,-64.00,356.00,18444.00,-2304.00
17106,-14090.00,929.00,-1041.00,-360.00,-272.00,18252.00,-2352.00
17123,-13578.00,285.00,-1736.00,296.00,-424.00,18584.00,-2320.00
17139,-12935.00,332.00,-1784.00,736.00,-808.00,18604.00,-2320.00
17157,-12526.00,520.00,-967.00,956.00,-964.00,18372.00,-2304.00
17173,-12469.00,468.00,486.00,1220.00,-1436.00,18512.00,-2320.00
17189,-12990.00,605.00,1950.00,1048.00,-2024.00,18720.00,-2320.00
17207,-13555.00,448.00,2374.00,376.00,-3004.00,18336.00,-2320.00
17223,-13671.00,544.00,1770.00,-372.00,-3840.00,17804.00,-2352.00
17240,-13096.00,745.00,526.00,-244.00,-4544.00,17884.00,-2320.00
17257,-12322.00,1165.00,-277.00,120.00,-4768.00,17924.00,-2320.00
17273,-11459.00,917.00,-732.00,576.00,-4648.00,17632.00,-2288.00
17290,-10798.00,1037.00,-208.00,780.00,-5156.00,17748.00,-2304.00
17306,-10764.00,555.00,351.00,224.00,-5680.00,17704.00,-2304.00
17324,-10825.00,-38.00,338.00,-148.00,-6368.00,17452.00,-2336.00
17340,-10592.00,218.00,-508.00,-220.00,-6720.00,17164.00,-2320.00
17356,-9619.00,974.00,-1474.00,-20.00,-6800.00,17196.00,-2368.00
17374,-8206.00,1173.00,-2068.00,184.00,-7024.00,16972.00,-2336.00
17390,-6307.00,1554.00,-1871.00,36.00,-6972.00,16548.00,-2320.00
17406,-4237.00,1834.00,-1144.00,-4.00,-7212.00,16296.00,-2320.00
17423,-2147.00,1646.00,-339.00,-8.00,-7620.00,16060.00,-2304.00
17440,-110.00,1411.00,-202.00,-304.00,-7776.00,16052.00,-2320.00
17457,4027.00,918.00,279.00,-332.00,-7456.00,16388.00,-2336.00
17473,7204.00,1436.00,397.00,48.00,-7772.00,16344.00,-2320.00
17489,9874.00,1400.00,925.00,-836.00,-7864.00,16504.00,-2304.00
17507,12546.00,883.00,1258.00,-516.00,-7048.00,16872.00,-2336.00
17523,14817.00,445.00,1454.00,-280.00,-6416.00,17052.00,-2336.00
17540,16051.00,-715.00,903.00,-420.00,-4644.00,16292.00,-2336.00
17556,16700.00,1636.00,1441.00,-1136.00,-7168.00,21156.00,-2320.00
17573,15615.00,1417.00,4.00,-448.00,-4428.00,17792.00,-2304.00
17590,15593.00,1049.00,-98.00,-220.00,-3960.00,18220.00,-2320.00
17606,16230.00,673.00,52.00,504.00,-3456.00,18376.00,-2320.00
17624,15851.00,1383.00,1111.00,-404.00,-2496.00,18480.00,-2320.00
17640,15541.00,390.00,1399.00,-716.00,-1968.00,18824.00,-2304.00
17656,14849.00,-973.00,1470.00,-744.00,-1512.00,18620.00,-2336.00
17674,14307.00,-2669.00,1438.00,-492.00,-1116.00,18880.00,-2336.00
17690,13997.00,-4625.00,976.00,-52.00,-516.00,18436.00,-2304.00
17707,13286.00,-9018.00,1047.00,-40.00,-180.00,18568.00,-2304.00
17724,13274.00,-11083.00,1217.00,88.00,148.00,18368.00,-2320.00
17740,14762.00,-7809.00,-480.00,1064.00,1088.00,18232.00,-2320.00
17757,15930.00,-2790.00,-1104.00,1196.00,1316.00,18384.00,-2320.00
17774,15982.00,-2997.00,-811.00,936.00,1792.00,18492.00,-2304.00
17790,15522.00,-1838.00,-712.00,1172.00,2832.00,18196.00,-2336.00
17807,15195.00,-307.00,-486.00,1560.00,3604.00,18288.00,-2336.00
17824,14591.00,-1011.00,293.00,1148.00,3816.00,18200.00,-2304.00
17841,14241.00,-2326.00,121.00,1100.00,3928.00,18008.00,-2320.00
17857,13839.00,-3918.00,232.00,1464.00,4928.00,17444.00,-2352.00
17874,14203.00,-1877.00,245.00,1552.00,5360.00,17560.00,-2320.00
17891,14050.00,-1166.00,95.00,1660.00,5952.00,17572.00,-2320.00
17907,13578.00,-1030.00,303.00,1408.00,6412.00,17048.00,-2320.00
17925,13101.00,-624.00,677.00,1408.00,6932.00,17012.00,-2320.00
17941,12123.00,-622.00,1055.00,1396.00,7144.00,17076.00,-2352.00
17958,11201.00,-1575.00,933.00,1732.00,7396.00,16732.00,-2352.00
17975,10518.00,-2558.00,-64.00,1912.00,8720.00,16692.00,-2320.00
17991,10977.00,-1697.00,-112.00,2704.00,8620.00,16076.00,-2304.00
18009,10800.00,-1055.00,117.00,2312.00,8944.00,16404.00,-2304.00
18025,9813.00,-870.00,1473.00,1408.00,9040.00,15600.00,-2304.00
18041,9376.00,-530.00,1358.00,1976.00,9336.00,15976.00,-2336.00
18059,8150.00,-772.00,882.00,2148.00,9496.00,16804.00,-2304.00
18075,6652.00,-1063.00,-122.00,1776.00,9708.00,15856.00,-2320.00
18092,5757.00,-429.00,-1144.00,2084.00,10152.00,15812.00,-2320.00
18109,4095.00,73.00,-1184.00,2108.00,10468.00,15760.00,-2320.00
18125,1839.00,685.00,-1100.00,2000.00,10300.00,16236.00,-2304.00
18142,-1081.00,793.00,-603.00,1864.00,10200.00,16644.00,-2304.00
18159,-4087.00,862.00,-90.00,1928.00,10200.00,16528.00,-2304.00
18176,-6634.00,712.00,180.00,1772.00,10124.00,15872.00,-2288.00
18192,-8446.00,855.00,59.00,1644.00,9788.00,15828.00,-2320.00
18208,-9747.00,1070.00,314.00,1508.00,9396.00,15668.00,-2304.00
18226,-10969.00,1617.00,307.00,1604.00,9260.00,15880.00,-2304.00
18242,-12135.00,2020.00,-395.00,1680.00,8696.00,16348.00,-2304.00
18259,-13273.00,1522.00,139.00,1872.00,8252.00,16764.00,-2288.00
18276,-14214.00,1452.00,243.00,1640.00,7812.00,16648.00,-2320.00
18292,-14718.00,1083.00,372.00,1828.00,7628.00,16552.00,-2288.00
18310,-15032.00,964.00,206.00,1700.00,7168.00,16988.00,-2320.00
18326,-15091.00,578.00,-101.00,1768.00,6648.00,17196.00,-2288.00
18342,-14703.00,1097.00,-811.00,1768.00,5832.00,17464.00,-2320.00
18360,-14972.00,882.00,-889.00,1676.00,5040.00,17784.00,-2304.00
18376,-15116.00,852.00,-1058.00,1868.00,4736.00,18016.00,-2320.00
18393,-14970.00,759.00,-914.00,1864.00,4456.00,17844.00,-2304.00
18410,-14705.00,993.00,-225.00,1484.00,3872.00,17792.00,-2304.00
18426,-14265.00,938.00,-368.00,1456.00,3440.00,17980.00,-2304.00
18443,-13675.00,985.00,-819.00,1280.00,2680.00,18220.00,-2336.00
18460,-13549.00,312.00,-742.00,1228.00,1832.00,18336.00,-2336.00
18477,-13522.00,149.00,-407.00,1288.00,1404.00,18480.00,-2336.00
18493,-13534.00,62.00,-244.00,1500.00,1232.00,18556.00,-2320.00
18510,-13231.00,112.00,-160.00,1488.00,712.00,18568.00,-2320.00
18527,-11911.00,531.00,-575.00,1192.00,144.00,18452.00,-2304.00
18543,-10619.00,829.00,-1212.00,1524.00,-484.00,18544.00,-2304.00
18560,-9976.00,1059.00,-1559.00,1532.00,-988.00,18848.00,-2352.00
18577,-9816.00,1150.00,-1859.00,1532.00,-1256.00,18712.00,-2336.00
18593,-9954.00,495.00,-1804.00,1340.00,-1752.00,18744.00,-2304.00
18610,-10123.00,429.00,-1715.00,1396.00,-1920.00,18536.00,-2304.00
18627,-10178.00,223.00,-1859.00,1296.00,-2184.00,18716.00,-2288.00
18643,-9960.00,79.00,-1918.00,1220.00,-2292.00,18568.00,-2320.00
18661,-9657.00,-77.00,-1273.00,1264.00,-2808.00,18440.00,-2336.00
18677,-9627.00,-209.00,-720.00,1140.00,-3156.00,18248.00,-2336.00
18694,-9841.00,-15.00,-350.00,1236.00,-3840.00,18072.00,-2320.00
18710,-9985.00,462.00,-840.00,1244.00,-4288.00,18160.00,-2288.00
18727,-9818.00,183.00,-1249.00,1136.00,-4464.00,18020.00,-2320.00
18744,-9349.00,-64.00,-1453.00,1196.00,-4512.00,17932.00,-2336.00
18760,-8133.00,242.00,-988.00,1188.00,-4780.00,17656.00,-2336.00
18778,-7362.00,46.00,-813.00,1380.00,-5196.00,17576.00,-2304.00
18794,-6075.00,228.00,-661.00,1144.00,-5600.00,16984.00,-2320.00
18810,-4347.00,114.00,-532.00,1060.00,-5992.00,16948.00,-2336.00
18827,-2518.00,-556.00,-833.00,1256.00,-6260.00,16988.00,-2368.00
18844,-721.00,-1462.00,-870.00,1128.00,-5960.00,17000.00,-2352.00
18861,1668.00,-1353.00,-641.00,1140.00,-5748.00,16884.00,-2320.00
18877,4092.00,-1099.00,-52.00,1200.00,-6088.00,16808.00,-2320.00
18894,7054.00,-917.00,-4.00,1336.00,-6032.00,16932.00,-2336.00
18911,9384.00,-825.00,134.00,1604.00,-5788.00,17388.00,-2320.00
18927,11394.00,-866.00,137.00,1388.00,-5056.00,17676.00,-2320.00
18944,12549.00,-1065.00,-113.00,1376.00,-4732.00,18172.00,-2304.00
18961,13227.00,-800.00,-264.00,1324.00,-4372.00,18228.00,-2320.00
18977,13430.00,-1328.00,-370.00,1652.00,-3520.00,18164.00,-2320.00
18994,13526.00,-2205.00,-75.00,1548.00,-3060.00,18320.00,-2320.00
19011,13529.00,-1776.00,118.00,1480.00,-2984.00,18636.00,-2352.00
19027,13464.00,143.00,336.00,1656.00,-3924.00,18888.00,-2304.00
19044,12745.00,273.00,-399.00,1468.00,-2736.00,18812.00,-2320.00
19061,12934.00,632.00,-1125.00,2068.00,-364.00,18356.00,-2352.00
19078,13392.00,277.00,84.00,2488.00,916.00,18464.00,-2320.00
19094,13660.00,199.00,1471.00,2148.00,588.00,18500.00,-2272.00
19111,13972.00,86.00,2124.00,1660.00,116.00,18452.00,-2304.00
19128,14330.00,338.00,2394.00,936.00,452.00,18112.00,-2320.00
19144,14728.00,987.00,927.00,1536.00,928.00,18732.00,-2320.00
19161,15224.00,1384.00,-82.00,1728.00,1984.00,18128.00,-2336.00
19178,16227.00,1124.00,-1014.00,2028.00,3380.00,18204.00,-2336.00
19194,16627.00,1867.00,-423.00,2128.00,3836.00,18480.00,-2320.00
19212,15965.00,1825.00,517.00,2004.00,3780.00,18836.00,-2288.00
19228,14589.00,1557.00,808.00,1228.00,4124.00,18896.00,-2320.00
19245,13603.00,1312.00,631.00,1300.00,4928.00,18488.00,-2336.00
19262,13085.00,962.00,338.00,1372.00,5324.00,18064.00,-2336.00
19278,12639.00,692.00,399.00,1380.00,6300.00,17428.00,-2336.00
19295,12830.00,1058.00,742.00,1248.00,6264.00,17408.00,-2320.00
19312,12772.00,838.00,690.00,1028.00,6272.00,17212.00,-2304.00
19329,12390.00,542.00,505.00,808.00,6624.00,16860.00,-2288.00
19345,11865.00,99.00,733.00,1204.00,7144.00,16996.00,-2320.00
19361,11251.00,-236.00,1711.00,1264.00,7708.00,16412.00,-2336.00
19379,11064.00,-101.00,2529.00,1076.00,8516.00,15932.00,-2320.00
19395,11603.00,520.00,2476.00,1480.00,8536.00,15972.00,-2320.00
19412,12513.00,679.00,995.00,1728.00,8876.00,15752.00,-2288.00
19429,12467.00,-69.00,448.00,1452.00,9632.00,15784.00,-2320.00
19445,11887.00,-472.00,-438.00,1384.00,9736.00,15876.00,-2320.00
19462,10719.00,-651.00,-593.00,1352.00,9976.00,15896.00,-2304.00
19479,8633.00,-332.00,-373.00,1292.00,10240.00,15852.00,-2336.00
19495,6466.00,268.00,-773.00,1508.00,10684.00,16164.00,-2320.00
19512,4011.00,232.00,-608.00,1492.00,11076.00,15568.00,-2304.00
19529,1638.00,39.00,-180.00,1600.00,11328.00,15168.00,-2336.00
19546,-688.00,106.00,241.00,1336.00,10988.00,15588.00,-2320.00
19562,-3149.00,74.00,44.00,1036.00,10724.00,16008.00,-2352.00
19578,-5495.00,229.00,-159.00,924.00,10216.00,15620.00,-2304.00
19596,-7378.00,431.00,-437.00,972.00,10088.00,15716.00,-2320.00
19612,-9249.00,513.00,-806.00,940.00,10112.00,15548.00,-2320.00
19629,-10716.00,1058.00,-861.00,1120.00,9852.00,15400.00,-2320.00
19646,-12148.00,1398.00,-982.00,1548.00,9736.00,15964.00,-2320.00
19662,-13552.00,1291.00,-945.00,1216.00,9004.00,15972.00,-2320.00
19679,-15065.00,625.00,-590.00,1208.00,8588.00,16324.00,-2336.00
19696,-16256.00,-202.00,-587.00,1192.00,8104.00,16432.00,-2320.00
19713,-17249.00,-433.00,-323.00,1400.00,7644.00,16776.00,-2336.00
19729,-18208.00,-1019.00,158.00,1428.00,7052.00,16964.00,-2320.00
19746,-18572.00,-837.00,375.00,1212.00,6344.00,17048.00,-2336.00
19763,-18887.00,-197.00,411.00,1144.00,5592.00,17724.00,-2304.00
19779,-19438.00,115.00,676.00,1284.00,4800.00,17984.00,-2336.00
19796,-19808.00,-95.00,904.00,1184.00,4168.00,18032.00,-2320.00
19813,-20101.00,-75.00,611.00,1308.00,3268.00,18548.00,-2352.00
19829,-20078.00,-18.00,45.00,1616.00,2552.00,18480.00,-2336.00
19847,-19656.00,526.00,-260.00,1672.00,2016.00,18188.00,-2320.00
19863,-18909.00,868.00,-662.00,1720.00,2136.00,18900.00,-2320.00
19879,-18192.00,1723.00,-769.00,1364.00,792.00,18248.00,-2320.00
19897,-17709.00,933.00,-951.00,1136.00,-124.00,18412.00,-2352.00
19913,-17035.00,762.00,-824.00,1240.00,-844.00,18476.00,-2304.00
19930,-15758.00,728.00,-868.00,1128.00,-1472.00,18544.00,-2304.00
19946,-14599.00,329.00,-1169.00,1444.00,-1756.00,18288.00,-2304.00
19963,-13373.00,216.00,-1356.00,1588.00,-2336.00,18456.00,-2336.00
19980,-12314.00,498.00,-1186.00,1344.00,-2368.00,18104.00,-2320.00
19997,-10980.00,706.00,-859.00,1264.00,-3236.00,18056.00,-2352.00
20014,-10383.00,114.00,-285.00,1020.00,-3852.00,17580.00,-2320.00
20030,-8634.00,285.00,-675.00,1260.00,-4188.00,17704.00,-2320.00
20047,-7900.00,210.00,-480.00,1192.00,-4584.00,18012.00,-2288.00
20064,-7601.00,-106.00,-395.00,876.00,-4808.00,17876.00,-2336.00
20080,-7818.00,606.00,-22.00,708.00,-5256.00,17768.00,-2320.00
20097,-7322.00,339.00,-725.00,848.00,-5376.00,17408.00,-2304.00
20113,-6368.00,728.00,-1025.00,1068.00,-5480.00,17692.00,-2320.00
20130,-5898.00,667.00,-977.00,1180.00,-5632.00,17564.00,-2320.00
20147,-5514.00,906.00,-576.00,1288.00,-5848.00,17932.00,-2320.00
20163,-5255.00,1065.00,-577.00,1192.00,-6208.00,17748.00,-2320.00
20180,-4876.00,634.00,-542.00,928.00,-6396.00,17380.00,-2352.00
20197,-3935.00,1086.00,-358.00,1040.00,-6348.00,17084.00,-2352.00
20213,-2765.00,2245.00,-286.00,1092.00,-6636.00,17564.00,-2304.00
20231,-2183.00,1759.00,-637.00,788.00,-6712.00,17216.00,-2336.00
20247,-90.00,905.00,-362.00,672.00,-6692.00,17360.00,-2320.00
20263,1194.00,1318.00,-574.00,324.00,-7096.00,16772.00,-2336.00
20280,997.00,3361.00,-733.00,-1564.00,-7372.00,16176.00,-2320.00
20297,4883.00,757.00,-176.00,224.00,-6628.00,16864.00,-2352.00
20314,4760.00,1168.00,-377.00,944.00,-6704.00,17648.00,-2304.00
20330,4564.00,1402.00,-306.00,372.00,-6068.00,17568.00,-2320.00
20346,6089.00,1248.00,-604.00,528.00,-5568.00,17340.00,-2288.00
20364,7197.00,1452.00,-863.00,408.00,-5204.00,17580.00,-2304.00
20380,8368.00,2108.00,-1197.00,172.00,-4952.00,17612.00,-2304.00
20397,10935.00,2302.00,351.00,376.00,-4988.00,17384.00,-2304.00
20414,12416.00,2285.00,1451.00,504.00,-4296.00,17756.00,-2320.00
20430,13046.00,2094.00,2966.00,568.00,-3816.00,17988.00,-2336.00
20447,14706.00,2030.00,3296.00,204.00,-3572.00,18096.00,-2272.00
20464,16056.00,1489.00,2919.00,12.00,-3192.00,18292.00,-2336.00
20481,16352.00,425.00,1926.00,-116.00,-3020.00,18504.00,-2304.00
20497,15911.00,-2217.00,958.00,-168.00,-2564.00,18700.00,-2304.00
20514,15258.00,-2604.00,261.00,-644.00,-2132.00,18524.00,-2336.00
20531,14707.00,-3455.00,-417.00,-352.00,-1160.00,18688.00,-2304.00
20547,14391.00,-3764.00,-297.00,-60.00,-244.00,18132.00,-2304.00
20564,14032.00,-6061.00,-70.00,64.00,52.00,18120.00,-2320.00
20581,14231.00,-7156.00,-81.00,480.00,256.00,18120.00,-2304.00
20597,14569.00,-6355.00,-1047.00,696.00,992.00,18480.00,-2320.00
20614,15486.00,-4054.00,-586.00,1180.00,2032.00,18204.00,-2272.00
20631,16492.00,-1562.00,-453.00,1972.00,2488.00,18616.00,-2288.00
20647,16848.00,-874.00,-553.00,1464.00,3264.00,18816.00,-2320.00
20664,16218.00,-826.00,4.00,1244.00,4024.00,18180.00,-2320.00
20681,15421.00,-894.00,168.00,1760.00,4156.00,18828.00,-2304.00
20698,14007.00,177.00,149.00,1664.00,4612.00,18776.00,-2304.00
20714,12745.00,153.00,911.00,1164.00,5292.00,17932.00,-2320.00
20731,11650.00,160.00,1057.00,1240.00,5844.00,18048.00,-2320.00
20748,10814.00,58.00,909.00,1132.00,5952.00,17572.00,-2336.00
20764,10699.00,484.00,750.00,1044.00,6288.00,17172.00,-2352.00
20781,10941.00,1142.00,244.00,1052.00,6492.00,16956.00,-2320.00
20798,11100.00,777.00,-452.00,1204.00,6816.00,17036.00,-2320.00
20814,11100.00,-188.00,-1112.00,1260.00,7508.00,16576.00,-2320.00
20831,11707.00,-1470.00,-1274.00,1440.00,7868.00,16028.00,-2320.00
20848,12406.00,-90.00,-1022.00,1416.00,8100.00,15744.00,-2336.00
20865,13186.00,965.00,-1081.00,1332.00,8760.00,15324.00,-2304.00
20882,14047.00,1343.00,-297.00,1440.00,9424.00,14980.00,-2304.00
20898,14183.00,1801.00,595.00,1504.00,9712.00,16012.00,-2304.00
20915,12946.00,994.00,424.00,864.00,9844.00,15996.00,-2320.00
20932,11454.00,-20.00,-641.00,460.00,9816.00,15976.00,-2336.00
20948,9167.00,-352.00,-1506.00,672.00,10440.00,16056.00,-2320.00
20965,6532.00,-485.00,-1768.00,1056.00,11056.00,15684.00,-2320.00
20982,3857.00,-166.00,-1962.00,1312.00,11516.00,15948.00,-2288.00
20999,701.00,257.00,-1836.00,1296.00,11576.00,15568.00,-2304.00
21015,-2543.00,745.00,-1327.00,1232.00,11676.00,15688.00,-2320.00
21032,-5310.00,749.00,-635.00,848.00,11000.00,14980.00,-2304.00
21049,-7414.00,679.00,-52.00,424.00,10628.00,15040.00,-2320.00
21065,-9254.00,692.00,-111.00,424.00,10276.00,15404.00,-2336.00
21082,-10620.00,354.00,-656.00,544.00,10172.00,15472.00,-2304.00
21099,-11584.00,809.00,-1218.00,788.00,9772.00,15436.00,-2336.00
21115,-12111.00,1319.00,-1230.00,800.00,9368.00,15736.00,-2304.00
21132,-13211.00,1776.00,-970.00,864.00,9056.00,16324.00,-2336.00
21149,-14417.00,1201.00,-702.00,668.00,8600.00,16296.00,-2336.00
21166,-15451.00,700.00,-378.00,576.00,8188.00,16584.00,-2336.00
21182,-15959.00,254.00,-284.00,580.00,7584.00,16756.00,-2336.00
21199,-16015.00,-73.00,-335.00,416.00,7144.00,16740.00,-2320.00
21216,-15671.00,-102.00,-783.00,472.00,6536.00,17184.00,-2336.00
21232,-14999.00,-795.00,-1439.00,560.00,6120.00,17232.00,-2336.00
21249,-14570.00,-715.00,-1348.00,836.00,5336.00,17800.00,-2304.00
21266,-14611.00,-955.00,-874.00,664.00,4860.00,17800.00,-2336.00
21282,-14499.00,-894.00,-570.00,816.00,4608.00,17920.00,-2320.00
21299,-14231.00,-748.00,-201.00,828.00,4160.00,18088.00,-2320.00
21316,-13613.00,-304.00,-148.00,860.00,3748.00,18032.00,-2320.00
21332,-13296.00,-458.00,-25.00,896.00,2940.00,18180.00,-2304.00
21349,-13347.00,-197.00,134.00,688.00,2184.00,18352.00,-2288.00
21365,-13163.00,-46.00,65.00,920.00,1596.00,18428.00,-2320.00
21383,-12584.00,87.00,-308.00,812.00,1316.00,18588.00,-2320.00
21399,-11884.00,-178.00,-1058.00,820.00,968.00,18368.00,-2336.00
21415,-10802.00,-335.00,-1219.00,792.00,476.00,18512.00,-2304.00
21432,-10432.00,220.00,-880.00,828.00,72.00,18660.00,-2288.00
21449,-10890.00,394.00,-166.00,924.00,-420.00,18784.00,-2336.00
21466,-11646.00,341.00,335.00,648.00,-1032.00,18676.00,-2320.00
21482,-12022.00,436.00,146.00,412.00,-1368.00,18476.00,-2320.00
21498,-11440.00,622.00,-242.00,500.00,-1720.00,18340.00,-2304.00
21516,-10489.00,875.00,-913.00,656.00,-2124.00,18264.00,-2304.00
21532,-9593.00,645.00,-1135.00,900.00,-2352.00,18144.00,-2320.00
21549,-9598.00,926.00,-658.00,740.00,-2828.00,18536.00,-2320.00
21565,-10240.00,1388.00,-20.00,456.00,-3176.00,18340.00,-2304.00
21582,-10778.00,1318.00,-244.00,312.00,-3948.00,18172.00,-2320.00
21599,-11041.00,796.00,-795.00,464.00,-4160.00,18072.00,-2336.00
21615,-10957.00,574.00,-1508.00,664.00,-4368.00,18288.00,-2320.00
21633,-10726.00,32.00,-1301.00,820.00,-4552.00,17660.00,-2288.00
21649,-10368.00,80.00,-106.00,828.00,-4784.00,17676.00,-2320.00
21665,-8128.00,-1774.00,1171.00,176.00,-5504.00,17204.00,-2304.00
21683,-5702.00,-838.00,235.00,436.00,-6024.00,17508.00,-2336.00
21699,-3409.00,-1343.00,-20.00,444.00,-5992.00,17104.00,-2352.00
21715,-2214.00,-369.00,-91.00,448.00,-5784.00,16952.00,-2336.00
21732,-41.00,-514.00,13.00,280.00,-5872.00,16744.00,-2352.00
21748,1611.00,-506.00,193.00,240.00,-5748.00,16876.00,-2320.00
21766,3434.00,-308.00,194.00,472.00,-5468.00,16956.00,-2304.00
21782,5018.00,-178.00,278.00,640.00,-5340.00,17244.00,-2320.00
21798,6753.00,352.00,601.00,1068.00,-5348.00,17616.00,-2336.00
21815,8388.00,1078.00,1175.00,956.00,-5200.00,17872.00,-2304.00
21832,10288.00,514.00,1512.00,760.00,-4880.00,17976.00,-2320.00
21849,11833.00,-835.00,1731.00,492.00,-4540.00,18156.00,-2304.00
21865,13378.00,-2341.00,1515.00,644.00,-4148.00,17856.00,-2320.00
21882,16186.00,-1610.00,890.00,784.00,-3660.00,18360.00,-2336.00
21899,18944.00,-79.00,-496.00,1016.00,-3136.00,18632.00,-2320.00
21915,20406.00,-173.00,-924.00,508.00,-2048.00,18372.00,-2320.00
21932,20723.00,-483.00,-599.00,504.00,-1316.00,18648.00,-2320.00
21949,19694.00,-1037.00,334.00,376.00,-608.00,18820.00,-2304.00
21965,18250.00,-1348.00,1345.00,696.00,324.00,18964.00,-2304.00
21982,17170.00,-820.00,2818.00,1248.00,1324.00,18460.00,-2304.00
21999,16602.00,-463.00,3975.00,876.00,1800.00,18560.00,-2336.00
22016,16209.00,-113.00,3375.00,656.00,1980.00,18448.00,-2336.00
22032,16111.00,-942.00,1761.00,432.00,1956.00,18488.00,-2336.00
22049,15597.00,-1141.00,352.00,308.00,2600.00,18724.00,-2336.00
22066,15272.00,-352.00,-878.00,960.00,3324.00,18628.00,-2336.00
22082,14302.00,-779.00,-665.00,1108.00,4240.00,18416.00,-2320.00
22099,13780.00,-440.00,-432.00,1360.00,5016.00,17936.00,-2352.00
22116,13562.00,-142.00,-62.00,1316.00,5332.00,17776.00,-2320.00
22132,13661.00,223.00,-182.00,1024.00,5460.00,17396.00,-2336.00
22150,13584.00,409.00,-353.00,808.00,5812.00,17804.00,-2336.00
22166,13212.00,467.00,-289.00,832.00,6556.00,17372.00,-2304.00
22182,12551.00,-116.00,300.00,820.00,7160.00,17208.00,-2320.00
22199,12061.00,-211.00,722.00,1176.00,7396.00,16900.00,-2288.00
22216,12084.00,759.00,298.00,1216.00,7848.00,16780.00,-2352.00
22233,12128.00,1582.00,326.00,1024.00,8064.00,16252.00,-2304.00
22249,11538.00,973.00,1199.00,1236.00,8536.00,16104.00,-2304.00
22266,10060.00,585.00,1998.00,1020.00,9036.00,16344.00,-2320.00
22283,8866.00,366.00,1756.00,556.00,9000.00,15992.00,-2320.00
22299,8791.00,383.00,810.00,548.00,9244.00,15832.00,-2336.00
22317,8546.00,197.00,-361.00,548.00,9588.00,15744.00,-2288.00
22333,7702.00,179.00,-1321.00,872.00,10040.00,15856.00,-2304.00
22349,6243.00,385.00,-1575.00,752.00,10336.00,15644.00,-2304.00
22366,3801.00,197.00,-1384.00,1084.00,10780.00,16272.00,-2304.00
22383,681.00,-251.00,-857.00,1316.00,11088.00,15976.00,-2336.00
22400,-1552.00,35.00,-424.00,1168.00,10984.00,15376.00,-2304.00
22416,-2735.00,666.00,-599.00,1068.00,10764.00,15188.00,-2336.00
22433,-4084.00,542.00,-349.00,712.00,10352.00,15364.00,-2320.00
22450,-5384.00,480.00,-383.00,448.00,10272.00,15568.00,-2320.00
22466,-6723.00,374.00,-766.00,376.00,9936.00,15500.00,-2304.00
22482,-7635.00,548.00,-1175.00,264.00,9728.00,15384.00,-2352.00
22500,-8627.00,103.00,-1197.00,308.00,9384.00,15540.00,-2320.00
22516,-10001.00,-526.00,-1135.00,628.00,9212.00,16100.00,-2304.00
22533,-11141.00,-378.00,-820.00,720.00,9064.00,16192.00,-2320.00
22550,-11690.00,-18.00,-916.00,880.00,8648.00,16152.00,-2336.00
22566,-12050.00,-89.00,-527.00,820.00,8220.00,16636.00,-2288.00
22583,-12581.00,-374.00,-437.00,904.00,7700.00,17028.00,-2336.00
22599,-12892.00,-394.00,-421.00,1260.00,7180.00,17100.00,-2304.00
22617,-13442.00,-743.00,-483.00,800.00,6716.00,17248.00,-2304.00
22633,-13332.00,-830.00,-1046.00,412.00,6068.00,17224.00,-2336.00
22649,-13079.00,-602.00,-1510.00,400.00,5616.00,17152.00,-2320.00
22667,-12772.00,-281.00,-1741.00,516.00,5484.00,17664.00,-2336.00
22683,-12683.00,-160.00,-1588.00,1128.00,5324.00,17852.00,-2320.00
22700,-12568.00,-373.00,-1423.00,1312.00,5148.00,17948.00,-2336.00
22717,-12718.00,-501.00,-1129.00,1024.00,4184.00,18176.00,-2336.00
22733,-13124.00,-766.00,-1015.00,988.00,3600.00,18184.00,-2320.00
22751,-13112.00,-630.00,-904.00,828.00,3256.00,18196.00,-2320.00
22767,-12524.00,-351.00,-869.00,1032.00,2720.00,18104.00,-2336.00
22784,-11962.00,-161.00,-438.00,1032.00,2136.00,18328.00,-2304.00
22800,-11469.00,-475.00,-216.00,840.00,1752.00,18564.00,-2304.00
22817,-10925.00,-335.00,-462.00,660.00,1348.00,18488.00,-2336.00
22834,-10475.00,58.00,-810.00,752.00,848.00,18520.00,-2320.00
22850,-10294.00,195.00,-1215.00,804.00,560.00,18536.00,-2304.00
22866,-10163.00,105.00,-1258.00,636.00,32.00,18632.00,-2320.00
22884,-10386.00,4.00,-1039.00,1000.00,-320.00,18704.00,-2336.00
22900,-10505.00,-156.00,-792.00,1080.00,-532.00,18584.00,-2320.00
22917,-10462.00,-111.00,-334.00,964.00,-1132.00,18624.00,-2288.00
22933,-10691.00,224.00,152.00,1644.00,-1708.00,19136.00,-2320.00
22950,-10396.00,69.00,-59.00,436.00,-1944.00,18100.00,-2304.00
22967,-10348.00,444.00,80.00,780.00,-2528.00,18512.00,-2320.00
22983,-9577.00,558.00,-440.00,728.00,-2776.00,17960.00,-2336.00
23000,-8808.00,210.00,-723.00,468.00,-3112.00,18136.00,-2336.00
23017,-8364.00,188.00,-868.00,836.00,-3452.00,18072.00,-2320.00
23033,-8237.00,392.00,-674.00,1276.00,-3840.00,18268.00,-2320.00
23050,-8466.00,621.00,-117.00,1088.00,-3812.00,18472.00,-2320.00
23066,-8682.00,905.00,182.00,424.00,-4216.00,17708.00,-2320.00
23084,-8130.00,879.00,-246.00,1028.00,-4656.00,18084.00,-2320.00
23100,-8055.00,517.00,-567.00,428.00,-4868.00,17888.00,-2320.00
23116,-7753.00,443.00,-841.00,536.00,-5192.00,17948.00,-2304.00
23133,-7827.00,290.00,-617.00,848.00,-5340.00,17736.00,-2352.00
23150,-7436.00,260.00,-115.00,712.00,-5296.00,17372.00,-2288.00
23166,-6648.00,425.00,542.00,724.00,-5356.00,17492.00,-2304.00
23183,-5749.00,950.00,386.00,664.00,-6036.00,17072.00,-2352.00
23199,-3111.00,-91.00,454.00,552.00,-6360.00,17072.00,-2304.00
23217,-968.00,-65.00,64.00,780.00,-6808.00,16820.00,-2320.00
23233,1452.00,183.00,-764.00,308.00,-6612.00,16964.00,-2320.00
23249,3534.00,76.00,-359.00,556.00,-6364.00,17076.00,-2304.00
23266,5074.00,635.00,-122.00,928.00,-6148.00,17564.00,-2320.00
23282,6646.00,658.00,323.00,836.00,-6028.00,17636.00,-2336.00
23300,8586.00,1210.00,292.00,440.00,-5776.00,17776.00,-2320.00
23316,10465.00,1047.00,1.00,180.00,-5592.00,17668.00,-2304.00
23332,11459.00,624.00,-164.00,264.00,-5136.00,17952.00,-2352.00
23349,11640.00,-124.00,-490.00,276.00,-4684.00,18364.00,-2336.00
23366,11494.00,-960.00,-621.00,656.00,-4408.00,18344.00,-2336.00
23383,12736.00,-227.00,-158.00,1104.00,-3696.00,18604.00,-2320.00
23399,13497.00,-180.00,535.00,1064.00,-3132.00,18540.00,-2320.00
23415,13808.00,-167.00,1027.00,540.00,-2876.00,18548.00,-2320.00
23433,13860.00,562.00,1301.00,260.00,-2384.00,18692.00,-2320.00
23449,13803.00,1056.00,997.00,-136.00,-1904.00,18472.00,-2352.00
23465,13708.00,896.00,824.00,44.00,-1420.00,18336.00,-2320.00
23483,13504.00,458.00,763.00,208.00,-964.00,18604.00,-2336.00
23499,13016.00,-399.00,1129.00,108.00,-112.00,18464.00,-2320.00
23516,12993.00,-587.00,1557.00,-20.00,656.00,18084.00,-2304.00
23532,13197.00,-224.00,1837.00,-4.00,828.00,18304.00,-2288.00
23549,12720.00,-117.00,2306.00,300.00,1356.00,18332.00,-2336.00
23566,12027.00,-272.00,2355.00,452.00,1484.00,18756.00,-2320.00
23582,11179.00,-635.00,2224.00,724.00,1724.00,18916.00,-2320.00
23600,10991.00,352.00,1595.00,936.00,2560.00,18668.00,-2320.00
23616,11425.00,348.00,1094.00,552.00,2936.00,18364.00,-2320.00
23632,11786.00,-135.00,967.00,200.00,3304.00,18052.00,-2352.00
23649,11915.00,-701.00,710.00,332.00,3656.00,18104.00,-2336.00
23666,11821.00,-929.00,395.00,276.00,3996.00,17652.00,-2336.00
23683,11881.00,-1092.00,17.00,916.00,4772.00,18016.00,-2320.00
23699,12381.00,-529.00,-119.00,1052.00,5464.00,17640.00,-2320.00
23716,13058.00,-13.00,-362.00,1016.00,5760.00,17532.00,-2288.00
23733,13314.00,-89.00,-195.00,628.00,5964.00,17228.00,-2304.00
23749,13408.00,-283.00,-222.00,504.00,6360.00,17084.00,-2352.00
23766,13414.00,-48.00,-322.00,632.00,6796.00,17104.00,-2352.00
23783,13088.00,-197.00,-140.00,536.00,7272.00,16704.00,-2288.00
23799,12490.00,-311.00,598.00,388.00,7924.00,16252.00,-2320.00
23816,11996.00,99.00,1139.00,368.00,8084.00,16368.00,-2320.00
23832,11370.00,533.00,500.00,592.00,8624.00,16680.00,-2336.00
23849,11021.00,812.00,-68.00,836.00,8764.00,16296.00,-2336.00
23866,10665.00,1080.00,128.00,908.00,9268.00,16096.00,-2320.00
23882,9954.00,1186.00,-126.00,668.00,9692.00,16080.00,-2368.00
23899,8729.00,795.00,-546.00,416.00,10176.00,15784.00,-2304.00
23916,7664.00,540.00,-684.00,396.00,10428.00,15604.00,-2352.00
23932,5671.00,98.00,-597.00,400.00,10312.00,15704.00,-2288.00
23949,3359.00,-250.00,-555.00,408.00,10484.00,16276.00,-2368.00
23965,395.00,-308.00,-406.00,424.00,10476.00,15988.00,-2320.00
23983,-2552.00,117.00,-183.00,1332.00,11452.00,16160.00,-2336.00
23999,-5055.00,437.00,88.00,488.00,10760.00,15468.00,-2304.00
24015,-6953.00,793.00,432.00,288.00,10240.00,15200.00,-2320.00
24033,-8767.00,532.00,855.00,576.00,10016.00,15720.00,-2320.00
24049,-10688.00,92.00,930.00,520.00,9716.00,15820.00,-2304.00
24066,-11795.00,201.00,364.00,196.00,9336.00,15640.00,-2352.00
24082,-12057.00,800.00,-190.00,284.00,8868.00,15844.00,-2320.00
24099,-12929.00,695.00,-362.00,388.00,8584.00,16064.00,-2304.00
24116,-13851.00,793.00,-601.00,304.00,8500.00,16580.00,-2336.00
24132,-14380.00,787.00,-1241.00,796.00,7828.00,16832.00,-2288.00
24148,-15006.00,243.00,-1408.00,492.00,7204.00,16692.00,-2352.00
24166,-15271.00,174.00,-1457.00,288.00,6624.00,16892.00,-2320.00
24182,-15603.00,-76.00,-1151.00,380.00,6424.00,16948.00,-2320.00
24199,-15797.00,-204.00,-691.00,80.00,5516.00,17196.00,-2336.00
24216,-15729.00,-368.00,-708.00,292.00,5008.00,17756.00,-2304.00
24232,-15171.00,-452.00,-1200.00,364.00,4240.00,17680.00,-2288.00
24249,-14693.00,-449.00,-1255.00,1060.00,3700.00,18116.00,-2320.00
24266,-14847.00,-856.00,-754.00,672.00,2936.00,18600.00,-2320.00
24283,-14892.00,-605.00,-848.00,900.00,2728.00,18304.00,-2352.00
24299,-14380.00,-69.00,-491.00,716.00,2288.00,18148.00,-2304.00
24315,-13850.00,-376.00,-425.00,436.00,1692.00,18448.00,-2320.00
24333,-13849.00,-764.00,-573.00,80.00,652.00,18468.00,-2352.00
24349,-14001.00,-103.00,-1309.00,368.00,0.00,18736.00,-2336.00
24366,-13549.00,-49.00,-1860.00,728.00,-152.00,18804.00,-2304.00
24382,-13088.00,-128.00,-1251.00,404.00,-432.00,18432.00,-2336.00
24399,-12619.00,109.00,-372.00,596.00,-848.00,18572.00,-2320.00
24416,-12129.00,-129.00,146.00,624.00,-1464.00,18636.00,-2304.00
24432,-12018.00,-130.00,104.00,632.00,-1928.00,18528.00,-2336.00
24449,-11578.00,-186.00,-455.00,320.00,-2656.00,18356.00,-2288.00
24466,-11509.00,-348.00,-988.00,464.00,-2920.00,18212.00,-2320.00
24482,-10910.00,5.00,-1127.00,592.00,-3008.00,18228.00,-2336.00
24499,-10274.00,235.00,-744.00,848.00,-3244.00,18340.00,-2304.00
24515,-10045.00,94.00,-138.00,680.00,-3740.00,18392.00,-2320.00
24532,-10009.00,-90.00,229.00,624.00,-4272.00,18096.00,-2304.00
24549,-9855.00,-34.00,-94.00,372.00,-4736.00,17888.00,-2320.00
24565,-9133.00,64.00,-805.00,524.00,-5208.00,17888.00,-2336.00
24582,-8600.00,168.00,-1153.00,444.00,-5408.00,17808.00,-2352.00
24599,-8253.00,293.00,-638.00,612.00,-5448.00,17556.00,-2304.00
24615,-7838.00,31.00,-191.00,600.00,-5776.00,17280.00,-2320.00
24632,-6420.00,56.00,110.00,516.00,-5960.00,17216.00,-2336.00
24648,-5123.00,566.00,200.00,416.00,-6336.00,17228.00,-2288.00
24665,-3478.00,288.00,-133.00,300.00,-6676.00,16720.00,-2336.00
24682,-1418.00,279.00,-576.00,456.00,-6920.00,16992.00,-2320.00
24698,624.00,697.00,-1023.00,860.00,-6732.00,17388.00,-2336.00
24715,2214.00,1124.00,-682.00,808.00,-6668.00,17416.00,-2320.00
24731,3998.00,1463.00,-253.00,520.00,-6504.00,17304.00,-2336.00
24749,6843.00,1327.00,232.00,552.00,-6124.00,17256.00,-2304.00
24765,9231.00,845.00,586.00,432.00,-5988.00,17492.00,-2320.00
24781,11029.00,639.00,552.00,276.00,-5612.00,17612.00,-2304.00
24798,12498.00,-59.00,549.00,-176.00,-5140.00,17888.00,-2336.00
24815,13268.00,-714.00,705.00,192.00,-4620.00,18084.00,-2320.00
24832,13380.00,-770.00,865.00,596.00,-4208.00,18640.00,-2368.00
24848,13197.00,-764.00,1177.00,624.00,-3804.00,18372.00,-2304.00
24864,12780.00,-1657.00,1277.00,364.00,-3216.00,18336.00,-2304.00
24882,12789.00,-2555.00,1272.00,256.00,-2640.00,18104.00,-2304.00
24898,13886.00,-1573.00,1417.00,-92.00,-2488.00,18300.00,-2336.00
24915,15214.00,47.00,294.00,232.00,-2092.00,18692.00,-2336.00
24932,15351.00,-336.00,-322.00,-16.00,-1764.00,18544.00,-2288.00
24948,14976.00,-378.00,-521.00,816.00,-924.00,18904.00,-2320.00
24965,14146.00,-560.00,268.00,940.00,12.00,18844.00,-2336.00
24981,13886.00,-628.00,790.00,872.00,580.00,18616.00,-2336.00
24998,13852.00,-1068.00,822.00,432.00,700.00,18272.00,-2288.00
25015,13778.00,-1761.00,-148.00,476.00,1156.00,18464.00,-2320.00
25031,14305.00,-957.00,-997.00,496.00,1956.00,18308.00,-2320.00
25048,14695.00,-168.00,-898.00,1000.00,2436.00,18440.00,-2304.00
25065,14959.00,625.00,-303.00,916.00,2920.00,17960.00,-2304.00
25081,14749.00,261.00,745.00,744.00,3664.00,18136.00,-2304.00
25098,14354.00,-94.00,878.00,640.00,4020.00,18184.00,-2320.00
25115,13952.00,160.00,362.00,956.00,4468.00,18356.00,-2336.00
25132,13619.00,82.00,-235.00,736.00,5148.00,17832.00,-2320.00
25148,13339.00,48.00,-236.00,788.00,5308.00,17484.00,-2352.00
25164,13069.00,379.00,-138.00,648.00,5996.00,17392.00,-2304.00
25182,12642.00,455.00,382.00,552.00,6104.00,17296.00,-2288.00
25198,11935.00,442.00,355.00,476.00,6544.00,17328.00,-2304.00
25214,11429.00,280.00,161.00,768.00,7252.00,17188.00,-2368.00
25231,11047.00,67.00,265.00,756.00,7556.00,16572.00,-2352.00
25248,10553.00,-156.00,626.00,740.00,7692.00,16692.00,-2304.00
25265,10162.00,-106.00,791.00,612.00,7808.00,16696.00,-2320.00
25281,9473.00,-11.00,926.00,268.00,8012.00,16464.00,-2320.00
25297,8674.00,259.00,914.00,196.00,8536.00,16148.00,-2320.00
25314,7643.00,254.00,626.00,916.00,9560.00,16168.00,-2304.00
25331,6733.00,109.00,310.00,1024.00,9716.00,15764.00,-2336.00
25348,6080.00,-242.00,306.00,952.00,9628.00,15684.00,-2320.00
25364,5056.00,-570.00,131.00,740.00,9664.00,15948.00,-2304.00
25380,3597.00,-534.00,-461.00,976.00,9912.00,16260.00,-2352.00
25398,1700.00,-419.00,-488.00,1016.00,10132.00,16020.00,-2336.00
25414,-199.00,144.00,-332.00,1080.00,10232.00,15752.00,-2304.00
25431,-1791.00,267.00,-402.00,804.00,10348.00,15624.00,-2320.00
25447,-3609.00,221.00,-53.00,776.00,10192.00,15984.00,-2320.00
25464,-5468.00,559.00,-30.00,516.00,9780.00,15796.00,-2336.00
25481,-7009.00,839.00,39.00,516.00,9484.00,16200.00,-2320.00
25497,-8743.00,794.00,210.00,600.00,8984.00,16028.00,-2288.00
25513,-10166.00,1479.00,143.00,556.00,8840.00,15812.00,-2336.00
25531,-11369.00,2216.00,411.00,720.00,8796.00,16256.00,-2304.00
25547,-12407.00,2282.00,462.00,632.00,8520.00,16392.00,-2304.00
25564,-13571.00,1985.00,402.00,524.00,7908.00,16656.00,-2336.00
25581,-14337.00,1450.00,278.00,308.00,7396.00,16568.00,-2336.00
25597,-14729.00,1288.00,115.00,300.00,6804.00,16852.00,-2320.00
25614,-15065.00,1455.00,-162.00,260.00,6280.00,17172.00,-2352.00
25631,-15421.00,1541.00,-667.00,308.00,5948.00,17496.00,-2320.00
25648,-15642.00,1100.00,-1398.00,552.00,5660.00,17804.00,-2320.00
25664,-15769.00,632.00,-1481.00,468.00,5160.00,17804.00,-2320.00
25681,-15601.00,564.00,-1330.00,724.00,4308.00,17920.00,-2320.00
25698,-15481.00,752.00,-1192.00,656.00,3096.00,18308.00,-2320.00
25714,-15366.00,604.00,-1597.00,344.00,2568.00,18532.00,-2320.00
25732,-14872.00,111.00,-1768.00,340.00,2316.00,18132.00,-2320.00
25748,-14064.00,-25.00,-2019.00,428.00,2000.00,18608.00,-2288.00
25764,-12693.00,-52.00,-1830.00,168.00,1540.00,18272.00,-2336.00
25781,-11961.00,-63.00,-1477.00,-48.00,684.00,18468.00,-2320.00
25798,-10918.00,314.00,-1424.00,264.00,324.00,18472.00,-2336.00
25815,-10556.00,465.00,-1089.00,640.00,-144.00,18716.00,-2272.00
25831,-10006.00,348.00,-1223.00,440.00,-412.00,18796.00,-2320.00
25847,-9106.00,179.00,-1492.00,100.00,-912.00,18656.00,-2288.00
25865,-8900.00,165.00,-1624.00,92.00,-1280.00,18880.00,-2304.00
25881,-8847.00,347.00,-1336.00,176.00,-1488.00,18820.00,-2320.00
25897,-9031.00,168.00,-872.00,116.00,-1796.00,18532.00,-2304.00
25914,-8949.00,429.00,-354.00,224.00,-2108.00,18276.00,-2304.00
25931,-8682.00,536.00,-221.00,96.00,-2288.00,18248.00,-2320.00
25948,-8441.00,866.00,-349.00,12.00,-3056.00,18452.00,-2304.00
25964,-8497.00,509.00,-971.00,-312.00,-3400.00,18332.00,-2304.00
25980,-8415.00,-113.00,-1386.00,-72.00,-3576.00,18428.00,-2304.00
25997,-8292.00,-1231.00,-1057.00,-76.00,-3604.00,18512.00,-2320.00
26014,-9107.00,-1120.00,-815.00,248.00,-3996.00,18212.00,-2304.00
26031,-9608.00,-758.00,-801.00,240.00,-4104.00,17964.00,-2304.00
26047,-9142.00,-445.00,-714.00,504.00,-4292.00,17724.00,-2320.00
26064,-8525.00,654.00,-310.00,-8.00,-5056.00,17652.00,-2352.00
26081,-7926.00,81.00,-229.00,-136.00,-5344.00,17476.00,-2288.00
26097,-6843.00,248.00,-641.00,-24.00,-5844.00,17372.00,-2304.00
26114,-5105.00,-168.00,-1216.00,36.00,-6136.00,17312.00,-2320.00
26130,-3580.00,-332.00,-1546.00,352.00,-6180.00,17404.00,-2304.00
26147,-2475.00,-462.00,-874.00,428.00,-5828.00,17408.00,-2288.00
26164,-2299.00,252.00,-422.00,456.00,-6076.00,17556.00,-2320.00
26180,-1581.00,781.00,-470.00,464.00,-6484.00,17648.00,-2336.00
26196,-557.00,996.00,-664.00,300.00,-6312.00,17376.00,-2288.00
26213,655.00,1312.00,-664.00,192.00,-6056.00,17100.00,-2304.00
26230,2298.00,1206.00,-299.00,24.00,-6400.00,17020.00,-2320.00
26247,4539.00,499.00,310.00,-460.00,-6124.00,16988.00,-2304.00
26263,6555.00,258.00,769.00,16.00,-6028.00,17448.00,-2288.00
26279,8688.00,96.00,521.00,32.00,-5664.00,17564.00,-2336.00
26296,10531.00,-335.00,363.00,160.00,-5372.00,17804.00,-2272.00
26313,11851.00,-366.00,410.00,388.00,-4964.00,17892.00,-2304.00
26330,12728.00,-219.00,714.00,124.00,-4332.00,18468.00,-2352.00
26346,13379.00,177.00,1084.00,296.00,-3768.00,18460.00,-2320.00
26363,13574.00,495.00,1200.00,52.00,-3700.00,18432.00,-2336.00
26380,14017.00,398.00,1395.00,-20.00,-2896.00,18472.00,-2336.00
26396,14213.00,135.00,1547.00,-172.00,-2608.00,18588.00,-2320.00
26413,14404.00,105.00,1706.00,-504.00,-2096.00,18356.00,-2288.00
26430,14677.00,225.00,1667.00,-272.00,-1216.00,18300.00,-2320.00
26446,15200.00,380.00,1962.00,20.00,-736.00,18444.00,-2288.00
26463,15679.00,823.00,1686.00,80.00,-288.00,18576.00,-2336.00
26480,16159.00,889.00,1540.00,40.00,320.00,18492.00,-2320.00
26497,16495.00,630.00,1303.00,-12.00,736.00,18508.00,-2304.00
26513,16669.00,510.00,1004.00,-204.00,1408.00,18468.00,-2320.00
26529,16566.00,-454.00,794.00,-396.00,2108.00,18572.00,-2352.00
26547,16747.00,-281.00,85.00,60.00,2884.00,18612.00,-2288.00
26563,16634.00,117.00,-37.00,4.00,3548.00,18344.00,-2320.00
26579,16464.00,331.00,-119.00,124.00,3960.00,18596.00,-2320.00
26596,16220.00,630.00,-281.00,-48.00,4504.00,18048.00,-2320.00
26612,15629.00,252.00,109.00,-180.00,5056.00,18164.00,-2336.00
26630,15005.00,391.00,95.00,-316.00,5656.00,17468.00,-2368.00
26646,14561.00,197.00,125.00,-100.00,6144.00,17556.00,-2288.00
26662,14255.00,-130.00,-280.00,-88.00,6580.00,17484.00,-2304.00
26679,14103.00,99.00,-976.00,180.00,7132.00,17116.00,-2320.00
26696,13863.00,123.00,-776.00,-100.00,7404.00,16684.00,-2304.00
26713,13243.00,-76.00,-562.00,-312.00,7888.00,16720.00,-2272.00
26729,12313.00,-407.00,-668.00,-432.00,8532.00,16424.00,-2320.00
26745,11190.00,-309.00,-697.00,-164.00,8912.00,16280.00,-2320.00
26763,10066.00,-63.00,-868.00,-32.00,9440.00,15680.00,-2304.00
26779,9326.00,279.00,-541.00,168.00,9524.00,15620.00,-2320.00
26796,8177.00,-53.00,43.00,-240.00,9668.00,15360.00,-2336.00
26812,6823.00,104.00,39.00,-540.00,9796.00,15748.00,-2336.00
26828,4653.00,-349.00,54.00,-416.00,10044.00,15692.00,-2320.00
26846,2531.00,-653.00,64.00,-220.00,10152.00,15468.00,-2304.00
26862,182.00,-389.00,286.00,152.00,10488.00,15620.00,-2288.00
26878,-1322.00,-332.00,456.00,-76.00,10208.00,15196.00,-2336.00
26895,-2706.00,-547.00,834.00,-536.00,10172.00,15436.00,-2320.00
26912,-4414.00,-886.00,579.00,-368.00,9704.00,15552.00,-2320.00
26929,-6031.00,-1482.00,402.00,-388.00,9640.00,15416.00,-2304.00
26945,-7358.00,-1559.00,403.00,-124.00,9688.00,15496.00,-2304.00
26961,-8747.00,-1429.00,494.00,128.00,9484.00,15496.00,-2304.00
26979,-10247.00,-1597.00,1204.00,316.00,9184.00,16020.00,-2320.00
26995,-12026.00,-1358.00,1954.00,732.00,9032.00,16768.00,-2288.00
27012,-13379.00,-659.00,2286.00,320.00,8716.00,16576.00,-2304.00
27029,-14403.00,667.00,1556.00,304.00,8100.00,16884.00,-2368.00
27045,-15133.00,1455.00,787.00,0.00,7312.00,17140.00,-2352.00
27062,-15764.00,1487.00,634.00,92.00,6908.00,17036.00,-2320.00
27078,-16345.00,1680.00,664.00,72.00,6332.00,17300.00,-2336.00
27096,-16523.00,3031.00,272.00,76.00,5620.00,17464.00,-2320.00
27112,-16921.00,3254.00,-327.00,180.00,5080.00,17828.00,-2320.00
27128,-17508.00,2850.00,-1074.00,168.00,4740.00,17964.00,-2320.00
27146,-17535.00,2360.00,-1674.00,340.00,4104.00,18484.00,-2320.00
27162,-17202.00,1894.00,-2008.00,348.00,3596.00,18168.00,-2320.00
27179,-16672.00,1471.00,-1538.00,-28.00,2828.00,17976.00,-2304.00
27196,-15869.00,1776.00,-1308.00,-464.00,2104.00,18072.00,-2304.00
27212,-14812.00,2888.00,-1470.00,-164.00,1756.00,18476.00,-2304.00
27230,-13791.00,3002.00,-1706.00,-324.00,1264.00,18548.00,-2320.00
27246,-12714.00,2175.00,-1466.00,-88.00,504.00,18804.00,-2320.00
27262,-12187.00,1068.00,-1396.00,-564.00,-88.00,18608.00,-2320.00
27280,-12022.00,712.00,-1880.00,-852.00,-988.00,18708.00,-2304.00
27296,-11681.00,803.00,-2409.00,-768.00,-1244.00,18468.00,-2304.00
27313,-10959.00,1154.00,-2660.00,-612.00,-1552.00,18680.00,-2304.00
27330,-10804.00,771.00,-2499.00,-712.00,-1808.00,18540.00,-2304.00
27346,-10902.00,910.00,-1963.00,-692.00,-2220.00,18348.00,-2320.00
27363,-10553.00,934.00,-1731.00,-716.00,-2324.00,18268.00,-2320.00
27380,-9216.00,264.00,-1460.00,-880.00,-2788.00,17960.00,-2288.00
27397,-7647.00,-406.00,-1852.00,-836.00,-3384.00,17980.00,-2304.00
27413,-6631.00,-653.00,-2073.00,-992.00,-3656.00,17936.00,-2272.00
27429,-6006.00,-1282.00,-2104.00,-412.00,-4140.00,18280.00,-2320.00
27447,-5737.00,-282.00,-2281.00,-864.00,-4364.00,17880.00,-2336.00
27463,-5554.00,-2294.00,-1502.00,-532.00,-4320.00,18056.00,-2336.00
27480,-6081.00,-100.00,-1934.00,-200.00,-4480.00,18348.00,-2304.00
27497,-5936.00,-1160.00,-1219.00,-636.00,-4644.00,17740.00,-2320.00
27513,-6094.00,66.00,-1307.00,-412.00,-5016.00,18036.00,-2336.00
27530,-5435.00,-173.00,-919.00,-572.00,-5092.00,17632.00,-2352.00
27547,-4691.00,27.00,-817.00,-656.00,-5376.00,17384.00,-2336.00
27564,-3469.00,-477.00,-775.00,-424.00,-5388.00,17644.00,-2320.00
27580,-2493.00,-19.00,-972.00,-212.00,-5624.00,17648.00,-2336.00
27596,-1753.00,-21.00,-939.00,-352.00,-5960.00,17568.00,-2352.00
27613,-683.00,-21.00,-688.00,-440.00,-5924.00,17012.00,-2304.00
27630,1268.00,115.00,-165.00,-408.00,-5552.00,17148.00,-2320.00
27646,3366.00,611.00,464.00,-464.00,-5516.00,17368.00,-2336.00
27663,6112.00,239.00,1329.00,-656.00,-5424.00,17200.00,-2320.00
27679,8460.00,490.00,988.00,-668.00,-5256.00,17440.00,-2336.00
27696,10242.00,-22.00,940.00,-700.00,-5052.00,17756.00,-2304.00
27713,11431.00,-377.00,1012.00,-304.00,-4764.00,17904.00,-2320.00
27729,12184.00,-778.00,1484.00,-284.00,-4068.00,18320.00,-2288.00
27746,12389.00,-1174.00,2204.00,-368.00,-3752.00,18348.00,-2320.00
27763,12303.00,-1088.00,2994.00,-340.00,-3312.00,18480.00,-2320.00
27780,12511.00,-772.00,2977.00,-696.00,-2664.00,18392.00,-2352.00
27796,13095.00,4.00,2444.00,-940.00,-2316.00,18256.00,-2320.00
27813,13750.00,666.00,1675.00,-712.00,-1704.00,18552.00,-2304.00
27830,14815.00,623.00,1081.00,-144.00,-884.00,18760.00,-2336.00
27846,15852.00,530.00,1046.00,-316.00,-608.00,18400.00,-2304.00
27864,16282.00,-18.00,1307.00,-404.00,-32.00,18780.00,-2288.00
27880,16066.00,73.00,1697.00,-552.00,676.00,18780.00,-2336.00
27896,15818.00,200.00,1999.00,-528.00,1344.00,18600.00,-2320.00
27913,15657.00,200.00,2052.00,-624.00,2092.00,18292.00,-2320.00
27930,15856.00,105.00,1928.00,-448.00,2500.00,18284.00,-2288.00
27947,15818.00,-385.00,1741.00,-572.00,3028.00,18348.00,-2320.00
27963,15621.00,-853.00,1616.00,-448.00,3404.00,18372.00,-2320.00
27980,15037.00,-1203.00,1624.00,-560.00,4108.00,17980.00,-2320.00
27997,14481.00,-468.00,2059.00,-376.00,4664.00,17864.00,-2320.00
28013,13474.00,390.00,2134.00,-536.00,5132.00,17824.00,-2320.00
28030,13850.00,-1443.00,3069.00,-612.00,5372.00,17548.00,-2304.00
28047,13386.00,-1712.00,3035.00,-804.00,5384.00,17476.00,-2288.00
28063,12772.00,-902.00,919.00,-216.00,6244.00,17648.00,-2320.00
28081,12520.00,-701.00,-20.00,520.00,6944.00,17428.00,-2320.00
28097,11743.00,-839.00,83.00,384.00,7532.00,16956.00,-2320.00
28113,11240.00,-783.00,285.00,332.00,8340.00,16540.00,-2288.00
28130,11142.00,-416.00,438.00,-32.00,8352.00,16024.00,-2304.00
28147,11197.00,-251.00,50.00,80.00,8396.00,16296.00,-2320.00
28164,10583.00,-647.00,-155.00,-248.00,8452.00,16548.00,-2304.00
28180,9852.00,-716.00,-221.00,-324.00,8796.00,15888.00,-2336.00
28196,8954.00,-696.00,326.00,72.00,9244.00,15768.00,-2288.00
28213,8037.00,-547.00,-90.00,64.00,9528.00,15824.00,-2320.00
28230,7567.00,-431.00,-606.00,396.00,10080.00,15656.00,-2288.00
28247,6948.00,-668.00,-596.00,172.00,10100.00,15212.00,-2352.00
28263,6111.00,-413.00,-495.00,128.00,10440.00,15180.00,-2288.00
28279,5072.00,-359.00,-102.00,128.00,10404.00,14992.00,-2336.00
28297,4209.00,-701.00,284.00,-84.00,10512.00,14748.00,-2336.00
28313,3590.00,-702.00,214.00,76.00,10684.00,14824.00,-2320.00
28329,3285.00,-429.00,-452.00,372.00,10912.00,14772.00,-2320.00
28346,2551.00,-373.00,-229.00,628.00,10828.00,14864.00,-2320.00
28363,776.00,-404.00,158.00,376.00,10988.00,14908.00,-2320.00
28380,-996.00,-73.00,566.00,228.00,10984.00,14888.00,-2320.00
28396,-3055.00,-288.00,768.00,4.00,10820.00,14816.00,-2288.00
28412,-4818.00,-233.00,371.00,0.00,10732.00,14896.00,-2320.00
28429,-6679.00,-87.00,279.00,332.00,10596.00,15316.00,-2336.00
28446,-9031.00,-90.00,418.00,240.00,10420.00,15308.00,-2320.00
28463,-10821.00,181.00,525.00,60.00,10100.00,15736.00,-2304.00
28479,-12126.00,187.00,323.00,-68.00,9732.00,15760.00,-2288.00
28495,-13226.00,712.00,-548.00,-112.00,9292.00,16144.00,-2304.00
28513,-14204.00,671.00,-1159.00,0.00,8976.00,16516.00,-2304.00
28529,-14636.00,786.00,-1594.00,344.00,8436.00,16488.00,-2320.00
28546,-14857.00,621.00,-1625.00,428.00,8064.00,17216.00,-2320.00
28562,-14782.00,632.00,-1654.00,572.00,7656.00,17200.00,-2320.00
28579,-14855.00,785.00,-1626.00,224.00,7244.00,17188.00,-2320.00
28596,-14870.00,914.00,-1278.00,136.00,6508.00,17208.00,-2304.00
28612,-14717.00,518.00,-1059.00,68.00,5904.00,17648.00,-2336.00
28630,-14677.00,394.00,-1124.00,-124.00,5172.00,17844.00,-2304.00
28646,-14282.00,432.00,-1593.00,0.00,4700.00,18216.00,-2336.00
28662,-13633.00,499.00,-1871.00,156.00,4284.00,18284.00,-2352.00
28680,-12908.00,419.00,-1669.00,-72.00,3772.00,18000.00,-2320.00
28696,-12303.00,552.00,-1443.00,-200.00,3304.00,18100.00,-2304.00
28712,-12026.00,151.00,-1299.00,-512.00,2912.00,18164.00,-2336.00
28730,-11986.00,204.00,-1454.00,-348.00,2440.00,18280.00,-2304.00
28746,-11615.00,-33.00,-1245.00,0.00,1984.00,18448.00,-2304.00
28763,-12057.00,-244.00,-699.00,284.00,1544.00,18468.00,-2320.00
28779,-12023.00,36.00,-536.00,104.00,1208.00,18392.00,-2304.00
28796,-12012.00,-26.00,-309.00,-92.00,812.00,18424.00,-2320.00
28813,-11849.00,2.00,-453.00,-16.00,308.00,18504.00,-2336.00
28829,-11476.00,-108.00,-657.00,-132.00,24.00,18640.00,-2288.00
28846,-11345.00,-454.00,-1061.00,-248.00,-636.00,18752.00,-2304.00
28862,-11269.00,-391.00,-1556.00,92.00,-1068.00,18612.00,-2304.00
28879,-11070.00,-196.00,-1842.00,228.00,-1472.00,18228.00,-2288.00
28896,-11197.00,31.00,-1637.00,-84.00,-1744.00,18340.00,-2320.00
28912,-11359.00,-51.00,-1170.00,-176.00,-2132.00,18300.00,-2320.00
28929,-11301.00,-159.00,-1168.00,-12.00,-2496.00,18540.00,-2336.00
28946,-11479.00,-142.00,-1202.00,-8.00,-2928.00,18080.00,-2304.00
28962,-11216.00,-267.00,-882.00,-72.00,-3324.00,18100.00,-2320.00
28979,-10508.00,-319.00,-770.00,44.00,-3868.00,17880.00,-2304.00
28995,-9755.00,-184.00,-894.00,112.00,-4888.00,17872.00,-2320.00
29012,-9068.00,-355.00,-1507.00,224.00,-5012.00,17964.00,-2320.00
29029,-7998.00,-290.00,-1420.00,-332.00,-5136.00,17696.00,-2304.00
29045,-7618.00,-413.00,-1724.00,-64.00,-5184.00,17380.00,-2304.00
29062,-7060.00,-369.00,-1384.00,120.00,-5416.00,17628.00,-2288.00
29079,-6075.00,-1001.00,-898.00,88.00,-5800.00,17400.00,-2320.00
29095,-5724.00,678.00,-1268.00,624.00,-6624.00,17824.00,-2336.00
29112,-4760.00,-1430.00,-619.00,324.00,-6352.00,17376.00,-2320.00
29129,-4484.00,387.00,-597.00,436.00,-6676.00,17648.00,-2288.00
29146,-3292.00,222.00,-404.00,-112.00,-6236.00,16952.00,-2304.00
29162,-1490.00,237.00,-95.00,-80.00,-6756.00,16836.00,-2320.00
29178,661.00,168.00,-339.00,96.00,-6784.00,17108.00,-2320.00
29195,2421.00,638.00,-476.00,140.00,-6756.00,17136.00,-2304.00
29212,4808.00,338.00,64.00,332.00,-6700.00,17416.00,-2320.00
29229,6820.00,592.00,93.00,520.00,-6316.00,17428.00,-2336.00
29245,8623.00,454.00,493.00,200.00,-6164.00,17492.00,-2320.00
29261,10620.00,304.00,618.00,180.00,-5688.00,17684.00,-2288.00
29278,12679.00,-42.00,943.00,-168.00,-5020.00,17532.00,-2320.00
29295,14291.00,-151.00,1172.00,36.00,-4812.00,17792.00,-2304.00
29312,15571.00,11.00,1235.00,132.00,-4312.00,18020.00,-2320.00
29328,16931.00,21.00,1336.00,84.00,-3472.00,18080.00,-2320.00
29344,18309.00,15.00,1585.00,184.00,-2840.00,18344.00,-2272.00
29362,19410.00,-49.00,1437.00,-244.00,-2156.00,18120.00,-2288.00
29378,20207.00,87.00,1231.00,-236.00,-1392.00,18604.00,-2288.00
29394,20153.00,-135.00,1256.00,-268.00,-812.00,18720.00,-2304.00
29411,19797.00,105.00,1480.00,32.00,-268.00,18744.00,-2336.00
29428,19321.00,-16.00,1471.00,-164.00,452.00,18684.00,-2288.00
29445,19281.00,455.00,788.00,248.00,1696.00,18780.00,-2336.00
29461,19246.00,537.00,451.00,384.00,2436.00,18840.00,-2320.00
29477,18933.00,518.00,577.00,-20.00,3120.00,18576.00,-2320.00
29495,18559.00,501.00,590.00,-20.00,3588.00,18396.00,-2304.00
29511,17643.00,2.00,798.00,28.00,3924.00,18296.00,-2320.00
29528,16571.00,-386.00,1205.00,-148.00,4260.00,18440.00,-2320.00
29544,15501.00,-654.00,1135.00,-100.00,5340.00,17716.00,-2320.00
29561,15238.00,-411.00,417.00,224.00,6448.00,17188.00,-2288.00
29578,15234.00,-790.00,584.00,348.00,6664.00,17012.00,-2304.00
29594,14653.00,-1613.00,1077.00,-68.00,7004.00,16716.00,-2336.00
29612,13415.00,-1721.00,2013.00,-136.00,7068.00,16900.00,-2320.00
29628,12388.00,-1596.00,2414.00,-356.00,6992.00,16872.00,-2336.00
29644,11344.00,-1596.00,2566.00,-84.00,7648.00,16444.00,-2304.00
29662,10695.00,-1228.00,1513.00,516.00,8896.00,15956.00,-2304.00
29678,11129.00,-299.00,-318.00,1400.00,9748.00,15376.00,-2320.00
29694,11815.00,155.00,-883.00,1328.00,9848.00,15216.00,-2320.00
29712,11469.00,1013.00,-424.00,900.00,9860.00,15528.00,-2336.00
29728,9823.00,1480.00,305.00,688.00,9828.00,16100.00,-2336.00
29745,7962.00,1074.00,855.00,664.00,10064.00,15952.00,-2288.00
29762,7064.00,363.00,1111.00,588.00,10392.00,15144.00,-2320.00
29778,6484.00,292.00,813.00,412.00,10644.00,14884.00,-2288.00
29795,5765.00,461.00,371.00,288.00,10904.00,14736.00,-2320.00
29811,4324.00,445.00,-2.00,316.00,10828.00,15104.00,-2304.00
29829,1932.00,146.00,-653.00,260.00,10776.00,15616.00,-2352.00
29845,-882.00,-367.00,-848.00,352.00,10900.00,15292.00,-2304.00
29861,-2952.00,113.00,-821.00,260.00,11060.00,14820.00,-2320.00
29878,-4729.00,1065.00,-1043.00,248.00,10856.00,14852.00,-2288.00
29895,-6925.00,1010.00,-844.00,404.00,10740.00,15756.00,-2288.00
29912,-9088.00,772.00,-621.00,296.00,10568.00,15292.00,-2320.00
29928,-10454.00,984.00,-372.00,20.00,10328.00,14720.00,-2320.00
29945,-11281.00,1511.00,-469.00,68.00,10160.00,15032.00,-2304.00
29962,-11729.00,1845.00,-833.00,68.00,9572.00,15476.00,-2304.00
29978,-12501.00,1483.00,-1152.00,20.00,9024.00,16180.00,-2320.00
29996,-13543.00,1023.00,-1498.00,24.00,8568.00,16336.00,-2320.00
30012,-14442.00,831.00,-1595.00,64.00,8220.00,16720.00,-2288.00
30028,-15449.00,403.00,-1551.00,124.00,7940.00,17056.00,-2320.00
30045,-15817.00,146.00,-1417.00,344.00,7604.00,16736.00,-2288.00
30062,-16061.00,285.00,-852.00,44.00,7012.00,17224.00,-2304.00
30078,-16329.00,817.00,-361.00,104.00,5980.00,17688.00,-2288.00
30095,-17181.00,618.00,-342.00,-64.00,5032.00,18236.00,-2320.00
30112,-18504.00,-145.00,-281.00,-156.00,4288.00,18680.00,-2336.00
30129,-19176.00,-769.00,-494.00,-88.00,4252.00,17916.00,-2320.00
30145,-18417.00,-205.00,-458.00,-260.00,3988.00,17484.00,-2288.00
30161,-17020.00,21.00,-595.00,-280.00,3320.00,17780.00,-2320.00
30179,-15958.00,177.00,-369.00,-344.00,2724.00,17704.00,-2320.00
30195,-15194.00,1061.00,-174.00,-232.00,1904.00,18364.00,-2288.00
30212,-15142.00,1402.00,-315.00,-104.00,772.00,18584.00,-2320.00
30228,-15173.00,1488.00,-739.00,56.00,136.00,18728.00,-2304.00
30245,-15330.00,1281.00,-1178.00,-284.00,-400.00,18612.00,-2320.00
30262,-15323.00,849.00,-1077.00,-348.00,-632.00,18240.00,-2320.00
30278,-15162.00,1273.00,-1223.00,-296.00,-1272.00,18448.00,-2320.00
30296,-14197.00,1308.00,-1788.00,-112.00,-1512.00,18504.00,-2288.00
30312,-12456.00,779.00,-2018.00,-188.00,-1864.00,18216.00,-2336.00
30328,-11232.00,370.00,-1940.00,108.00,-2420.00,18632.00,-2336.00
30346,-10688.00,628.00,-1600.00,-316.00,-2944.00,18040.00,-2304.00
30362,-10250.00,1365.00,-915.00,-632.00,-3292.00,17556.00,-2320.00
30379,-10252.00,941.00,-912.00,-744.00,-4120.00,17656.00,-2304.00
30396,-9680.00,-541.00,-989.00,-624.00,-4488.00,17960.00,-2320.00
30412,-9565.00,-1173.00,-1660.00,-480.00,-5268.00,18212.00,-2320.00
30429,-9982.00,-1116.00,-2726.00,-428.00,-5208.00,17908.00,-2320.00
30446,-9660.00,-1292.00,-2541.00,-328.00,-5184.00,17912.00,-2288.00
30462,-9512.00,-1867.00,-1957.00,-400.00,-5588.00,17736.00,-2352.00
30479,-9425.00,-1789.00,-1576.00,44.00,-5804.00,17404.00,-2320.00
30496,-8638.00,-646.00,-1040.00,208.00,-6092.00,17252.00,-2336.00
30513,-7928.00,74.00,-483.00,-100.00,-6432.00,17144.00,-2304.00
30529,-7092.00,564.00,-407.00,-292.00,-6848.00,16780.00,-2304.00
30545,-4881.00,462.00,-567.00,-520.00,-7280.00,16748.00,-2304.00
30563,-2569.00,-117.00,-809.00,-216.00,-7412.00,16632.00,-2320.00
30579,-726.00,459.00,-1022.00,32.00,-7672.00,16840.00,-2304.00
30596,662.00,595.00,-1066.00,-184.00,-7872.00,16764.00,-2320.00
30612,2170.00,310.00,-938.00,-220.00,-7696.00,16924.00,-2304.00
30629,4156.00,35.00,-699.00,88.00,-7604.00,16632.00,-2320.00
30646,6709.00,-387.00,-291.00,104.00,-6900.00,17036.00,-2320.00
30662,8657.00,-613.00,165.00,136.00,-6692.00,17216.00,-2336.00
30679,10567.00,-546.00,516.00,52.00,-6188.00,17032.00,-2336.00
30695,12186.00,-1019.00,946.00,-92.00,-6040.00,17296.00,-2320.00
30712,13771.00,-1175.00,1092.00,-64.00,-5664.00,17228.00,-2336.00
30729,15005.00,-1647.00,710.00,-48.00,-5032.00,17452.00,-2336.00
30745,15643.00,-1346.00,502.00,-260.00,-4388.00,17632.00,-2304.00
30763,16537.00,-891.00,532.00,120.00,-3496.00,18648.00,-2288.00
30779,17606.00,58.00,908.00,160.00,-3488.00,18496.00,-2320.00
30795,18218.00,608.00,673.00,252.00,-2808.00,18588.00,-2304.00
30812,18681.00,-348.00,373.00,-84.00,-1772.00,18540.00,-2320.00
30829,19023.00,129.00,324.00,176.00,-1284.00,18524.00,-2336.00
30845,18958.00,-615.00,983.00,104.00,-212.00,18520.00,-2336.00
30862,18343.00,-539.00,1817.00,176.00,216.00,18652.00,-2320.00
30878,17862.00,-955.00,2382.00,176.00,896.00,18600.00,-2272.00
30896,17759.00,-346.00,1906.00,280.00,1492.00,18812.00,-2320.00
30912,17689.00,-127.00,1010.00,420.00,2172.00,18716.00,-2352.00
30928,17710.00,380.00,16.00,312.00,2924.00,18432.00,-2320.00
30945,17688.00,300.00,-373.00,728.00,3616.00,18340.00,-2336.00
30962,17481.00,-65.00,36.00,680.00,4312.00,18108.00,-2320.00
30979,17336.00,1137.00,613.00,216.00,4840.00,17560.00,-2304.00
30995,17383.00,1548.00,846.00,156.00,5092.00,17440.00,-2304.00
31011,17601.00,1195.00,684.00,-32.00,5800.00,17208.00,-2320.00
31029,17527.00,845.00,222.00,92.00,6256.00,17224.00,-2352.00
31045,17691.00,575.00,-365.00,192.00,6836.00,16780.00,-2336.00
31062,17561.00,140.00,-405.00,352.00,7508.00,16892.00,-2320.00
