t,gx,gy,gz,ax,ay,az,temp
3,98.00,2809.00,-1655.00,1536.00,2420.00,19096.00,-2592.00
19,-404.00,1827.00,-1705.00,800.00,2020.00,18624.00,-2592.00
35,-1042.00,1974.00,-2350.00,288.00,2436.00,18308.00,-2592.00
52,-1210.00,1514.00,-2417.00,240.00,2280.00,18388.00,-2608.00
68,-1912.00,818.00,-2587.00,504.00,2056.00,18780.00,-2576.00
86,-2530.00,-177.00,-2517.00,828.00,2224.00,19316.00,-2576.00
102,-3486.00,-354.00,-2575.00,1540.00,2480.00,19248.00,-2576.00
118,-3087.00,-464.00,-1809.00,1576.00,1740.00,18704.00,-2592.00
135,-2658.00,-1328.00,-1891.00,2452.00,2568.00,18592.00,-2592.00
151,-1316.00,1372.00,-1962.00,128.00,664.00,16904.00,-2576.00
168,-483.00,1692.00,-2750.00,572.00,1464.00,18152.00,-2560.00
185,640.00,1514.00,-3029.00,432.00,1016.00,17812.00,-2592.00
201,1106.00,1372.00,-2655.00,1148.00,1272.00,19004.00,-2576.00
218,363.00,1036.00,-2150.00,644.00,1712.00,19444.00,-2592.00
234,-694.00,1740.00,-1878.00,896.00,1828.00,18848.00,-2560.00
251,-534.00,797.00,-931.00,824.00,2080.00,18820.00,-2576.00
268,-75.00,373.00,-394.00,192.00,2960.00,18812.00,-2576.00
284,-137.00,349.00,598.00,632.00,1156.00,18764.00,-2560.00
301,-655.00,327.00,743.00,300.00,704.00,18476.00,-2592.00
317,-863.00,768.00,466.00,88.00,988.00,18764.00,-2576.00
333,-490.00,359.00,282.00,120.00,956.00,18224.00,-2560.00
350,348.00,-677.00,418.00,-88.00,896.00,17920.00,-2576.00
366,784.00,-281.00,221.00,248.00,1444.00,18636.00,-2560.00
382,530.00,21.00,669.00,312.00,2136.00,19008.00,-2608.00
399,-262.00,-675.00,1906.00,640.00,1952.00,19148.00,-2576.00
415,-1211.00,-1443.00,2710.00,668.00,1620.00,18696.00,-2544.00
432,-1522.00,-1544.00,2761.00,476.00,908.00,18460.00,-2592.00
449,-1581.00,-951.00,2278.00,680.00,868.00,18284.00,-2608.00
465,-1010.00,-561.00,1781.00,452.00,824.00,18064.00,-2576.00
482,-631.00,27.00,1117.00,180.00,1032.00,18104.00,-2576.00
498,-1163.00,-1045.00,839.00,556.00,1748.00,19756.00,-2576.00
515,-994.00,-1681.00,1700.00,1636.00,740.00,18116.00,-2608.00
531,-228.00,-2422.00,2191.00,784.00,1280.00,18692.00,-2592.00
547,-137.00,-1407.00,1271.00,328.00,1008.00,17912.00,-2560.00
565,69.00,-575.00,529.00,232.00,1316.00,18436.00,-2576.00
581,-717.00,-747.00,546.00,1200.00,1172.00,18248.00,-2560.00
598,-840.00,-321.00,630.00,920.00,1616.00,18688.00,-2592.00
614,-1276.00,205.00,435.00,1220.00,1628.00,18716.00,-2592.00
630,-1084.00,230.00,808.00,1376.00,1480.00,18460.00,-2560.00
647,-552.00,-411.00,861.00,1000.00,1188.00,18620.00,-2544.00
663,-274.00,-732.00,383.00,484.00,960.00,18456.00,-2576.00
679,-410.00,145.00,-817.00,244.00,980.00,19100.00,-2576.00
696,-1532.00,1213.00,-1547.00,552.00,1152.00,19428.00,-2592.00
713,-841.00,156.00,-357.00,1456.00,1492.00,18204.00,-2576.00
730,-473.00,-42.00,909.00,1024.00,1136.00,18288.00,-2576.00
746,358.00,-770.00,955.00,308.00,1060.00,18976.00,-2576.00
762,85.00,-1530.00,1033.00,1024.00,560.00,19084.00,-2576.00
779,-850.00,-505.00,735.00,1360.00,288.00,19388.00,-2576.00
795,-1122.00,2.00,570.00,2008.00,616.00,19268.00,-2576.00
812,-724.00,-447.00,1302.00,1756.00,872.00,18972.00,-2592.00
828,-562.00,-1757.00,2058.00,1184.00,504.00,18512.00,-2592.00
845,-553.00,-1654.00,2511.00,1320.00,264.00,18824.00,-2576.00
862,-1110.00,-111.00,2168.00,1680.00,248.00,19860.00,-2560.00
878,-1435.00,761.00,1432.00,1392.00,408.00,18884.00,-2592.00
894,-727.00,1159.00,566.00,1096.00,360.00,18428.00,-2576.00
911,116.00,1606.00,415.00,940.00,152.00,18064.00,-2576.00
927,673.00,2428.00,-130.00,636.00,200.00,18452.00,-2576.00
944,341.00,2279.00,-222.00,1208.00,660.00,19160.00,-2592.00
961,-364.00,2501.00,242.00,1044.00,644.00,18836.00,-2592.00
977,-711.00,1324.00,1203.00,996.00,716.00,18872.00,-2560.00
994,-1055.00,418.00,1654.00,800.00,356.00,18976.00,-2592.00
1010,-902.00,410.00,1204.00,664.00,60.00,18532.00,-2560.00
1027,-551.00,394.00,831.00,320.00,-128.00,18628.00,-2560.00
1043,-289.00,633.00,537.00,636.00,96.00,18688.00,-2560.00
1059,-562.00,1028.00,148.00,444.00,92.00,18992.00,-2576.00
1076,-819.00,988.00,112.00,624.00,216.00,18800.00,-2576.00
1092,-740.00,676.00,256.00,692.00,280.00,19012.00,-2624.00
1108,-460.00,169.00,547.00,556.00,188.00,18756.00,-2592.00
1125,37.00,-365.00,728.00,484.00,-160.00,18608.00,-2592.00
1142,104.00,-387.00,951.00,332.00,-304.00,18852.00,-2544.00
1159,-226.00,28.00,625.00,232.00,-328.00,19012.00,-2576.00
1175,-503.00,-32.00,685.00,732.00,-232.00,18984.00,-2560.00
1191,-752.00,-102.00,832.00,872.00,40.00,18976.00,-2576.00
1208,-641.00,127.00,844.00,788.00,160.00,18996.00,-2576.00
1224,-589.00,-74.00,919.00,880.00,112.00,19060.00,-2592.00
1241,-711.00,-63.00,668.00,568.00,80.00,18968.00,-2576.00
1257,-1010.00,326.00,334.00,660.00,-52.00,18952.00,-2560.00
1273,-1439.00,586.00,396.00,336.00,12.00,18816.00,-2592.00
1290,-1503.00,481.00,926.00,804.00,156.00,18820.00,-2560.00
1306,-1427.00,-557.00,1960.00,988.00,136.00,18948.00,-2560.00
1323,-1248.00,-845.00,2127.00,656.00,-376.00,18648.00,-2592.00
1339,-1134.00,-305.00,1241.00,600.00,-608.00,18872.00,-2544.00
1356,-1029.00,301.00,78.00,476.00,-488.00,18972.00,-2576.00
1373,-600.00,379.00,-378.00,460.00,-276.00,18548.00,-2608.00
1389,-263.00,112.00,22.00,600.00,8.00,18596.00,-2576.00
1405,-79.00,-500.00,732.00,336.00,-144.00,18224.00,-2592.00
1422,112.00,-712.00,1052.00,576.00,-204.00,18528.00,-2576.00
1438,-27.00,-695.00,1336.00,1096.00,-160.00,18956.00,-2576.00
1455,-148.00,-421.00,1056.00,628.00,-524.00,18732.00,-2576.00
1471,-60.00,-213.00,444.00,672.00,-420.00,18840.00,-2576.00
1487,-91.00,-101.00,183.00,660.00,-420.00,18532.00,-2576.00
1504,-29.00,-119.00,-91.00,436.00,-420.00,18452.00,-2608.00
1520,225.00,-65.00,-408.00,584.00,-552.00,18488.00,-2544.00
1537,279.00,-125.00,-380.00,748.00,-384.00,18944.00,-2592.00
1553,318.00,-543.00,-206.00,912.00,-320.00,18832.00,-2592.00
1569,551.00,-598.00,-240.00,496.00,-348.00,18432.00,-2592.00
1587,894.00,-498.00,-646.00,644.00,-268.00,18512.00,-2528.00
1603,842.00,-557.00,-844.00,804.00,-296.00,18764.00,-2560.00
1619,714.00,-996.00,-669.00,748.00,-156.00,18824.00,-2624.00
1636,735.00,-1088.00,-460.00,952.00,-160.00,18656.00,-2608.00
1652,951.00,-898.00,-615.00,856.00,-160.00,18564.00,-2544.00
1669,939.00,-786.00,-756.00,792.00,-168.00,18572.00,-2544.00
1685,591.00,-391.00,-1275.00,1312.00,-68.00,18204.00,-2608.00
1701,141.00,423.00,-1829.00,192.00,76.00,17868.00,-2576.00
1718,186.00,1650.00,-2651.00,260.00,-228.00,18192.00,-2576.00
1735,345.00,2042.00,-2676.00,312.00,-8.00,18500.00,-2592.00
1752,232.00,1175.00,-2364.00,824.00,-36.00,18648.00,-2544.00
1768,-141.00,701.00,-2159.00,1016.00,-144.00,19432.00,-2544.00
1784,-870.00,499.00,-1975.00,1760.00,92.00,19844.00,-2592.00
1801,-1430.00,-147.00,-1331.00,1484.00,356.00,19356.00,-2592.00
1817,-901.00,-642.00,-906.00,1092.00,68.00,18444.00,-2544.00
1833,-62.00,-246.00,-904.00,896.00,28.00,18512.00,-2544.00
1850,196.00,666.00,-1259.00,880.00,-136.00,18856.00,-2560.00
1867,-121.00,894.00,-1290.00,1180.00,-140.00,19032.00,-2560.00
1884,1295.00,1697.00,-778.00,280.00,-324.00,21316.00,-2592.00
1900,143.00,1032.00,-859.00,1648.00,-428.00,17844.00,-2576.00
1916,479.00,931.00,-1343.00,744.00,-116.00,18036.00,-2544.00
1933,1137.00,1003.00,-1381.00,-460.00,-200.00,19988.00,-2576.00
1949,975.00,1992.00,-1553.00,-524.00,640.00,18840.00,-2592.00
1967,1349.00,1464.00,-911.00,32.00,-372.00,18568.00,-2576.00
1983,1494.00,1731.00,-1717.00,-184.00,-420.00,18128.00,-2576.00
1999,1171.00,1007.00,-1793.00,252.00,-236.00,18820.00,-2560.00
2016,1145.00,174.00,-1558.00,208.00,-16.00,18504.00,-2576.00
2032,1477.00,-875.00,-1259.00,460.00,-36.00,18480.00,-2544.00
2050,1923.00,-764.00,-1588.00,204.00,-348.00,18452.00,-2544.00
2066,1750.00,-972.00,-1678.00,348.00,164.00,19068.00,-2592.00
2082,1346.00,-790.00,-1397.00,460.00,364.00,18932.00,-2592.00
2099,958.00,-790.00,-803.00,612.00,704.00,19024.00,-2544.00
2115,876.00,-1626.00,87.00,768.00,288.00,18896.00,-2576.00
2131,775.00,-1500.00,-148.00,480.00,168.00,18936.00,-2592.00
2148,709.00,-1117.00,-823.00,240.00,-20.00,18452.00,-2576.00
2164,671.00,-803.00,-1069.00,608.00,152.00,18752.00,-2560.00
2182,715.00,444.00,-1302.00,348.00,444.00,18264.00,-2576.00
2198,1350.00,804.00,-1511.00,236.00,556.00,18216.00,-2576.00
2214,1939.00,60.00,-1325.00,328.00,652.00,18904.00,-2608.00
2231,1402.00,-105.00,-1214.00,508.00,380.00,19192.00,-2608.00
2247,444.00,617.00,-1566.00,-108.00,120.00,18896.00,-2592.00
2264,295.00,505.00,-1884.00,32.00,20.00,18836.00,-2592.00
2280,160.00,527.00,-524.00,3548.00,-1816.00,22220.00,-2608.00
2297,-1217.00,161.00,-195.00,1616.00,1140.00,18380.00,-2560.00
2314,-891.00,-444.00,-627.00,688.00,2256.00,18212.00,-2576.00
2330,592.00,-652.00,-694.00,516.00,764.00,18116.00,-2544.00
2347,513.00,-933.00,-412.00,716.00,764.00,18736.00,-2544.00
2363,1466.00,1193.00,1303.00,-792.00,-84.00,16932.00,-2544.00
2379,1390.00,988.00,-47.00,-1280.00,-1080.00,18448.00,-2576.00
2397,677.00,1736.00,1587.00,1164.00,256.00,19160.00,-2544.00
2413,2296.00,1818.00,1280.00,-864.00,420.00,17448.00,-2576.00
2429,2918.00,378.00,-46.00,-852.00,128.00,18296.00,-2576.00
2446,3529.00,7.00,-69.00,212.00,288.00,18884.00,-2608.00
2462,4825.00,-916.00,612.00,672.00,1160.00,18748.00,-2592.00
2479,5343.00,-873.00,142.00,896.00,1740.00,19208.00,-2544.00
2495,5260.00,-1543.00,-2550.00,2824.00,3848.00,19492.00,-2576.00
2512,3375.00,-2449.00,-3242.00,2780.00,3768.00,17968.00,-2576.00
2529,3101.00,-3298.00,-3041.00,1104.00,2216.00,19592.00,-2576.00
2545,1412.00,-2884.00,-2648.00,1828.00,2304.00,19004.00,-2576.00
2563,26.00,-2554.00,-1669.00,1204.00,2212.00,19120.00,-2560.00
2579,-519.00,-1444.00,-665.00,1768.00,2828.00,17912.00,-2544.00
2595,-609.00,326.00,13.00,1080.00,2304.00,17996.00,-2560.00
2612,-822.00,876.00,202.00,0.00,1336.00,18340.00,-2560.00
2628,-780.00,-565.00,-492.00,-72.00,908.00,18492.00,-2560.00
2644,-651.00,-2126.00,-699.00,792.00,1236.00,18824.00,-2576.00
2662,-691.00,-1424.00,-513.00,1568.00,1312.00,19584.00,-2592.00
2678,-590.00,-591.00,-532.00,992.00,1736.00,18136.00,-2608.00
2695,130.00,150.00,-296.00,1240.00,1720.00,18480.00,-2576.00
2711,242.00,482.00,-751.00,1024.00,1312.00,18576.00,-2576.00
2727,85.00,698.00,-894.00,732.00,1164.00,18948.00,-2560.00
2744,-330.00,775.00,-388.00,1284.00,1344.00,19200.00,-2576.00
2761,-929.00,10.00,-219.00,1428.00,2024.00,19016.00,-2560.00
2778,-960.00,-814.00,-201.00,1020.00,1736.00,18988.00,-2560.00
2794,-801.00,-181.00,-346.00,956.00,1596.00,18404.00,-2544.00
2810,-658.00,662.00,-63.00,940.00,1560.00,18548.00,-2576.00
2827,-563.00,1466.00,614.00,600.00,1540.00,18336.00,-2576.00
2843,-1085.00,1338.00,616.00,1044.00,1592.00,18480.00,-2576.00
2861,-305.00,1824.00,674.00,1264.00,1768.00,18636.00,-2576.00
2877,241.00,2060.00,1138.00,860.00,1332.00,19184.00,-2592.00
2893,213.00,894.00,390.00,608.00,1256.00,18808.00,-2560.00
2910,54.00,-194.00,8.00,552.00,1180.00,18500.00,-2576.00
2926,306.00,671.00,812.00,456.00,1180.00,18316.00,-2576.00
2942,186.00,455.00,887.00,596.00,1444.00,18668.00,-2560.00
2959,491.00,543.00,856.00,1020.00,1400.00,18840.00,-2576.00
2976,581.00,838.00,554.00,1000.00,1356.00,18952.00,-2592.00
2993,376.00,726.00,225.00,596.00,1080.00,18996.00,-2576.00
3009,-116.00,105.00,-344.00,472.00,1140.00,19108.00,-2576.00
3025,-190.00,-1162.00,-572.00,612.00,1568.00,18468.00,-2576.00
3042,82.00,-1079.00,-518.00,632.00,1640.00,18420.00,-2576.00
3058,-30.00,-1163.00,-415.00,412.00,1380.00,18620.00,-2576.00
3075,-266.00,-917.00,-325.00,536.00,1264.00,18504.00,-2560.00
3092,-710.00,-84.00,349.00,648.00,1240.00,18920.00,-2592.00
3108,-1051.00,-448.00,113.00,668.00,1220.00,18272.00,-2592.00
3125,-914.00,-1585.00,25.00,476.00,1200.00,18476.00,-2560.00
3141,-953.00,-2096.00,-44.00,848.00,1236.00,18408.00,-2592.00
3158,-999.00,-2094.00,-74.00,1204.00,1288.00,18808.00,-2560.00
3174,-888.00,-720.00,79.00,1036.00,1236.00,18880.00,-2576.00
3190,-890.00,-170.00,393.00,860.00,1248.00,18776.00,-2544.00
3208,-727.00,67.00,350.00,892.00,1028.00,18376.00,-2576.00
3224,-346.00,-28.00,150.00,900.00,1256.00,18692.00,-2576.00
3240,-116.00,-267.00,141.00,1208.00,1252.00,18836.00,-2576.00
3257,-280.00,-829.00,70.00,1380.00,1140.00,19348.00,-2576.00
3273,-294.00,-557.00,88.00,1160.00,1108.00,19012.00,-2544.00
3290,-350.00,177.00,-115.00,1228.00,1020.00,18912.00,-2576.00
3306,-282.00,362.00,-108.00,1244.00,1188.00,18772.00,-2560.00
3322,-125.00,357.00,-36.00,1048.00,936.00,18656.00,-2576.00
3340,-143.00,195.00,-147.00,876.00,944.00,18832.00,-2592.00
3356,-353.00,223.00,-228.00,1228.00,972.00,18784.00,-2592.00
3373,-529.00,146.00,-150.00,1052.00,940.00,18948.00,-2560.00
3389,-547.00,512.00,-114.00,1012.00,924.00,18820.00,-2528.00
3405,-123.00,74.00,-278.00,928.00,1000.00,18464.00,-2528.00
3422,321.00,-159.00,-72.00,1792.00,928.00,19516.00,-2560.00
3438,-34.00,-644.00,215.00,1196.00,908.00,19064.00,-2608.00
3454,-50.00,-630.00,-467.00,596.00,856.00,18860.00,-2560.00
3471,202.00,-33.00,-594.00,1012.00,940.00,18480.00,-2576.00
3487,807.00,1274.00,-535.00,1216.00,920.00,18540.00,-2576.00
3505,777.00,1106.00,-251.00,988.00,916.00,18728.00,-2576.00
3521,644.00,1124.00,-97.00,836.00,1096.00,18724.00,-2544.00
3537,391.00,722.00,9.00,1012.00,1004.00,18992.00,-2576.00
3554,-94.00,530.00,-101.00,968.00,940.00,19116.00,-2544.00
3570,-257.00,249.00,-104.00,668.00,872.00,18388.00,-2560.00
3587,-206.00,236.00,-219.00,808.00,1000.00,18448.00,-2560.00
3603,12.00,464.00,-123.00,1032.00,1104.00,18468.00,-2560.00
3619,308.00,1228.00,243.00,860.00,1208.00,18556.00,-2592.00
3636,229.00,1013.00,459.00,584.00,920.00,18536.00,-2576.00
3653,-13.00,453.00,433.00,740.00,724.00,18856.00,-2576.00
3670,-234.00,-400.00,452.00,928.00,940.00,18744.00,-2592.00
3686,-444.00,-61.00,346.00,536.00,984.00,18648.00,-2560.00
3702,-197.00,-309.00,143.00,572.00,1048.00,18352.00,-2576.00
3719,461.00,-86.00,-207.00,972.00,1008.00,18728.00,-2576.00
3735,552.00,529.00,-318.00,1268.00,1084.00,19044.00,-2576.00
3751,209.00,2028.00,-152.00,1228.00,1056.00,19412.00,-2560.00
3768,541.00,823.00,-496.00,124.00,708.00,18244.00,-2576.00
3784,36.00,646.00,-272.00,316.00,768.00,18472.00,-2560.00
3801,209.00,723.00,-126.00,860.00,984.00,18972.00,-2592.00
3817,209.00,-251.00,-290.00,428.00,940.00,18800.00,-2576.00
3834,392.00,-880.00,-566.00,960.00,932.00,18944.00,-2544.00
3851,318.00,-952.00,-404.00,904.00,1008.00,18972.00,-2576.00
3867,225.00,-1338.00,-126.00,624.00,1128.00,18688.00,-2576.00
3884,125.00,-1050.00,146.00,1060.00,1068.00,18876.00,-2560.00
3900,131.00,-923.00,269.00,764.00,980.00,18236.00,-2592.00
3916,23.00,-1067.00,-102.00,780.00,804.00,18736.00,-2560.00
3933,9.00,-802.00,-269.00,588.00,876.00,18372.00,-2560.00
3949,274.00,-642.00,-264.00,908.00,1020.00,18484.00,-2576.00
3965,483.00,-576.00,-426.00,904.00,1084.00,18492.00,-2576.00
3983,305.00,-293.00,-213.00,1184.00,1004.00,18788.00,-2576.00
3999,18.00,-229.00,-73.00,1200.00,968.00,18836.00,-2528.00
4016,-81.00,327.00,-107.00,904.00,1080.00,18600.00,-2576.00
4032,-158.00,108.00,-71.00,820.00,996.00,18656.00,-2576.00
4048,67.00,28.00,-489.00,912.00,928.00,18784.00,-2592.00
4065,84.00,106.00,-332.00,1216.00,944.00,18672.00,-2576.00
4081,349.00,452.00,-74.00,1188.00,1276.00,18580.00,-2560.00
4098,299.00,523.00,-108.00,984.00,904.00,19004.00,-2544.00
4114,-13.00,445.00,-158.00,1136.00,1096.00,19020.00,-2560.00
4130,-127.00,303.00,-209.00,984.00,860.00,18632.00,-2544.00
4147,14.00,243.00,-353.00,944.00,1092.00,18676.00,-2592.00
4163,-1.00,-37.00,-221.00,1076.00,1068.00,18856.00,-2560.00
4179,-133.00,98.00,-188.00,1084.00,1056.00,18860.00,-2608.00
4197,-226.00,80.00,109.00,1012.00,1128.00,18868.00,-2544.00
4213,-134.00,-71.00,95.00,664.00,976.00,18516.00,-2576.00
4230,117.00,183.00,-233.00,760.00,1012.00,18588.00,-2560.00
4246,182.00,20.00,-230.00,1032.00,1032.00,18772.00,-2560.00
4262,-20.00,260.00,-85.00,780.00,1016.00,18808.00,-2560.00
4279,-108.00,580.00,-67.00,820.00,980.00,18532.00,-2576.00
4295,-65.00,645.00,-103.00,1068.00,1256.00,18616.00,-2544.00
4312,163.00,540.00,112.00,912.00,976.00,18920.00,-2576.00
4328,20.00,292.00,-32.00,716.00,856.00,18400.00,-2560.00
4344,129.00,100.00,-134.00,816.00,960.00,18596.00,-2576.00
4361,214.00,141.00,-234.00,1092.00,1056.00,18576.00,-2576.00
4377,551.00,77.00,-265.00,920.00,964.00,18788.00,-2576.00
4393,309.00,327.00,-128.00,1012.00,1044.00,19240.00,-2576.00
4411,145.00,139.00,-64.00,768.00,1056.00,18892.00,-2576.00
4427,79.00,174.00,-66.00,928.00,1052.00,18728.00,-2544.00
4444,71.00,240.00,-116.00,876.00,896.00,18668.00,-2528.00
4460,-6.00,349.00,-230.00,592.00,864.00,18620.00,-2576.00
4476,-12.00,121.00,-435.00,552.00,912.00,18644.00,-2592.00
4493,20.00,-206.00,-382.00,780.00,1060.00,18476.00,-2576.00
4509,99.00,-92.00,-98.00,848.00,912.00,18780.00,-2576.00
4526,185.00,-64.00,-181.00,584.00,1044.00,18588.00,-2576.00
4542,88.00,5.00,-165.00,768.00,1072.00,18784.00,-2576.00
4558,-26.00,-49.00,-85.00,804.00,1032.00,18784.00,-2560.00
4575,5.00,-7.00,31.00,668.00,960.00,18692.00,-2576.00
4591,269.00,-85.00,37.00,828.00,932.00,18544.00,-2592.00
4608,389.00,-307.00,-65.00,716.00,924.00,18660.00,-2576.00
4624,348.00,-90.00,-338.00,752.00,1044.00,18756.00,-2560.00
4640,233.00,-57.00,-186.00,864.00,1044.00,18692.00,-2592.00
4657,210.00,78.00,-36.00,840.00,1156.00,18832.00,-2544.00
4673,98.00,185.00,108.00,636.00,1012.00,18704.00,-2576.00
4689,0.00,142.00,-1.00,808.00,964.00,18808.00,-2560.00
4706,-53.00,-69.00,-61.00,684.00,1024.00,18620.00,-2560.00
4722,237.00,153.00,-369.00,504.00,976.00,18608.00,-2576.00
4739,344.00,-23.00,-368.00,792.00,1128.00,18776.00,-2544.00
4755,297.00,-8.00,-200.00,864.00,1124.00,18856.00,-2544.00
4771,251.00,52.00,-186.00,856.00,1060.00,18872.00,-2560.00
4788,159.00,-82.00,-123.00,884.00,1104.00,18704.00,-2592.00
4804,-15.00,-290.00,-225.00,680.00,960.00,18680.00,-2576.00
4820,30.00,-316.00,-200.00,572.00,948.00,18516.00,-2544.00
4837,177.00,106.00,-378.00,788.00,920.00,18832.00,-2560.00
4853,71.00,299.00,-291.00,964.00,1032.00,18812.00,-2576.00
4870,-73.00,186.00,-159.00,852.00,968.00,18872.00,-2576.00
4886,-148.00,-37.00,-174.00,840.00,1096.00,18848.00,-2576.00
4902,-48.00,-79.00,-217.00,604.00,1048.00,18672.00,-2576.00
4919,-145.00,-336.00,-54.00,856.00,1112.00,18768.00,-2592.00
4935,-247.00,-460.00,151.00,880.00,1008.00,18788.00,-2592.00
4952,-112.00,-72.00,3.00,752.00,948.00,18712.00,-2560.00
4968,-3.00,77.00,-11.00,876.00,864.00,18736.00,-2544.00
4984,-20.00,-62.00,-174.00,856.00,884.00,18796.00,-2544.00
5001,88.00,-106.00,-237.00,928.00,1024.00,18740.00,-2560.00
5017,126.00,15.00,-228.00,856.00,1008.00,18712.00,-2560.00
5033,89.00,-53.00,-71.00,892.00,1012.00,18780.00,-2544.00
5050,-37.00,-89.00,-37.00,896.00,876.00,18776.00,-2560.00
5066,-100.00,-40.00,-46.00,816.00,820.00,18824.00,-2576.00
5083,-89.00,40.00,-241.00,792.00,964.00,18792.00,-2592.00
5099,98.00,584.00,-473.00,560.00,1000.00,18696.00,-2576.00
5115,75.00,475.00,-462.00,940.00,1188.00,18956.00,-2576.00
5133,-51.00,297.00,-323.00,916.00,1028.00,18772.00,-2576.00
5149,31.00,-130.00,-102.00,680.00,996.00,18624.00,-2576.00
5166,176.00,-324.00,-28.00,732.00,860.00,18596.00,-2592.00
5182,334.00,-506.00,-42.00,776.00,920.00,18520.00,-2576.00
5198,354.00,-590.00,-1.00,884.00,1100.00,18972.00,-2576.00
5215,348.00,3.00,-118.00,860.00,996.00,18688.00,-2592.00
5231,346.00,314.00,-192.00,748.00,976.00,18728.00,-2576.00
5248,324.00,468.00,-246.00,896.00,948.00,18764.00,-2576.00
5264,227.00,219.00,-211.00,792.00,860.00,18824.00,-2544.00
5280,96.00,-44.00,-247.00,784.00,1020.00,18536.00,-2592.00
5297,105.00,74.00,-252.00,780.00,1024.00,18684.00,-2592.00
5313,86.00,-125.00,-126.00,868.00,1028.00,18884.00,-2576.00
5329,170.00,9.00,-77.00,1004.00,1048.00,18628.00,-2544.00
5346,268.00,240.00,-76.00,744.00,1168.00,18808.00,-2560.00
5362,304.00,390.00,-217.00,688.00,1116.00,18712.00,-2560.00
5379,347.00,120.00,-256.00,812.00,968.00,18888.00,-2560.00
5395,224.00,-67.00,-249.00,732.00,1020.00,18720.00,-2528.00
5411,-1.00,-367.00,-152.00,780.00,928.00,18768.00,-2560.00
5428,-203.00,-224.00,-126.00,704.00,1044.00,18640.00,-2544.00
5445,-302.00,-88.00,16.00,1016.00,1068.00,18696.00,-2576.00
5462,-243.00,-18.00,-79.00,800.00,956.00,18584.00,-2544.00
5478,-43.00,190.00,-88.00,804.00,1020.00,18652.00,-2592.00
5494,33.00,16.00,-148.00,824.00,976.00,18856.00,-2544.00
5511,-6.00,-239.00,-110.00,968.00,1008.00,18912.00,-2560.00
5527,105.00,-464.00,47.00,876.00,1020.00,18600.00,-2560.00
5543,329.00,-524.00,-182.00,784.00,980.00,18276.00,-2576.00
5560,323.00,-249.00,-123.00,856.00,1064.00,18720.00,-2576.00
5576,118.00,213.00,-13.00,820.00,976.00,18940.00,-2576.00
5593,-90.00,369.00,-51.00,940.00,896.00,18560.00,-2560.00
5609,-154.00,174.00,-66.00,932.00,996.00,18772.00,-2544.00
5625,-35.00,6.00,-54.00,844.00,972.00,18648.00,-2576.00
5642,64.00,-189.00,-136.00,892.00,944.00,18776.00,-2576.00
5658,114.00,-463.00,-215.00,824.00,964.00,18620.00,-2560.00
5675,137.00,-317.00,-263.00,840.00,932.00,18840.00,-2560.00
5691,43.00,-485.00,-286.00,1036.00,1040.00,18720.00,-2544.00
5707,67.00,-417.00,-200.00,996.00,904.00,18696.00,-2560.00
5724,315.00,-6.00,-592.00,892.00,964.00,18604.00,-2544.00
5740,319.00,-66.00,-489.00,864.00,1060.00,18716.00,-2544.00
5756,263.00,-133.00,-325.00,868.00,1064.00,18656.00,-2576.00
5773,110.00,-471.00,-206.00,772.00,900.00,18496.00,-2576.00
5789,-3.00,-662.00,-261.00,1088.00,1032.00,18744.00,-2576.00
5807,-85.00,-813.00,-283.00,1012.00,876.00,18572.00,-2544.00
5823,23.00,-640.00,-488.00,868.00,976.00,18748.00,-2592.00
5839,83.00,-462.00,-686.00,1008.00,944.00,18768.00,-2592.00
5856,107.00,-182.00,-805.00,988.00,1028.00,18876.00,-2560.00
5872,105.00,-382.00,-758.00,1048.00,992.00,18792.00,-2592.00
5889,131.00,-368.00,-895.00,1112.00,932.00,18912.00,-2560.00
5905,78.00,-692.00,-1116.00,1052.00,888.00,19196.00,-2528.00
5921,-51.00,-922.00,-1521.00,1148.00,972.00,19168.00,-2576.00
5938,-297.00,-1489.00,-1971.00,1164.00,1064.00,18700.00,-2544.00
5955,-48.00,-2187.00,-1661.00,1528.00,1316.00,18432.00,-2560.00
5971,115.00,-2424.00,-864.00,1660.00,1356.00,18508.00,-2576.00
5988,-38.00,-1612.00,288.00,1940.00,1456.00,18836.00,-2592.00
6004,-400.00,-431.00,1389.00,1552.00,1120.00,18632.00,-2576.00
6022,-608.00,1027.00,2092.00,1644.00,756.00,18624.00,-2528.00
6038,-711.00,1520.00,1448.00,876.00,244.00,18904.00,-2576.00
6054,-227.00,1073.00,19.00,668.00,236.00,18352.00,-2592.00
6071,520.00,996.00,-1235.00,1020.00,732.00,18528.00,-2560.00
6087,928.00,917.00,-1536.00,1328.00,1172.00,18464.00,-2560.00
6104,1046.00,1193.00,-1285.00,1092.00,1028.00,18616.00,-2576.00
6121,813.00,1219.00,-976.00,1084.00,1072.00,18648.00,-2576.00
6137,487.00,753.00,-179.00,1400.00,1264.00,19032.00,-2592.00
6154,151.00,464.00,625.00,1360.00,1424.00,18984.00,-2544.00
6170,0.00,-116.00,437.00,1032.00,1124.00,18780.00,-2608.00
6187,-255.00,-9.00,-262.00,1164.00,984.00,18636.00,-2576.00
6203,-54.00,391.00,-459.00,1396.00,1208.00,18500.00,-2560.00
6220,254.00,1117.00,-440.00,820.00,596.00,18208.00,-2576.00
6237,165.00,1569.00,-599.00,1220.00,644.00,18716.00,-2576.00
6253,-256.00,1283.00,79.00,1372.00,1280.00,19508.00,-2576.00
6269,-1216.00,385.00,743.00,1108.00,1136.00,19148.00,-2560.00
6286,-1813.00,242.00,1468.00,892.00,748.00,18856.00,-2576.00
6302,-1996.00,-94.00,1118.00,896.00,960.00,18740.00,-2576.00
6320,-1604.00,-766.00,373.00,528.00,664.00,18116.00,-2560.00
6336,-751.00,-609.00,-228.00,864.00,592.00,18556.00,-2560.00
6352,-453.00,-250.00,-55.00,768.00,424.00,18732.00,-2592.00
6369,-137.00,715.00,-42.00,644.00,432.00,18312.00,-2544.00
6385,121.00,922.00,-256.00,1336.00,816.00,18888.00,-2560.00
6402,-264.00,477.00,747.00,1080.00,1264.00,19168.00,-2576.00
6418,-279.00,214.00,972.00,1052.00,796.00,18908.00,-2544.00
6434,4554.00,2207.00,1673.00,56.00,960.00,23664.00,-2576.00
6452,820.00,484.00,-1199.00,924.00,44.00,18976.00,-2560.00
6468,873.00,236.00,-722.00,1492.00,768.00,18028.00,-2560.00
6484,858.00,-193.00,262.00,752.00,1288.00,18936.00,-2592.00
6501,929.00,-165.00,728.00,112.00,808.00,18896.00,-2560.00
6517,-32.00,-205.00,193.00,484.00,828.00,18952.00,-2592.00
6534,-686.00,-600.00,161.00,740.00,920.00,19008.00,-2576.00
6550,-686.00,-1237.00,-116.00,908.00,868.00,18740.00,-2576.00
6566,-445.00,-1172.00,-586.00,876.00,664.00,18528.00,-2576.00
6583,123.00,-716.00,-957.00,664.00,928.00,18692.00,-2576.00
6599,548.00,-324.00,-1223.00,892.00,688.00,18768.00,-2544.00
6617,466.00,37.00,-1265.00,824.00,444.00,18916.00,-2576.00
6633,-43.00,-16.00,-944.00,1348.00,856.00,19212.00,-2576.00
6649,-369.00,-117.00,-392.00,940.00,936.00,18704.00,-2528.00
6666,-9.00,-425.00,151.00,996.00,1048.00,18436.00,-2560.00
6682,172.00,-508.00,120.00,1132.00,832.00,18944.00,-2560.00
6699,1607.00,-2119.00,328.00,2816.00,332.00,16016.00,-2576.00
6715,114.00,-230.00,-63.00,1492.00,1184.00,19928.00,-2576.00
6731,59.00,-218.00,108.00,428.00,556.00,18192.00,-2576.00
6748,-324.00,123.00,-137.00,1644.00,1028.00,19032.00,-2592.00
6764,53.00,-66.00,357.00,1208.00,668.00,18548.00,-2544.00
6780,222.00,-162.00,604.00,972.00,900.00,18764.00,-2560.00
6798,617.00,-286.00,647.00,1208.00,876.00,18560.00,-2576.00
6814,646.00,-343.00,267.00,808.00,640.00,18716.00,-2560.00
6831,1072.00,-310.00,-96.00,888.00,512.00,18612.00,-2576.00
6847,804.00,-18.00,-683.00,1044.00,868.00,18808.00,-2544.00
6863,764.00,38.00,-654.00,1304.00,1300.00,19504.00,-2576.00
6880,429.00,-7.00,-510.00,888.00,1368.00,18692.00,-2576.00
6896,517.00,712.00,-792.00,672.00,900.00,18536.00,-2576.00
6913,609.00,694.00,-899.00,1104.00,920.00,18812.00,-2544.00
6929,243.00,545.00,-1007.00,944.00,860.00,18828.00,-2544.00
6945,195.00,448.00,-990.00,832.00,856.00,18460.00,-2544.00
6962,208.00,163.00,-703.00,1196.00,1076.00,18844.00,-2576.00
6979,82.00,-199.00,-282.00,1196.00,1336.00,18900.00,-2576.00
6995,103.00,-269.00,28.00,1068.00,1144.00,18620.00,-2544.00
7012,159.00,-281.00,-106.00,872.00,1152.00,18832.00,-2560.00
7028,69.00,49.00,-133.00,1168.00,988.00,18792.00,-2528.00
7045,65.00,648.00,101.00,1180.00,1056.00,19272.00,-2576.00
7061,-133.00,762.00,-8.00,1092.00,1032.00,18736.00,-2576.00
7077,59.00,667.00,-154.00,896.00,1084.00,18776.00,-2576.00
7094,168.00,523.00,-257.00,1000.00,1112.00,18572.00,-2544.00
7110,251.00,375.00,-244.00,1024.00,1128.00,18776.00,-2576.00
7128,401.00,55.00,126.00,1228.00,1212.00,18812.00,-2592.00
7144,255.00,89.00,350.00,836.00,996.00,18900.00,-2560.00
7160,24.00,166.00,-12.00,684.00,764.00,18544.00,-2544.00
7177,-127.00,369.00,-477.00,856.00,824.00,18760.00,-2560.00
7193,-178.00,677.00,-472.00,816.00,1096.00,18704.00,-2560.00
7209,-126.00,733.00,-836.00,712.00,928.00,18620.00,-2592.00
7226,116.00,451.00,-868.00,920.00,992.00,18504.00,-2560.00
7242,368.00,151.00,-551.00,836.00,920.00,18660.00,-2560.00
7259,296.00,-87.00,-404.00,760.00,844.00,18632.00,-2576.00
7275,117.00,-82.00,-246.00,692.00,924.00,18648.00,-2544.00
7291,29.00,18.00,-128.00,992.00,1164.00,18884.00,-2560.00
7308,15.00,14.00,17.00,1040.00,1116.00,18988.00,-2576.00
7324,93.00,151.00,-88.00,932.00,1020.00,18820.00,-2544.00
7341,243.00,569.00,-291.00,696.00,864.00,18676.00,-2560.00
7357,363.00,397.00,-420.00,696.00,848.00,18748.00,-2560.00
7374,284.00,323.00,-596.00,804.00,920.00,18976.00,-2592.00
7391,70.00,58.00,-401.00,784.00,1032.00,18764.00,-2592.00
7407,-68.00,164.00,-259.00,816.00,1244.00,18812.00,-2544.00
7424,15.00,102.00,55.00,916.00,1072.00,18712.00,-2544.00
7440,-30.00,200.00,-180.00,604.00,904.00,18792.00,-2560.00
7456,-16.00,307.00,-595.00,884.00,1036.00,18588.00,-2544.00
7473,146.00,225.00,-427.00,912.00,1140.00,18496.00,-2544.00
7489,229.00,216.00,-409.00,760.00,1080.00,18540.00,-2576.00
7505,310.00,28.00,-300.00,632.00,1112.00,18596.00,-2544.00
7522,266.00,-227.00,-336.00,752.00,1248.00,18656.00,-2576.00
7538,258.00,-247.00,-421.00,780.00,908.00,18600.00,-2576.00
7555,-7.00,75.00,-367.00,660.00,1036.00,18896.00,-2544.00
7571,-237.00,312.00,-160.00,460.00,848.00,18640.00,-2560.00
7587,-433.00,245.00,-247.00,620.00,864.00,18680.00,-2560.00
7605,-306.00,158.00,-185.00,760.00,1020.00,18552.00,-2592.00
7621,145.00,-61.00,-134.00,832.00,1048.00,18528.00,-2560.00
7638,242.00,-194.00,-62.00,652.00,852.00,18684.00,-2592.00
7654,92.00,-158.00,-314.00,556.00,768.00,18748.00,-2544.00
7670,66.00,-71.00,-454.00,652.00,940.00,18572.00,-2576.00
7687,124.00,-38.00,-292.00,932.00,1092.00,18904.00,-2528.00
7703,336.00,-136.00,-76.00,948.00,1036.00,18656.00,-2544.00
7719,651.00,-236.00,138.00,932.00,1052.00,18828.00,-2576.00
7736,793.00,-189.00,516.00,892.00,1032.00,18776.00,-2576.00
7752,612.00,-10.00,550.00,840.00,1176.00,18912.00,-2576.00
7769,571.00,109.00,491.00,864.00,1012.00,18932.00,-2576.00
7785,590.00,-63.00,382.00,660.00,1012.00,18736.00,-2576.00
7801,840.00,-76.00,-60.00,692.00,1036.00,18696.00,-2576.00
7818,1131.00,-156.00,-52.00,828.00,1264.00,18824.00,-2576.00
7835,1241.00,-198.00,64.00,752.00,1228.00,18672.00,-2544.00
7852,1171.00,54.00,159.00,872.00,1152.00,18688.00,-2576.00
7868,1084.00,30.00,178.00,668.00,1180.00,18684.00,-2544.00
7884,1195.00,17.00,100.00,760.00,1200.00,18712.00,-2544.00
7901,1232.00,147.00,352.00,748.00,1236.00,18604.00,-2544.00
7917,1359.00,56.00,438.00,808.00,1416.00,18544.00,-2560.00
7933,1499.00,-124.00,462.00,776.00,1436.00,18548.00,-2544.00
7951,1643.00,-253.00,465.00,860.00,1552.00,18752.00,-2560.00
7967,1731.00,-137.00,182.00,604.00,1400.00,18856.00,-2544.00
7984,1645.00,86.00,23.00,796.00,1616.00,18656.00,-2576.00
8000,1585.00,70.00,-18.00,868.00,1692.00,18688.00,-2544.00
8016,1663.00,128.00,234.00,1000.00,1808.00,18652.00,-2544.00
8033,1788.00,18.00,479.00,1080.00,1976.00,18660.00,-2560.00
8049,2004.00,14.00,454.00,568.00,1924.00,18484.00,-2592.00
8067,2295.00,170.00,-23.00,764.00,1716.00,18400.00,-2560.00
8083,2482.00,315.00,-278.00,932.00,1956.00,18848.00,-2560.00
8099,2494.00,350.00,-68.00,836.00,1960.00,18444.00,-2544.00
8116,2628.00,146.00,118.00,872.00,2368.00,18508.00,-2544.00
8132,3010.00,-14.00,342.00,744.00,2328.00,18532.00,-2528.00
8148,3271.00,-172.00,382.00,768.00,2368.00,18616.00,-2560.00
8165,3400.00,-63.00,279.00,844.00,2524.00,18616.00,-2544.00
8182,3559.00,-203.00,216.00,848.00,2676.00,18500.00,-2576.00
8199,3656.00,-320.00,256.00,844.00,2856.00,18564.00,-2544.00
8215,3815.00,-364.00,345.00,828.00,3056.00,18628.00,-2592.00
8231,4092.00,-420.00,290.00,760.00,3140.00,18360.00,-2576.00
8248,4309.00,20.00,296.00,724.00,3092.00,18476.00,-2544.00
8264,4086.00,-41.00,159.00,756.00,3132.00,18568.00,-2576.00
8282,3813.00,-205.00,271.00,944.00,3372.00,18484.00,-2560.00
8298,3581.00,-282.00,578.00,1108.00,3416.00,18384.00,-2560.00
8314,3707.00,-408.00,794.00,1160.00,3908.00,18372.00,-2544.00
8331,3786.00,-436.00,831.00,1044.00,4132.00,18504.00,-2528.00
8347,3934.00,-356.00,672.00,912.00,3984.00,17776.00,-2544.00
8365,4367.00,28.00,141.00,916.00,4000.00,18020.00,-2560.00
8381,4382.00,-52.00,-277.00,888.00,4204.00,18076.00,-2592.00
8397,4413.00,8.00,-290.00,956.00,4392.00,18328.00,-2560.00
8414,4422.00,-185.00,-174.00,1112.00,4536.00,18152.00,-2560.00
8430,4567.00,-449.00,63.00,832.00,4908.00,17924.00,-2544.00
8446,4702.00,-547.00,-170.00,968.00,4836.00,18008.00,-2576.00
8463,4636.00,-262.00,-329.00,916.00,5044.00,17912.00,-2592.00
8480,4766.00,208.00,-200.00,884.00,5212.00,17700.00,-2576.00
8497,4749.00,254.00,-178.00,1144.00,5384.00,17900.00,-2576.00
8513,4498.00,89.00,158.00,1140.00,5660.00,18052.00,-2560.00
8529,4249.00,-154.00,374.00,1112.00,5800.00,17636.00,-2576.00
8546,4287.00,-83.00,532.00,1016.00,5728.00,17376.00,-2528.00
8563,4713.00,308.00,244.00,840.00,5972.00,17192.00,-2576.00
8580,5087.00,137.00,-124.00,916.00,5976.00,17516.00,-2576.00
8596,4841.00,288.00,-119.00,1180.00,6336.00,17680.00,-2560.00
8612,4649.00,372.00,206.00,1000.00,6584.00,17580.00,-2576.00
8629,4361.00,210.00,300.00,1056.00,6844.00,17656.00,-2592.00
8646,4319.00,-21.00,87.00,996.00,6788.00,17244.00,-2560.00
8663,4735.00,-817.00,-152.00,1224.00,7016.00,17048.00,-2560.00
8679,4860.00,-216.00,-341.00,1072.00,7116.00,17180.00,-2576.00
8695,4574.00,237.00,-395.00,924.00,7064.00,17256.00,-2592.00
8712,3835.00,309.00,-562.00,1168.00,7464.00,17496.00,-2576.00
8729,3142.00,269.00,-493.00,936.00,7460.00,16940.00,-2560.00
8745,2684.00,366.00,-374.00,1068.00,7696.00,16788.00,-2528.00
8762,2044.00,420.00,-282.00,952.00,7636.00,16792.00,-2544.00
8778,1344.00,363.00,-235.00,948.00,7512.00,16860.00,-2528.00
8795,537.00,39.00,127.00,1112.00,7768.00,16716.00,-2544.00
8811,-13.00,265.00,103.00,740.00,7492.00,16684.00,-2544.00
8828,-726.00,192.00,-22.00,760.00,7712.00,16908.00,-2544.00
8845,-1352.00,318.00,-198.00,888.00,7664.00,16764.00,-2528.00
8861,-2119.00,364.00,-279.00,904.00,7540.00,16936.00,-2576.00
8878,-2730.00,395.00,-355.00,864.00,7384.00,16644.00,-2528.00
8894,-3337.00,69.00,-311.00,988.00,7364.00,16964.00,-2560.00
8910,-3456.00,-77.00,20.00,1092.00,7416.00,16708.00,-2544.00
8927,-3539.00,-757.00,124.00,1288.00,7372.00,17156.00,-2544.00
8944,-3732.00,-415.00,248.00,888.00,7068.00,17208.00,-2528.00
8961,-3866.00,-86.00,-323.00,624.00,6712.00,17056.00,-2576.00
8977,-4251.00,-75.00,-833.00,860.00,6704.00,17252.00,-2544.00
8993,-4657.00,98.00,-1143.00,1032.00,6632.00,17456.00,-2544.00
9010,-5098.00,-22.00,-1192.00,1240.00,6584.00,17788.00,-2560.00
9027,-5203.00,126.00,-521.00,1228.00,6396.00,17452.00,-2576.00
9043,-5579.00,-13.00,-188.00,1068.00,6096.00,17376.00,-2528.00
9060,-5658.00,-464.00,77.00,880.00,5720.00,17252.00,-2544.00
9076,-5696.00,-737.00,-54.00,864.00,5896.00,17504.00,-2544.00
9093,-5606.00,-546.00,-268.00,724.00,5484.00,17192.00,-2560.00
9109,-5443.00,-317.00,-680.00,764.00,5232.00,17660.00,-2560.00
9126,-5903.00,-292.00,-841.00,920.00,5096.00,17936.00,-2576.00
9143,-6331.00,-197.00,-587.00,1148.00,4960.00,17964.00,-2528.00
9159,-7007.00,-143.00,-207.00,1216.00,5032.00,17900.00,-2544.00
9176,-6734.00,-517.00,-250.00,784.00,4484.00,18004.00,-2560.00
9193,-6764.00,-449.00,-60.00,1164.00,4396.00,18528.00,-2576.00
9209,-6231.00,-704.00,-160.00,1008.00,4144.00,18064.00,-2576.00
9226,-5648.00,158.00,-782.00,264.00,3480.00,18052.00,-2512.00
9242,-5732.00,1048.00,-1482.00,996.00,3148.00,18968.00,-2544.00
9259,-6370.00,561.00,-1113.00,1380.00,3200.00,18896.00,-2544.00
9276,-6769.00,-41.00,-551.00,1112.00,3140.00,18376.00,-2560.00
9292,-6683.00,-471.00,-340.00,888.00,2804.00,18372.00,-2576.00
9309,-6459.00,-195.00,-613.00,880.00,2484.00,18716.00,-2528.00
9325,-6503.00,-409.00,-381.00,1228.00,2452.00,18688.00,-2608.00
9342,-6758.00,-1119.00,-166.00,1524.00,2080.00,18620.00,-2544.00
9359,-7188.00,317.00,579.00,1104.00,1540.00,18972.00,-2544.00
9375,-7498.00,740.00,693.00,980.00,1512.00,18860.00,-2560.00
9392,-7433.00,468.00,400.00,812.00,1152.00,18516.00,-2544.00
9408,-6972.00,182.00,-299.00,924.00,1144.00,18644.00,-2528.00
9425,-6436.00,209.00,-659.00,1124.00,840.00,19036.00,-2560.00
9442,-6380.00,718.00,-411.00,1008.00,604.00,19024.00,-2544.00
9458,-6408.00,873.00,-292.00,1012.00,352.00,18884.00,-2560.00
9475,-6323.00,943.00,-9.00,1016.00,60.00,18932.00,-2544.00
9491,-6244.00,672.00,335.00,1092.00,-100.00,18836.00,-2560.00
9507,-5956.00,653.00,242.00,736.00,-360.00,18912.00,-2544.00
9525,-5632.00,177.00,-260.00,368.00,-556.00,18444.00,-2544.00
9541,-5660.00,258.00,-506.00,496.00,-896.00,18700.00,-2544.00
9558,-5740.00,-118.00,-462.00,928.00,-1048.00,18916.00,-2560.00
9574,-5644.00,-694.00,-339.00,984.00,-1216.00,18384.00,-2528.00
9590,-5159.00,-412.00,-657.00,788.00,-1448.00,18156.00,-2544.00
9607,-4938.00,-83.00,-416.00,928.00,-1556.00,18556.00,-2528.00
9624,-5329.00,144.00,-341.00,780.00,-2004.00,18668.00,-2560.00
9640,-6368.00,-326.00,-366.00,728.00,-2180.00,18724.00,-2544.00
9657,-6936.00,-671.00,-429.00,1064.00,-2256.00,18548.00,-2544.00
9673,-6272.00,-626.00,-7.00,1180.00,-2324.00,18164.00,-2544.00
9690,-5213.00,56.00,260.00,908.00,-2648.00,18064.00,-2544.00
9706,-4645.00,238.00,221.00,752.00,-2904.00,18492.00,-2560.00
9723,-4530.00,421.00,109.00,660.00,-3068.00,18304.00,-2560.00
9740,-4566.00,371.00,-99.00,680.00,-3276.00,18288.00,-2576.00
9756,-4599.00,364.00,-150.00,1296.00,-3284.00,18564.00,-2576.00
9773,-4823.00,-151.00,59.00,988.00,-3480.00,18372.00,-2528.00
9789,-4933.00,-94.00,180.00,948.00,-3564.00,18392.00,-2544.00
9805,-5124.00,-29.00,-69.00,1028.00,-4136.00,18404.00,-2544.00
9823,-5452.00,-349.00,-390.00,980.00,-4416.00,18224.00,-2544.00
9839,-5363.00,-394.00,-458.00,1132.00,-4264.00,18152.00,-2560.00
9856,-5008.00,-113.00,-618.00,1008.00,-4672.00,18348.00,-2576.00
9872,-4847.00,359.00,-883.00,1060.00,-5048.00,18300.00,-2528.00
9889,-4894.00,8.00,-1205.00,1384.00,-5104.00,18444.00,-2560.00
9906,-4987.00,190.00,-1466.00,1028.00,-5228.00,18108.00,-2560.00
9922,-4389.00,107.00,-1674.00,1176.00,-5148.00,18100.00,-2528.00
9938,-3928.00,-279.00,-971.00,820.00,-5492.00,17556.00,-2544.00
9956,-3965.00,721.00,-1025.00,400.00,-5700.00,17372.00,-2528.00
9972,-3797.00,535.00,-1148.00,816.00,-5952.00,17748.00,-2544.00
9989,-3781.00,152.00,-1426.00,888.00,-5784.00,17616.00,-2560.00
10005,-3888.00,-317.00,-1359.00,752.00,-6216.00,17536.00,-2560.00
10022,-3625.00,370.00,-1646.00,832.00,-6312.00,17680.00,-2512.00
10039,-2384.00,-378.00,-835.00,892.00,-6308.00,17128.00,-2544.00
10055,-1902.00,-735.00,-1023.00,2096.00,-6404.00,18368.00,-2528.00
10072,-1311.00,-190.00,-1824.00,1132.00,-5900.00,17168.00,-2592.00
10089,-634.00,766.00,-1165.00,684.00,-6792.00,17036.00,-2560.00
10105,997.00,669.00,-579.00,892.00,-6368.00,17384.00,-2544.00
10122,2300.00,1307.00,-953.00,996.00,-6588.00,17620.00,-2560.00
10138,3670.00,1082.00,-1619.00,1168.00,-6524.00,17752.00,-2544.00
10156,4838.00,435.00,-1612.00,732.00,-6180.00,17436.00,-2544.00
10172,6416.00,-88.00,-1520.00,1364.00,-5668.00,17808.00,-2544.00
10188,7582.00,73.00,-1154.00,1636.00,-5332.00,17984.00,-2560.00
10206,9084.00,-136.00,-448.00,1188.00,-5136.00,17500.00,-2544.00
10222,9946.00,749.00,-271.00,772.00,-5260.00,17776.00,-2544.00
10238,10917.00,998.00,-7.00,820.00,-4656.00,17756.00,-2560.00
10255,11831.00,591.00,-59.00,628.00,-4004.00,17648.00,-2544.00
10272,13036.00,648.00,207.00,1096.00,-3240.00,18172.00,-2528.00
10289,13716.00,953.00,616.00,1248.00,-3076.00,18320.00,-2560.00
10305,13720.00,1086.00,634.00,644.00,-3076.00,18076.00,-2512.00
10322,13087.00,1254.00,708.00,1028.00,-2756.00,18476.00,-2544.00
10339,12202.00,57.00,1105.00,1104.00,-2020.00,18984.00,-2544.00
10355,11332.00,-799.00,1003.00,736.00,-1724.00,18784.00,-2544.00
10373,10922.00,-276.00,1229.00,708.00,-684.00,17864.00,-2544.00
10389,10583.00,567.00,1297.00,1020.00,-448.00,18584.00,-2528.00
10405,10311.00,1306.00,1490.00,1300.00,140.00,18728.00,-2592.00
10422,9559.00,1403.00,1737.00,1096.00,-140.00,19692.00,-2528.00
10439,8455.00,764.00,1402.00,628.00,476.00,19104.00,-2528.00
10456,8197.00,1014.00,1208.00,720.00,972.00,18580.00,-2544.00
10472,8388.00,949.00,1194.00,680.00,1184.00,18496.00,-2560.00
10489,8451.00,115.00,830.00,668.00,1728.00,18672.00,-2544.00
10506,8150.00,587.00,856.00,704.00,1436.00,18472.00,-2528.00
10522,8258.00,854.00,918.00,552.00,1780.00,18384.00,-2544.00
10539,8091.00,1585.00,489.00,644.00,2136.00,18592.00,-2560.00
10555,7767.00,937.00,617.00,732.00,2684.00,18328.00,-2576.00
10572,7913.00,413.00,569.00,656.00,3284.00,18196.00,-2560.00
10589,8167.00,719.00,776.00,692.00,3292.00,18564.00,-2544.00
10605,7870.00,658.00,586.00,764.00,3444.00,18744.00,-2560.00
10621,7472.00,473.00,390.00,372.00,3740.00,18140.00,-2544.00
10639,7156.00,410.00,481.00,444.00,3736.00,18220.00,-2592.00
10655,6854.00,905.00,470.00,668.00,4224.00,18260.00,-2576.00
10672,6964.00,1321.00,355.00,348.00,4376.00,17704.00,-2528.00
10688,7108.00,1223.00,324.00,328.00,4756.00,17756.00,-2512.00
10704,7168.00,810.00,354.00,332.00,4492.00,18368.00,-2560.00
10722,6745.00,728.00,626.00,224.00,5152.00,18224.00,-2544.00
10738,6283.00,525.00,402.00,304.00,5428.00,18220.00,-2528.00
10755,6137.00,919.00,217.00,480.00,5596.00,17868.00,-2544.00
10771,6216.00,776.00,396.00,708.00,6004.00,17464.00,-2528.00
10788,5940.00,558.00,562.00,232.00,6184.00,17532.00,-2544.00
10805,5445.00,1100.00,901.00,472.00,6340.00,17564.00,-2560.00
10821,4512.00,720.00,876.00,180.00,6428.00,17792.00,-2544.00
10838,3921.00,489.00,634.00,248.00,6612.00,17252.00,-2560.00
10854,3759.00,715.00,345.00,-104.00,6376.00,17024.00,-2544.00
10871,3501.00,950.00,-395.00,96.00,6852.00,17016.00,-2560.00
10888,2670.00,1252.00,-196.00,364.00,7192.00,17820.00,-2560.00
10904,1646.00,573.00,-189.00,208.00,6988.00,17516.00,-2560.00
10920,528.00,-26.00,-270.00,92.00,6916.00,17168.00,-2544.00
10937,-253.00,48.00,-267.00,-20.00,6912.00,16992.00,-2576.00
10954,-1527.00,-52.00,19.00,224.00,6928.00,17408.00,-2528.00
10971,-2666.00,69.00,235.00,276.00,6960.00,17388.00,-2560.00
10987,-3733.00,-172.00,385.00,-132.00,6736.00,17492.00,-2544.00
11003,-4124.00,-135.00,34.00,68.00,6680.00,17084.00,-2560.00
11020,-4674.00,-353.00,-160.00,236.00,6804.00,17116.00,-2528.00
11036,-4958.00,-336.00,103.00,304.00,6616.00,17276.00,-2544.00
11054,-5393.00,-374.00,353.00,116.00,6196.00,17404.00,-2560.00
11070,-5871.00,25.00,351.00,80.00,5832.00,17752.00,-2576.00
11086,-6605.00,-63.00,79.00,420.00,5508.00,18076.00,-2544.00
11103,-7277.00,-301.00,86.00,464.00,5328.00,17972.00,-2544.00
11119,-7882.00,-1449.00,124.00,400.00,5176.00,18108.00,-2560.00
11137,-8486.00,-2300.00,-240.00,168.00,4772.00,18184.00,-2576.00
11153,-8650.00,-2134.00,-962.00,344.00,4824.00,18148.00,-2544.00
11169,-8699.00,-1779.00,-794.00,572.00,4772.00,17720.00,-2560.00
11186,-8537.00,-1125.00,-130.00,748.00,4332.00,17940.00,-2560.00
11203,-8678.00,-1002.00,16.00,608.00,3540.00,18220.00,-2576.00
11219,-9139.00,-863.00,-238.00,640.00,3248.00,18704.00,-2560.00
11236,-8922.00,-964.00,-619.00,596.00,3132.00,18272.00,-2544.00
11252,-8134.00,-889.00,-749.00,764.00,2928.00,18152.00,-2592.00
11270,-7524.00,-358.00,-698.00,760.00,2492.00,18384.00,-2544.00
11286,-7341.00,-69.00,-928.00,816.00,2100.00,18808.00,-2560.00
11302,-7734.00,-28.00,-880.00,840.00,1660.00,19028.00,-2544.00
11319,-8245.00,-157.00,-761.00,892.00,1796.00,18844.00,-2544.00
11335,-8265.00,-297.00,-597.00,860.00,1656.00,18416.00,-2544.00
11353,-8198.00,-22.00,-189.00,632.00,1164.00,18396.00,-2560.00
11369,-7876.00,278.00,-350.00,684.00,564.00,18804.00,-2528.00
11385,-7836.00,222.00,-408.00,692.00,304.00,18644.00,-2576.00
11402,-7533.00,141.00,-521.00,736.00,48.00,18584.00,-2544.00
11418,-7129.00,-30.00,-78.00,596.00,-76.00,18476.00,-2560.00
11435,-6757.00,-184.00,175.00,484.00,-576.00,18780.00,-2544.00
11452,-6802.00,-430.00,-193.00,456.00,-1076.00,18852.00,-2560.00
11468,-6478.00,-282.00,-782.00,776.00,-1116.00,18592.00,-2544.00
11485,-6224.00,-207.00,-720.00,988.00,-1092.00,18732.00,-2560.00
11501,-6400.00,81.00,-356.00,512.00,-1724.00,18760.00,-2512.00
11517,-7081.00,586.00,-368.00,516.00,-1880.00,18848.00,-2528.00
11535,-7567.00,566.00,-596.00,804.00,-1952.00,18672.00,-2544.00
11551,-7604.00,164.00,-756.00,864.00,-1932.00,18520.00,-2560.00
11568,-7886.00,-273.00,-583.00,652.00,-2332.00,18476.00,-2576.00
11584,-8269.00,-202.00,-667.00,924.00,-2864.00,18540.00,-2528.00
11601,-8682.00,252.00,-662.00,848.00,-3116.00,18580.00,-2576.00
11618,-8729.00,20.00,-696.00,560.00,-3404.00,18232.00,-2560.00
11634,-8727.00,208.00,-966.00,680.00,-3632.00,18048.00,-2544.00
11651,-8830.00,-288.00,-1253.00,820.00,-3956.00,17964.00,-2560.00
11668,-8518.00,-1236.00,-781.00,660.00,-4332.00,18168.00,-2544.00
11684,-8304.00,-405.00,-932.00,932.00,-4676.00,17980.00,-2576.00
11701,-7663.00,-406.00,-1001.00,1140.00,-4776.00,18100.00,-2544.00
11717,-6955.00,-193.00,-903.00,896.00,-5096.00,17896.00,-2560.00
11735,-6418.00,-9.00,-901.00,652.00,-5352.00,17800.00,-2528.00
11751,-5593.00,257.00,-992.00,764.00,-5496.00,17680.00,-2560.00
11767,-4729.00,469.00,-1191.00,524.00,-5808.00,17560.00,-2576.00
11784,-3368.00,348.00,-1243.00,852.00,-5956.00,17904.00,-2544.00
11801,-2323.00,317.00,-890.00,1124.00,-5920.00,17580.00,-2496.00
11817,-1756.00,324.00,-376.00,1220.00,-6176.00,18036.00,-2544.00
11834,-1432.00,324.00,-380.00,1032.00,-6296.00,17732.00,-2544.00
11851,-1094.00,259.00,-681.00,752.00,-6472.00,17356.00,-2544.00
11868,-489.00,339.00,-486.00,700.00,-6528.00,17360.00,-2576.00
11884,251.00,419.00,-475.00,644.00,-6752.00,17308.00,-2528.00
11900,2237.00,-1691.00,151.00,100.00,-6796.00,17384.00,-2544.00
11917,2692.00,-1691.00,-522.00,1540.00,-6336.00,17660.00,-2560.00
11934,3326.00,-751.00,-677.00,728.00,-6444.00,17740.00,-2560.00
11951,3799.00,165.00,-1102.00,708.00,-6144.00,17640.00,-2576.00
11967,4608.00,326.00,-890.00,1004.00,-6112.00,17688.00,-2544.00
11984,5327.00,335.00,-288.00,1084.00,-5596.00,17792.00,-2560.00
12001,5337.00,981.00,-514.00,1128.00,-5496.00,17820.00,-2544.00
12017,6318.00,930.00,-235.00,964.00,-5028.00,17592.00,-2576.00
12034,7340.00,706.00,-28.00,472.00,-4932.00,17684.00,-2592.00
12050,8242.00,429.00,-259.00,692.00,-5096.00,18108.00,-2576.00
12067,9353.00,476.00,-229.00,852.00,-4612.00,18432.00,-2528.00
12084,9602.00,90.00,-162.00,960.00,-4380.00,18376.00,-2544.00
12100,9805.00,-265.00,30.00,812.00,-3940.00,18356.00,-2544.00
12116,10031.00,-57.00,606.00,940.00,-3568.00,18264.00,-2560.00
12134,10523.00,-293.00,466.00,612.00,-2892.00,17984.00,-2544.00
12150,10975.00,-810.00,160.00,636.00,-2780.00,18336.00,-2560.00
12167,11273.00,-626.00,191.00,752.00,-2612.00,18612.00,-2560.00
12183,11003.00,-218.00,102.00,808.00,-2008.00,18604.00,-2576.00
12200,10552.00,184.00,383.00,872.00,-1568.00,18476.00,-2544.00
12217,10238.00,45.00,335.00,1160.00,-996.00,18776.00,-2592.00
12233,10284.00,113.00,583.00,1116.00,-476.00,18712.00,-2544.00
12250,10188.00,105.00,968.00,1104.00,-124.00,18828.00,-2528.00
12267,9305.00,-291.00,1233.00,624.00,312.00,18040.00,-2560.00
12283,8866.00,110.00,1457.00,812.00,-140.00,18948.00,-2544.00
12300,8330.00,-141.00,850.00,480.00,768.00,18680.00,-2560.00
12316,9078.00,86.00,340.00,892.00,1208.00,18360.00,-2592.00
12333,9507.00,480.00,250.00,1148.00,1888.00,18620.00,-2544.00
12350,9621.00,1048.00,718.00,1136.00,1900.00,18732.00,-2560.00
12366,8884.00,1034.00,855.00,1072.00,2044.00,18796.00,-2560.00
12383,7850.00,246.00,713.00,532.00,2196.00,18604.00,-2544.00
12400,7262.00,-142.00,282.00,540.00,2484.00,18572.00,-2512.00
12417,7183.00,-142.00,24.00,728.00,2964.00,18608.00,-2576.00
12433,7384.00,413.00,-13.00,860.00,3292.00,17948.00,-2528.00
12449,7129.00,734.00,215.00,700.00,3276.00,18132.00,-2544.00
12466,6576.00,1066.00,350.00,804.00,3680.00,18604.00,-2544.00
12483,5822.00,740.00,304.00,768.00,3868.00,18440.00,-2544.00
12499,5453.00,634.00,305.00,916.00,4260.00,17912.00,-2560.00
12516,5058.00,-99.00,298.00,660.00,4092.00,18408.00,-2544.00
12532,4937.00,-324.00,-146.00,512.00,4832.00,17980.00,-2576.00
12549,5511.00,60.00,-252.00,884.00,4536.00,17908.00,-2560.00
12566,5593.00,482.00,-467.00,872.00,4756.00,18324.00,-2544.00
12582,5015.00,328.00,-197.00,816.00,5216.00,18076.00,-2592.00
12599,5019.00,440.00,61.00,376.00,5264.00,17748.00,-2544.00
12615,5150.00,412.00,124.00,340.00,5304.00,17544.00,-2560.00
12632,5585.00,291.00,87.00,556.00,5568.00,17640.00,-2544.00
12649,5539.00,253.00,173.00,576.00,5696.00,17792.00,-2544.00
12665,5439.00,296.00,-18.00,648.00,6012.00,17628.00,-2528.00
12682,5495.00,121.00,-508.00,780.00,6124.00,17284.00,-2560.00
12698,5789.00,971.00,-503.00,572.00,6256.00,17036.00,-2544.00
12715,5581.00,1626.00,-258.00,584.00,6408.00,17504.00,-2560.00
12732,5230.00,1199.00,94.00,692.00,6372.00,17692.00,-2528.00
12748,4496.00,521.00,326.00,736.00,6932.00,17704.00,-2512.00
12765,4311.00,575.00,552.00,636.00,7364.00,17056.00,-2544.00
12781,4032.00,314.00,483.00,220.00,6940.00,17092.00,-2544.00
12798,3506.00,414.00,36.00,380.00,7024.00,17100.00,-2560.00
12815,2822.00,274.00,-192.00,256.00,6804.00,17388.00,-2560.00
12831,1380.00,-322.00,-190.00,600.00,7188.00,17160.00,-2576.00
12848,166.00,35.00,-78.00,592.00,7508.00,17420.00,-2560.00
12864,-1110.00,-315.00,-22.00,-132.00,7784.00,16932.00,-2560.00
12880,-2023.00,-195.00,-92.00,272.00,7176.00,16868.00,-2544.00
12898,-2792.00,282.00,-364.00,604.00,7036.00,17444.00,-2576.00
12914,-3712.00,328.00,-462.00,392.00,6964.00,16920.00,-2560.00
12931,-4471.00,-28.00,-537.00,620.00,7080.00,17060.00,-2544.00
12947,-5082.00,-364.00,-466.00,472.00,6780.00,17296.00,-2560.00
12963,-5497.00,-213.00,-462.00,240.00,6432.00,17020.00,-2512.00
12981,-6167.00,-100.00,-610.00,472.00,6240.00,17844.00,-2560.00
12997,-7536.00,-244.00,-777.00,644.00,5876.00,18172.00,-2544.00
13014,-8666.00,-1210.00,-954.00,356.00,5824.00,17592.00,-2560.00
13030,-8578.00,-1432.00,-1627.00,324.00,5548.00,17416.00,-2528.00
13047,-8486.00,-2143.00,-1840.00,648.00,5440.00,17584.00,-2592.00
13064,-7718.00,-1970.00,-1323.00,844.00,5532.00,17176.00,-2576.00
13080,-7228.00,-1495.00,-790.00,992.00,4944.00,17764.00,-2544.00
13097,-7353.00,-755.00,-145.00,692.00,4644.00,18088.00,-2544.00
13114,-7487.00,-359.00,77.00,444.00,4216.00,18228.00,-2528.00
13130,-8212.00,-621.00,-90.00,624.00,3916.00,18396.00,-2544.00
13147,-8453.00,-435.00,-398.00,876.00,3640.00,18348.00,-2544.00
13164,-8545.00,-713.00,-759.00,768.00,3108.00,18440.00,-2560.00
13180,-8494.00,-813.00,-849.00,724.00,2948.00,18344.00,-2528.00
13197,-8172.00,-670.00,-674.00,880.00,2672.00,18296.00,-2512.00
13213,-7932.00,-558.00,-375.00,960.00,2532.00,18600.00,-2544.00
13231,-7934.00,-244.00,-277.00,940.00,2200.00,18160.00,-2544.00
13247,-7556.00,256.00,-88.00,1076.00,1824.00,18648.00,-2560.00
13263,-7578.00,324.00,46.00,964.00,1524.00,18572.00,-2544.00
13280,-7394.00,76.00,-94.00,872.00,1272.00,18744.00,-2560.00
13296,-7041.00,-451.00,-913.00,708.00,792.00,18884.00,-2528.00
13314,-6729.00,-424.00,-1072.00,944.00,820.00,18220.00,-2544.00
13330,-6274.00,-626.00,-1154.00,868.00,332.00,18952.00,-2528.00
13346,-6554.00,-643.00,-780.00,980.00,-32.00,18800.00,-2544.00
13363,-7326.00,-662.00,-263.00,672.00,-232.00,18732.00,-2544.00
13379,-8013.00,-569.00,8.00,608.00,-300.00,18616.00,-2528.00
13395,-8235.00,-108.00,27.00,1152.00,-644.00,18924.00,-2560.00
13413,-8224.00,218.00,-228.00,1204.00,-1080.00,18704.00,-2528.00
13429,-7982.00,203.00,-372.00,1084.00,-1308.00,18492.00,-2560.00
13446,-7816.00,-98.00,-434.00,744.00,-1796.00,18500.00,-2512.00
13462,-8315.00,-88.00,-361.00,588.00,-2240.00,18584.00,-2528.00
13479,-8900.00,-361.00,-396.00,912.00,-2292.00,18536.00,-2576.00
13496,-9008.00,-55.00,-223.00,940.00,-2304.00,18368.00,-2528.00
13512,-8582.00,-18.00,-129.00,1312.00,-2132.00,18176.00,-2544.00
13529,-7977.00,-121.00,22.00,1244.00,-2852.00,18368.00,-2560.00
13545,-7807.00,-84.00,6.00,940.00,-3320.00,18336.00,-2544.00
13561,-8043.00,490.00,-139.00,940.00,-3612.00,18096.00,-2576.00
13579,-7864.00,88.00,-197.00,904.00,-4104.00,18324.00,-2560.00
13595,-7846.00,-267.00,-369.00,836.00,-4328.00,17904.00,-2528.00
13612,-7376.00,-555.00,-755.00,1180.00,-4588.00,18032.00,-2576.00
13628,-7105.00,-63.00,-589.00,1160.00,-4984.00,17864.00,-2544.00
13645,-7166.00,62.00,-453.00,1172.00,-5232.00,18092.00,-2528.00
13662,-6867.00,27.00,-618.00,1012.00,-5424.00,18124.00,-2576.00
13678,-6402.00,-179.00,-905.00,1016.00,-5748.00,17816.00,-2560.00
13694,-5153.00,-881.00,-941.00,1040.00,-5884.00,17576.00,-2560.00
13712,-4443.00,-866.00,-1046.00,1328.00,-5964.00,17464.00,-2512.00
13728,-4044.00,-530.00,-690.00,1016.00,-5716.00,17220.00,-2544.00
13745,-3405.00,32.00,-57.00,788.00,-5640.00,17060.00,-2544.00
13762,-2778.00,419.00,56.00,724.00,-6280.00,17216.00,-2544.00
13778,-1787.00,489.00,-154.00,1012.00,-7040.00,17560.00,-2576.00
13795,-1118.00,599.00,-589.00,956.00,-7008.00,17668.00,-2544.00
13811,-31.00,-395.00,-482.00,1240.00,-6496.00,17760.00,-2528.00
13828,675.00,370.00,-587.00,1204.00,-6488.00,17360.00,-2544.00
13845,2173.00,304.00,-279.00,1184.00,-6488.00,17532.00,-2496.00
13861,3090.00,361.00,34.00,1188.00,-6484.00,17616.00,-2512.00
13878,3829.00,449.00,394.00,1160.00,-6520.00,17708.00,-2544.00
13894,4446.00,801.00,609.00,1044.00,-6252.00,17824.00,-2496.00
13912,5374.00,1008.00,515.00,716.00,-6296.00,17628.00,-2544.00
13928,6485.00,1128.00,206.00,1092.00,-5848.00,17744.00,-2512.00
13944,7496.00,1076.00,96.00,1048.00,-5588.00,17696.00,-2528.00
13962,8473.00,1477.00,-167.00,980.00,-5532.00,17960.00,-2560.00
13978,9414.00,1611.00,-1152.00,1004.00,-5372.00,18096.00,-2544.00
13995,9933.00,952.00,-1900.00,800.00,-4880.00,18036.00,-2512.00
14011,10537.00,7.00,-2245.00,604.00,-4236.00,18124.00,-2512.00
14028,10924.00,600.00,-1476.00,1032.00,-3608.00,18444.00,-2576.00
14045,11545.00,1389.00,-317.00,900.00,-3184.00,18280.00,-2496.00
14061,11446.00,1446.00,547.00,696.00,-2676.00,18616.00,-2560.00
14078,11352.00,1140.00,524.00,252.00,-2704.00,18456.00,-2528.00
14095,10739.00,240.00,814.00,264.00,-2384.00,18504.00,-2512.00
14111,10391.00,-42.00,446.00,300.00,-1852.00,18624.00,-2544.00
14129,10544.00,287.00,217.00,704.00,-1320.00,18604.00,-2560.00
14145,10907.00,638.00,396.00,704.00,-792.00,18580.00,-2544.00
14161,11136.00,262.00,402.00,448.00,-568.00,18944.00,-2560.00
14178,10376.00,536.00,808.00,660.00,20.00,18272.00,-2544.00
14194,10474.00,777.00,941.00,680.00,412.00,18780.00,-2560.00
14212,10135.00,169.00,403.00,460.00,408.00,18752.00,-2544.00
14228,9911.00,202.00,48.00,460.00,792.00,18544.00,-2544.00
14244,9667.00,-2.00,11.00,212.00,1196.00,18340.00,-2512.00
14261,9480.00,-333.00,383.00,152.00,1840.00,18224.00,-2544.00
14277,8801.00,519.00,619.00,560.00,2324.00,18584.00,-2528.00
14294,8473.00,1176.00,617.00,564.00,2572.00,18908.00,-2544.00
14311,7424.00,1020.00,799.00,688.00,2520.00,18832.00,-2576.00
14327,6511.00,718.00,664.00,408.00,2588.00,18856.00,-2560.00
14344,5994.00,341.00,220.00,176.00,2872.00,18056.00,-2544.00
14360,6205.00,261.00,-209.00,292.00,3456.00,17808.00,-2560.00
14377,6879.00,194.00,-199.00,360.00,3532.00,18044.00,-2576.00
14394,7171.00,228.00,93.00,312.00,3844.00,18036.00,-2512.00
14410,7477.00,50.00,556.00,136.00,4084.00,18308.00,-2560.00
14427,7271.00,292.00,731.00,468.00,4576.00,17788.00,-2544.00
14443,7567.00,759.00,1097.00,764.00,4832.00,18028.00,-2560.00
14460,8215.00,690.00,1019.00,348.00,4908.00,17600.00,-2544.00
14477,8841.00,407.00,691.00,316.00,5176.00,17544.00,-2544.00
14493,9558.00,404.00,10.00,340.00,5420.00,17404.00,-2544.00
14510,10220.00,872.00,-376.00,340.00,5644.00,17480.00,-2560.00
14527,10133.00,1015.00,-87.00,280.00,6128.00,17920.00,-2544.00
14543,9070.00,1166.00,229.00,484.00,6532.00,18340.00,-2544.00
14560,7541.00,461.00,657.00,700.00,6832.00,18372.00,-2528.00
14576,6249.00,33.00,744.00,220.00,6888.00,17488.00,-2544.00
14594,5798.00,34.00,217.00,-92.00,6916.00,16776.00,-2496.00
14610,5603.00,426.00,41.00,308.00,7160.00,16776.00,-2544.00
14626,5861.00,678.00,-261.00,256.00,7328.00,16488.00,-2528.00
14643,5583.00,695.00,-176.00,72.00,7804.00,16704.00,-2512.00
14659,4632.00,360.00,93.00,104.00,7724.00,17108.00,-2528.00
14675,3403.00,-34.00,291.00,12.00,7888.00,16720.00,-2544.00
14692,2198.00,44.00,241.00,16.00,7992.00,16604.00,-2544.00
14709,1256.00,178.00,-36.00,280.00,8072.00,16500.00,-2544.00
14726,680.00,67.00,204.00,344.00,8204.00,16188.00,-2544.00
14742,58.00,25.00,388.00,500.00,8120.00,16952.00,-2544.00
14758,-996.00,-178.00,148.00,264.00,8156.00,17000.00,-2544.00
14775,-1916.00,-163.00,15.00,120.00,7972.00,16556.00,-2544.00
14791,-2616.00,84.00,-130.00,296.00,8192.00,16664.00,-2528.00
14808,-3108.00,50.00,-117.00,88.00,7896.00,16984.00,-2544.00
14825,-4237.00,69.00,-209.00,528.00,7912.00,16828.00,-2544.00
14841,-4880.00,-31.00,-66.00,560.00,7792.00,16748.00,-2544.00
14858,-5608.00,-52.00,-28.00,292.00,7520.00,16660.00,-2560.00
14874,-6394.00,-210.00,242.00,296.00,7180.00,16968.00,-2528.00
14891,-7323.00,-200.00,499.00,180.00,6960.00,17236.00,-2512.00
14907,-8309.00,-253.00,235.00,100.00,6724.00,17244.00,-2560.00
14924,-9124.00,-662.00,-223.00,-8.00,6896.00,16860.00,-2544.00
14941,-8572.00,284.00,-864.00,12.00,5928.00,16980.00,-2544.00
14957,-9201.00,-551.00,-1051.00,412.00,5772.00,18008.00,-2528.00
14973,-10011.00,-1343.00,-959.00,404.00,5428.00,17948.00,-2576.00
14991,-10684.00,-1347.00,-677.00,568.00,5208.00,17948.00,-2544.00
15007,-10981.00,-1451.00,-533.00,612.00,4980.00,18116.00,-2544.00
15024,-10728.00,-984.00,-487.00,780.00,4696.00,18060.00,-2544.00
15041,-10395.00,-993.00,-579.00,612.00,4032.00,17964.00,-2528.00
15057,-10231.00,-1045.00,-438.00,368.00,3344.00,18000.00,-2544.00
15074,-10298.00,-888.00,-412.00,480.00,3316.00,18436.00,-2496.00
15090,-10036.00,-133.00,-424.00,784.00,3136.00,18552.00,-2544.00
15108,-9756.00,103.00,-236.00,916.00,2684.00,18648.00,-2544.00
15124,-9708.00,-281.00,-696.00,796.00,2080.00,18708.00,-2528.00
15140,-9581.00,-186.00,-1100.00,812.00,1900.00,18728.00,-2544.00
15157,-9725.00,-477.00,-1577.00,456.00,1244.00,18636.00,-2528.00
15174,-9988.00,-917.00,-1436.00,752.00,996.00,18760.00,-2528.00
15191,-10161.00,-1062.00,-844.00,656.00,588.00,18824.00,-2544.00
15207,-10690.00,-835.00,-261.00,588.00,152.00,18716.00,-2528.00
15224,-11012.00,-974.00,-1.00,712.00,40.00,18796.00,-2544.00
15241,-11073.00,-879.00,-203.00,652.00,-592.00,18580.00,-2576.00
15257,-10854.00,-577.00,-820.00,792.00,-964.00,18832.00,-2560.00
15273,-10552.00,-515.00,-1345.00,804.00,-1524.00,18532.00,-2528.00
15290,-10506.00,-649.00,-1560.00,788.00,-1940.00,18772.00,-2544.00
15307,-11258.00,-1307.00,-1596.00,700.00,-2344.00,18680.00,-2544.00
15324,-11962.00,-1574.00,-1086.00,732.00,-2512.00,18276.00,-2560.00
15341,-12424.00,-1034.00,-372.00,888.00,-2604.00,18092.00,-2560.00
15357,-12000.00,-593.00,-170.00,1120.00,-3172.00,18324.00,-2528.00
15374,-10914.00,-127.00,-558.00,1532.00,-4124.00,18520.00,-2560.00
15391,-10166.00,-181.00,-966.00,1568.00,-4580.00,18752.00,-2528.00
15408,-10102.00,-1128.00,-1439.00,1124.00,-5088.00,18204.00,-2528.00
15424,-9912.00,-1612.00,-1594.00,1148.00,-4860.00,18264.00,-2560.00
15441,-9658.00,-1187.00,-1406.00,1212.00,-4896.00,17724.00,-2544.00
15458,-8291.00,-780.00,-969.00,1312.00,-5280.00,17392.00,-2512.00
15474,-6725.00,-586.00,-746.00,1036.00,-6252.00,17396.00,-2576.00
15492,-5495.00,-773.00,-777.00,1004.00,-6468.00,17400.00,-2528.00
15508,-4460.00,-1041.00,-886.00,1032.00,-6576.00,17408.00,-2496.00
15524,-3008.00,-1279.00,-1237.00,1280.00,-6576.00,16996.00,-2560.00
15542,-1492.00,-752.00,-1282.00,1508.00,-6524.00,17240.00,-2528.00
15558,-871.00,-501.00,-1206.00,1664.00,-6472.00,17564.00,-2496.00
15575,-385.00,67.00,-802.00,1704.00,-6512.00,17360.00,-2544.00
15591,235.00,801.00,-492.00,1508.00,-6768.00,17216.00,-2560.00
15608,1062.00,864.00,-291.00,1332.00,-6968.00,17388.00,-2544.00
15625,1892.00,680.00,-272.00,1500.00,-6780.00,17532.00,-2544.00
15641,2964.00,659.00,-242.00,1648.00,-6700.00,17840.00,-2560.00
15659,3846.00,869.00,-467.00,1968.00,-6608.00,17800.00,-2528.00
15675,4552.00,1114.00,-589.00,1604.00,-6520.00,17540.00,-2544.00
15691,5327.00,922.00,-1062.00,1344.00,-6132.00,17632.00,-2544.00
15708,7097.00,1176.00,-1323.00,1412.00,-5632.00,17412.00,-2512.00
15725,8325.00,1262.00,-847.00,952.00,-5656.00,17348.00,-2544.00
15741,9384.00,1517.00,-461.00,896.00,-5440.00,17432.00,-2560.00
15758,10233.00,1822.00,-112.00,1292.00,-4980.00,17740.00,-2560.00
15775,11219.00,1611.00,168.00,1176.00,-4588.00,18028.00,-2528.00
15792,11912.00,1342.00,279.00,868.00,-4148.00,18252.00,-2560.00
15808,12529.00,1111.00,354.00,796.00,-3744.00,18288.00,-2560.00
15825,12980.00,685.00,231.00,868.00,-3232.00,18276.00,-2560.00
15842,13234.00,143.00,-159.00,884.00,-2720.00,18108.00,-2512.00
15858,13613.00,529.00,-50.00,1088.00,-2020.00,18468.00,-2528.00
15876,14161.00,901.00,725.00,1192.00,-1348.00,18124.00,-2528.00
15892,14077.00,1464.00,1334.00,1208.00,-1084.00,18976.00,-2528.00
15908,13592.00,1701.00,1661.00,984.00,-484.00,18988.00,-2528.00
15926,13258.00,1375.00,1181.00,1112.00,-252.00,19072.00,-2528.00
15942,12574.00,792.00,1045.00,1224.00,60.00,19112.00,-2528.00
15959,11691.00,359.00,1062.00,1216.00,648.00,18920.00,-2528.00
15976,10717.00,16.00,1175.00,748.00,1116.00,18848.00,-2544.00
15992,10423.00,1237.00,1201.00,808.00,1824.00,18424.00,-2544.00
16009,10843.00,2667.00,1114.00,892.00,2144.00,18508.00,-2544.00
16026,10849.00,2815.00,1086.00,472.00,2288.00,18336.00,-2512.00
16043,10656.00,2258.00,847.00,228.00,2512.00,18424.00,-2544.00
16059,10033.00,1577.00,445.00,184.00,2960.00,18328.00,-2544.00
16076,9127.00,349.00,8.00,-76.00,3440.00,18176.00,-2528.00
16093,8830.00,114.00,-369.00,120.00,3860.00,18164.00,-2560.00
16109,8858.00,504.00,-407.00,136.00,4236.00,17728.00,-2544.00
16125,8963.00,634.00,-443.00,516.00,4432.00,18224.00,-2592.00
16142,9056.00,751.00,-74.00,640.00,4996.00,17840.00,-2544.00
16158,9207.00,1103.00,155.00,388.00,4880.00,17776.00,-2496.00
16176,8987.00,1004.00,15.00,-116.00,5224.00,17924.00,-2544.00
16192,8568.00,752.00,-493.00,96.00,5736.00,17576.00,-2528.00
16208,8719.00,722.00,-620.00,268.00,6108.00,17056.00,-2528.00
16225,8900.00,642.00,-562.00,416.00,6320.00,17516.00,-2560.00
16242,8669.00,863.00,-283.00,396.00,6632.00,17280.00,-2544.00
16259,8288.00,1227.00,252.00,4.00,6724.00,17360.00,-2544.00
16275,7286.00,550.00,155.00,-88.00,6884.00,17592.00,-2528.00
16291,6244.00,149.00,-271.00,-24.00,7060.00,17520.00,-2528.00
16308,4968.00,-322.00,-490.00,-372.00,7948.00,16500.00,-2512.00
16325,4425.00,465.00,-368.00,308.00,7684.00,16536.00,-2560.00
16342,3821.00,662.00,25.00,20.00,7572.00,16592.00,-2512.00
16358,3094.00,909.00,73.00,-392.00,7524.00,17044.00,-2512.00
16374,1793.00,653.00,-183.00,-40.00,7716.00,17292.00,-2512.00
16391,716.00,431.00,-435.00,152.00,8012.00,17032.00,-2528.00
16407,-77.00,96.00,-370.00,8.00,8004.00,16704.00,-2544.00
16423,-813.00,298.00,1.00,12.00,8064.00,16560.00,-2528.00
16440,-1448.00,189.00,168.00,-136.00,7828.00,16876.00,-2544.00
16457,-2084.00,162.00,26.00,-100.00,7868.00,16972.00,-2528.00
16474,-2742.00,-206.00,-142.00,-124.00,7788.00,16828.00,-2512.00
16490,-3870.00,-450.00,-112.00,56.00,7948.00,16924.00,-2496.00
16506,-4453.00,527.00,386.00,340.00,7696.00,16400.00,-2544.00
16523,-4810.00,724.00,710.00,68.00,7360.00,17124.00,-2544.00
16540,-5493.00,547.00,927.00,-256.00,7192.00,16812.00,-2528.00
16557,-5752.00,735.00,987.00,-312.00,6844.00,17004.00,-2544.00
16573,-6214.00,654.00,570.00,-92.00,6788.00,17092.00,-2560.00
16589,-6391.00,302.00,379.00,92.00,6356.00,16924.00,-2544.00
16606,-6549.00,50.00,311.00,-180.00,5904.00,17788.00,-2512.00
16623,-7396.00,-905.00,174.00,140.00,5968.00,17252.00,-2560.00
16640,-7641.00,29.00,201.00,-96.00,5284.00,17688.00,-2512.00
16656,-7502.00,814.00,21.00,20.00,5880.00,17264.00,-2544.00
16672,-7499.00,238.00,395.00,32.00,5644.00,17504.00,-2528.00
16689,-7396.00,-248.00,452.00,92.00,5336.00,17824.00,-2528.00
16705,-7774.00,-588.00,289.00,68.00,4928.00,18036.00,-2512.00
16722,-8070.00,-611.00,-227.00,212.00,4664.00,18180.00,-2544.00
16739,-7955.00,-659.00,-898.00,360.00,4404.00,18268.00,-2512.00
16755,-7881.00,-819.00,-1498.00,388.00,4036.00,18564.00,-2496.00
16772,-7921.00,-443.00,-1582.00,492.00,3936.00,18756.00,-2544.00
16789,-8265.00,-578.00,-829.00,216.00,3524.00,18316.00,-2512.00
16805,-8801.00,-373.00,132.00,-56.00,3076.00,18416.00,-2560.00
16822,-9259.00,-413.00,308.00,112.00,2660.00,18480.00,-2528.00
16838,-9040.00,-352.00,-78.00,64.00,2184.00,18544.00,-2544.00
16855,-8670.00,-399.00,-418.00,124.00,1880.00,18532.00,-2512.00
16872,-8618.00,-449.00,-778.00,60.00,1552.00,18732.00,-2512.00
16888,-8798.00,-575.00,-774.00,252.00,1540.00,18496.00,-2560.00
16905,-8415.00,-606.00,-806.00,228.00,1264.00,18512.00,-2576.00
16921,-8150.00,-498.00,-637.00,344.00,708.00,18820.00,-2528.00
16939,-8053.00,-573.00,-632.00,428.00,456.00,18880.00,-2544.00
16955,-8349.00,-1006.00,-867.00,296.00,212.00,18924.00,-2512.00
16971,-8467.00,-868.00,-798.00,492.00,-16.00,18780.00,-2528.00
16988,-8388.00,-660.00,-896.00,244.00,-280.00,18856.00,-2512.00
17004,-8391.00,-854.00,-1258.00,436.00,-860.00,18916.00,-2512.00
17021,-8398.00,-852.00,-1476.00,612.00,-1108.00,18840.00,-2544.00
17038,-8435.00,-1010.00,-1150.00,512.00,-1288.00,18332.00,-2528.00
17054,-8669.00,-1065.00,-456.00,648.00,-1404.00,18296.00,-2560.00
17071,-8783.00,-790.00,93.00,444.00,-1844.00,18420.00,-2528.00
17088,-8915.00,-839.00,219.00,276.00,-2400.00,18408.00,-2528.00
17104,-9328.00,-605.00,-27.00,424.00,-2832.00,18308.00,-2544.00
17121,-9302.00,-871.00,-322.00,660.00,-3288.00,18644.00,-2528.00
17137,-8796.00,-935.00,-671.00,660.00,-3272.00,18288.00,-2544.00
17155,-8183.00,-1082.00,-541.00,492.00,-3568.00,18108.00,-2560.00
17171,-7544.00,-960.00,-454.00,816.00,-4052.00,18296.00,-2528.00
17187,-6506.00,-663.00,-630.00,816.00,-4424.00,18228.00,-2512.00
17204,-5347.00,-596.00,-497.00,792.00,-4540.00,17980.00,-2528.00
17221,-4807.00,-416.00,-402.00,756.00,-4804.00,18164.00,-2544.00
17238,-4520.00,-641.00,-452.00,696.00,-4932.00,18144.00,-2528.00
17254,-3939.00,-653.00,-459.00,780.00,-4944.00,18092.00,-2560.00
17270,-3684.00,-304.00,-152.00,916.00,-4768.00,17756.00,-2544.00
17288,-3462.00,295.00,245.00,872.00,-4912.00,17816.00,-2528.00
17304,-3303.00,440.00,107.00,960.00,-5564.00,18084.00,-2512.00
17320,-3635.00,-19.00,-335.00,916.00,-5844.00,18288.00,-2560.00
17337,-4233.00,-258.00,-422.00,1112.00,-5600.00,17992.00,-2544.00
17353,-4223.00,-65.00,-380.00,956.00,-5652.00,17776.00,-2560.00
17371,-4034.00,41.00,-447.00,872.00,-5824.00,17640.00,-2544.00
17387,-4160.00,313.00,-459.00,856.00,-6424.00,17544.00,-2560.00
17403,-4633.00,151.00,-627.00,656.00,-6636.00,17344.00,-2544.00
17420,-4445.00,6.00,-608.00,716.00,-6296.00,17288.00,-2560.00
17436,-3455.00,-203.00,-425.00,900.00,-6572.00,17020.00,-2528.00
17454,-2286.00,12.00,-463.00,536.00,-6928.00,16928.00,-2544.00
17470,-452.00,-354.00,-861.00,680.00,-6968.00,17132.00,-2528.00
17486,1031.00,-319.00,-833.00,640.00,-6804.00,17336.00,-2512.00
17503,2146.00,-331.00,-602.00,780.00,-6784.00,17508.00,-2528.00
17520,3040.00,-139.00,-289.00,948.00,-6768.00,17636.00,-2544.00
17537,3866.00,-77.00,-136.00,1172.00,-6552.00,17804.00,-2528.00
17553,4950.00,121.00,412.00,1232.00,-6356.00,17552.00,-2544.00
17569,6740.00,573.00,578.00,924.00,-5780.00,17208.00,-2544.00
17587,7684.00,338.00,157.00,652.00,-6204.00,17468.00,-2528.00
17603,8280.00,461.00,-232.00,768.00,-5904.00,17872.00,-2544.00
17619,8839.00,717.00,-528.00,724.00,-5504.00,17964.00,-2512.00
17636,9246.00,554.00,-261.00,792.00,-4928.00,17748.00,-2544.00
17652,9251.00,861.00,331.00,528.00,-4596.00,17804.00,-2528.00
17670,9210.00,1032.00,794.00,680.00,-4368.00,17900.00,-2512.00
17686,9282.00,862.00,1252.00,540.00,-4072.00,18084.00,-2560.00
17702,9363.00,586.00,1307.00,724.00,-3452.00,18264.00,-2528.00
17719,9480.00,-105.00,1290.00,596.00,-3148.00,18252.00,-2544.00
17736,9565.00,-161.00,973.00,628.00,-2992.00,18520.00,-2528.00
17753,9437.00,-107.00,535.00,852.00,-2680.00,18788.00,-2512.00
17769,10098.00,593.00,-115.00,824.00,-2284.00,18668.00,-2528.00
17785,10629.00,-175.00,-316.00,1004.00,-1648.00,18656.00,-2496.00
17803,10980.00,285.00,-14.00,604.00,-1032.00,18608.00,-2528.00
17819,11165.00,124.00,422.00,600.00,-1072.00,18616.00,-2544.00
17836,10705.00,-384.00,881.00,576.00,-708.00,18636.00,-2528.00
17853,9974.00,-764.00,1210.00,504.00,-60.00,18340.00,-2512.00
17869,10017.00,-68.00,1277.00,496.00,288.00,18328.00,-2528.00
17886,10436.00,163.00,677.00,264.00,164.00,18560.00,-2544.00
17902,10486.00,-117.00,-474.00,764.00,644.00,18484.00,-2544.00
17918,10958.00,712.00,-2345.00,1428.00,1596.00,18608.00,-2512.00
17936,11565.00,623.00,-2558.00,940.00,2180.00,18708.00,-2544.00
17952,11482.00,71.00,-2249.00,576.00,2432.00,18716.00,-2544.00
17969,10451.00,75.00,-1702.00,748.00,2380.00,19072.00,-2528.00
17986,9011.00,116.00,-993.00,672.00,3024.00,18720.00,-2512.00
18002,8383.00,730.00,-535.00,784.00,3512.00,18192.00,-2528.00
18019,8534.00,921.00,-501.00,636.00,3768.00,18004.00,-2544.00
18035,8706.00,803.00,-404.00,364.00,3848.00,17836.00,-2528.00
18053,8528.00,601.00,-170.00,148.00,4028.00,17792.00,-2544.00
18069,7979.00,485.00,-198.00,228.00,4284.00,18364.00,-2528.00
18085,7858.00,311.00,-549.00,448.00,4484.00,17876.00,-2544.00
18102,8084.00,538.00,-918.00,436.00,4828.00,17892.00,-2528.00
18118,8288.00,525.00,-705.00,360.00,5308.00,17616.00,-2544.00
18136,8260.00,411.00,-121.00,504.00,5628.00,17640.00,-2560.00
18152,8099.00,444.00,180.00,412.00,5816.00,17516.00,-2544.00
18168,7945.00,9.00,287.00,284.00,5964.00,17400.00,-2528.00
18185,7544.00,-440.00,-26.00,252.00,6000.00,17708.00,-2496.00
18201,7721.00,278.00,-355.00,456.00,6456.00,17492.00,-2544.00
18219,7647.00,672.00,-977.00,528.00,6820.00,17340.00,-2512.00
18235,7075.00,601.00,-1139.00,504.00,7112.00,17228.00,-2544.00
18251,6202.00,500.00,-750.00,236.00,7268.00,17360.00,-2496.00
18268,5126.00,323.00,-378.00,280.00,7600.00,16856.00,-2512.00
18285,4663.00,281.00,-254.00,392.00,7696.00,16868.00,-2560.00
18301,4196.00,211.00,-368.00,284.00,7772.00,16760.00,-2544.00
18318,4043.00,431.00,-218.00,260.00,7768.00,16448.00,-2528.00
18334,3686.00,373.00,-209.00,-116.00,7944.00,16888.00,-2544.00
18351,2714.00,296.00,-258.00,116.00,8116.00,16908.00,-2544.00
18368,1707.00,167.00,-374.00,272.00,8100.00,16900.00,-2512.00
18384,867.00,107.00,-315.00,376.00,8328.00,16488.00,-2544.00
18401,232.00,-30.00,-113.00,176.00,8156.00,16168.00,-2528.00
18417,-796.00,52.00,8.00,180.00,8324.00,17068.00,-2560.00
18434,-1972.00,183.00,-74.00,364.00,8368.00,16840.00,-2544.00
18450,-3242.00,177.00,111.00,116.00,8320.00,16520.00,-2528.00
18467,-4166.00,566.00,301.00,212.00,7956.00,16208.00,-2528.00
18484,-5045.00,903.00,438.00,52.00,7852.00,16760.00,-2576.00
18500,-6232.00,1028.00,527.00,-44.00,7516.00,16960.00,-2512.00
18516,-7509.00,793.00,644.00,252.00,7360.00,17112.00,-2576.00
18533,-8220.00,324.00,776.00,92.00,7160.00,16768.00,-2496.00
18550,-8924.00,493.00,1026.00,-48.00,6648.00,17108.00,-2528.00
18567,-9979.00,489.00,946.00,-336.00,6204.00,17400.00,-2512.00
18583,-10887.00,58.00,490.00,-400.00,5924.00,17612.00,-2528.00
18599,-11259.00,-520.00,-74.00,168.00,5648.00,17648.00,-2544.00
18616,-11401.00,-501.00,-34.00,524.00,5580.00,17900.00,-2528.00
18633,-11552.00,-759.00,708.00,528.00,5256.00,17852.00,-2512.00
18650,-11783.00,-1047.00,1336.00,8.00,4788.00,17212.00,-2528.00
18666,-11925.00,-382.00,1494.00,224.00,4536.00,17996.00,-2528.00
18683,-12020.00,-91.00,850.00,228.00,3968.00,18180.00,-2512.00
18700,-11298.00,-298.00,-71.00,732.00,3620.00,18080.00,-2496.00
18716,-10445.00,-254.00,-884.00,676.00,3088.00,18688.00,-2544.00
18733,-9878.00,-582.00,-1449.00,632.00,2500.00,18544.00,-2512.00
18750,-9549.00,-583.00,-1450.00,388.00,2196.00,18736.00,-2560.00
18766,-9551.00,-822.00,-840.00,368.00,1748.00,18644.00,-2544.00
18783,-9974.00,-785.00,136.00,532.00,1596.00,18908.00,-2528.00
18799,-10363.00,-952.00,388.00,416.00,956.00,18936.00,-2544.00
18817,-9841.00,-709.00,-315.00,568.00,568.00,18948.00,-2560.00
18833,-9043.00,-650.00,-1190.00,764.00,184.00,18956.00,-2576.00
18849,-8646.00,-1252.00,-1496.00,612.00,-108.00,18640.00,-2528.00
18866,-8656.00,-980.00,-1074.00,756.00,-48.00,18920.00,-2544.00
18882,-9287.00,-591.00,-309.00,620.00,-432.00,18540.00,-2528.00
18899,-9597.00,-97.00,-142.00,836.00,-708.00,18596.00,-2544.00
18916,-9090.00,121.00,-159.00,1060.00,-1196.00,18692.00,-2512.00
18932,-8602.00,153.00,-668.00,888.00,-1752.00,18744.00,-2528.00
18949,-8331.00,38.00,-1017.00,644.00,-2016.00,18576.00,-2512.00
18966,-8375.00,-266.00,-1168.00,568.00,-2084.00,18424.00,-2528.00
18982,-8124.00,-940.00,-970.00,500.00,-2604.00,18364.00,-2528.00
18999,-8366.00,-1156.00,-1259.00,732.00,-2924.00,18620.00,-2544.00
19015,-8652.00,-1349.00,-1269.00,1044.00,-3340.00,18556.00,-2512.00
19033,-8876.00,-1178.00,-1161.00,1164.00,-3652.00,18608.00,-2544.00
19049,-8611.00,-591.00,-745.00,708.00,-3852.00,18308.00,-2544.00
19065,-8030.00,-590.00,-525.00,604.00,-4076.00,17784.00,-2528.00
19083,-7478.00,-770.00,-708.00,920.00,-4092.00,17996.00,-2528.00
19099,-6455.00,-559.00,-920.00,968.00,-4664.00,17780.00,-2544.00
19116,-5368.00,-894.00,-1249.00,1044.00,-5072.00,18196.00,-2528.00
19133,-5338.00,-1235.00,-1698.00,1176.00,-5340.00,18028.00,-2528.00
19149,-5562.00,-1221.00,-1688.00,996.00,-5264.00,17748.00,-2496.00
19166,-5954.00,-957.00,-1317.00,1132.00,-5352.00,18052.00,-2544.00
19183,-6690.00,-905.00,-984.00,1084.00,-5732.00,17684.00,-2528.00
19200,-6728.00,-250.00,-697.00,1156.00,-5904.00,17544.00,-2480.00
19216,-5458.00,-303.00,-408.00,1160.00,-6240.00,17256.00,-2544.00
19232,-4673.00,156.00,-266.00,1500.00,-6676.00,17588.00,-2528.00
19250,-4180.00,301.00,-412.00,1276.00,-6648.00,17840.00,-2528.00
19266,-3916.00,13.00,-865.00,1124.00,-7112.00,17340.00,-2544.00
19282,-2921.00,-417.00,-940.00,1144.00,-6968.00,17416.00,-2528.00
19300,-1710.00,-373.00,-728.00,1468.00,-6940.00,17152.00,-2528.00
19316,-888.00,62.00,-403.00,1412.00,-6968.00,17364.00,-2512.00
19333,155.00,472.00,-102.00,1368.00,-7120.00,17220.00,-2560.00
19349,1736.00,699.00,17.00,1396.00,-7156.00,17108.00,-2528.00
19365,2883.00,868.00,-41.00,1240.00,-7240.00,17348.00,-2512.00
19383,4400.00,884.00,-235.00,1112.00,-7048.00,17296.00,-2528.00
19399,6374.00,1028.00,-95.00,756.00,-6644.00,17376.00,-2544.00
19416,7696.00,1611.00,98.00,1000.00,-6336.00,17492.00,-2528.00
19432,8267.00,1732.00,273.00,1228.00,-6196.00,17776.00,-2496.00
19449,8728.00,1594.00,480.00,1008.00,-5932.00,17728.00,-2544.00
19466,8982.00,1582.00,357.00,668.00,-5716.00,17904.00,-2480.00
19482,9532.00,1239.00,397.00,616.00,-5032.00,17656.00,-2528.00
19500,10064.00,490.00,665.00,376.00,-4500.00,17588.00,-2560.00
19516,10496.00,534.00,1195.00,724.00,-4192.00,18028.00,-2544.00
19532,11244.00,616.00,1139.00,652.00,-4044.00,18004.00,-2512.00
19550,11952.00,842.00,419.00,824.00,-3792.00,18528.00,-2544.00
19566,12513.00,794.00,68.00,956.00,-3072.00,18656.00,-2560.00
19582,12711.00,386.00,-370.00,648.00,-2712.00,18444.00,-2512.00
19599,12931.00,524.00,-314.00,772.00,-2124.00,18420.00,-2528.00
19616,12921.00,586.00,262.00,720.00,-1636.00,18856.00,-2512.00
19633,12352.00,589.00,551.00,584.00,-1268.00,18712.00,-2544.00
19649,11753.00,388.00,475.00,612.00,-784.00,18736.00,-2528.00
19665,11752.00,517.00,255.00,808.00,-516.00,18520.00,-2512.00
19683,11953.00,296.00,165.00,624.00,52.00,18372.00,-2528.00
19699,11786.00,61.00,528.00,372.00,428.00,18620.00,-2512.00
19716,11294.00,-36.00,600.00,424.00,992.00,18212.00,-2544.00
19732,10821.00,537.00,503.00,464.00,1072.00,18620.00,-2496.00
19748,10073.00,1374.00,210.00,592.00,1584.00,19012.00,-2512.00
19766,9436.00,1192.00,96.00,656.00,2336.00,18660.00,-2544.00
19782,9192.00,697.00,31.00,604.00,2468.00,18552.00,-2512.00
19799,9230.00,738.00,21.00,580.00,2652.00,17964.00,-2496.00
19815,9347.00,454.00,-117.00,308.00,2976.00,18564.00,-2544.00
19832,8736.00,88.00,-399.00,216.00,3276.00,18384.00,-2512.00
19849,8379.00,-105.00,-261.00,216.00,3680.00,18024.00,-2528.00
19865,8576.00,293.00,-376.00,248.00,4124.00,17900.00,-2544.00
19881,9091.00,943.00,-520.00,644.00,4428.00,17920.00,-2528.00
19898,9390.00,1158.00,-280.00,456.00,4752.00,17736.00,-2544.00
19915,9019.00,605.00,183.00,152.00,4780.00,17764.00,-2528.00
19932,8085.00,-177.00,288.00,-108.00,5036.00,18240.00,-2512.00
19948,7574.00,-43.00,64.00,236.00,5524.00,18180.00,-2528.00
19964,7777.00,541.00,-697.00,660.00,5884.00,18040.00,-2528.00
19981,8082.00,784.00,-1120.00,640.00,6000.00,17472.00,-2544.00
19998,7920.00,701.00,-494.00,460.00,6232.00,17052.00,-2528.00
20015,7547.00,608.00,82.00,420.00,6604.00,17680.00,-2512.00
20031,6489.00,291.00,121.00,0.00,6736.00,17572.00,-2496.00
20047,5916.00,223.00,32.00,44.00,6896.00,16868.00,-2544.00
20064,5545.00,590.00,-301.00,184.00,6880.00,17256.00,-2512.00
20080,4718.00,611.00,-619.00,260.00,7248.00,17268.00,-2528.00
20098,3244.00,513.00,-657.00,272.00,7624.00,17288.00,-2544.00
20114,1845.00,222.00,-178.00,432.00,7848.00,16664.00,-2528.00
20130,505.00,327.00,627.00,20.00,7516.00,17140.00,-2512.00
20147,-1075.00,525.00,833.00,-164.00,7356.00,17132.00,-2512.00
20164,-2448.00,649.00,861.00,88.00,7384.00,16916.00,-2560.00
20180,-3323.00,872.00,425.00,-36.00,7212.00,16864.00,-2512.00
20197,-4073.00,1088.00,-56.00,152.00,7220.00,17012.00,-2512.00
20213,-4771.00,804.00,-198.00,32.00,7304.00,16980.00,-2528.00
20230,-5148.00,516.00,57.00,-232.00,6980.00,16524.00,-2512.00
20246,-5741.00,755.00,834.00,-52.00,6648.00,17072.00,-2512.00
20263,-6682.00,854.00,922.00,-156.00,6452.00,17508.00,-2528.00
20280,-7570.00,980.00,662.00,4.00,6360.00,17640.00,-2544.00
20296,-8200.00,1169.00,526.00,76.00,6244.00,17548.00,-2480.00
20313,-8816.00,829.00,362.00,84.00,5932.00,17664.00,-2528.00
20329,-8954.00,929.00,-188.00,164.00,5688.00,17472.00,-2512.00
20346,-8845.00,575.00,-645.00,160.00,5268.00,17928.00,-2512.00
20363,-8942.00,130.00,-866.00,112.00,4828.00,18108.00,-2528.00
20379,-9232.00,-47.00,-848.00,40.00,4484.00,18252.00,-2512.00
20396,-9681.00,-219.00,-456.00,-188.00,4212.00,18220.00,-2512.00
20412,-9935.00,-191.00,-108.00,-164.00,3924.00,17932.00,-2480.00
20429,-10028.00,-148.00,2.00,-168.00,3596.00,18212.00,-2528.00
20446,-10086.00,-107.00,21.00,128.00,3052.00,18308.00,-2528.00
20462,-9595.00,-224.00,-61.00,12.00,2780.00,18388.00,-2512.00
20478,-9048.00,-623.00,-289.00,36.00,2404.00,18460.00,-2512.00
20495,-8822.00,-833.00,-212.00,0.00,2116.00,18540.00,-2496.00
20511,-8782.00,-852.00,-188.00,-400.00,1516.00,18428.00,-2496.00
20529,-8643.00,-629.00,-270.00,-284.00,1328.00,18364.00,-2512.00
20545,-8107.00,-744.00,-298.00,48.00,944.00,18604.00,-2528.00
20561,-7197.00,-498.00,-525.00,200.00,684.00,18876.00,-2512.00
20578,-6586.00,-333.00,-663.00,112.00,380.00,18820.00,-2544.00
20594,-6882.00,-482.00,-414.00,188.00,208.00,19040.00,-2528.00
20612,-7415.00,-623.00,-264.00,-136.00,-216.00,18864.00,-2560.00
20628,-7822.00,-698.00,-240.00,16.00,-336.00,18868.00,-2544.00
20644,-7653.00,-627.00,-321.00,108.00,-488.00,18632.00,-2544.00
20661,-7602.00,-768.00,-194.00,-12.00,-732.00,18560.00,-2496.00
20677,-7607.00,-457.00,41.00,-68.00,-972.00,18240.00,-2528.00
20694,-7568.00,-52.00,284.00,360.00,-1092.00,18364.00,-2528.00
20711,-7405.00,-117.00,340.00,364.00,-1700.00,18384.00,-2512.00
20727,-7623.00,-474.00,164.00,348.00,-2076.00,18640.00,-2560.00
20744,-8170.00,-619.00,-233.00,72.00,-2412.00,18640.00,-2512.00
20760,-8627.00,-511.00,-687.00,152.00,-2732.00,18596.00,-2544.00
20776,-8929.00,-647.00,-672.00,212.00,-3000.00,18408.00,-2512.00
20794,-9154.00,-957.00,-506.00,240.00,-3116.00,18124.00,-2512.00
20810,-9348.00,-669.00,-321.00,376.00,-3348.00,18304.00,-2512.00
20827,-9340.00,-387.00,-525.00,636.00,-3868.00,18444.00,-2528.00
20843,-9165.00,-557.00,-631.00,688.00,-4092.00,18392.00,-2512.00
20860,-8978.00,-452.00,-711.00,656.00,-4696.00,18284.00,-2528.00
20877,-9024.00,-311.00,-759.00,768.00,-4712.00,17940.00,-2512.00
20893,-8731.00,-172.00,-626.00,392.00,-4964.00,17732.00,-2496.00
20910,-7703.00,-608.00,-749.00,332.00,-5304.00,17580.00,-2496.00
20927,-6507.00,-711.00,-744.00,360.00,-5676.00,17172.00,-2544.00
20943,-5471.00,-613.00,-567.00,596.00,-5924.00,17604.00,-2528.00
20960,-4863.00,-432.00,-578.00,584.00,-6152.00,17796.00,-2544.00
20976,-4235.00,-394.00,-492.00,752.00,-6232.00,17668.00,-2496.00
20994,-3693.00,-81.00,-377.00,876.00,-6296.00,17968.00,-2512.00
21010,-3329.00,81.00,-605.00,660.00,-6724.00,17784.00,-2528.00
21026,-2923.00,-402.00,-939.00,1028.00,-6776.00,17932.00,-2544.00
21043,-2925.00,-148.00,-1113.00,408.00,-7380.00,16544.00,-2528.00
21060,-2797.00,-595.00,-990.00,656.00,-6932.00,17052.00,-2528.00
21076,-2662.00,-397.00,-646.00,416.00,-6956.00,17120.00,-2512.00
21093,-1792.00,-61.00,-514.00,680.00,-6976.00,17316.00,-2528.00
21109,-651.00,-68.00,-450.00,684.00,-7284.00,17008.00,-2480.00
21126,108.00,-141.00,-662.00,624.00,-7536.00,17192.00,-2512.00
21143,881.00,-264.00,-763.00,808.00,-7196.00,17144.00,-2528.00
21159,1775.00,-63.00,-576.00,668.00,-7100.00,17184.00,-2496.00
21176,2830.00,102.00,-503.00,740.00,-6968.00,17176.00,-2544.00
21192,3872.00,295.00,-159.00,792.00,-6680.00,17280.00,-2512.00
21209,5167.00,596.00,264.00,680.00,-6664.00,17092.00,-2512.00
21226,6157.00,625.00,385.00,708.00,-6796.00,17412.00,-2528.00
21242,6729.00,738.00,318.00,636.00,-6704.00,17412.00,-2512.00
21259,7104.00,664.00,186.00,500.00,-6564.00,17588.00,-2496.00
21275,7863.00,853.00,-41.00,616.00,-5956.00,17612.00,-2512.00
21293,8258.00,256.00,271.00,380.00,-5696.00,17548.00,-2544.00
21309,8336.00,-212.00,66.00,372.00,-5492.00,17632.00,-2496.00
21325,8635.00,80.00,-46.00,716.00,-4904.00,17924.00,-2544.00
21342,9337.00,599.00,182.00,656.00,-4596.00,17828.00,-2480.00
21358,9766.00,447.00,180.00,344.00,-4168.00,17760.00,-2512.00
21376,10434.00,795.00,122.00,528.00,-3900.00,18036.00,-2480.00
21392,10533.00,870.00,75.00,420.00,-3588.00,18152.00,-2528.00
21408,10555.00,555.00,10.00,252.00,-3192.00,18308.00,-2512.00
21425,10387.00,97.00,-58.00,352.00,-2988.00,18508.00,-2528.00
21441,10065.00,208.00,150.00,716.00,-2088.00,18704.00,-2528.00
21458,9853.00,666.00,811.00,900.00,-1680.00,18392.00,-2496.00
21475,9534.00,1323.00,1445.00,708.00,-1824.00,19016.00,-2512.00
21491,9384.00,1892.00,1647.00,476.00,-1580.00,18876.00,-2528.00
21509,9474.00,1595.00,1270.00,216.00,-1368.00,18704.00,-2496.00
21525,8804.00,1072.00,667.00,280.00,-1084.00,19256.00,-2496.00
21541,8134.00,727.00,-200.00,172.00,-692.00,19040.00,-2512.00
21558,8228.00,725.00,-776.00,220.00,208.00,18548.00,-2544.00
21574,8659.00,919.00,-518.00,112.00,660.00,18436.00,-2528.00
21592,9005.00,883.00,-62.00,96.00,620.00,18396.00,-2528.00
21608,8814.00,828.00,579.00,-296.00,776.00,18160.00,-2528.00
21624,8650.00,758.00,614.00,28.00,1088.00,18720.00,-2544.00
21641,9037.00,1565.00,414.00,32.00,1440.00,18596.00,-2480.00
21657,9490.00,1364.00,30.00,-204.00,1984.00,18448.00,-2544.00
21673,9632.00,875.00,-299.00,-60.00,2284.00,18224.00,-2512.00
21691,9813.00,701.00,-322.00,-184.00,2588.00,18304.00,-2512.00
21707,9619.00,-165.00,-415.00,-388.00,3848.00,17112.00,-2496.00
21724,10201.00,1109.00,-298.00,44.00,3124.00,18512.00,-2544.00
21740,9718.00,780.00,-226.00,-268.00,3476.00,18680.00,-2496.00
21757,9147.00,886.00,-381.00,-352.00,3884.00,18284.00,-2544.00
21774,8991.00,912.00,-336.00,-164.00,4312.00,17900.00,-2528.00
21790,9159.00,939.00,-427.00,-40.00,4792.00,17948.00,-2512.00
21807,9606.00,865.00,-406.00,-152.00,5000.00,17804.00,-2528.00
21823,9843.00,488.00,-434.00,-404.00,4936.00,17660.00,-2512.00
21840,9766.00,465.00,-534.00,-584.00,5368.00,17760.00,-2496.00
21857,9539.00,1156.00,-909.00,-624.00,5740.00,17900.00,-2544.00
21873,9018.00,1105.00,-1059.00,-408.00,6344.00,17556.00,-2528.00
21891,8245.00,484.00,-305.00,-596.00,6516.00,17364.00,-2496.00
21907,7242.00,235.00,557.00,-848.00,6600.00,17068.00,-2512.00
21923,6442.00,470.00,515.00,-664.00,6880.00,17244.00,-2544.00
21940,5816.00,646.00,-97.00,-432.00,7160.00,17124.00,-2512.00
21956,5214.00,717.00,-444.00,-496.00,7140.00,17028.00,-2576.00
21974,4840.00,700.00,-180.00,-676.00,7476.00,16436.00,-2528.00
21990,4058.00,608.00,-9.00,-872.00,7696.00,16636.00,-2544.00
22006,2948.00,488.00,-132.00,-744.00,7996.00,17188.00,-2512.00
22023,1843.00,231.00,-96.00,-240.00,8012.00,16924.00,-2528.00
22039,1165.00,83.00,-105.00,-372.00,7924.00,16460.00,-2512.00
22056,410.00,87.00,-327.00,-456.00,8044.00,16824.00,-2512.00
22073,-759.00,-247.00,-196.00,-652.00,7856.00,16560.00,-2512.00
22089,-1868.00,-222.00,-87.00,-876.00,7840.00,16360.00,-2528.00
22106,-2992.00,-252.00,-78.00,-740.00,7676.00,16600.00,-2544.00
22122,-4031.00,210.00,-198.00,-532.00,7668.00,16808.00,-2512.00
22138,-5128.00,304.00,-226.00,-532.00,7580.00,16876.00,-2528.00
22156,-6179.00,-103.00,-168.00,-552.00,7344.00,16880.00,-2512.00
22172,-6955.00,67.00,-112.00,-732.00,7064.00,17032.00,-2528.00
22189,-7760.00,-197.00,-187.00,-532.00,6916.00,17084.00,-2512.00
22205,-8124.00,-349.00,-241.00,-440.00,6740.00,17196.00,-2496.00
22222,-8623.00,-556.00,-102.00,-560.00,6484.00,17580.00,-2512.00
22239,-8878.00,-569.00,-173.00,-532.00,6052.00,17244.00,-2528.00
22255,-9093.00,-811.00,-554.00,-552.00,5860.00,17380.00,-2512.00
22272,-8992.00,-496.00,-740.00,-464.00,5428.00,17632.00,-2496.00
22289,-9214.00,-359.00,-641.00,-388.00,4528.00,18196.00,-2512.00
22305,-9026.00,-706.00,-983.00,-376.00,4744.00,17684.00,-2528.00
22322,-8689.00,-766.00,-1642.00,-244.00,4432.00,18192.00,-2512.00
22338,-8751.00,-844.00,-2052.00,-412.00,3920.00,18700.00,-2512.00
22355,-9375.00,-1303.00,-2180.00,-420.00,3592.00,18592.00,-2528.00
22372,-10168.00,-2041.00,-2226.00,-420.00,3296.00,18548.00,-2496.00
22388,-10658.00,-1673.00,-1739.00,-272.00,3236.00,18312.00,-2560.00
22406,-10928.00,-1738.00,-1252.00,-340.00,2656.00,18536.00,-2544.00
22422,-10988.00,-1642.00,-1055.00,-284.00,2348.00,18256.00,-2544.00
22439,-10594.00,-1824.00,-508.00,228.00,1808.00,18564.00,-2512.00
22456,-10333.00,-2083.00,-286.00,-32.00,1136.00,18428.00,-2512.00
22472,-9991.00,-1708.00,-258.00,-88.00,944.00,18580.00,-2496.00
22489,-10048.00,-1129.00,-293.00,-140.00,588.00,18788.00,-2512.00
22506,-9835.00,-799.00,-483.00,184.00,-72.00,18928.00,-2528.00
22522,-9490.00,-510.00,-727.00,100.00,-88.00,19192.00,-2512.00
22539,-8755.00,-529.00,-776.00,224.00,-528.00,18632.00,-2480.00
22555,-8273.00,-439.00,-422.00,64.00,-844.00,18620.00,-2480.00
22572,-8034.00,-30.00,367.00,196.00,-892.00,18564.00,-2528.00
22588,-8074.00,65.00,916.00,64.00,-1516.00,18532.00,-2528.00
22605,-8100.00,215.00,514.00,152.00,-1844.00,18744.00,-2496.00
22622,-7991.00,-214.00,-161.00,288.00,-2184.00,18848.00,-2512.00
22638,-8416.00,-546.00,-825.00,112.00,-2500.00,18916.00,-2528.00
22654,-9349.00,-557.00,-1124.00,420.00,-2700.00,18704.00,-2512.00
22672,-10713.00,-204.00,-778.00,380.00,-2852.00,18624.00,-2544.00
22688,-12277.00,-247.00,-432.00,288.00,-3460.00,18696.00,-2528.00
22705,-13122.00,-939.00,-746.00,400.00,-4048.00,18344.00,-2528.00
22721,-13609.00,-1294.00,-977.00,420.00,-4436.00,18144.00,-2512.00
22738,-13820.00,-1881.00,-1180.00,600.00,-4624.00,17924.00,-2544.00
22755,-14299.00,-1789.00,-1252.00,324.00,-5220.00,17492.00,-2512.00
22772,-13403.00,-1606.00,-954.00,388.00,-5372.00,17160.00,-2496.00
22789,-11406.00,-1335.00,-697.00,348.00,-6024.00,17144.00,-2512.00
22805,-8749.00,-1184.00,-413.00,344.00,-6224.00,17036.00,-2512.00
22822,-6239.00,-613.00,-12.00,348.00,-6796.00,16988.00,-2512.00
22839,-4395.00,-597.00,263.00,340.00,-7004.00,16876.00,-2512.00
22855,-3112.00,-533.00,105.00,400.00,-7116.00,17060.00,-2528.00
22872,-2209.00,-568.00,-331.00,548.00,-7316.00,17248.00,-2512.00
22888,-1374.00,-471.00,-534.00,660.00,-7368.00,17040.00,-2512.00
22905,-1262.00,-556.00,-236.00,776.00,-7400.00,17132.00,-2528.00
22922,-1234.00,-503.00,-185.00,840.00,-7524.00,17172.00,-2544.00
22938,-1129.00,-505.00,-360.00,1012.00,-7488.00,17012.00,-2512.00
22955,-1012.00,-215.00,-373.00,984.00,-7432.00,16996.00,-2512.00
22972,-1093.00,-165.00,-343.00,800.00,-7456.00,16784.00,-2528.00
22988,-1019.00,-5.00,-381.00,696.00,-7432.00,16672.00,-2480.00
23005,-947.00,-244.00,-142.00,828.00,-7844.00,16684.00,-2512.00
23021,-746.00,-29.00,-89.00,724.00,-7956.00,16768.00,-2528.00
23037,34.00,-95.00,-25.00,1060.00,-7768.00,16860.00,-2496.00
23054,659.00,143.00,161.00,940.00,-7612.00,16868.00,-2480.00
23071,1531.00,202.00,135.00,664.00,-7788.00,16896.00,-2528.00
23088,2543.00,268.00,-78.00,592.00,-7972.00,16868.00,-2544.00
23104,3742.00,489.00,-259.00,812.00,-7624.00,17008.00,-2480.00
23120,4587.00,689.00,-65.00,500.00,-7476.00,16980.00,-2528.00
23137,5638.00,536.00,-20.00,188.00,-7268.00,16756.00,-2512.00
23154,6537.00,61.00,-169.00,344.00,-7308.00,17136.00,-2512.00
23171,7742.00,83.00,-223.00,540.00,-6976.00,17076.00,-2512.00
23187,8469.00,-321.00,-334.00,408.00,-6632.00,17208.00,-2496.00
23203,9619.00,30.00,-809.00,808.00,-6140.00,17632.00,-2512.00
23220,11059.00,421.00,-990.00,800.00,-5680.00,17872.00,-2512.00
23237,12513.00,437.00,-1054.00,672.00,-5108.00,17516.00,-2544.00
23254,13479.00,821.00,-590.00,820.00,-4764.00,18280.00,-2464.00
23270,13234.00,999.00,290.00,1060.00,-4308.00,18284.00,-2528.00
23287,13108.00,1665.00,1083.00,908.00,-3940.00,18568.00,-2480.00
23304,13101.00,1234.00,1344.00,268.00,-3392.00,18004.00,-2512.00
23320,13670.00,1190.00,1551.00,396.00,-2844.00,17844.00,-2544.00
23337,14329.00,1664.00,1638.00,624.00,-2424.00,18428.00,-2528.00
23354,14122.00,1169.00,1476.00,384.00,-2288.00,18580.00,-2496.00
23370,13430.00,416.00,1083.00,428.00,-1732.00,18572.00,-2496.00
23388,12626.00,224.00,909.00,352.00,-908.00,18620.00,-2544.00
23404,12607.00,1083.00,791.00,708.00,-436.00,18956.00,-2496.00
23420,12361.00,1326.00,1004.00,660.00,-128.00,19008.00,-2496.00
23438,11872.00,1128.00,1028.00,352.00,416.00,18992.00,-2480.00
23454,10954.00,559.00,1069.00,-32.00,608.00,18764.00,-2512.00
23471,10300.00,87.00,892.00,20.00,1104.00,18316.00,-2528.00
23487,10311.00,665.00,751.00,200.00,1440.00,18268.00,-2496.00
23503,10767.00,1399.00,536.00,212.00,1964.00,18040.00,-2512.00
23521,10870.00,963.00,312.00,56.00,2428.00,18096.00,-2512.00
23537,10467.00,604.00,357.00,-64.00,2784.00,18396.00,-2496.00
23554,9918.00,531.00,184.00,-184.00,2740.00,18188.00,-2496.00
23570,9434.00,529.00,-65.00,-168.00,3392.00,18320.00,-2544.00
23587,9865.00,774.00,-608.00,-36.00,4008.00,17708.00,-2528.00
23604,10513.00,1185.00,-510.00,84.00,4316.00,17580.00,-2528.00
23620,10486.00,1443.00,-169.00,44.00,4620.00,18240.00,-2512.00
23636,9435.00,974.00,134.00,-104.00,4808.00,18192.00,-2512.00
23654,8822.00,909.00,198.00,-200.00,5312.00,17752.00,-2512.00
23670,8475.00,662.00,136.00,-196.00,5528.00,17492.00,-2528.00
23687,8336.00,905.00,-237.00,-184.00,5880.00,17656.00,-2512.00
23703,7913.00,1095.00,-647.00,8.00,6256.00,18052.00,-2496.00
23719,7148.00,929.00,-361.00,-76.00,6588.00,17384.00,-2480.00
23737,6464.00,1112.00,255.00,8.00,6380.00,17520.00,-2512.00
23753,4962.00,544.00,389.00,-340.00,6456.00,17956.00,-2512.00
23770,3601.00,24.00,-197.00,-516.00,6824.00,17648.00,-2528.00
23786,2916.00,76.00,-718.00,-304.00,7016.00,16900.00,-2480.00
23802,2400.00,306.00,-582.00,-144.00,7804.00,16620.00,-2512.00
23820,1456.00,248.00,-117.00,-244.00,7124.00,17140.00,-2496.00
23836,49.00,8.00,-41.00,-436.00,7008.00,17300.00,-2512.00
23853,-1075.00,-117.00,-141.00,-504.00,6960.00,16928.00,-2528.00
23869,-2097.00,-190.00,-211.00,-604.00,6956.00,17108.00,-2544.00
23885,-3058.00,170.00,-144.00,-628.00,6956.00,17072.00,-2544.00
23902,-3947.00,198.00,18.00,-80.00,7096.00,17124.00,-2512.00
23919,-4843.00,67.00,227.00,-212.00,6964.00,17328.00,-2512.00
23936,-5399.00,71.00,38.00,-244.00,6580.00,17168.00,-2480.00
23952,-6339.00,-156.00,38.00,-516.00,6176.00,17556.00,-2480.00
23968,-7116.00,-31.00,22.00,-484.00,6160.00,17400.00,-2480.00
23985,-7589.00,-117.00,58.00,-292.00,5768.00,17396.00,-2528.00
24001,-7992.00,-367.00,146.00,-308.00,5628.00,17524.00,-2528.00
24018,-8177.00,-410.00,-60.00,-304.00,5264.00,17700.00,-2544.00
24035,-8118.00,-333.00,-389.00,-144.00,5116.00,17880.00,-2512.00
24051,-7967.00,-180.00,-650.00,-476.00,4652.00,18188.00,-2496.00
24068,-8124.00,-183.00,-1138.00,-352.00,4420.00,18188.00,-2512.00
24085,-8397.00,-327.00,-1293.00,-84.00,4324.00,18116.00,-2512.00
24101,-8645.00,-690.00,-977.00,-84.00,4020.00,18148.00,-2496.00
24118,-8847.00,-955.00,-625.00,8.00,3572.00,18196.00,-2496.00
24134,-9179.00,-927.00,-122.00,44.00,3120.00,18772.00,-2512.00
24151,-9534.00,-996.00,-262.00,-316.00,2692.00,18708.00,-2544.00
24168,-9827.00,-1192.00,-415.00,-320.00,2360.00,18368.00,-2528.00
24184,-10024.00,-374.00,-490.00,-308.00,1988.00,18468.00,-2528.00
24201,-10215.00,-294.00,-683.00,-316.00,1700.00,18316.00,-2512.00
24217,-9940.00,-196.00,-929.00,176.00,1436.00,18484.00,-2528.00
24235,-9594.00,-127.00,-384.00,272.00,1104.00,19116.00,-2512.00
24251,-9759.00,-435.00,-358.00,4.00,588.00,18892.00,-2528.00
24267,-9901.00,-482.00,-254.00,-8.00,232.00,18660.00,-2496.00
24284,-9657.00,12.00,-607.00,-144.00,-232.00,19016.00,-2512.00
24300,-9881.00,-676.00,-1156.00,-228.00,-720.00,19104.00,-2528.00
24316,-10231.00,-923.00,-1271.00,-124.00,-1296.00,18724.00,-2512.00
24334,-10507.00,-728.00,-998.00,116.00,-1436.00,18792.00,-2480.00
24350,-10500.00,-760.00,-468.00,-32.00,-1724.00,18548.00,-2496.00
24367,-10458.00,-851.00,161.00,-244.00,-2012.00,17852.00,-2512.00
24384,-10874.00,-716.00,360.00,-20.00,-2392.00,18288.00,-2544.00
24400,-10495.00,-285.00,-323.00,116.00,-3044.00,18336.00,-2512.00
24417,-9790.00,-672.00,-1193.00,212.00,-3492.00,18320.00,-2512.00
24433,-9204.00,-740.00,-1442.00,312.00,-3652.00,18516.00,-2496.00
24451,-9068.00,-509.00,-1116.00,224.00,-3860.00,18240.00,-2560.00
24467,-9529.00,-677.00,-528.00,204.00,-3856.00,17960.00,-2512.00
24483,-9395.00,-187.00,-106.00,180.00,-4208.00,17832.00,-2528.00
24500,-9200.00,-396.00,-524.00,440.00,-4980.00,18380.00,-2512.00
24517,-9517.00,-982.00,-1519.00,168.00,-5840.00,18072.00,-2496.00
24534,-10087.00,-1266.00,-2157.00,248.00,-5708.00,17944.00,-2512.00
24550,-9347.00,-1134.00,-1856.00,552.00,-5344.00,17456.00,-2528.00
24567,-8840.00,-758.00,-971.00,396.00,-5644.00,16996.00,-2512.00
24584,-8099.00,-445.00,-389.00,420.00,-6576.00,17080.00,-2528.00
24600,-7211.00,-456.00,-582.00,540.00,-7032.00,17084.00,-2528.00
24616,-5773.00,-629.00,-1101.00,360.00,-7080.00,16896.00,-2544.00
24634,-4713.00,-651.00,-1217.00,912.00,-7232.00,17208.00,-2528.00
24650,-3729.00,-679.00,-1138.00,704.00,-7364.00,17088.00,-2480.00
24667,-2603.00,-680.00,-1034.00,780.00,-7448.00,16952.00,-2512.00
24684,-1274.00,-587.00,-879.00,696.00,-7712.00,16836.00,-2528.00
24700,9.00,-496.00,-772.00,828.00,-7700.00,16996.00,-2512.00
24717,1161.00,-281.00,-486.00,1108.00,-7696.00,17052.00,-2512.00
24733,2208.00,8.00,-475.00,736.00,-7908.00,17036.00,-2496.00
24750,3230.00,-130.00,-598.00,796.00,-7580.00,17036.00,-2544.00
24767,4011.00,98.00,-183.00,752.00,-7152.00,17448.00,-2528.00
24783,4516.00,151.00,123.00,608.00,-7244.00,17188.00,-2528.00
24800,4941.00,-102.00,38.00,572.00,-7228.00,17060.00,-2480.00
24816,6150.00,-468.00,-350.00,884.00,-6924.00,17000.00,-2480.00
24833,7470.00,-495.00,-963.00,720.00,-6836.00,17072.00,-2496.00
24850,8689.00,-538.00,-1554.00,596.00,-6592.00,17308.00,-2544.00
24866,9608.00,-563.00,-1785.00,712.00,-5984.00,17412.00,-2512.00
24883,10030.00,-520.00,-1422.00,896.00,-5604.00,17628.00,-2496.00
24900,10224.00,-678.00,-863.00,1248.00,-5028.00,17864.00,-2496.00
24916,10150.00,-1031.00,-235.00,932.00,-4916.00,17840.00,-2528.00
24933,9439.00,-1611.00,-73.00,720.00,-4836.00,17976.00,-2512.00
24950,9664.00,-1133.00,-448.00,1048.00,-4340.00,18144.00,-2528.00
24967,10045.00,-732.00,-641.00,1312.00,-3792.00,18504.00,-2496.00
24983,10505.00,-229.00,-509.00,1660.00,-3020.00,18424.00,-2496.00
25000,10538.00,-86.00,9.00,1844.00,-2656.00,18488.00,-2512.00
25017,10090.00,-234.00,312.00,1568.00,-2800.00,18724.00,-2528.00
25033,9980.00,379.00,54.00,1348.00,-2208.00,18644.00,-2496.00
25050,10067.00,616.00,-121.00,1044.00,-2156.00,18676.00,-2512.00
25067,10004.00,1415.00,-80.00,1180.00,-2088.00,19044.00,-2512.00
25083,9637.00,1696.00,95.00,1196.00,-1528.00,18696.00,-2528.00
25100,9370.00,1631.00,298.00,1016.00,-988.00,18288.00,-2480.00
25116,9345.00,665.00,270.00,844.00,-576.00,18416.00,-2512.00
25134,9172.00,970.00,158.00,744.00,-564.00,18644.00,-2480.00
25150,8977.00,491.00,-129.00,764.00,-44.00,18552.00,-2496.00
25166,9360.00,710.00,-325.00,1012.00,680.00,18276.00,-2496.00
25183,9733.00,612.00,-195.00,740.00,1192.00,18432.00,-2496.00
25199,9756.00,1352.00,-166.00,700.00,1092.00,19124.00,-2512.00
25217,9278.00,1000.00,-40.00,604.00,1292.00,18832.00,-2544.00
25233,9017.00,824.00,-40.00,716.00,1780.00,19088.00,-2512.00
25249,9075.00,490.00,-89.00,724.00,2260.00,18612.00,-2528.00
25266,10006.00,638.00,-342.00,1020.00,2712.00,18216.00,-2528.00
25283,11036.00,1975.00,30.00,816.00,3076.00,18052.00,-2528.00
25299,11052.00,1381.00,69.00,12.00,2892.00,18396.00,-2512.00
25316,10539.00,744.00,-413.00,84.00,3448.00,18428.00,-2496.00
25332,10175.00,722.00,-398.00,452.00,4264.00,18076.00,-2512.00
25349,10460.00,1319.00,293.00,904.00,4844.00,17692.00,-2496.00
25366,10583.00,1913.00,1063.00,624.00,4708.00,18112.00,-2496.00
25382,9859.00,1158.00,1467.00,316.00,4664.00,18140.00,-2496.00
25399,9307.00,595.00,1219.00,256.00,5168.00,17512.00,-2512.00
25416,9593.00,443.00,452.00,176.00,5792.00,16860.00,-2512.00
25433,10304.00,592.00,37.00,580.00,6012.00,17304.00,-2512.00
25449,10001.00,753.00,-52.00,128.00,6068.00,17600.00,-2496.00
25465,9160.00,1159.00,-407.00,168.00,6468.00,18100.00,-2512.00
25483,7478.00,981.00,-494.00,540.00,7256.00,17852.00,-2496.00
25499,6345.00,641.00,-82.00,716.00,7548.00,17040.00,-2512.00
25516,5913.00,804.00,539.00,380.00,7668.00,16672.00,-2496.00
25532,5709.00,739.00,557.00,64.00,7524.00,16808.00,-2512.00
25548,5439.00,642.00,107.00,112.00,7548.00,17092.00,-2512.00
25566,4895.00,626.00,-438.00,372.00,7880.00,16784.00,-2496.00
25582,4813.00,883.00,-499.00,524.00,8448.00,16164.00,-2480.00
25598,4842.00,871.00,-275.00,-40.00,8288.00,16100.00,-2528.00
25615,4591.00,688.00,-492.00,-28.00,8332.00,16500.00,-2496.00
25631,4022.00,840.00,-1021.00,-68.00,8636.00,16580.00,-2480.00
25649,3199.00,1079.00,-1118.00,136.00,8792.00,16376.00,-2496.00
25665,1974.00,1023.00,-476.00,324.00,8912.00,16436.00,-2512.00
25681,523.00,588.00,122.00,48.00,8860.00,16344.00,-2496.00
25698,-716.00,383.00,555.00,-140.00,8544.00,15924.00,-2528.00
25715,-1996.00,467.00,651.00,-172.00,8372.00,16132.00,-2512.00
25732,-3031.00,-10.00,428.00,-296.00,8564.00,16172.00,-2528.00
25748,-3620.00,-73.00,-99.00,-56.00,8488.00,16108.00,-2496.00
25764,-4022.00,170.00,-343.00,-176.00,8780.00,16100.00,-2496.00
25781,-4151.00,426.00,-604.00,60.00,8400.00,16348.00,-2512.00
25797,-4552.00,108.00,-584.00,280.00,8444.00,16152.00,-2528.00
25815,-4966.00,-43.00,-265.00,132.00,8008.00,16716.00,-2544.00
25831,-5701.00,-114.00,-305.00,-160.00,7728.00,16828.00,-2544.00
25847,-6106.00,-170.00,-616.00,-192.00,7652.00,16828.00,-2528.00
25864,-6311.00,-108.00,-819.00,36.00,7632.00,16760.00,-2512.00
25881,-6436.00,-113.00,-876.00,-200.00,7272.00,16652.00,-2496.00
25897,-6469.00,-152.00,-988.00,48.00,6760.00,17012.00,-2512.00
25914,-6809.00,171.00,-1176.00,56.00,6508.00,17568.00,-2480.00
25930,-7182.00,-20.00,-1277.00,108.00,6508.00,17808.00,-2496.00
25947,-7736.00,-207.00,-1388.00,48.00,6420.00,17708.00,-2512.00
25964,-8276.00,-369.00,-1177.00,84.00,6120.00,17448.00,-2464.00
25980,-8185.00,6.00,-1022.00,-12.00,5820.00,17564.00,-2512.00
25997,-8077.00,-404.00,-913.00,-76.00,5256.00,17556.00,-2480.00
26013,-7964.00,-943.00,-989.00,-312.00,4864.00,17644.00,-2496.00
26030,-8038.00,-849.00,-1236.00,-448.00,4768.00,18176.00,-2512.00
26047,-7980.00,-869.00,-1412.00,-80.00,4276.00,18308.00,-2496.00
26063,-7977.00,-1116.00,-1075.00,-24.00,4368.00,17876.00,-2512.00
26080,-7523.00,-974.00,-695.00,288.00,4096.00,18112.00,-2512.00
26096,-7282.00,-923.00,-377.00,-24.00,3460.00,18256.00,-2496.00
26114,-7049.00,-999.00,-502.00,-60.00,3340.00,18288.00,-2480.00
26130,-7083.00,-860.00,-702.00,76.00,3104.00,18712.00,-2480.00
26146,-7365.00,-946.00,-1042.00,268.00,2884.00,18604.00,-2496.00
26163,-7759.00,-1062.00,-714.00,64.00,2624.00,18316.00,-2512.00
26180,-8085.00,-1048.00,-517.00,244.00,2604.00,18232.00,-2496.00
26196,-7672.00,-341.00,-515.00,352.00,2260.00,18652.00,-2480.00
26213,-7379.00,-440.00,-434.00,268.00,1624.00,18576.00,-2480.00
26229,-7020.00,-401.00,-313.00,184.00,1320.00,18608.00,-2464.00
26247,-6950.00,-493.00,-391.00,204.00,944.00,18648.00,-2512.00
26263,-6774.00,-660.00,-467.00,304.00,732.00,18768.00,-2512.00
26279,-6338.00,-350.00,-492.00,416.00,668.00,18608.00,-2464.00
26296,-5839.00,-291.00,-362.00,332.00,720.00,18400.00,-2496.00
26312,-5617.00,-249.00,-379.00,180.00,256.00,18904.00,-2512.00
26329,-6116.00,-355.00,-350.00,468.00,-16.00,18864.00,-2512.00
26346,-6580.00,-366.00,13.00,160.00,-132.00,18592.00,-2496.00
26362,-6723.00,-111.00,143.00,128.00,-660.00,18732.00,-2480.00
26379,-6823.00,-29.00,65.00,240.00,-864.00,18608.00,-2496.00
26395,-6353.00,-91.00,-119.00,136.00,-828.00,18356.00,-2512.00
26412,-5229.00,-18.00,-214.00,376.00,-968.00,18296.00,-2528.00
26428,-4168.00,-76.00,-261.00,380.00,-1624.00,18356.00,-2496.00
26444,-3424.00,-225.00,-376.00,316.00,-1696.00,18512.00,-2480.00
26462,-2483.00,-197.00,-634.00,196.00,-1692.00,18732.00,-2528.00
26478,-1310.00,-378.00,-877.00,512.00,-1320.00,18680.00,-2512.00
26494,23.00,-275.00,-1098.00,456.00,-1592.00,18276.00,-2496.00
26511,1002.00,-129.00,-1048.00,540.00,-1652.00,18644.00,-2496.00
26528,1705.00,-35.00,-891.00,556.00,-1652.00,18996.00,-2480.00
26545,2175.00,246.00,-741.00,368.00,-1560.00,18600.00,-2496.00
26561,2622.00,14.00,-621.00,332.00,-1520.00,19112.00,-2512.00
26577,2376.00,-20.00,-439.00,504.00,-1536.00,19064.00,-2512.00
26594,2381.00,20.00,-114.00,504.00,-1020.00,18776.00,-2496.00
26611,2592.00,150.00,-519.00,720.00,-1468.00,19244.00,-2528.00
26628,2604.00,240.00,-1090.00,584.00,-1460.00,19036.00,-2480.00
26644,2485.00,211.00,-1437.00,628.00,-1032.00,18764.00,-2512.00
26660,2578.00,118.00,-526.00,364.00,-636.00,18460.00,-2496.00
26678,2529.00,29.00,50.00,592.00,-988.00,18668.00,-2528.00
26694,2325.00,-31.00,68.00,532.00,-884.00,18940.00,-2496.00
26711,2196.00,-257.00,198.00,500.00,-740.00,18624.00,-2480.00
26727,1896.00,-418.00,141.00,268.00,-520.00,18656.00,-2528.00
26743,1593.00,-557.00,38.00,220.00,-456.00,18576.00,-2528.00
26760,1511.00,-270.00,-344.00,308.00,-576.00,18784.00,-2512.00
26776,1363.00,-552.00,-819.00,308.00,-476.00,18592.00,-2512.00
26793,1167.00,-568.00,-1064.00,372.00,-608.00,18724.00,-2496.00
26810,1053.00,-810.00,-1164.00,256.00,-236.00,18436.00,-2512.00
26826,973.00,-607.00,-945.00,648.00,-80.00,18948.00,-2512.00
26843,1001.00,-19.00,-546.00,672.00,-308.00,18692.00,-2512.00
26859,1159.00,24.00,-884.00,344.00,-420.00,18440.00,-2448.00
26875,1371.00,142.00,-1184.00,376.00,-504.00,18748.00,-2496.00
26893,1384.00,197.00,-1189.00,624.00,-264.00,18900.00,-2480.00
26909,1521.00,93.00,-970.00,596.00,-148.00,18708.00,-2496.00
26926,1640.00,364.00,-1055.00,888.00,36.00,18860.00,-2464.00
26942,1847.00,374.00,-1010.00,680.00,20.00,18892.00,-2528.00
26958,1854.00,772.00,-1192.00,872.00,-108.00,19064.00,-2496.00
26976,1784.00,882.00,-1332.00,508.00,-80.00,18956.00,-2512.00
26992,1187.00,305.00,-884.00,272.00,264.00,18756.00,-2496.00
27009,884.00,316.00,-705.00,-36.00,572.00,18640.00,-2528.00
27025,806.00,278.00,-705.00,584.00,388.00,18548.00,-2464.00
27041,865.00,59.00,-772.00,552.00,604.00,18996.00,-2496.00
27058,246.00,-599.00,-549.00,464.00,496.00,19208.00,-2496.00
27074,-1343.00,-3591.00,183.00,-120.00,1752.00,24120.00,-2480.00
27091,-1578.00,-2040.00,862.00,1048.00,-48.00,17476.00,-2512.00
27108,-377.00,-1354.00,438.00,-96.00,156.00,18152.00,-2496.00
27124,391.00,-422.00,-385.00,428.00,36.00,18420.00,-2464.00
27141,433.00,157.00,-968.00,400.00,-220.00,18340.00,-2496.00
27157,489.00,496.00,-913.00,1024.00,-32.00,18668.00,-2464.00
27173,175.00,-157.00,-308.00,820.00,300.00,18708.00,-2464.00
27190,299.00,-345.00,-64.00,532.00,628.00,19280.00,-2528.00
27206,-455.00,-398.00,-318.00,852.00,172.00,19480.00,-2496.00
27224,-517.00,-242.00,-241.00,1144.00,-496.00,18412.00,-2496.00
27240,141.00,-194.00,-125.00,1192.00,-380.00,18036.00,-2464.00
27256,485.00,-587.00,391.00,668.00,-168.00,18624.00,-2448.00
27273,-37.00,-60.00,-467.00,452.00,348.00,19100.00,-2512.00
27289,-227.00,-435.00,-184.00,1212.00,740.00,19076.00,-2528.00
27305,-591.00,-1094.00,359.00,1120.00,300.00,19168.00,-2512.00
27323,-423.00,-979.00,388.00,1060.00,-224.00,18400.00,-2544.00
27339,185.00,-153.00,-50.00,896.00,-444.00,18196.00,-2496.00
27356,697.00,702.00,-616.00,968.00,-24.00,18544.00,-2480.00
27372,362.00,341.00,-371.00,1176.00,580.00,19484.00,-2480.00
27388,-104.00,-729.00,445.00,820.00,484.00,18896.00,-2480.00
27405,-118.00,-893.00,588.00,808.00,68.00,18560.00,-2528.00
27421,-116.00,-916.00,517.00,868.00,132.00,18828.00,-2480.00
27438,72.00,-769.00,414.00,796.00,172.00,18800.00,-2496.00
27454,77.00,-20.00,-491.00,836.00,-68.00,18816.00,-2512.00
27470,80.00,141.00,-374.00,1720.00,-24.00,18888.00,-2528.00
27488,146.00,-468.00,526.00,1460.00,140.00,18876.00,-2464.00
27504,-122.00,-742.00,770.00,720.00,208.00,18752.00,-2464.00
27521,-1.00,-717.00,465.00,620.00,216.00,18612.00,-2464.00
27537,-1.00,-795.00,411.00,968.00,108.00,18620.00,-2464.00
27553,-68.00,-689.00,301.00,1024.00,108.00,18900.00,-2480.00
27570,-244.00,-427.00,144.00,1100.00,-92.00,18820.00,-2512.00
27586,-61.00,48.00,-173.00,1036.00,-160.00,18452.00,-2480.00
27602,20.00,104.00,-230.00,1108.00,-64.00,18640.00,-2512.00
27619,268.00,64.00,-205.00,916.00,-220.00,18132.00,-2496.00
27635,396.00,115.00,-313.00,1004.00,172.00,18544.00,-2496.00
27653,284.00,5.00,-228.00,1132.00,52.00,18648.00,-2480.00
27669,126.00,-239.00,-65.00,1264.00,284.00,18820.00,-2512.00
27685,-54.00,-468.00,321.00,1280.00,512.00,19136.00,-2496.00
27702,-441.00,-307.00,74.00,1276.00,212.00,18948.00,-2512.00
27718,-304.00,-647.00,334.00,1508.00,-188.00,18172.00,-2496.00
27735,507.00,-340.00,348.00,1336.00,-200.00,18556.00,-2496.00
27751,433.00,-28.00,194.00,1340.00,-136.00,18984.00,-2480.00
27767,369.00,-17.00,83.00,1068.00,52.00,18708.00,-2480.00
27784,279.00,-135.00,9.00,1044.00,324.00,19064.00,-2528.00
27800,-66.00,83.00,-138.00,972.00,248.00,18840.00,-2480.00
27816,-99.00,170.00,-131.00,2012.00,-20.00,19016.00,-2480.00
27834,50.00,0.00,227.00,1332.00,40.00,18848.00,-2512.00
27849,-70.00,-196.00,375.00,1396.00,88.00,18980.00,-2512.00
27867,-120.00,-353.00,625.00,1336.00,-28.00,18912.00,-2512.00
27883,-634.00,-256.00,527.00,1012.00,-344.00,18536.00,-2480.00
27899,-62.00,-179.00,459.00,1344.00,8.00,18168.00,-2480.00
27916,354.00,-113.00,378.00,704.00,428.00,18920.00,-2496.00
27932,121.00,299.00,-250.00,488.00,136.00,18644.00,-2528.00
27949,293.00,876.00,-795.00,1244.00,12.00,18728.00,-2496.00
27965,174.00,500.00,-465.00,1676.00,152.00,18828.00,-2480.00
27981,215.00,280.00,-101.00,1088.00,168.00,18632.00,-2480.00
27999,79.00,257.00,-330.00,968.00,72.00,18504.00,-2480.00
28015,11.00,28.00,-140.00,1304.00,196.00,18880.00,-2528.00
28032,24.00,-413.00,353.00,1388.00,-24.00,18600.00,-2496.00
28048,352.00,10.00,-217.00,740.00,-476.00,17836.00,-2512.00
28064,761.00,648.00,-760.00,908.00,-100.00,18672.00,-2480.00
28081,454.00,224.00,-461.00,1568.00,412.00,19212.00,-2480.00
28097,95.00,-472.00,247.00,1120.00,372.00,19120.00,-2528.00
28113,-58.00,-389.00,14.00,704.00,-100.00,18448.00,-2480.00
28130,320.00,174.00,-492.00,1144.00,-288.00,17912.00,-2512.00
28146,704.00,267.00,-488.00,1604.00,84.00,18848.00,-2512.00
28164,484.00,-32.00,-144.00,1312.00,644.00,19092.00,-2496.00
28180,72.00,-464.00,155.00,864.00,432.00,19052.00,-2480.00
28196,61.00,-523.00,165.00,980.00,-140.00,18220.00,-2480.00
28213,367.00,-216.00,-41.00,1220.00,-420.00,18364.00,-2512.00
28229,779.00,262.00,-239.00,1040.00,-420.00,18260.00,-2480.00
28246,837.00,282.00,-356.00,1052.00,488.00,19216.00,-2512.00
28262,53.00,-55.00,-269.00,1352.00,1076.00,20048.00,-2496.00
28278,-531.00,-805.00,264.00,1820.00,512.00,18860.00,-2528.00
28296,159.00,-667.00,606.00,1316.00,-56.00,18476.00,-2496.00
28312,527.00,243.00,-357.00,808.00,-168.00,18576.00,-2496.00
28328,850.00,715.00,-799.00,1268.00,4.00,18792.00,-2464.00
28345,672.00,421.00,-411.00,1456.00,352.00,18992.00,-2496.00
28361,308.00,-61.00,-53.00,980.00,560.00,19112.00,-2512.00
28378,88.00,-301.00,106.00,1052.00,252.00,18548.00,-2480.00
28394,-27.00,-400.00,24.00,1092.00,120.00,18680.00,-2496.00
28410,259.00,-291.00,-90.00,1104.00,48.00,18420.00,-2480.00
28427,258.00,-72.00,-287.00,1004.00,12.00,18724.00,-2512.00
28443,-74.00,-251.00,-89.00,1492.00,128.00,18796.00,-2512.00
28461,-252.00,-528.00,261.00,1216.00,152.00,18800.00,-2464.00
28477,-156.00,-278.00,1.00,1196.00,408.00,18684.00,-2480.00
28493,23.00,-107.00,-211.00,1388.00,292.00,18740.00,-2528.00
28510,131.00,-61.00,-115.00,1648.00,124.00,19184.00,-2496.00
28526,40.00,-274.00,215.00,1404.00,112.00,19012.00,-2496.00
28542,20.00,-298.00,275.00,1240.00,416.00,18864.00,-2496.00
28559,66.00,-72.00,42.00,1128.00,164.00,18936.00,-2480.00
28575,381.00,185.00,-119.00,1216.00,-120.00,18432.00,-2496.00
28592,488.00,308.00,-314.00,1264.00,196.00,19100.00,-2464.00
28609,227.00,243.00,-196.00,1420.00,448.00,18968.00,-2480.00
28625,199.00,26.00,20.00,1384.00,412.00,18808.00,-2512.00
28642,254.00,-124.00,68.00,1092.00,112.00,18424.00,-2480.00
28658,437.00,66.00,-54.00,1052.00,-60.00,18492.00,-2496.00
28675,438.00,209.00,-194.00,1172.00,240.00,18792.00,-2496.00
28691,350.00,99.00,-90.00,1368.00,328.00,18728.00,-2528.00
28707,329.00,26.00,-6.00,1328.00,444.00,18852.00,-2496.00
28724,171.00,-144.00,171.00,1300.00,452.00,18660.00,-2512.00
28740,268.00,-9.00,-3.00,1228.00,272.00,18548.00,-2512.00
28756,448.00,4.00,-120.00,1152.00,128.00,18396.00,-2496.00
28773,689.00,240.00,-354.00,1176.00,76.00,18432.00,-2464.00
28790,734.00,367.00,-483.00,1340.00,428.00,18852.00,-2496.00
28807,666.00,416.00,-424.00,1312.00,580.00,18964.00,-2480.00
28823,250.00,-15.00,-151.00,1200.00,744.00,19052.00,-2512.00
28839,20.00,-615.00,293.00,1224.00,436.00,18540.00,-2480.00
28856,222.00,-528.00,218.00,1140.00,64.00,18420.00,-2512.00
28872,340.00,-70.00,-254.00,1032.00,192.00,18560.00,-2480.00
28889,435.00,207.00,-496.00,1340.00,340.00,18800.00,-2480.00
28906,277.00,424.00,-676.00,1184.00,392.00,18728.00,-2496.00
28922,46.00,320.00,-517.00,1624.00,484.00,18948.00,-2496.00
28939,29.00,-16.00,-92.00,1328.00,668.00,18752.00,-2496.00
28955,15.00,17.00,-314.00,996.00,444.00,18604.00,-2480.00
28972,288.00,-7.00,-515.00,1180.00,204.00,18688.00,-2496.00
28988,308.00,5.00,-595.00,1300.00,336.00,18864.00,-2496.00
29004,399.00,-35.00,-389.00,1244.00,596.00,18980.00,-2496.00
29021,361.00,44.00,-273.00,1360.00,468.00,18668.00,-2496.00
29037,268.00,-75.00,-25.00,1412.00,480.00,19000.00,-2496.00
29053,146.00,-108.00,71.00,1320.00,304.00,18908.00,-2512.00
29071,364.00,-47.00,-105.00,1112.00,384.00,18380.00,-2496.00
29087,465.00,235.00,-487.00,1196.00,416.00,18856.00,-2464.00
29104,352.00,445.00,-706.00,1316.00,660.00,19068.00,-2464.00
29120,88.00,142.00,-227.00,1420.00,592.00,18772.00,-2512.00
29136,-8.00,77.00,-228.00,980.00,344.00,18864.00,-2480.00
29153,-74.00,22.00,-293.00,1304.00,504.00,18664.00,-2480.00
29169,-40.00,-146.00,-57.00,1216.00,536.00,18632.00,-2480.00
29186,151.00,1.00,-98.00,1056.00,608.00,18888.00,-2480.00
29202,303.00,635.00,-440.00,888.00,240.00,17988.00,-2464.00
29218,453.00,804.00,-757.00,804.00,256.00,18832.00,-2496.00
29235,-14.00,767.00,-924.00,1500.00,544.00,18836.00,-2512.00
29252,62.00,38.00,-179.00,1412.00,488.00,18416.00,-2512.00
29268,-102.00,-59.00,-150.00,1028.00,552.00,19072.00,-2496.00
29285,-352.00,85.00,-240.00,1216.00,520.00,18928.00,-2464.00
29301,-241.00,-124.00,154.00,1432.00,424.00,18700.00,-2496.00
29318,-131.00,-232.00,349.00,1016.00,348.00,18616.00,-2480.00
29334,-70.00,193.00,-186.00,852.00,88.00,18616.00,-2512.00
29350,204.00,462.00,-559.00,1144.00,24.00,18296.00,-2480.00
29367,305.00,431.00,-361.00,1456.00,208.00,18632.00,-2512.00
29384,90.00,201.00,-46.00,1332.00,456.00,19024.00,-2512.00
29401,-2.00,-351.00,276.00,1380.00,480.00,18424.00,-2480.00
29417,199.00,-555.00,652.00,1072.00,616.00,18824.00,-2512.00
29433,46.00,81.00,33.00,984.00,544.00,19096.00,-2480.00
29450,-37.00,461.00,-461.00,1136.00,724.00,19044.00,-2496.00
29466,-132.00,364.00,-304.00,1188.00,644.00,18908.00,-2496.00
29483,-48.00,169.00,-162.00,1072.00,512.00,18768.00,-2512.00
29499,212.00,146.00,-153.00,1088.00,488.00,18588.00,-2480.00
29516,266.00,213.00,-87.00,1272.00,504.00,19152.00,-2448.00
29533,230.00,315.00,-234.00,1060.00,288.00,18640.00,-2448.00
29549,356.00,450.00,-280.00,1324.00,380.00,18804.00,-2480.00
29565,240.00,235.00,-108.00,1380.00,332.00,18700.00,-2464.00
29582,208.00,258.00,-126.00,924.00,580.00,18772.00,-2464.00
29598,271.00,288.00,-298.00,868.00,280.00,18356.00,-2480.00
29615,374.00,333.00,-483.00,892.00,368.00,18344.00,-2512.00
29631,456.00,345.00,-383.00,916.00,480.00,18728.00,-2480.00
29648,349.00,398.00,-393.00,1096.00,276.00,18792.00,-2480.00
29665,332.00,427.00,-346.00,1196.00,720.00,18888.00,-2480.00
29681,500.00,113.00,53.00,1188.00,732.00,18484.00,-2496.00
29698,446.00,15.00,160.00,760.00,580.00,18852.00,-2464.00
29714,397.00,317.00,-326.00,720.00,400.00,18468.00,-2448.00
29730,362.00,462.00,-375.00,1136.00,460.00,18628.00,-2512.00
29747,50.00,202.00,-309.00,1124.00,492.00,18728.00,-2496.00
29764,-128.00,3.00,-131.00,1092.00,520.00,18936.00,-2496.00
29780,-249.00,-79.00,-47.00,1040.00,564.00,18824.00,-2480.00
29797,-103.00,122.00,52.00,1016.00,616.00,18744.00,-2480.00
29813,57.00,54.00,0.00,960.00,468.00,18876.00,-2480.00
29830,-75.00,51.00,-109.00,904.00,388.00,18944.00,-2480.00
29846,-27.00,61.00,-173.00,996.00,468.00,18672.00,-2496.00
29862,77.00,179.00,-449.00,800.00,500.00,18548.00,-2496.00
29879,251.00,208.00,-597.00,744.00,448.00,18500.00,-2512.00
29895,286.00,254.00,-515.00,1040.00,480.00,18880.00,-2512.00
29912,96.00,223.00,-367.00,968.00,516.00,18616.00,-2512.00
29928,-74.00,193.00,-213.00,996.00,684.00,18700.00,-2480.00
29944,-214.00,-47.00,62.00,972.00,580.00,18828.00,-2512.00
29961,-368.00,-148.00,104.00,936.00,316.00,18812.00,-2496.00
29977,-433.00,-183.00,23.00,760.00,240.00,18748.00,-2496.00
29993,-236.00,253.00,-524.00,716.00,224.00,18596.00,-2528.00
30011,63.00,452.00,-727.00,1152.00,624.00,18844.00,-2464.00
30027,143.00,374.00,-562.00,972.00,608.00,18588.00,-2496.00
30044,93.00,239.00,-312.00,860.00,472.00,18536.00,-2464.00
30060,-24.00,225.00,-174.00,836.00,248.00,19052.00,-2512.00
30076,-215.00,-54.00,9.00,812.00,540.00,18640.00,-2480.00
30093,-44.00,-250.00,97.00,680.00,460.00,18340.00,-2528.00
30109,27.00,-74.00,162.00,856.00,468.00,18904.00,-2480.00
30126,172.00,87.00,67.00,692.00,360.00,18492.00,-2496.00
30142,293.00,95.00,-118.00,1160.00,404.00,18616.00,-2480.00
30158,53.00,152.00,-74.00,1040.00,416.00,19216.00,-2496.00
30175,65.00,129.00,-27.00,1028.00,496.00,18676.00,-2544.00
30191,207.00,148.00,-55.00,808.00,536.00,18544.00,-2480.00
30208,297.00,146.00,-29.00,732.00,324.00,18584.00,-2512.00
30224,215.00,184.00,-86.00,740.00,228.00,18608.00,-2464.00
30240,305.00,-240.00,73.00,808.00,540.00,17820.00,-2496.00
30257,-34.00,58.00,110.00,884.00,568.00,19004.00,-2496.00
30273,66.00,-33.00,51.00,1112.00,492.00,18572.00,-2512.00
30290,-73.00,170.00,-272.00,1072.00,388.00,18736.00,-2496.00
30307,300.00,204.00,-168.00,784.00,552.00,18572.00,-2496.00
30323,74.00,-115.00,-903.00,1224.00,496.00,19252.00,-2496.00
30340,384.00,750.00,-1016.00,500.00,440.00,18108.00,-2464.00
30356,469.00,673.00,-742.00,992.00,468.00,18640.00,-2480.00
30372,80.00,136.00,-297.00,920.00,544.00,19484.00,-2480.00
30389,-153.00,-65.00,-173.00,544.00,884.00,18644.00,-2480.00
30405,7.00,-203.00,-5.00,760.00,492.00,18820.00,-2512.00
30422,-51.00,-223.00,-114.00,628.00,116.00,18660.00,-2512.00
30438,-55.00,46.00,-124.00,1024.00,324.00,18736.00,-2544.00
30454,-228.00,-274.00,53.00,984.00,468.00,18964.00,-2512.00
30472,-138.00,-317.00,154.00,700.00,824.00,18556.00,-2512.00
30488,-302.00,-571.00,164.00,732.00,560.00,18596.00,-2512.00
30504,-159.00,-258.00,-53.00,716.00,160.00,18480.00,-2480.00
30521,81.00,323.00,-294.00,836.00,152.00,18312.00,-2512.00
30537,239.00,366.00,-586.00,852.00,488.00,18888.00,-2496.00
30554,57.00,316.00,-494.00,1032.00,468.00,19016.00,-2496.00
30570,141.00,291.00,-428.00,-40.00,420.00,18852.00,-2496.00
30586,-220.00,-29.00,-451.00,660.00,244.00,18632.00,-2464.00
30603,440.00,-40.00,-386.00,500.00,520.00,18388.00,-2496.00
30619,336.00,463.00,-679.00,696.00,388.00,19088.00,-2528.00
30637,119.00,584.00,-923.00,1008.00,296.00,18976.00,-2528.00
30653,32.00,564.00,-1079.00,916.00,292.00,18732.00,-2464.00
30669,-169.00,811.00,-1259.00,884.00,380.00,19212.00,-2480.00
30686,-79.00,471.00,-754.00,1096.00,652.00,18644.00,-2512.00
30702,297.00,-236.00,-46.00,1064.00,704.00,18300.00,-2480.00
30718,1168.00,-310.00,682.00,616.00,1000.00,19464.00,-2480.00
30736,486.00,-313.00,238.00,1324.00,676.00,18616.00,-2528.00
30752,310.00,-264.00,531.00,656.00,364.00,18696.00,-2512.00
30769,327.00,-487.00,719.00,1160.00,416.00,18744.00,-2480.00
30785,116.00,-427.00,787.00,652.00,376.00,19076.00,-2512.00
30801,-63.00,-171.00,332.00,996.00,444.00,18844.00,-2496.00
30818,-83.00,-198.00,156.00,1072.00,512.00,18848.00,-2480.00
30834,159.00,-49.00,-196.00,704.00,440.00,18636.00,-2544.00
30851,301.00,83.00,-375.00,804.00,356.00,18768.00,-2480.00
30867,485.00,23.00,-219.00,728.00,472.00,18584.00,-2512.00
30884,571.00,-219.00,119.00,816.00,540.00,18560.00,-2512.00
30901,590.00,-84.00,230.00,876.00,624.00,18732.00,-2512.00
30917,379.00,-227.00,365.00,916.00,496.00,18708.00,-2496.00
30934,165.00,-270.00,193.00,784.00,544.00,18752.00,-2496.00
30950,102.00,-110.00,-187.00,584.00,420.00,18764.00,-2496.00
30966,112.00,61.00,-696.00,744.00,432.00,18552.00,-2528.00
30983,227.00,235.00,-660.00,960.00,588.00,18512.00,-2496.00
30999,68.00,239.00,-347.00,824.00,612.00,18876.00,-2496.00
31015,-74.00,386.00,-456.00,616.00,396.00,18700.00,-2496.00
31032,94.00,341.00,-454.00,812.00,504.00,18664.00,-2496.00
31048,79.00,235.00,-286.00,1092.00,784.00,18848.00,-2480.00
31066,25.00,14.00,8.00,1048.00,580.00,18840.00,-2496.00
31082,67.00,-33.00,28.00,932.00,776.00,18808.00,-2464.00
31098,231.00,282.00,-234.00,864.00,540.00,18632.00,-2480.00
31115,390.00,454.00,-292.00,888.00,488.00,18964.00,-2512.00
31131,869.00,605.00,-549.00,660.00,616.00,18320.00,-2480.00
31148,453.00,736.00,-499.00,784.00,508.00,18864.00,-2496.00
31164,246.00,570.00,-452.00,704.00,660.00,18536.00,-2496.00
31180,170.00,456.00,-323.00,792.00,720.00,18540.00,-2464.00
31197,132.00,326.00,-202.00,732.00,560.00,18776.00,-2496.00
31213,-106.00,236.00,-217.00,780.00,488.00,18860.00,-2496.00
31230,-26.00,390.00,-242.00,512.00,708.00,18540.00,-2464.00
31247,59.00,357.00,-287.00,704.00,748.00,18736.00,-2464.00
31263,48.00,512.00,-273.00,904.00,736.00,18812.00,-2496.00
31280,132.00,403.00,-138.00,516.00,628.00,18796.00,-2512.00
31296,33.00,257.00,-181.00,696.00,440.00,18996.00,-2480.00
31312,54.00,294.00,-167.00,704.00,556.00,18688.00,-2512.00
31329,109.00,427.00,-150.00,788.00,468.00,18748.00,-2528.00
31345,79.00,400.00,-249.00,656.00,632.00,18776.00,-2512.00
31362,42.00,555.00,-109.00,652.00,660.00,18520.00,-2496.00
31378,-31.00,711.00,-267.00,324.00,540.00,18712.00,-2496.00
31394,-27.00,521.00,-171.00,592.00,488.00,18500.00,-2512.00
31411,-99.00,637.00,-124.00,580.00,592.00,18504.00,-2480.00
31428,-185.00,605.00,62.00,668.00,672.00,18888.00,-2480.00
31444,-136.00,844.00,57.00,420.00,532.00,18696.00,-2480.00
31461,-114.00,1157.00,-225.00,328.00,640.00,18788.00,-2464.00
31477,-230.00,1470.00,-261.00,460.00,568.00,18428.00,-2480.00
31494,-16.00,2032.00,-422.00,360.00,632.00,18804.00,-2512.00
31510,-241.00,2785.00,-447.00,600.00,516.00,19044.00,-2480.00
31526,-415.00,3331.00,-465.00,-184.00,772.00,19016.00,-2512.00
31543,-527.00,3619.00,-593.00,-64.00,376.00,18552.00,-2496.00
