t,gx,gy,gz,ax,ay,az,temp
3,251.00,-268.00,-305.00,80.00,880.00,18532.00,-2064.00
19,252.00,-166.00,-103.00,292.00,972.00,18800.00,-2064.00
35,210.00,182.00,19.00,80.00,920.00,18500.00,-2048.00
52,386.00,156.00,-43.00,324.00,1020.00,18936.00,-2080.00
67,595.00,172.00,-147.00,320.00,976.00,18680.00,-2064.00
83,692.00,83.00,-226.00,172.00,960.00,18668.00,-2080.00
100,746.00,143.00,-270.00,100.00,880.00,18628.00,-2064.00
116,609.00,307.00,-335.00,160.00,996.00,18740.00,-2048.00
133,359.00,358.00,-533.00,140.00,1096.00,18756.00,-2048.00
149,160.00,348.00,-483.00,204.00,1180.00,18660.00,-2048.00
166,48.00,107.00,-352.00,212.00,1220.00,18736.00,-2080.00
183,-137.00,58.00,-79.00,368.00,1200.00,18748.00,-2064.00
199,-375.00,-57.00,117.00,284.00,1136.00,18840.00,-2080.00
216,-252.00,-165.00,-13.00,112.00,1120.00,18608.00,-2080.00
232,-41.00,-130.00,-215.00,144.00,1080.00,18676.00,-2064.00
248,57.00,-209.00,-278.00,352.00,1136.00,18692.00,-2064.00
265,2.00,106.00,-365.00,40.00,1056.00,18328.00,-2048.00
281,120.00,423.00,-348.00,124.00,1100.00,18468.00,-2064.00
297,211.00,281.00,-337.00,284.00,1260.00,18588.00,-2080.00
314,183.00,107.00,-312.00,64.00,1084.00,18616.00,-2048.00
330,152.00,-96.00,-240.00,256.00,1132.00,18356.00,-2064.00
347,166.00,-52.00,-271.00,244.00,1124.00,18612.00,-2064.00
363,100.00,162.00,-168.00,264.00,1180.00,18544.00,-2048.00
379,-101.00,78.00,-61.00,140.00,1160.00,18576.00,-2080.00
396,-256.00,-56.00,58.00,76.00,1128.00,18376.00,-2064.00
412,-285.00,-268.00,132.00,152.00,920.00,18588.00,-2048.00
429,-370.00,-307.00,189.00,236.00,884.00,18792.00,-2064.00
445,-189.00,-177.00,13.00,160.00,924.00,18508.00,-2064.00
461,76.00,36.00,-273.00,120.00,952.00,18528.00,-2080.00
478,363.00,176.00,-509.00,176.00,1008.00,18732.00,-2048.00
494,488.00,211.00,-510.00,252.00,1208.00,18736.00,-2080.00
510,365.00,43.00,-229.00,408.00,1340.00,18832.00,-2080.00
527,152.00,-135.00,35.00,60.00,1012.00,18732.00,-2096.00
543,-45.00,-72.00,209.00,200.00,988.00,18732.00,-2048.00
560,-148.00,-21.00,94.00,160.00,776.00,18512.00,-2064.00
576,-69.00,40.00,-97.00,268.00,920.00,18440.00,-2048.00
592,47.00,250.00,-262.00,84.00,1020.00,18776.00,-2080.00
609,141.00,303.00,-362.00,68.00,1076.00,18544.00,-2064.00
625,60.00,124.00,-275.00,88.00,1016.00,18604.00,-2080.00
642,-7.00,30.00,-252.00,236.00,1004.00,18512.00,-2064.00
657,-52.00,-75.00,-276.00,212.00,916.00,18736.00,-2080.00
673,8.00,-152.00,-351.00,116.00,916.00,18540.00,-2064.00
690,72.00,-207.00,-610.00,-12.00,796.00,18416.00,-2064.00
706,254.00,-250.00,-1181.00,32.00,704.00,18336.00,-2096.00
722,393.00,133.00,-754.00,396.00,1060.00,18372.00,-2080.00
739,368.00,345.00,-619.00,172.00,1148.00,18648.00,-2080.00
755,331.00,-200.00,-312.00,392.00,1224.00,18816.00,-2080.00
773,259.00,-411.00,-9.00,296.00,1300.00,18728.00,-2048.00
789,-139.00,-645.00,-162.00,332.00,1312.00,19228.00,-2096.00
805,-873.00,-489.00,929.00,448.00,884.00,18768.00,-2064.00
822,-1391.00,-1513.00,1293.00,-28.00,584.00,19104.00,-2064.00
838,-1978.00,-2307.00,1353.00,532.00,200.00,18200.00,-2064.00
855,-2200.00,-2719.00,216.00,-168.00,356.00,18468.00,-2048.00
871,-2118.00,-1106.00,-633.00,-900.00,992.00,17816.00,-2080.00
887,-1185.00,-677.00,-753.00,1740.00,1004.00,18480.00,-2032.00
904,-587.00,1496.00,-249.00,436.00,1864.00,19496.00,-2080.00
921,-1373.00,250.00,-192.00,756.00,632.00,18184.00,-2080.00
937,-824.00,955.00,-491.00,120.00,704.00,18624.00,-2080.00
954,-908.00,61.00,126.00,1008.00,952.00,18696.00,-2064.00
970,-330.00,-956.00,111.00,732.00,624.00,18736.00,-2064.00
987,-107.00,-1008.00,-249.00,692.00,728.00,18792.00,-2064.00
1003,506.00,-462.00,-809.00,344.00,836.00,18800.00,-2064.00
1019,852.00,-640.00,-1125.00,852.00,756.00,18724.00,-2064.00
1036,1237.00,-328.00,-1418.00,156.00,408.00,18748.00,-2032.00
1052,1544.00,-410.00,-1560.00,492.00,652.00,18668.00,-2080.00
1069,1348.00,297.00,-1394.00,804.00,304.00,18532.00,-2064.00
1086,971.00,-242.00,-1719.00,652.00,548.00,18740.00,-2064.00
1102,589.00,234.00,-1285.00,796.00,256.00,19176.00,-2048.00
1119,547.00,-118.00,-1499.00,160.00,1096.00,18440.00,-2080.00
1135,282.00,-721.00,-1076.00,1044.00,828.00,18752.00,-2064.00
1152,347.00,-607.00,-701.00,1032.00,480.00,19236.00,-2080.00
1168,291.00,-449.00,-722.00,36.00,680.00,18304.00,-2048.00
1184,422.00,75.00,-1331.00,412.00,912.00,18816.00,-2080.00
1202,295.00,1003.00,-1699.00,524.00,1304.00,18148.00,-2064.00
1218,440.00,496.00,-1280.00,172.00,348.00,18252.00,-2064.00
1234,-2564.00,-5271.00,-2099.00,-1928.00,3612.00,23632.00,-2064.00
1251,-72.00,-743.00,273.00,5588.00,-828.00,14604.00,-2064.00
1267,92.00,-3904.00,1996.00,1124.00,700.00,18640.00,-2064.00
1284,726.00,-2966.00,914.00,876.00,700.00,18372.00,-2080.00
1301,1202.00,-2904.00,411.00,924.00,980.00,18648.00,-2080.00
1317,1523.00,-2142.00,301.00,1240.00,1112.00,18588.00,-2064.00
1334,1169.00,-2359.00,994.00,1584.00,1508.00,18980.00,-2096.00
1350,688.00,-2384.00,1464.00,1268.00,1180.00,18836.00,-2080.00
1368,433.00,-1781.00,1477.00,1832.00,872.00,19052.00,-2080.00
1384,-31.00,-776.00,946.00,1844.00,760.00,19068.00,-2064.00
1400,-346.00,-129.00,643.00,2432.00,436.00,18668.00,-2064.00
1417,-480.00,442.00,202.00,1984.00,292.00,18552.00,-2064.00
1433,-853.00,732.00,-444.00,1428.00,800.00,19124.00,-2064.00
1449,-598.00,100.00,-746.00,1556.00,1180.00,18264.00,-2064.00
1467,-522.00,-1346.00,-495.00,1628.00,1212.00,18712.00,-2064.00
1483,-708.00,-694.00,-254.00,1244.00,912.00,18648.00,-2080.00
1500,-312.00,765.00,-830.00,1048.00,488.00,18036.00,-2080.00
1516,305.00,1239.00,-1765.00,672.00,84.00,17888.00,-2064.00
1532,589.00,2198.00,-2503.00,1268.00,380.00,18432.00,-2064.00
1549,269.00,2115.00,-2192.00,1420.00,664.00,18648.00,-2080.00
1566,251.00,1776.00,-1844.00,1332.00,736.00,18416.00,-2064.00
1583,57.00,1036.00,-1321.00,1500.00,764.00,18528.00,-2096.00
1599,371.00,936.00,-1086.00,1664.00,1056.00,18556.00,-2064.00
1615,353.00,997.00,-548.00,1328.00,1184.00,18848.00,-2064.00
1632,88.00,912.00,-300.00,1376.00,988.00,18676.00,-2064.00
1648,31.00,717.00,-401.00,1008.00,560.00,18792.00,-2064.00
1666,-153.00,-192.00,-352.00,1244.00,776.00,18404.00,-2064.00
1682,-186.00,-337.00,-470.00,984.00,288.00,18604.00,-2080.00
1698,-296.00,341.00,-540.00,820.00,192.00,18580.00,-2048.00
1715,-426.00,-142.00,-413.00,1060.00,416.00,18484.00,-2048.00
1731,-554.00,-75.00,-51.00,1224.00,832.00,18696.00,-2048.00
1747,-801.00,165.00,152.00,1160.00,1080.00,18752.00,-2048.00
1764,-1068.00,-658.00,243.00,1000.00,660.00,18500.00,-2080.00
1780,-820.00,-427.00,429.00,532.00,732.00,18072.00,-2064.00
1797,-205.00,-1805.00,101.00,1292.00,404.00,18300.00,-2096.00
1814,304.00,-966.00,-145.00,1060.00,-276.00,18204.00,-2080.00
1830,448.00,-366.00,-629.00,1732.00,656.00,18776.00,-2080.00
1847,103.00,-271.00,-728.00,1772.00,976.00,18900.00,-2064.00
1863,42.00,-77.00,-590.00,1292.00,780.00,18636.00,-2064.00
1880,125.00,-499.00,-516.00,1256.00,1068.00,18540.00,-2064.00
1896,106.00,-775.00,-97.00,1452.00,1176.00,18868.00,-2080.00
1912,108.00,-798.00,88.00,1684.00,860.00,18228.00,-2048.00
1929,369.00,-460.00,236.00,1140.00,836.00,19020.00,-2080.00
1946,573.00,-566.00,449.00,1840.00,1000.00,19172.00,-2080.00
1963,469.00,49.00,652.00,2080.00,1068.00,18804.00,-2032.00
1979,619.00,-287.00,365.00,1376.00,872.00,18808.00,-2064.00
1995,812.00,312.00,546.00,1656.00,868.00,18560.00,-2080.00
2012,1066.00,273.00,375.00,1132.00,708.00,18840.00,-2080.00
2028,1104.00,216.00,182.00,1360.00,732.00,18912.00,-2064.00
2045,625.00,-62.00,541.00,1600.00,652.00,18652.00,-2112.00
2062,310.00,277.00,761.00,1756.00,752.00,18316.00,-2080.00
2078,629.00,1127.00,347.00,660.00,552.00,18512.00,-2080.00
2095,806.00,564.00,604.00,1028.00,616.00,18704.00,-2048.00
2111,373.00,-125.00,675.00,1572.00,1140.00,19116.00,-2048.00
2127,-20.00,-396.00,470.00,1476.00,1044.00,18916.00,-2064.00
2144,-455.00,-474.00,555.00,1328.00,812.00,18548.00,-2064.00
2160,-595.00,-178.00,542.00,1560.00,880.00,18288.00,-2048.00
2178,-616.00,522.00,248.00,1696.00,760.00,18724.00,-2080.00
2194,-562.00,426.00,-26.00,1564.00,716.00,18552.00,-2064.00
2210,-518.00,110.00,-91.00,1556.00,820.00,18680.00,-2048.00
2227,-426.00,-111.00,-353.00,1428.00,668.00,18632.00,-2048.00
2243,-239.00,-234.00,-655.00,1288.00,324.00,18356.00,-2064.00
2259,178.00,10.00,-1021.00,1404.00,300.00,18256.00,-2064.00
2276,724.00,571.00,-1637.00,1108.00,432.00,18412.00,-2064.00
2292,942.00,411.00,-1708.00,1220.00,724.00,18396.00,-2080.00
2310,781.00,28.00,-1291.00,1348.00,972.00,18560.00,-2064.00
2326,570.00,65.00,-855.00,1240.00,1076.00,18480.00,-2064.00
2342,440.00,-47.00,-195.00,1304.00,1188.00,18648.00,-2032.00
2359,282.00,-56.00,49.00,1400.00,976.00,18688.00,-2048.00
2375,243.00,-349.00,92.00,1300.00,872.00,18692.00,-2064.00
2392,510.00,-495.00,-70.00,1284.00,880.00,18520.00,-2064.00
2408,914.00,546.00,-520.00,1256.00,676.00,18520.00,-2064.00
2424,881.00,1392.00,-872.00,1084.00,356.00,18900.00,-2112.00
2441,861.00,794.00,-1224.00,1164.00,584.00,18256.00,-2032.00
2458,1060.00,-337.00,-1358.00,1348.00,1428.00,18760.00,-2048.00
2475,910.00,-996.00,-1136.00,1684.00,1492.00,18948.00,-2064.00
2491,299.00,-1963.00,-590.00,1628.00,1148.00,19144.00,-2080.00
2507,-493.00,-2065.00,67.00,1512.00,1152.00,18784.00,-2048.00
2525,-746.00,-2062.00,355.00,1648.00,1212.00,18652.00,-2080.00
2541,-415.00,-140.00,690.00,1808.00,1552.00,18892.00,-2064.00
2557,-399.00,89.00,1285.00,1788.00,1500.00,18524.00,-2048.00
2574,-59.00,-21.00,1587.00,1308.00,880.00,18092.00,-2096.00
2590,414.00,26.00,821.00,1252.00,512.00,18452.00,-2064.00
2607,698.00,-81.00,65.00,1264.00,236.00,18444.00,-2064.00
2623,811.00,-370.00,-572.00,1440.00,144.00,18512.00,-2080.00
2639,617.00,-190.00,-705.00,1776.00,600.00,19004.00,-2064.00
2657,240.00,595.00,-670.00,1916.00,784.00,18836.00,-2064.00
2673,42.00,835.00,-543.00,1764.00,1044.00,18824.00,-2096.00
2690,-49.00,952.00,-490.00,1680.00,1144.00,18844.00,-2048.00
2706,-36.00,876.00,-605.00,1432.00,1024.00,18716.00,-2080.00
2722,-36.00,659.00,-662.00,1508.00,1120.00,18780.00,-2048.00
2739,-179.00,500.00,-510.00,1520.00,1044.00,18640.00,-2064.00
2755,-112.00,273.00,-387.00,1580.00,1264.00,18732.00,-2096.00
2772,-207.00,-22.00,-358.00,1528.00,1020.00,18648.00,-2080.00
2789,-530.00,385.00,49.00,1652.00,764.00,18616.00,-2064.00
2805,-741.00,635.00,569.00,1516.00,972.00,18504.00,-2064.00
2822,-988.00,845.00,858.00,1332.00,956.00,18440.00,-2064.00
2838,-887.00,815.00,725.00,1148.00,980.00,18496.00,-2032.00
2854,-740.00,357.00,439.00,1068.00,696.00,18468.00,-2080.00
2871,-501.00,28.00,39.00,1088.00,664.00,18540.00,-2080.00
2887,-243.00,-256.00,-252.00,1328.00,720.00,18600.00,-2048.00
2905,-23.00,-206.00,-369.00,1516.00,700.00,18596.00,-2080.00
2921,304.00,-149.00,-532.00,1368.00,720.00,18508.00,-2048.00
2937,439.00,-87.00,-593.00,1512.00,980.00,18764.00,-2048.00
2954,308.00,334.00,-341.00,1356.00,748.00,18936.00,-2048.00
2970,-92.00,197.00,-17.00,1412.00,1000.00,18700.00,-2048.00
2987,-477.00,610.00,546.00,1660.00,836.00,18948.00,-2048.00
3003,-881.00,302.00,985.00,1396.00,804.00,18764.00,-2064.00
3019,-870.00,88.00,980.00,1632.00,580.00,18788.00,-2064.00
3036,-957.00,455.00,790.00,1408.00,320.00,18748.00,-2064.00
3052,-679.00,762.00,276.00,1244.00,512.00,18488.00,-2096.00
3069,-317.00,637.00,-64.00,820.00,544.00,18380.00,-2032.00
3086,75.00,588.00,-185.00,916.00,644.00,18152.00,-2064.00
3102,92.00,533.00,-204.00,1132.00,480.00,18408.00,-2064.00
3119,27.00,418.00,-132.00,1196.00,492.00,18312.00,-2080.00
3135,345.00,396.00,-206.00,1276.00,376.00,18236.00,-2080.00
3151,868.00,383.00,-345.00,1348.00,372.00,18516.00,-2064.00
3168,1261.00,307.00,-448.00,1204.00,388.00,18708.00,-2064.00
3184,1565.00,583.00,-557.00,1460.00,684.00,18804.00,-2080.00
3201,1752.00,362.00,-619.00,1140.00,856.00,18560.00,-2064.00
3218,1668.00,611.00,-534.00,892.00,1208.00,18732.00,-2048.00
3234,911.00,598.00,-156.00,1072.00,1424.00,18900.00,-2080.00
3251,176.00,352.00,549.00,1124.00,1264.00,18636.00,-2064.00
3267,-295.00,160.00,978.00,1136.00,976.00,18924.00,-2080.00
3283,-413.00,80.00,1184.00,1120.00,844.00,18812.00,-2080.00
3300,-309.00,-292.00,1037.00,856.00,672.00,18652.00,-2080.00
3317,36.00,-271.00,587.00,872.00,624.00,18540.00,-2064.00
3334,403.00,247.00,234.00,952.00,588.00,18452.00,-2048.00
3350,603.00,452.00,-184.00,1080.00,816.00,18420.00,-2016.00
3366,252.00,452.00,36.00,1132.00,1060.00,18988.00,-2016.00
3383,-226.00,249.00,365.00,1128.00,1396.00,18864.00,-2048.00
3399,-499.00,9.00,644.00,936.00,1152.00,18656.00,-2032.00
3416,-341.00,72.00,363.00,1204.00,816.00,18668.00,-2064.00
3432,-385.00,34.00,26.00,1200.00,540.00,18932.00,-2016.00
3448,-467.00,242.00,-70.00,1200.00,524.00,18836.00,-2048.00
3465,-390.00,179.00,-83.00,940.00,784.00,18472.00,-2080.00
3481,-216.00,110.00,-27.00,916.00,792.00,18376.00,-2064.00
3497,152.00,189.00,-45.00,812.00,668.00,18264.00,-2064.00
3514,333.00,281.00,-52.00,936.00,604.00,18604.00,-2064.00
3530,123.00,261.00,129.00,1060.00,792.00,18684.00,-2080.00
3547,-50.00,-68.00,327.00,1016.00,860.00,18712.00,-2048.00
3564,-254.00,-163.00,429.00,1128.00,684.00,18664.00,-2016.00
3580,-288.00,135.00,476.00,1076.00,724.00,18848.00,-2080.00
3597,-332.00,215.00,530.00,1132.00,1000.00,18864.00,-2016.00
3613,-277.00,53.00,608.00,972.00,696.00,18816.00,-2064.00
3630,-194.00,196.00,455.00,860.00,716.00,18420.00,-2096.00
3646,-111.00,411.00,550.00,788.00,744.00,18380.00,-2048.00
3662,-463.00,269.00,701.00,1224.00,968.00,18932.00,-2048.00
3679,-842.00,144.00,770.00,968.00,628.00,18828.00,-2064.00
3695,-2977.00,-2543.00,25.00,504.00,876.00,21096.00,-2064.00
3712,-1319.00,851.00,-336.00,792.00,692.00,18720.00,-2032.00
3729,-1142.00,86.00,-43.00,1264.00,620.00,18172.00,-2032.00
3745,-470.00,-7.00,-43.00,820.00,592.00,18392.00,-2032.00
3762,-452.00,-7.00,-547.00,284.00,200.00,18280.00,-2080.00
3778,13.00,759.00,-1572.00,1084.00,-88.00,17952.00,-2064.00
3794,984.00,1021.00,-1360.00,1168.00,4.00,18096.00,-2064.00
3811,1343.00,823.00,-1341.00,800.00,220.00,18244.00,-2064.00
3827,1334.00,302.00,-1057.00,1100.00,344.00,18464.00,-2048.00
3844,772.00,160.00,-593.00,988.00,568.00,18856.00,-2096.00
3860,-81.00,384.00,-511.00,764.00,684.00,18992.00,-2064.00
3876,-308.00,417.00,-340.00,696.00,380.00,17668.00,-2064.00
3893,1474.00,-579.00,33.00,108.00,720.00,19292.00,-2064.00
3909,718.00,786.00,-1444.00,1044.00,1020.00,19404.00,-2048.00
3927,136.00,197.00,99.00,1892.00,912.00,19124.00,-2048.00
3943,-326.00,-178.00,659.00,1044.00,708.00,19288.00,-2064.00
3959,-523.00,-494.00,755.00,1228.00,740.00,18868.00,-2048.00
3976,-341.00,-457.00,954.00,776.00,600.00,18604.00,-2048.00
3992,-212.00,-160.00,255.00,176.00,356.00,18368.00,-2080.00
4008,75.00,-15.00,-463.00,512.00,380.00,18556.00,-2096.00
4025,212.00,40.00,-465.00,1016.00,520.00,18732.00,-2064.00
4041,277.00,-76.00,-204.00,1096.00,588.00,18972.00,-2064.00
4058,-209.00,149.00,198.00,1176.00,632.00,19104.00,-2064.00
4074,-320.00,108.00,327.00,1148.00,468.00,18624.00,-2064.00
4091,12.00,-62.00,566.00,1024.00,340.00,18268.00,-2048.00
4108,581.00,250.00,66.00,272.00,188.00,18320.00,-2064.00
4124,813.00,839.00,-804.00,520.00,340.00,18456.00,-2080.00
4141,872.00,819.00,-639.00,1424.00,732.00,18856.00,-2080.00
4157,533.00,246.00,330.00,1380.00,900.00,19004.00,-2032.00
4173,-177.00,18.00,651.00,616.00,872.00,19028.00,-2032.00
4190,-167.00,254.00,1.00,248.00,560.00,18296.00,-2048.00
4206,435.00,363.00,-463.00,748.00,464.00,18024.00,-2064.00
4222,706.00,288.00,-253.00,992.00,504.00,18596.00,-2064.00
4239,472.00,81.00,204.00,768.00,560.00,18592.00,-2032.00
4255,294.00,27.00,294.00,656.00,760.00,18608.00,-2016.00
4272,378.00,15.00,47.00,684.00,544.00,18396.00,-2080.00
4288,569.00,248.00,-318.00,684.00,480.00,18360.00,-2064.00
4304,838.00,442.00,-423.00,772.00,596.00,18516.00,-2064.00
4321,-332.00,-59.00,26.00,-248.00,1340.00,21432.00,-2064.00
4337,-1497.00,713.00,-1149.00,1532.00,1108.00,17852.00,-2048.00
4355,676.00,270.00,-482.00,84.00,1512.00,17196.00,-2048.00
4371,1156.00,503.00,-731.00,488.00,828.00,18756.00,-2080.00
4387,957.00,382.00,-243.00,1668.00,444.00,19436.00,-2048.00
4404,469.00,-305.00,538.00,1140.00,396.00,19080.00,-2048.00
4420,30.00,497.00,32.00,40.00,496.00,18696.00,-2064.00
4436,111.00,595.00,-740.00,560.00,380.00,18312.00,-2064.00
4453,516.00,303.00,-592.00,688.00,328.00,18176.00,-2064.00
4469,353.00,74.00,-511.00,644.00,688.00,18896.00,-2064.00
4486,267.00,478.00,-411.00,580.00,776.00,18696.00,-2064.00
4502,655.00,661.00,-316.00,736.00,808.00,18112.00,-2032.00
4518,1122.00,493.00,-43.00,556.00,1220.00,18532.00,-2096.00
4535,709.00,320.00,299.00,836.00,852.00,18744.00,-2064.00
4552,397.00,173.00,474.00,144.00,1232.00,18780.00,-2032.00
4569,505.00,-225.00,465.00,896.00,1128.00,17756.00,-2064.00
4585,737.00,-947.00,1558.00,1464.00,816.00,18856.00,-2032.00
4601,682.00,-695.00,1751.00,604.00,380.00,18876.00,-2048.00
4618,667.00,281.00,330.00,-332.00,444.00,18784.00,-2080.00
4634,519.00,1080.00,-1113.00,0.00,828.00,18840.00,-2080.00
4651,142.00,1013.00,-1370.00,820.00,1152.00,18896.00,-2080.00
4667,37.00,946.00,-327.00,1048.00,896.00,18140.00,-2064.00
4684,487.00,340.00,322.00,388.00,956.00,18408.00,-2032.00
4701,-302.00,809.00,400.00,332.00,1440.00,20176.00,-2032.00
4717,-1868.00,-403.00,498.00,1872.00,1052.00,18788.00,-2064.00
4733,-2842.00,-1365.00,1784.00,396.00,280.00,19640.00,-2048.00
4750,-3578.00,613.00,315.00,-632.00,-384.00,16772.00,-2080.00
4766,-2896.00,-16.00,-81.00,-8.00,576.00,17456.00,-2016.00
4783,-1166.00,844.00,-708.00,244.00,1448.00,17004.00,-2064.00
4799,-167.00,108.00,760.00,636.00,1888.00,18776.00,-2096.00
4816,23.00,-160.00,812.00,492.00,1452.00,18672.00,-2048.00
4833,915.00,284.00,653.00,1624.00,888.00,19104.00,-2096.00
4849,1282.00,494.00,742.00,1916.00,1040.00,19796.00,-2048.00
4866,2085.00,917.00,494.00,1828.00,1352.00,19424.00,-2032.00
4882,1951.00,640.00,1053.00,1192.00,144.00,19596.00,-2048.00
4898,3181.00,940.00,336.00,-956.00,56.00,17740.00,-2032.00
4916,3513.00,956.00,-864.00,-564.00,880.00,19500.00,-2032.00
4932,2100.00,1678.00,-2173.00,-508.00,760.00,18700.00,-2064.00
4948,1449.00,1331.00,-1812.00,28.00,964.00,18412.00,-2064.00
4965,850.00,1168.00,-1028.00,704.00,1264.00,18660.00,-2064.00
4981,-255.00,337.00,364.00,572.00,1540.00,19580.00,-2080.00
4998,-881.00,-377.00,1115.00,268.00,1020.00,18468.00,-2032.00
5015,-465.00,-360.00,756.00,-344.00,540.00,18176.00,-2080.00
5031,-8.00,320.00,-67.00,-120.00,824.00,18704.00,-2064.00
5048,220.00,863.00,-694.00,48.00,920.00,18768.00,-2048.00
5064,523.00,356.00,-518.00,696.00,892.00,18352.00,-2048.00
5081,890.00,301.00,-867.00,-624.00,1012.00,18524.00,-2048.00
5097,870.00,924.00,-1342.00,204.00,1168.00,18384.00,-2080.00
5113,1005.00,-63.00,-233.00,672.00,1524.00,19040.00,-2096.00
5130,224.00,-507.00,462.00,416.00,1420.00,18808.00,-2064.00
5146,-192.00,-848.00,748.00,-40.00,1112.00,18996.00,-2064.00
5163,60.00,-1107.00,776.00,248.00,1076.00,18492.00,-2032.00
5180,266.00,-839.00,416.00,-80.00,912.00,18232.00,-2048.00
5196,671.00,-241.00,-372.00,-136.00,828.00,18320.00,-2064.00
5213,947.00,430.00,-789.00,256.00,1128.00,18684.00,-2096.00
5229,348.00,514.00,-722.00,508.00,1384.00,18992.00,-2032.00
5245,-208.00,169.00,-326.00,408.00,1340.00,18860.00,-2080.00
5262,232.00,-472.00,83.00,304.00,1008.00,17940.00,-2048.00
5278,1191.00,-1186.00,503.00,344.00,1044.00,18064.00,-2048.00
5295,1609.00,-953.00,712.00,88.00,1664.00,18476.00,-2032.00
5312,1791.00,-87.00,309.00,352.00,1508.00,18912.00,-2048.00
5328,1646.00,340.00,342.00,284.00,1196.00,18344.00,-2048.00
5345,1393.00,265.00,707.00,444.00,972.00,18772.00,-2064.00
5361,785.00,-221.00,1197.00,552.00,1496.00,19048.00,-2064.00
5378,-139.00,-1981.00,2265.00,504.00,1656.00,18676.00,-2064.00
5394,-501.00,-3662.00,3138.00,676.00,2056.00,18272.00,-2064.00
5411,-575.00,-3071.00,3101.00,68.00,2016.00,19448.00,-2080.00
5428,-2151.00,195.00,1171.00,236.00,1840.00,20704.00,-2064.00
5444,-3524.00,4656.00,-2796.00,-1380.00,-108.00,17448.00,-2048.00
5460,-3335.00,6281.00,-4222.00,652.00,1708.00,17804.00,-2032.00
5478,-4164.00,4659.00,-2859.00,704.00,2192.00,18396.00,-2096.00
5494,-6125.00,2997.00,-3016.00,164.00,2016.00,18716.00,-2032.00
5511,-9621.00,759.00,-4184.00,-628.00,232.00,19720.00,-2048.00
5527,-14052.00,-4094.00,-2914.00,1268.00,796.00,19728.00,-2032.00
5544,-17511.00,-5911.00,-1778.00,1120.00,1996.00,16232.00,-2064.00
5561,-16788.00,-178.00,-1989.00,128.00,-656.00,16656.00,-2064.00
5577,-15322.00,-935.00,-3039.00,528.00,-1804.00,17660.00,-2080.00
5595,-13354.00,-2244.00,-3058.00,1240.00,-1960.00,17864.00,-2080.00
5611,-11018.00,-3229.00,-2952.00,-408.00,-2544.00,17136.00,-2032.00
5627,-6946.00,-1793.00,-3636.00,-472.00,-3752.00,16248.00,-2032.00
5645,-707.00,-212.00,-4117.00,644.00,-4208.00,16968.00,-2080.00
5661,5961.00,604.00,-3869.00,852.00,-5116.00,17364.00,-2032.00
5678,15482.00,-893.00,-3260.00,360.00,-4844.00,18096.00,-2048.00
5694,25318.00,-915.00,-2637.00,1076.00,-3572.00,18736.00,-2048.00
5711,32047.00,-3745.00,-540.00,1468.00,-2076.00,21556.00,-2048.00
5728,32767.00,-3580.00,-476.00,1268.00,-352.00,21944.00,-2048.00
5744,32767.00,746.00,-2309.00,520.00,1924.00,19800.00,-2032.00
5761,32767.00,4730.00,-2880.00,356.00,2316.00,18828.00,-2032.00
5778,32767.00,4073.00,-1655.00,404.00,5060.00,18608.00,-2064.00
5794,27071.00,4777.00,-1086.00,672.00,7416.00,19872.00,-2032.00
5811,17944.00,3740.00,558.00,1292.00,8668.00,21280.00,-2048.00
5828,4048.00,1864.00,3031.00,1052.00,8688.00,20624.00,-2048.00
5844,-6911.00,276.00,3635.00,344.00,8236.00,18096.00,-2080.00
5861,-14898.00,1836.00,4178.00,-280.00,7348.00,16092.00,-2064.00
5878,-22391.00,3518.00,1841.00,-908.00,6104.00,17320.00,-2064.00
5895,-29185.00,4639.00,-625.00,-732.00,4672.00,17644.00,-2064.00
5911,-32768.00,1777.00,-2313.00,-312.00,4008.00,16352.00,-2032.00
5928,-32768.00,-2294.00,-1295.00,1288.00,4080.00,14736.00,-2064.00
5945,-31985.00,-4131.00,146.00,1496.00,3380.00,15136.00,-2032.00
5961,-24996.00,-3022.00,-985.00,212.00,-432.00,16032.00,-2032.00
5979,-17099.00,-2205.00,-3692.00,828.00,-2488.00,17400.00,-2064.00
5995,-7843.00,-3152.00,-3299.00,428.00,-3604.00,15628.00,-2064.00
6011,1721.00,-3615.00,-1642.00,472.00,-4180.00,17016.00,-2048.00
6028,11080.00,-795.00,-1112.00,656.00,-4140.00,17588.00,-2048.00
6045,20595.00,1904.00,-918.00,520.00,-3524.00,18104.00,-2048.00
6062,29107.00,1576.00,29.00,560.00,-1780.00,19004.00,-2064.00
6078,32767.00,2317.00,966.00,628.00,144.00,18980.00,-2048.00
6094,32767.00,2401.00,848.00,1172.00,2656.00,20580.00,-2032.00
6112,32767.00,3549.00,779.00,-12.00,2460.00,22284.00,-2064.00
6128,28108.00,4299.00,536.00,84.00,4696.00,21724.00,-2048.00
6145,18140.00,3693.00,422.00,816.00,7628.00,20364.00,-2064.00
6161,6363.00,2011.00,544.00,972.00,9576.00,19584.00,-2048.00
6178,-6012.00,1472.00,808.00,-136.00,8588.00,18536.00,-2064.00
6195,-17223.00,2617.00,395.00,-32.00,8768.00,17996.00,-2048.00
6211,-28102.00,2719.00,1042.00,92.00,8132.00,17376.00,-2080.00
6227,-32768.00,2469.00,2585.00,-732.00,6012.00,16372.00,-2064.00
6245,-32768.00,3300.00,1930.00,-332.00,3980.00,14648.00,-2064.00
6261,-32768.00,1013.00,1900.00,224.00,3128.00,15588.00,-2064.00
6278,-32768.00,-2213.00,1194.00,-656.00,-240.00,15388.00,-2032.00
6295,-25183.00,-5557.00,-779.00,-852.00,-3168.00,15900.00,-2032.00
6311,-13950.00,-5017.00,-3972.00,196.00,-5176.00,17736.00,-2016.00
6328,-2507.00,-3649.00,-4923.00,984.00,-5376.00,16932.00,-2064.00
6345,9640.00,-2346.00,-3849.00,500.00,-4436.00,16060.00,-2048.00
6362,20626.00,-914.00,-1977.00,352.00,-4112.00,16968.00,-2080.00
6378,28335.00,2016.00,-561.00,408.00,-3244.00,18408.00,-2064.00
6394,32358.00,1026.00,2358.00,220.00,-1308.00,19776.00,-2064.00
6412,32767.00,-703.00,3692.00,968.00,708.00,22044.00,-2064.00
6428,31270.00,-795.00,3068.00,128.00,984.00,20908.00,-2032.00
6445,27410.00,604.00,1432.00,440.00,3340.00,20880.00,-2032.00
6461,18443.00,2239.00,-290.00,608.00,5912.00,21840.00,-2048.00
6478,6435.00,3058.00,-2753.00,948.00,7644.00,20352.00,-2032.00
6495,-5752.00,2050.00,-2971.00,808.00,7848.00,18676.00,-2096.00
6511,-17416.00,923.00,-1942.00,872.00,7296.00,18008.00,-2064.00
6529,-28457.00,79.00,480.00,-224.00,5600.00,16616.00,-2048.00
6545,-32768.00,-1738.00,3077.00,-928.00,4572.00,14624.00,-2064.00
6561,-32768.00,-2159.00,4458.00,-1428.00,2716.00,14428.00,-2064.00
6578,-32768.00,-853.00,2909.00,-1600.00,528.00,13904.00,-2080.00
6595,-32768.00,-1122.00,491.00,-184.00,-1768.00,15356.00,-2064.00
6611,-24172.00,-2811.00,-1729.00,-288.00,-3976.00,15604.00,-2064.00
6628,-10289.00,-4007.00,-3887.00,8.00,-5668.00,15888.00,-2064.00
6645,3043.00,-4300.00,-4450.00,1100.00,-6136.00,17308.00,-2048.00
6662,15173.00,-2907.00,-4878.00,1876.00,-5992.00,18232.00,-2048.00
6678,25419.00,-406.00,-3680.00,3132.00,-4316.00,19300.00,-2064.00
6695,31106.00,1997.00,-1334.00,2160.00,-3164.00,20932.00,-2064.00
6712,32767.00,4459.00,-344.00,2324.00,-796.00,20872.00,-2064.00
6728,32767.00,2545.00,821.00,1160.00,720.00,20756.00,-2032.00
6746,31289.00,1871.00,485.00,848.00,2152.00,21060.00,-2048.00
6762,22904.00,3441.00,-778.00,-128.00,3944.00,21156.00,-2064.00
6778,8792.00,5480.00,-1597.00,-216.00,4796.00,21128.00,-2032.00
6795,-4876.00,3999.00,-1003.00,32.00,6264.00,18728.00,-2064.00
6812,-17695.00,2527.00,297.00,-328.00,5492.00,18152.00,-2048.00
6829,-29459.00,1285.00,2292.00,-1068.00,4336.00,16876.00,-2064.00
6845,-32768.00,-722.00,3059.00,-1580.00,2864.00,15544.00,-2048.00
6862,-32768.00,-1953.00,2241.00,-1388.00,1276.00,14840.00,-2080.00
6879,-32768.00,-2048.00,1061.00,0.00,-16.00,15656.00,-2048.00
6895,-32768.00,-1381.00,-243.00,184.00,-2972.00,15992.00,-2096.00
6912,-22562.00,-3132.00,-1911.00,28.00,-5204.00,15644.00,-2048.00
6929,-9577.00,-3217.00,-2042.00,-28.00,-7528.00,15072.00,-2048.00
6945,5262.00,-2490.00,-2413.00,-40.00,-8636.00,14644.00,-2064.00
6962,18758.00,-1865.00,-1859.00,784.00,-7768.00,16632.00,-2064.00
6979,30511.00,975.00,-1892.00,1956.00,-5328.00,18016.00,-2048.00
6995,32767.00,3516.00,-888.00,1580.00,-2304.00,20124.00,-2048.00
7012,32767.00,2734.00,-558.00,2324.00,-420.00,22576.00,-2048.00
7028,32767.00,1062.00,-962.00,1340.00,1576.00,21568.00,-2080.00
7046,31190.00,608.00,-1362.00,2132.00,4420.00,20112.00,-2048.00
7062,24619.00,-495.00,1399.00,2128.00,5384.00,19848.00,-2032.00
7078,14666.00,-36.00,2786.00,380.00,4596.00,20932.00,-2064.00
7096,2101.00,-13.00,2890.00,-412.00,5012.00,20320.00,-2080.00
7112,-11411.00,-741.00,1606.00,-2060.00,4000.00,19272.00,-2064.00
7129,-26584.00,2041.00,-1481.00,-1124.00,4736.00,18676.00,-2032.00
7146,-32768.00,1448.00,-1015.00,-1332.00,4156.00,16096.00,-2080.00
7162,-32768.00,-452.00,-445.00,-960.00,2784.00,14368.00,-2048.00
7179,-32768.00,-1077.00,-1092.00,-372.00,428.00,14804.00,-2064.00
7195,-32565.00,-3976.00,-2479.00,1724.00,-1456.00,16376.00,-2032.00
7213,-15796.00,-4780.00,-1374.00,2964.00,-4188.00,16568.00,-2048.00
7229,2752.00,-2195.00,-885.00,2092.00,-7520.00,17448.00,-2048.00
7246,21518.00,-2030.00,-1524.00,1300.00,-6856.00,16588.00,-2064.00
7263,32767.00,-173.00,-2313.00,712.00,-5568.00,17096.00,-2080.00
7279,32767.00,695.00,-1948.00,712.00,-2232.00,18156.00,-2048.00
7296,32767.00,2558.00,-2315.00,1112.00,-188.00,20924.00,-2032.00
7313,32767.00,613.00,-84.00,1408.00,3448.00,22060.00,-2064.00
7329,30794.00,-1187.00,1906.00,588.00,3972.00,20108.00,-2080.00
7346,16280.00,2263.00,1735.00,-476.00,5800.00,19328.00,-2048.00
7363,-540.00,3127.00,1242.00,-772.00,6308.00,18832.00,-2064.00
7379,-16809.00,1596.00,528.00,-940.00,6372.00,17996.00,-2064.00
7396,-32768.00,-82.00,127.00,-212.00,5724.00,19296.00,-2032.00
7412,-32768.00,-1063.00,-222.00,568.00,5264.00,18100.00,-2064.00
7430,-32768.00,-3046.00,-657.00,2152.00,4604.00,15408.00,-2064.00
7446,-32768.00,-3395.00,-1381.00,2192.00,1560.00,14844.00,-2064.00
7462,-28072.00,-2707.00,-2058.00,1988.00,-2508.00,17560.00,-2064.00
7480,-13211.00,-1237.00,-2615.00,464.00,-6864.00,17984.00,-2080.00
7496,2859.00,-1268.00,-1937.00,376.00,-6980.00,16656.00,-2080.00
7513,19467.00,-1375.00,-1501.00,416.00,-6520.00,17912.00,-2080.00
7530,31805.00,1316.00,-1434.00,1172.00,-4308.00,18884.00,-2048.00
7546,32767.00,2799.00,-886.00,1748.00,-668.00,19356.00,-2048.00
7563,32767.00,4187.00,-303.00,3432.00,1776.00,20964.00,-2032.00
7580,32767.00,3360.00,44.00,2880.00,4436.00,19996.00,-2064.00
7597,24256.00,3670.00,1180.00,928.00,4860.00,19400.00,-2064.00
7613,9453.00,3627.00,580.00,208.00,5160.00,19680.00,-2048.00
7629,-7154.00,2040.00,-75.00,-1088.00,4548.00,18728.00,-2048.00
7647,-24016.00,-656.00,-869.00,-1704.00,3568.00,18308.00,-2064.00
7663,-32768.00,-2446.00,-1816.00,-1748.00,2740.00,18396.00,-2048.00
7680,-32768.00,-2667.00,-2219.00,-1044.00,2472.00,15628.00,-2064.00
7697,-32768.00,-4612.00,-1600.00,396.00,1940.00,13552.00,-2064.00
7713,-32768.00,-4069.00,-1219.00,-860.00,-232.00,15984.00,-2064.00
7730,-19865.00,-2452.00,-532.00,2088.00,-4980.00,16476.00,-2032.00
7747,-417.00,-278.00,866.00,2520.00,-7468.00,18740.00,-2064.00
7763,18385.00,1071.00,951.00,2056.00,-6652.00,16812.00,-2048.00
7780,32767.00,3145.00,-700.00,1072.00,-6416.00,20140.00,-2048.00
7797,32767.00,3539.00,-1480.00,924.00,-3152.00,20524.00,-2016.00
7814,32767.00,3536.00,-3598.00,2216.00,-76.00,22676.00,-2016.00
7830,32767.00,2614.00,-2999.00,2020.00,3064.00,20916.00,-2064.00
7847,27135.00,2096.00,-1530.00,2172.00,5268.00,19608.00,-2064.00
7864,11470.00,1883.00,-604.00,780.00,5284.00,19364.00,-2080.00
7880,-5234.00,2194.00,-360.00,-836.00,4644.00,17108.00,-2064.00
7897,-21283.00,1331.00,316.00,-1900.00,3828.00,17060.00,-2048.00
7914,-32768.00,-1417.00,1260.00,-1828.00,3160.00,16536.00,-2080.00
7930,-32768.00,-2721.00,1729.00,-1228.00,2524.00,15480.00,-2032.00
7948,-32768.00,-4093.00,1422.00,-1196.00,1500.00,13808.00,-2096.00
7964,-32768.00,-5315.00,202.00,116.00,20.00,10280.00,-2064.00
7981,-26760.00,-3627.00,45.00,676.00,-4132.00,15968.00,-2048.00
7997,-9143.00,-1796.00,804.00,1124.00,-8556.00,18076.00,-2064.00
8014,9640.00,-1524.00,1603.00,1356.00,-9764.00,18796.00,-2032.00
8031,29382.00,-3185.00,561.00,980.00,-8884.00,18464.00,-2064.00
8047,32767.00,-2519.00,-1565.00,1976.00,-5504.00,20176.00,-2080.00
8065,32767.00,-945.00,-3070.00,4284.00,-1008.00,22328.00,-2064.00
8081,32767.00,4359.00,-3793.00,5100.00,3944.00,22996.00,-2064.00
8097,32767.00,5610.00,-4588.00,3476.00,5592.00,21588.00,-2064.00
8115,32767.00,5172.00,-2879.00,308.00,7812.00,19392.00,-2032.00
8131,15932.00,7059.00,-1434.00,-1472.00,6336.00,20016.00,-2032.00
8147,-5118.00,4231.00,-2278.00,-1416.00,6480.00,16972.00,-2048.00
8165,-24493.00,-747.00,-196.00,-2024.00,4972.00,15576.00,-2064.00
8181,-32768.00,-1800.00,1102.00,-2376.00,4172.00,16568.00,-2032.00
8198,-32768.00,-1669.00,1478.00,-328.00,4756.00,15108.00,-2048.00
8215,-32768.00,-1630.00,867.00,748.00,3504.00,14004.00,-2048.00
8231,-32768.00,-3561.00,-214.00,1528.00,1736.00,13280.00,-2064.00
8248,-26753.00,-1431.00,-1564.00,16.00,-3972.00,15984.00,-2032.00
8265,-7164.00,-1854.00,-2381.00,1236.00,-7152.00,19400.00,-2032.00
8282,11830.00,-918.00,-957.00,1732.00,-7284.00,18704.00,-2064.00
8298,30606.00,701.00,-170.00,2012.00,-5928.00,19312.00,-2032.00
8314,32767.00,2472.00,399.00,1780.00,-2880.00,20748.00,-2032.00
8332,32767.00,2677.00,-1393.00,1908.00,740.00,22236.00,-2064.00
8348,32767.00,2141.00,-2692.00,2184.00,4280.00,21612.00,-2048.00
8365,30448.00,1328.00,-1841.00,1844.00,6256.00,20564.00,-2064.00
8382,12112.00,1511.00,-605.00,-256.00,6448.00,19292.00,-2032.00
8398,-6198.00,1929.00,-645.00,-692.00,5132.00,16444.00,-2064.00
8415,-22391.00,262.00,145.00,-1280.00,4476.00,15876.00,-2016.00
8432,-32768.00,-723.00,1122.00,-1936.00,2928.00,16644.00,-2080.00
8449,-32768.00,-1960.00,1904.00,-1604.00,2560.00,13532.00,-2080.00
8465,-32768.00,-4225.00,979.00,-924.00,1844.00,13132.00,-2048.00
8482,-32768.00,-5142.00,290.00,76.00,620.00,13404.00,-2048.00
8499,-19087.00,-3769.00,-1003.00,476.00,-4332.00,15928.00,-2032.00
8515,-1810.00,-2135.00,-1776.00,-72.00,-8448.00,19472.00,-2064.00
8531,14701.00,-1395.00,-3088.00,1832.00,-7712.00,20728.00,-2080.00
8549,32767.00,118.00,-4353.00,2700.00,-5244.00,20720.00,-2032.00
8565,32767.00,315.00,-3320.00,3072.00,-1868.00,20308.00,-2032.00
8582,32767.00,3344.00,-2093.00,3676.00,1728.00,22440.00,-2064.00
8599,32767.00,4708.00,-1647.00,3028.00,4636.00,22548.00,-2064.00
8615,24531.00,3194.00,-730.00,1756.00,5696.00,21232.00,-2064.00
8632,6596.00,3752.00,782.00,1016.00,5692.00,19392.00,-2000.00
8649,-8747.00,1325.00,637.00,0.00,5576.00,16644.00,-2032.00
8666,-23119.00,-186.00,1023.00,-848.00,4052.00,16696.00,-2032.00
8682,-32768.00,-1214.00,2065.00,-1560.00,3120.00,15056.00,-2032.00
8699,-32768.00,-191.00,3170.00,-2112.00,1372.00,14196.00,-2032.00
8716,-32768.00,-47.00,2458.00,-1612.00,24.00,13364.00,-2080.00
8732,-31896.00,-784.00,535.00,-732.00,-1408.00,14088.00,-2048.00
8749,-14984.00,-1126.00,-952.00,-228.00,-4856.00,16728.00,-2016.00
8766,2460.00,-1580.00,-2192.00,664.00,-7032.00,18688.00,-2080.00
8782,19646.00,-3242.00,-2746.00,1824.00,-5944.00,19184.00,-2096.00
8799,32767.00,306.00,-4064.00,2576.00,-4900.00,21448.00,-2048.00
8816,32767.00,2288.00,-2195.00,3060.00,100.00,20840.00,-2080.00
8833,32767.00,3063.00,-1150.00,4144.00,3732.00,23016.00,-2080.00
8849,32767.00,1631.00,-271.00,2200.00,4996.00,21780.00,-2048.00
8866,27050.00,875.00,247.00,1344.00,6408.00,20748.00,-2048.00
8883,12125.00,-522.00,102.00,432.00,5708.00,17508.00,-2032.00
8899,-3727.00,1318.00,-5.00,-1668.00,5180.00,16120.00,-2032.00
8915,-19479.00,2520.00,-291.00,-2964.00,4060.00,15832.00,-2064.00
8933,-32768.00,3032.00,-787.00,-2148.00,3472.00,17976.00,-2080.00
8949,-32768.00,-589.00,-1167.00,-736.00,3660.00,15904.00,-2048.00
8966,-32768.00,-3283.00,191.00,128.00,3628.00,13644.00,-2064.00
8982,-32768.00,-3638.00,1876.00,1692.00,2836.00,14224.00,-2064.00
8999,-21594.00,-1446.00,2363.00,1756.00,-1680.00,17852.00,-2016.00
9016,-3135.00,-133.00,-122.00,1968.00,-5036.00,19924.00,-2048.00
9032,14403.00,171.00,-3166.00,1448.00,-5352.00,20440.00,-2032.00
9050,28673.00,112.00,-4452.00,1424.00,-4480.00,20756.00,-2080.00
9066,32767.00,758.00,-4411.00,1776.00,-1744.00,21036.00,-2048.00
9082,32767.00,2699.00,-3242.00,2488.00,1616.00,21576.00,-2048.00
9100,32767.00,4801.00,-1514.00,2308.00,3224.00,20168.00,-2048.00
9116,26163.00,5848.00,776.00,1164.00,4420.00,19216.00,-2048.00
9133,13793.00,5755.00,2285.00,-600.00,4800.00,17100.00,-2048.00
9150,-2052.00,5613.00,3171.00,-2572.00,4056.00,16800.00,-2048.00
9166,-17729.00,4856.00,2873.00,-3112.00,4332.00,15084.00,-2048.00
9184,-32164.00,3919.00,3155.00,-3636.00,3508.00,15384.00,-2064.00
9200,-32768.00,1244.00,2956.00,-3004.00,2576.00,15884.00,-2048.00
9217,-32768.00,-1512.00,946.00,-1964.00,1948.00,15988.00,-2048.00
9234,-32768.00,-3303.00,-1281.00,176.00,-16.00,17200.00,-2048.00
9250,-28266.00,-4527.00,-2674.00,1408.00,-3656.00,18820.00,-2064.00
9267,-8885.00,-3730.00,-3279.00,1224.00,-5880.00,19652.00,-2048.00
9284,11955.00,-3346.00,-4675.00,2804.00,-5624.00,19528.00,-2080.00
9300,30812.00,-65.00,-2799.00,1340.00,-6348.00,20240.00,-2032.00
9317,32767.00,2585.00,-411.00,1672.00,-1516.00,17892.00,-2064.00
9334,32767.00,5253.00,2264.00,752.00,312.00,18724.00,-2032.00
9351,32767.00,6080.00,1881.00,1588.00,1708.00,21144.00,-2080.00
9367,32767.00,5244.00,2426.00,-376.00,4864.00,17920.00,-2064.00
9384,32630.00,2648.00,1391.00,-820.00,7124.00,18992.00,-2064.00
9401,11530.00,856.00,613.00,-1708.00,7424.00,18896.00,-2032.00
9417,-9055.00,582.00,-1715.00,-2024.00,7112.00,17496.00,-2048.00
9434,-28614.00,579.00,-2401.00,-1884.00,7548.00,16132.00,-2048.00
9451,-32768.00,-1205.00,-1128.00,-2092.00,6492.00,14836.00,-2080.00
9467,-32768.00,-3288.00,245.00,-488.00,6716.00,14936.00,-2064.00
9484,-32768.00,-4752.00,69.00,464.00,4812.00,13740.00,-2064.00
9501,-32768.00,-5498.00,-289.00,512.00,1124.00,16328.00,-2048.00
9518,-22821.00,-3108.00,-1937.00,988.00,-2992.00,18376.00,-2032.00
9534,-3026.00,-1961.00,-3244.00,672.00,-4856.00,17980.00,-2048.00
9551,16992.00,-1132.00,-2930.00,1044.00,-5156.00,18504.00,-2080.00
9568,32767.00,-621.00,-1550.00,-36.00,-4180.00,17604.00,-2080.00
9584,32767.00,-254.00,1027.00,0.00,-3008.00,19436.00,-2064.00
9601,32767.00,1893.00,2795.00,1016.00,856.00,21232.00,-2048.00
9618,32767.00,2794.00,1739.00,2640.00,6140.00,20292.00,-2048.00
9634,32767.00,1747.00,2537.00,1524.00,9236.00,18400.00,-2064.00
9651,22002.00,2636.00,182.00,-584.00,8912.00,18536.00,-2064.00
9668,904.00,3967.00,-1964.00,-1416.00,8424.00,17536.00,-2064.00
9684,-18495.00,1191.00,-3419.00,-2116.00,7504.00,16828.00,-2080.00
9701,-32768.00,-2347.00,-1666.00,-1920.00,6456.00,18396.00,-2032.00
9718,-32768.00,-3523.00,957.00,-1332.00,5080.00,17548.00,-2064.00
9735,-32768.00,-3756.00,2293.00,-204.00,4692.00,15396.00,-2048.00
9751,-32768.00,-3312.00,3241.00,704.00,2796.00,14704.00,-2048.00
9768,-32768.00,-839.00,2070.00,-376.00,-2916.00,17040.00,-2048.00
9785,-13026.00,637.00,-731.00,20.00,-6596.00,18736.00,-2048.00
9801,12982.00,-239.00,-1760.00,1124.00,-5488.00,17708.00,-2064.00
9819,32767.00,171.00,-1121.00,932.00,-3432.00,17016.00,-2064.00
9835,32767.00,1185.00,-158.00,2152.00,1184.00,17232.00,-2064.00
9851,32767.00,1912.00,-542.00,2896.00,3312.00,20544.00,-2064.00
9868,32767.00,742.00,-2644.00,1728.00,6224.00,19920.00,-2064.00
9885,32767.00,1205.00,-1215.00,1996.00,8756.00,19036.00,-2032.00
9902,18361.00,1385.00,-1058.00,328.00,8532.00,21152.00,-2064.00
9918,-6339.00,1695.00,-1582.00,-1664.00,7288.00,17648.00,-2032.00
9935,-26527.00,-881.00,-815.00,-512.00,8092.00,15664.00,-2064.00
9952,-32768.00,-2355.00,477.00,-3144.00,3820.00,17916.00,-2032.00
9968,-32768.00,-3558.00,2534.00,-3076.00,4648.00,14448.00,-2064.00
9986,-32768.00,-4184.00,2810.00,-1356.00,4264.00,16812.00,-2032.00
10002,-32768.00,-4120.00,2838.00,-728.00,1980.00,13140.00,-2080.00
10019,-32768.00,-3146.00,753.00,1208.00,-2120.00,16204.00,-2064.00
10036,-19407.00,-2423.00,-1444.00,2124.00,-6004.00,19060.00,-2064.00
10052,7372.00,-417.00,-2511.00,2472.00,-7232.00,18936.00,-2048.00
10070,31619.00,-543.00,-3216.00,3152.00,-6428.00,19208.00,-2048.00
10086,32767.00,1919.00,-3531.00,4092.00,-3172.00,20236.00,-2064.00
10102,32767.00,1753.00,-4023.00,3300.00,784.00,20804.00,-2048.00
10120,32767.00,2180.00,-2765.00,3676.00,3708.00,21560.00,-2048.00
10136,32767.00,2352.00,-1274.00,2100.00,6524.00,20576.00,-2032.00
10153,20938.00,1920.00,328.00,572.00,5104.00,21136.00,-2016.00
10170,-1258.00,1765.00,1924.00,-2268.00,5284.00,18380.00,-2064.00
10186,-21801.00,91.00,1046.00,-2684.00,7064.00,16156.00,-2048.00
10204,-32768.00,-2083.00,0.00,-2388.00,4844.00,17148.00,-2080.00
10220,-32768.00,-6744.00,2640.00,-1028.00,4564.00,13516.00,-2080.00
10236,-32768.00,-1670.00,2729.00,156.00,3340.00,14208.00,-2064.00
10254,-32768.00,-1105.00,2186.00,1276.00,1232.00,14400.00,-2064.00
10270,-32768.00,-88.00,1039.00,1072.00,-2232.00,14836.00,-2048.00
10288,-15680.00,-639.00,-1580.00,2424.00,-4992.00,16208.00,-2048.00
10304,13105.00,584.00,2844.00,-556.00,-10056.00,17272.00,-2064.00
10320,31769.00,-59.00,982.00,920.00,-8848.00,20128.00,-2064.00
10338,32767.00,-1308.00,-3328.00,2140.00,-5556.00,21968.00,-2016.00
10354,32767.00,755.00,-4789.00,2864.00,-1476.00,19864.00,-2064.00
10371,32767.00,1761.00,-4885.00,5112.00,3204.00,21560.00,-2048.00
10388,32767.00,1301.00,-4186.00,2148.00,5868.00,19944.00,-2032.00
10404,32767.00,206.00,-1203.00,2280.00,7784.00,17324.00,-2064.00
10422,15905.00,1403.00,651.00,-1428.00,6224.00,17408.00,-2064.00
10438,-3279.00,1878.00,2503.00,-2100.00,6052.00,16772.00,-2048.00
10455,-21369.00,807.00,3483.00,-2548.00,6028.00,16052.00,-2032.00
10472,-32768.00,-150.00,3572.00,-3084.00,3340.00,17352.00,-2032.00
10488,-32768.00,-2210.00,2148.00,-1716.00,3044.00,16964.00,-2064.00
10505,-32768.00,-3021.00,108.00,-392.00,1380.00,15340.00,-2048.00
10522,-32768.00,-4039.00,-2470.00,2080.00,1600.00,16248.00,-2048.00
10539,-19332.00,-1407.00,-2665.00,2636.00,-1308.00,17080.00,-2064.00
10556,5272.00,1639.00,-3309.00,3800.00,-3104.00,20228.00,-2016.00
10572,24442.00,1876.00,-3993.00,3272.00,-2696.00,19276.00,-2064.00
10589,32767.00,2774.00,-4777.00,2112.00,-1220.00,19640.00,-2032.00
10606,32767.00,1842.00,-4193.00,1876.00,1456.00,20048.00,-2048.00
10622,32300.00,2227.00,-2447.00,1100.00,2816.00,20660.00,-2032.00
10640,11491.00,707.00,1700.00,96.00,4284.00,20416.00,-2048.00
10656,-9233.00,-155.00,4871.00,-120.00,4028.00,17672.00,-2064.00
10673,-26421.00,248.00,6746.00,-292.00,3120.00,16924.00,-2064.00
10690,-32768.00,-448.00,5622.00,-836.00,1676.00,16856.00,-2064.00
10706,-32768.00,-2226.00,3310.00,-900.00,-1188.00,15972.00,-2064.00
10723,-32768.00,-3323.00,1109.00,252.00,-2268.00,16708.00,-2064.00
10740,-32768.00,-4536.00,-1203.00,692.00,-4852.00,16208.00,-2048.00
10757,-7754.00,-3811.00,-4943.00,1404.00,-5312.00,17748.00,-2048.00
10773,13059.00,-2034.00,-4673.00,1116.00,-5852.00,18488.00,-2064.00
10790,31007.00,-355.00,-4626.00,2352.00,-3908.00,18768.00,-2016.00
10807,32767.00,1474.00,-4049.00,3184.00,-1940.00,20304.00,-2048.00
10824,32767.00,3379.00,-3742.00,2516.00,408.00,19540.00,-2064.00
10841,32767.00,3334.00,-2324.00,2440.00,2616.00,21952.00,-2000.00
10857,32767.00,2592.00,-180.00,2476.00,4416.00,20796.00,-2048.00
10874,17022.00,2636.00,2208.00,2004.00,5744.00,20776.00,-2080.00
10891,-4312.00,2820.00,2335.00,632.00,5068.00,19768.00,-2032.00
10908,-22458.00,2545.00,2027.00,284.00,5164.00,17032.00,-2064.00
10925,-32768.00,1837.00,2357.00,-116.00,3876.00,17368.00,-2064.00
10941,-32768.00,-440.00,2468.00,-284.00,2824.00,15656.00,-2064.00
10958,-32768.00,-1585.00,1759.00,-520.00,1380.00,14352.00,-2048.00
10975,-32768.00,-2767.00,1101.00,156.00,84.00,14100.00,-2080.00
10991,-29866.00,-2388.00,-327.00,932.00,-4164.00,16100.00,-2048.00
11009,-7145.00,-868.00,-1690.00,2124.00,-8564.00,18960.00,-2032.00
11025,13169.00,4.00,-2982.00,1536.00,-8556.00,18632.00,-2048.00
11041,31493.00,1227.00,-3768.00,1740.00,-6652.00,19072.00,-2032.00
11059,32767.00,1703.00,-3531.00,1504.00,-3612.00,18912.00,-2048.00
11075,32767.00,2686.00,-2687.00,2492.00,136.00,19880.00,-2064.00
11091,32767.00,4292.00,-1913.00,2484.00,2356.00,21272.00,-2000.00
11109,32767.00,3699.00,23.00,2096.00,5308.00,20420.00,-2080.00
11125,16167.00,-1033.00,3038.00,892.00,4732.00,19936.00,-2048.00
11143,-6396.00,1210.00,3199.00,80.00,4672.00,18172.00,-2064.00
11159,-25345.00,4033.00,2017.00,-348.00,4024.00,17460.00,-2080.00
11175,-32768.00,2658.00,614.00,-1296.00,2336.00,17176.00,-2064.00
11193,-32768.00,-1869.00,837.00,-1120.00,1260.00,15616.00,-2032.00
11209,-32768.00,-5296.00,842.00,652.00,436.00,14732.00,-2064.00
11226,-32768.00,-5195.00,576.00,-836.00,-696.00,15300.00,-2032.00
11242,-26299.00,-2750.00,-1085.00,552.00,-5352.00,16328.00,-2032.00
11259,-3459.00,-702.00,-1838.00,1492.00,-8988.00,18752.00,-2064.00
11276,16564.00,1934.00,-1376.00,1012.00,-9932.00,18156.00,-2064.00
11293,32767.00,3040.00,-2340.00,1848.00,-7624.00,19432.00,-2048.00
11310,32767.00,3147.00,-2455.00,4132.00,-548.00,21016.00,-2064.00
11326,32767.00,3252.00,-1790.00,3776.00,1808.00,20520.00,-2032.00
11343,32767.00,5298.00,-2293.00,2960.00,3052.00,19984.00,-2048.00
11360,32767.00,4447.00,-1023.00,1868.00,4252.00,20040.00,-2064.00
11377,11235.00,3155.00,850.00,-32.00,3888.00,19864.00,-2048.00
11394,-9427.00,2474.00,1169.00,-1352.00,3204.00,17600.00,-2064.00
11410,-27993.00,1570.00,1041.00,-2124.00,2708.00,16952.00,-2032.00
11427,-32768.00,443.00,1028.00,-3072.00,1324.00,15872.00,-2032.00
11444,-32768.00,-2730.00,458.00,-2024.00,1288.00,14680.00,-2096.00
11461,-32768.00,-6213.00,-1058.00,-556.00,384.00,14532.00,-2064.00
11478,-32768.00,-5524.00,-2151.00,556.00,-3184.00,15700.00,-2080.00
11494,-12941.00,-2859.00,-2804.00,1168.00,-7312.00,17436.00,-2048.00
11511,9818.00,473.00,-1392.00,1652.00,-7476.00,17728.00,-2032.00
11528,29499.00,2066.00,142.00,780.00,-7412.00,17764.00,-2032.00
11544,32767.00,2610.00,1660.00,1180.00,-4664.00,18960.00,-2000.00
11561,32767.00,2589.00,1931.00,1500.00,-1688.00,20668.00,-2048.00
11578,32767.00,4903.00,159.00,3272.00,2452.00,21752.00,-2048.00
11595,32767.00,3687.00,-155.00,2240.00,5756.00,18964.00,-2064.00
11612,32767.00,2826.00,-380.00,1924.00,8380.00,18292.00,-2064.00
11628,26095.00,1975.00,-710.00,312.00,8680.00,19436.00,-2064.00
11645,4021.00,2241.00,-3492.00,-1580.00,7668.00,19448.00,-2064.00
11662,-18380.00,1275.00,-4975.00,-3508.00,6488.00,17196.00,-2032.00
11678,-32768.00,-246.00,-4047.00,-2968.00,5336.00,16900.00,-2064.00
11696,-32768.00,-3118.00,-2713.00,-2788.00,4684.00,15064.00,-2064.00
11712,-32768.00,-8169.00,841.00,-584.00,4376.00,12472.00,-2048.00
11729,-32768.00,-9112.00,3350.00,1828.00,832.00,13960.00,-2048.00
11746,-32768.00,-7492.00,2682.00,1968.00,-3680.00,16912.00,-2064.00
11762,-21728.00,-4053.00,380.00,1788.00,-7068.00,17196.00,-2064.00
11780,8577.00,-1705.00,-1145.00,1432.00,-8420.00,18540.00,-2048.00
11796,30851.00,-15.00,-2962.00,872.00,-7392.00,18764.00,-2048.00
11812,32767.00,884.00,-5089.00,1376.00,-3572.00,19616.00,-2048.00
11830,32767.00,1273.00,-6816.00,2948.00,1480.00,20532.00,-2032.00
11846,32767.00,3257.00,-4619.00,5764.00,4024.00,20528.00,-2064.00
11864,26275.00,2567.00,-1191.00,2676.00,5428.00,19848.00,-2048.00
11880,3444.00,3906.00,2670.00,8.00,4196.00,19304.00,-2032.00
11896,-17891.00,3151.00,3643.00,-916.00,3008.00,17856.00,-2048.00
11914,-32768.00,-351.00,3088.00,-2380.00,924.00,16712.00,-2032.00
11930,-32768.00,-4264.00,2494.00,-2388.00,-380.00,17264.00,-2032.00
11947,-32768.00,-7006.00,1804.00,-1460.00,-1260.00,15132.00,-2064.00
11964,-32768.00,-8043.00,3110.00,-156.00,-3468.00,16636.00,-2048.00
11980,-29197.00,-3476.00,610.00,152.00,-6800.00,15752.00,-2064.00
11998,810.00,-553.00,-463.00,1384.00,-9896.00,18732.00,-2032.00
12014,23470.00,2035.00,-279.00,1056.00,-10132.00,18208.00,-2016.00
12030,32767.00,2063.00,-2212.00,1884.00,-6020.00,18416.00,-2064.00
12048,32767.00,2424.00,-3401.00,4172.00,-956.00,20416.00,-2048.00
12064,32767.00,4902.00,-3338.00,6028.00,4048.00,21756.00,-2080.00
12081,32767.00,5113.00,-936.00,3732.00,5620.00,20340.00,-2064.00
12098,24344.00,3566.00,2438.00,2632.00,6480.00,19656.00,-2032.00
12114,151.00,3553.00,2648.00,788.00,4752.00,19124.00,-2048.00
12131,-20696.00,4116.00,1354.00,-1212.00,2752.00,16468.00,-2064.00
12148,-32768.00,1066.00,1080.00,-1932.00,1980.00,15752.00,-2048.00
12165,-32768.00,-2754.00,1922.00,-2132.00,1760.00,14820.00,-2032.00
12182,-32768.00,-5057.00,2355.00,-1268.00,1060.00,13568.00,-2064.00
12198,-32768.00,-5651.00,2043.00,-1012.00,-928.00,14308.00,-2032.00
12216,-29224.00,-3885.00,835.00,108.00,-5256.00,15880.00,-2064.00
12232,-2448.00,-314.00,880.00,1588.00,-9616.00,18648.00,-2064.00
12249,22512.00,1808.00,588.00,940.00,-9168.00,18032.00,-2032.00
12265,32767.00,-392.00,-1196.00,612.00,-7904.00,18588.00,-2064.00
12282,32767.00,710.00,-3971.00,2356.00,-3480.00,21036.00,-2032.00
12299,32767.00,1908.00,-5534.00,5152.00,3324.00,22836.00,-2032.00
12316,32767.00,5172.00,-2457.00,4328.00,4996.00,21884.00,-2048.00
12333,29224.00,3827.00,435.00,3880.00,6348.00,19424.00,-2064.00
12349,8361.00,3933.00,2380.00,396.00,4992.00,18300.00,-2064.00
12366,-12952.00,2879.00,1356.00,-1832.00,3340.00,17192.00,-2064.00
12383,-30674.00,79.00,-80.00,-2924.00,3328.00,16952.00,-2048.00
12399,-32768.00,-2505.00,-252.00,-2884.00,2904.00,15984.00,-2064.00
12417,-32768.00,-6589.00,-223.00,-2340.00,2924.00,14512.00,-2032.00
12433,-32768.00,-8070.00,-363.00,-724.00,2120.00,15584.00,-2048.00
12450,-32768.00,-7460.00,-1475.00,776.00,-1060.00,14980.00,-2080.00
12467,-32702.00,-3902.00,-2698.00,3068.00,-6972.00,16892.00,-2032.00
12483,-11069.00,-46.00,176.00,980.00,-11976.00,16848.00,-2048.00
12500,12654.00,1629.00,3621.00,956.00,-12292.00,17252.00,-2064.00
12517,32767.00,2172.00,3079.00,1140.00,-10420.00,18364.00,-2048.00
12533,32767.00,3134.00,251.00,2452.00,-4068.00,18544.00,-2032.00
12551,32767.00,5463.00,-2458.00,4952.00,1132.00,20228.00,-2048.00
12567,32767.00,5181.00,-3253.00,4800.00,4024.00,21724.00,-2016.00
12584,32767.00,4296.00,-1407.00,3544.00,6248.00,18620.00,-2064.00
12601,31847.00,6022.00,-962.00,1508.00,6392.00,18648.00,-2048.00
12617,10286.00,5735.00,-636.00,-2576.00,3088.00,19980.00,-2048.00
12635,-12312.00,1388.00,-2246.00,-4116.00,2520.00,17304.00,-2032.00
12651,-32768.00,-3630.00,-1950.00,-3836.00,2076.00,17708.00,-2048.00
12668,-32768.00,-5900.00,-438.00,-3636.00,2268.00,16304.00,-2064.00
12685,-32768.00,-8288.00,943.00,-908.00,3252.00,15284.00,-2032.00
12701,-32768.00,-9683.00,3035.00,1644.00,2468.00,14428.00,-2064.00
12719,-32768.00,-3842.00,566.00,2560.00,-2804.00,10748.00,-2048.00
12735,-23565.00,-1942.00,-1907.00,2612.00,-8524.00,18236.00,-2048.00
12752,4207.00,1548.00,-139.00,2920.00,-10580.00,16860.00,-2064.00
12769,32767.00,2610.00,2540.00,2268.00,-8064.00,18764.00,-2048.00
12785,32767.00,4527.00,3213.00,504.00,-5588.00,18340.00,-2032.00
12803,32767.00,6308.00,3103.00,2228.00,-1232.00,20296.00,-2032.00
12819,32767.00,8841.00,1221.00,4008.00,3044.00,19840.00,-2048.00
12836,32767.00,5557.00,2072.00,2528.00,6316.00,17968.00,-2048.00
12853,32767.00,4764.00,2547.00,532.00,7344.00,18976.00,-2032.00
12869,26445.00,3939.00,469.00,-1048.00,6220.00,20692.00,-2048.00
12887,2489.00,2553.00,-3734.00,-3040.00,5488.00,18608.00,-2048.00
12903,-19596.00,-1346.00,-6924.00,-2988.00,5076.00,18476.00,-2048.00
12920,-32768.00,-4480.00,-5635.00,-2864.00,4736.00,18348.00,-2032.00
12937,-32768.00,-7087.00,-2221.00,-2356.00,4872.00,14616.00,-2048.00
12954,-32768.00,-8084.00,1865.00,932.00,4724.00,14564.00,-2032.00
12971,-32768.00,-4905.00,4146.00,2552.00,2820.00,14896.00,-2048.00
12987,-32768.00,-991.00,3687.00,948.00,-2668.00,16548.00,-2064.00
13004,-7245.00,1687.00,2017.00,-36.00,-7740.00,18272.00,-2064.00
13021,20861.00,3085.00,1447.00,120.00,-6864.00,17960.00,-2016.00
13037,32767.00,3051.00,61.00,-212.00,-4120.00,18732.00,-2032.00
13054,32767.00,3585.00,-635.00,2052.00,1424.00,20464.00,-2016.00
13071,32767.00,5006.00,-521.00,2932.00,4300.00,20612.00,-2080.00
13087,32767.00,2443.00,1955.00,1908.00,6860.00,19740.00,-2032.00
13105,32767.00,2406.00,1609.00,848.00,7832.00,20420.00,-2080.00
13121,14727.00,4027.00,322.00,-1868.00,7232.00,19780.00,-2016.00
13137,-11314.00,3041.00,-2919.00,-2420.00,7008.00,17992.00,-2080.00
13155,-32768.00,-2389.00,-4544.00,-3364.00,4812.00,18484.00,-2064.00
13171,-32768.00,-6007.00,-1741.00,-3944.00,4088.00,16712.00,-2048.00
13189,-32768.00,-7067.00,1237.00,-2192.00,3992.00,13696.00,-2032.00
13205,-32768.00,-6974.00,2411.00,1344.00,3168.00,14376.00,-2048.00
13222,-32768.00,-1574.00,2017.00,220.00,228.00,14156.00,-2032.00
13239,-24704.00,782.00,-240.00,1436.00,-3336.00,16348.00,-2032.00
13255,169.00,-878.00,1108.00,680.00,-5184.00,17952.00,-2032.00
13272,13274.00,-2758.00,-2523.00,-164.00,-6788.00,20560.00,-2016.00
13289,24372.00,-3013.00,-5049.00,-588.00,-7620.00,22796.00,-2032.00
13305,28990.00,-1729.00,-4429.00,1700.00,-4624.00,20924.00,-2032.00
13323,28369.00,-1685.00,-2497.00,3296.00,-80.00,19732.00,-2080.00
13339,25654.00,-23.00,-1039.00,3816.00,1136.00,21192.00,-2048.00
13356,22346.00,351.00,432.00,2928.00,1908.00,20716.00,-2080.00
13373,22311.00,2495.00,915.00,2584.00,1720.00,21252.00,-2016.00
13389,22603.00,2036.00,-371.00,-432.00,1720.00,18724.00,-2064.00
13406,19934.00,353.00,-2603.00,-1620.00,1176.00,20020.00,-2064.00
13423,16423.00,1306.00,-4113.00,-444.00,2740.00,18308.00,-2032.00
13440,14899.00,2606.00,-2292.00,-1524.00,4080.00,16816.00,-2064.00
13457,11535.00,614.00,582.00,-1232.00,5516.00,16508.00,-2048.00
13473,7059.00,1174.00,3071.00,-2028.00,4928.00,17036.00,-2048.00
13490,459.00,5397.00,4884.00,-2600.00,3572.00,15672.00,-2064.00
13507,-4559.00,5542.00,6004.00,-2304.00,6920.00,14516.00,-2064.00
13523,-9490.00,4117.00,4224.00,-1204.00,3880.00,18096.00,-2032.00
13540,-17998.00,2137.00,-2264.00,-60.00,3996.00,20712.00,-2080.00
13557,-27995.00,-4722.00,-7472.00,1388.00,3808.00,20404.00,-2048.00
13574,-32768.00,-9095.00,-7395.00,1824.00,4012.00,16644.00,-2032.00
13590,-32768.00,-11292.00,-4220.00,2372.00,2960.00,16524.00,-2048.00
13607,-32768.00,-10651.00,-2751.00,2484.00,2816.00,14720.00,-2064.00
13624,-32768.00,-7374.00,-889.00,1740.00,-1388.00,15016.00,-2048.00
13641,-28519.00,26.00,1657.00,564.00,-5856.00,15856.00,-2064.00
13658,-6184.00,5153.00,3284.00,164.00,-6516.00,15772.00,-2048.00
13674,16635.00,9090.00,5816.00,-1568.00,-8196.00,16532.00,-2048.00
13691,32767.00,6855.00,5942.00,-3020.00,-8512.00,18212.00,-2032.00
13708,32767.00,1170.00,3232.00,-1604.00,-4892.00,20628.00,-2048.00
13725,32767.00,-3647.00,-163.00,1344.00,-276.00,19948.00,-2064.00
13742,32767.00,-8614.00,-2188.00,2768.00,4192.00,19752.00,-2064.00
13758,32767.00,-6085.00,-3160.00,3428.00,6664.00,21448.00,-2032.00
13775,28031.00,-1617.00,-2663.00,2268.00,7196.00,22344.00,-2032.00
13792,6502.00,-671.00,-1759.00,1376.00,7400.00,20772.00,-2032.00
13809,-15205.00,-1102.00,-1015.00,92.00,6316.00,18540.00,-2032.00
13826,-32768.00,-3010.00,-561.00,-628.00,4984.00,19824.00,-2064.00
13842,-32768.00,-5130.00,130.00,-556.00,4764.00,16880.00,-2064.00
13859,-32768.00,-6982.00,384.00,928.00,3900.00,14832.00,-2048.00
13876,-32768.00,-8829.00,935.00,2492.00,2176.00,12704.00,-2048.00
13892,-32768.00,-4863.00,2132.00,2828.00,-1024.00,14244.00,-2048.00
13910,-20002.00,1260.00,2609.00,1888.00,-8120.00,15916.00,-2064.00
13926,8710.00,4607.00,3181.00,120.00,-12168.00,16096.00,-2032.00
13943,31240.00,3384.00,3089.00,-1472.00,-11680.00,17036.00,-2048.00
13960,32767.00,196.00,58.00,-208.00,-8488.00,19864.00,-2032.00
13976,32767.00,751.00,-5033.00,3168.00,-2068.00,21532.00,-2048.00
13993,32767.00,1802.00,-5076.00,6836.00,2964.00,19332.00,-2064.00
14010,32767.00,4051.00,-5112.00,4944.00,7824.00,20604.00,-2064.00
14026,32767.00,4942.00,-2770.00,3948.00,8384.00,18864.00,-2032.00
14044,31011.00,4476.00,-1081.00,1816.00,9000.00,17312.00,-2064.00
14060,7307.00,3880.00,-897.00,-1736.00,7548.00,20460.00,-2080.00
14077,-19671.00,2080.00,-1358.00,-2896.00,5760.00,17420.00,-2048.00
14094,-32768.00,-1510.00,-832.00,-2704.00,4888.00,17196.00,-2032.00
14110,-32768.00,-4467.00,938.00,-2068.00,4756.00,13992.00,-2032.00
14128,-32768.00,-7171.00,2385.00,-136.00,4736.00,12260.00,-2048.00
14144,-32768.00,-7297.00,2767.00,1708.00,2636.00,11764.00,-2064.00
14161,-32768.00,-4851.00,3418.00,2996.00,-2712.00,16276.00,-2032.00
14178,-28426.00,-1078.00,1565.00,1940.00,-8532.00,15452.00,-2048.00
14194,2868.00,466.00,160.00,188.00,-12920.00,16732.00,-2032.00
14212,26116.00,1592.00,-311.00,256.00,-13524.00,18876.00,-2032.00
14228,32767.00,742.00,-3125.00,636.00,-9704.00,20252.00,-2064.00
14244,32767.00,1147.00,-4249.00,3884.00,-3060.00,21996.00,-2064.00
14262,32767.00,5424.00,-3597.00,5780.00,2404.00,21028.00,-2016.00
14278,32767.00,7957.00,-664.00,4500.00,5076.00,16716.00,-2064.00
14296,32767.00,6984.00,-461.00,3376.00,7332.00,17708.00,-2032.00
14312,32767.00,4632.00,-59.00,228.00,7252.00,16884.00,-2064.00
14328,20337.00,3974.00,-460.00,-2536.00,6760.00,18104.00,-2032.00
14346,-5358.00,1220.00,-2010.00,-3832.00,6108.00,17520.00,-2064.00
14362,-27529.00,-1587.00,-2449.00,-2428.00,6024.00,17024.00,-2032.00
14380,-32768.00,-3260.00,-1492.00,-2244.00,5148.00,16548.00,-2064.00
14396,-32768.00,-7266.00,1056.00,-220.00,3940.00,15052.00,-2080.00
14412,-32768.00,-9276.00,3098.00,1804.00,2400.00,13848.00,-2048.00
14430,-32768.00,-6877.00,2677.00,2500.00,-656.00,15444.00,-2032.00
14446,-32768.00,-3634.00,609.00,3328.00,-4704.00,16920.00,-2064.00
14464,-1755.00,-707.00,-682.00,1752.00,-7736.00,18168.00,-2016.00
14480,24209.00,2264.00,-993.00,576.00,-9492.00,19476.00,-2016.00
14496,32767.00,2536.00,-1836.00,436.00,-6864.00,20092.00,-2048.00
14514,32767.00,3834.00,-2082.00,1720.00,-1768.00,21000.00,-2048.00
14530,32767.00,6215.00,-2988.00,3480.00,2404.00,21616.00,-2032.00
14546,32767.00,9203.00,-1729.00,4736.00,4524.00,17344.00,-2048.00
14564,32767.00,6368.00,-1135.00,2724.00,7912.00,17740.00,-2064.00
14580,32767.00,6019.00,-1037.00,-52.00,8316.00,17196.00,-2048.00
14598,18197.00,4785.00,-1408.00,-2148.00,8224.00,18208.00,-2080.00
14614,-7403.00,2186.00,-3943.00,-3788.00,6736.00,17376.00,-2032.00
14630,-29415.00,-921.00,-5946.00,-3468.00,6492.00,16756.00,-2032.00
14648,-32768.00,-5497.00,-3908.00,-2588.00,5264.00,15332.00,-2032.00
14664,-32768.00,-8622.00,313.00,-1300.00,5496.00,15052.00,-2032.00
14682,-32768.00,-11032.00,3047.00,1528.00,5152.00,12184.00,-2064.00
14698,-32768.00,-10085.00,4697.00,1132.00,2004.00,14772.00,-2016.00
14715,-32768.00,-6172.00,2652.00,1892.00,-3868.00,17272.00,-2048.00
14732,-18958.00,-2353.00,-249.00,1512.00,-7940.00,18756.00,-2048.00
14748,11193.00,2439.00,-912.00,940.00,-9436.00,19736.00,-2032.00
14766,32767.00,2481.00,-650.00,720.00,-8048.00,20140.00,-2032.00
14782,32767.00,1605.00,-1036.00,1008.00,-4468.00,21832.00,-2032.00
14798,32767.00,4201.00,-1024.00,2612.00,916.00,21576.00,-2080.00
14816,32767.00,8042.00,-2437.00,4392.00,10764.00,24500.00,-2048.00
14832,32767.00,7135.00,-1071.00,2796.00,7896.00,15324.00,-2032.00
14850,32767.00,6910.00,-1949.00,968.00,8936.00,15696.00,-2016.00
14866,32767.00,7214.00,-5142.00,-660.00,9276.00,17948.00,-2032.00
14882,14003.00,6950.00,-9294.00,-2580.00,8716.00,18020.00,-2032.00
14900,-11095.00,-259.00,-11505.00,-3592.00,8176.00,16008.00,-2016.00
14916,-32768.00,-7249.00,-9321.00,-3208.00,6336.00,14768.00,-2064.00
14934,-32768.00,-14261.00,-2871.00,-3236.00,4880.00,14152.00,-2048.00
14950,-32768.00,-20948.00,8073.00,-888.00,6384.00,11968.00,-2064.00
14967,-32768.00,-12967.00,11874.00,680.00,4676.00,12036.00,-2048.00
14984,-32768.00,-6198.00,11091.00,1928.00,1344.00,14904.00,-2032.00
15001,-24610.00,-2072.00,7320.00,1032.00,-1752.00,17856.00,-2032.00
15017,4501.00,981.00,1465.00,972.00,-6020.00,21788.00,-2064.00
15034,26750.00,1073.00,-2547.00,2004.00,-4660.00,22576.00,-2064.00
15051,32767.00,-494.00,-4643.00,3360.00,-1052.00,24112.00,-2016.00
15068,32767.00,5259.00,-6638.00,5384.00,2720.00,23444.00,-2048.00
15085,32767.00,6413.00,-7483.00,3332.00,7912.00,20812.00,-2032.00
15101,32767.00,6103.00,-5053.00,2196.00,9540.00,20448.00,-2048.00
15118,19836.00,5531.00,-832.00,672.00,7296.00,18316.00,-2032.00
15135,227.00,4833.00,1053.00,-1716.00,6460.00,15512.00,-2064.00
15152,-16447.00,314.00,-684.00,-2864.00,5840.00,14728.00,-2064.00
15168,-32768.00,-7326.00,-1260.00,-5528.00,2356.00,16448.00,-2032.00
15185,-32768.00,-12581.00,-127.00,-3604.00,1892.00,14856.00,-2080.00
15202,-32768.00,-12744.00,982.00,-1628.00,2072.00,13508.00,-2032.00
15219,-32768.00,-16567.00,4922.00,2364.00,264.00,11384.00,-2032.00
15236,-32768.00,-12664.00,6776.00,2020.00,-2460.00,16772.00,-2048.00
15253,-32768.00,-5058.00,3396.00,-40.00,-12628.00,16700.00,-2048.00
15269,-13813.00,-3331.00,2202.00,5288.00,-9108.00,20372.00,-2016.00
15286,9779.00,1612.00,418.00,3236.00,-10668.00,18592.00,-2064.00
15303,31487.00,4602.00,-3334.00,4532.00,-13828.00,22572.00,-2032.00
15320,32767.00,7357.00,-5658.00,3832.00,-5028.00,20668.00,-2032.00
15337,32767.00,11245.00,-2350.00,5244.00,-348.00,20548.00,-2032.00
15353,32767.00,10921.00,1168.00,4308.00,1952.00,20220.00,-2048.00
15371,32767.00,8622.00,1341.00,3248.00,1148.00,20548.00,-2032.00
15387,32767.00,7403.00,169.00,1288.00,4220.00,18120.00,-2016.00
15404,32767.00,7472.00,-2897.00,-1560.00,5064.00,20196.00,-2048.00
15421,16116.00,4115.00,-4932.00,-4248.00,4984.00,17356.00,-2032.00
15437,-1796.00,1941.00,-6332.00,-4124.00,4780.00,13532.00,-2048.00
15455,-17062.00,-1307.00,-6498.00,-2656.00,8768.00,12184.00,-2064.00
15471,-28002.00,-3302.00,-4282.00,-1952.00,4352.00,12768.00,-2048.00
15488,-32768.00,-7495.00,-2321.00,-1656.00,1684.00,14276.00,-2064.00
15505,-32768.00,-6203.00,841.00,1772.00,5148.00,15816.00,-2032.00
15521,-27867.00,-3053.00,-27.00,2764.00,4856.00,15772.00,-2080.00
15539,-11584.00,599.00,84.00,2116.00,3384.00,15332.00,-2048.00
15555,4243.00,1282.00,784.00,936.00,860.00,18724.00,-2080.00
15571,12650.00,2662.00,1839.00,1468.00,2000.00,24624.00,-2032.00
15588,16421.00,4014.00,1084.00,584.00,-112.00,23636.00,-2080.00
15605,16125.00,2440.00,2019.00,-1188.00,-680.00,22624.00,-2016.00
15622,15785.00,2981.00,3059.00,216.00,1220.00,18212.00,-2016.00
15638,17220.00,3383.00,6870.00,-464.00,3684.00,20184.00,-2016.00
15655,7970.00,3685.00,5643.00,312.00,3024.00,19704.00,-2032.00
15672,6979.00,4504.00,4756.00,1732.00,5100.00,15252.00,-2064.00
15689,1900.00,3220.00,4529.00,-1192.00,6304.00,19208.00,-2064.00
15706,-2620.00,2451.00,741.00,-1492.00,4368.00,19096.00,-2032.00
15722,-4960.00,3028.00,-5830.00,-2772.00,3636.00,16840.00,-2032.00
15739,-8843.00,4735.00,-9279.00,168.00,6828.00,16436.00,-2048.00
15756,-7427.00,-350.00,-9221.00,-10108.00,6864.00,25848.00,-2016.00
15772,-9840.00,-556.00,-7698.00,3708.00,1564.00,7656.00,-2048.00
15790,-1740.00,1305.00,33.00,72.00,2508.00,19404.00,-2016.00
15806,-2796.00,3050.00,-3515.00,-1552.00,2388.00,19340.00,-2032.00
15822,-3938.00,1425.00,-2211.00,-444.00,3692.00,20752.00,-2032.00
15839,-5291.00,62.00,31.00,-2060.00,1720.00,20196.00,-2032.00
15856,-5177.00,-550.00,-290.00,-3700.00,2036.00,19824.00,-2080.00
15873,-3207.00,456.00,-1077.00,-2056.00,1796.00,17604.00,-2048.00
15889,133.00,1303.00,-93.00,-1520.00,2932.00,17160.00,-2016.00
15905,2177.00,2585.00,1089.00,-964.00,3212.00,18560.00,-2064.00
15923,2352.00,4141.00,1125.00,-1920.00,3216.00,18420.00,-2032.00
15939,-183.00,5573.00,540.00,-1292.00,3636.00,19612.00,-2064.00
15955,-2003.00,3322.00,2810.00,260.00,4608.00,20516.00,-2032.00
15973,-3083.00,1282.00,4241.00,-360.00,3724.00,19764.00,-2032.00
15989,-3090.00,-2543.00,4165.00,-2320.00,1480.00,17156.00,-2032.00
16006,-2239.00,-1099.00,1243.00,-2728.00,2028.00,17004.00,-2064.00
16023,-2786.00,-515.00,3704.00,-1624.00,1604.00,18408.00,-2048.00
16039,-5954.00,-1260.00,5594.00,-2652.00,488.00,18872.00,-2032.00
16057,-9089.00,-296.00,2997.00,-4168.00,348.00,21272.00,-2048.00
16073,-6808.00,-2370.00,-399.00,-2888.00,-168.00,16188.00,-2016.00
16090,-3943.00,-2231.00,-3988.00,-2660.00,1160.00,17736.00,-2032.00
16106,-1383.00,-3590.00,-3347.00,-764.00,3220.00,16580.00,-2048.00
16123,232.00,-876.00,-1273.00,-1516.00,1576.00,17988.00,-2048.00
16140,-1205.00,-413.00,-527.00,-1856.00,756.00,19536.00,-2048.00
16156,-3573.00,-3730.00,-884.00,-1164.00,1192.00,20976.00,-2064.00
16174,-5791.00,-4530.00,-547.00,-316.00,1764.00,20892.00,-2064.00
16190,-8333.00,-7644.00,207.00,-52.00,280.00,19172.00,-2064.00
16206,-10204.00,-14588.00,-339.00,-636.00,1404.00,19836.00,-2048.00
16224,-17852.00,-12111.00,-708.00,1616.00,1540.00,18500.00,-2048.00
16240,-23571.00,-8430.00,297.00,2352.00,228.00,19312.00,-2032.00
16257,-28653.00,-4232.00,710.00,-2108.00,-2696.00,16040.00,-2032.00
16274,-28607.00,2855.00,-3356.00,-696.00,-44.00,14576.00,-2048.00
16290,-26626.00,-70.00,-3046.00,1276.00,-2560.00,14948.00,-2032.00
16307,-23057.00,-3090.00,-1246.00,1072.00,-5332.00,15416.00,-2032.00
16324,-16137.00,-4751.00,183.00,2328.00,-6756.00,15908.00,-2048.00
16340,-2812.00,-5963.00,283.00,2336.00,-4664.00,17640.00,-2032.00
16357,14284.00,-9208.00,-658.00,1172.00,-6888.00,14636.00,-2032.00
16374,29344.00,-2034.00,-4350.00,2896.00,-6420.00,19392.00,-2032.00
16391,32767.00,2220.00,-4736.00,2496.00,-4808.00,18676.00,-2080.00
16408,32767.00,995.00,-5213.00,2320.00,-1624.00,20284.00,-2032.00
16424,32767.00,-1798.00,-6047.00,2596.00,556.00,19548.00,-2064.00
16441,32767.00,-4385.00,-3787.00,1496.00,3504.00,20736.00,-2048.00
16458,32767.00,-1046.00,-1517.00,2124.00,3256.00,21828.00,-2064.00
16475,17086.00,-1029.00,595.00,940.00,3668.00,21828.00,-2032.00
16492,-303.00,3267.00,2786.00,-520.00,3728.00,19868.00,-2000.00
16508,-18281.00,4988.00,5052.00,-72.00,3904.00,18392.00,-2064.00
16525,-32768.00,1528.00,7304.00,1312.00,4032.00,20020.00,-2064.00
16542,-32768.00,-892.00,6454.00,628.00,2888.00,18492.00,-2048.00
16559,-32768.00,-3298.00,2624.00,1936.00,1480.00,15260.00,-2032.00
16575,-32768.00,-4156.00,-283.00,2716.00,508.00,12768.00,-2032.00
16592,-32768.00,-1341.00,-988.00,2264.00,-2672.00,13956.00,-2032.00
16609,-4820.00,130.00,232.00,3624.00,-7776.00,17084.00,-2032.00
16625,16018.00,3386.00,2223.00,2380.00,-10924.00,17656.00,-2032.00
16643,32767.00,1038.00,3162.00,400.00,-7908.00,14596.00,-2016.00
16659,32767.00,-851.00,1560.00,144.00,-4596.00,15888.00,-2064.00
16676,32767.00,1736.00,-4434.00,484.00,-88.00,17708.00,-2032.00
16693,32767.00,3704.00,-9116.00,1932.00,3708.00,19176.00,-2048.00
16709,32767.00,1886.00,-8779.00,1384.00,5604.00,20996.00,-2032.00
16727,32767.00,3934.00,-5082.00,3860.00,8268.00,20980.00,-2048.00
16743,15984.00,4456.00,-1495.00,2468.00,8540.00,20336.00,-2064.00
16759,-6746.00,2408.00,1057.00,-384.00,7000.00,20136.00,-2016.00
16777,-27511.00,949.00,-84.00,-1076.00,5500.00,19680.00,-2048.00
16793,-32768.00,-125.00,-1176.00,-2364.00,4736.00,20336.00,-2032.00
16809,-32768.00,-2072.00,-2868.00,288.00,4380.00,18488.00,-2032.00
16827,-32768.00,-4753.00,-2624.00,1728.00,4204.00,14816.00,-2048.00
16843,-32768.00,-3014.00,-1923.00,1008.00,524.00,11784.00,-2064.00
16861,-32399.00,-2263.00,1059.00,2076.00,-3164.00,12044.00,-2032.00
16877,-3727.00,-1848.00,3536.00,2608.00,-7516.00,18724.00,-2016.00
16893,17433.00,-3621.00,6827.00,1908.00,-9148.00,17388.00,-2000.00
16911,32767.00,-3972.00,5620.00,204.00,-6296.00,17756.00,-2032.00
16927,32767.00,-760.00,1027.00,944.00,-2768.00,17044.00,-2048.00
16945,32767.00,3826.00,-3014.00,2292.00,1964.00,17980.00,-2016.00
16961,32767.00,6594.00,-3877.00,3844.00,5432.00,19208.00,-2064.00
16977,32767.00,3467.00,-4333.00,3312.00,6528.00,21012.00,-2048.00
16995,32767.00,1975.00,-859.00,888.00,9048.00,18048.00,-2048.00
17011,23460.00,4121.00,-1385.00,-2000.00,7904.00,18420.00,-2080.00
17029,1130.00,6287.00,-3406.00,-1644.00,9216.00,19680.00,-2064.00
17045,-23820.00,4715.00,-4458.00,-2240.00,7536.00,19788.00,-2016.00
17061,-32768.00,200.00,-2826.00,-2004.00,6756.00,18128.00,-2048.00
17079,-32768.00,-4176.00,-2411.00,-1488.00,6548.00,17920.00,-2032.00
17095,-32768.00,-9574.00,1268.00,2456.00,6212.00,14924.00,-2064.00
17113,-32768.00,-9488.00,4194.00,2316.00,2912.00,11872.00,-2032.00
17129,-32768.00,-5121.00,5344.00,2176.00,-972.00,13396.00,-2048.00
17145,-14214.00,-1808.00,4212.00,1360.00,-6264.00,18048.00,-2048.00
17163,12877.00,-4104.00,4554.00,1596.00,-6288.00,20168.00,-2032.00
17179,32767.00,-1700.00,1527.00,1104.00,-5228.00,19068.00,-2048.00
17197,32767.00,2481.00,-3023.00,1816.00,-1788.00,20660.00,-2064.00
17213,32767.00,6199.00,-7644.00,2804.00,2652.00,20172.00,-2032.00
17230,32767.00,6995.00,-8398.00,3052.00,6204.00,20892.00,-2048.00
17247,32767.00,4708.00,-5861.00,1008.00,5864.00,19808.00,-2032.00
17263,25536.00,2953.00,-2168.00,1316.00,7752.00,19200.00,-2048.00
17281,3002.00,1226.00,901.00,-1084.00,6564.00,19496.00,-2064.00
17297,-20707.00,223.00,752.00,-2872.00,6404.00,17968.00,-2032.00
17313,-32768.00,-1775.00,123.00,-2152.00,5520.00,17932.00,-2032.00
17331,-32768.00,-4558.00,820.00,-2096.00,3916.00,15700.00,-2032.00
17347,-32768.00,-7724.00,1187.00,664.00,4160.00,14388.00,-2048.00
17364,-32768.00,-6958.00,143.00,2576.00,3548.00,14540.00,-2048.00
17381,-32768.00,-2562.00,-14.00,428.00,-148.00,4464.00,-2048.00
17397,-26405.00,-1481.00,-632.00,2256.00,-6520.00,17220.00,-2032.00
17415,-3284.00,-398.00,1717.00,1116.00,-11212.00,20184.00,-2016.00
17431,17509.00,-690.00,1528.00,784.00,-9632.00,18920.00,-2032.00
17447,32767.00,-649.00,-311.00,1948.00,-9180.00,19280.00,-2032.00
17465,32767.00,1366.00,-2545.00,2168.00,-3076.00,18152.00,-2032.00
17481,32767.00,7155.00,-2310.00,3800.00,1968.00,19864.00,-2016.00
17498,32767.00,7642.00,-2400.00,3316.00,3952.00,20448.00,-2048.00
17515,32767.00,4420.00,-1447.00,3012.00,6360.00,19400.00,-2064.00
17531,32767.00,3380.00,580.00,960.00,7428.00,18940.00,-2016.00
17549,18874.00,4554.00,-21.00,-2752.00,5856.00,18820.00,-2016.00
17565,-3155.00,6504.00,-4123.00,-3068.00,7120.00,17196.00,-2048.00
17582,-25505.00,2327.00,-4704.00,-2104.00,5940.00,15260.00,-2032.00
17599,-32768.00,-3055.00,-2014.00,-1828.00,5716.00,16760.00,-2048.00
17615,-32768.00,-7580.00,-486.00,-2108.00,5232.00,14252.00,-2032.00
17633,-32768.00,-9809.00,850.00,-36.00,3488.00,13400.00,-2032.00
17649,-32768.00,-6438.00,-932.00,2316.00,-1008.00,14940.00,-2032.00
17666,-32768.00,-2754.00,-1510.00,2076.00,-4768.00,13884.00,-2032.00
17683,-10900.00,-2236.00,-2869.00,1732.00,-8128.00,18560.00,-2048.00
17699,13730.00,-2188.00,-468.00,748.00,-10116.00,17664.00,-2032.00
17716,32767.00,1729.00,1376.00,808.00,-7244.00,17952.00,-2016.00
17733,32767.00,1848.00,3237.00,2224.00,-1724.00,19068.00,-2016.00
17750,32767.00,5208.00,4686.00,2848.00,1880.00,21848.00,-2032.00
17767,32767.00,5622.00,3340.00,2948.00,5248.00,21544.00,-2048.00
17783,32767.00,3020.00,1699.00,528.00,5060.00,18772.00,-2064.00
17800,32767.00,2009.00,-1231.00,-2656.00,5068.00,20332.00,-2000.00
17817,13173.00,4434.00,-6690.00,-1492.00,6288.00,18264.00,-2048.00
17833,-11294.00,2914.00,-7998.00,-400.00,8212.00,19484.00,-2000.00
17851,-32768.00,-1418.00,-8370.00,-1336.00,4780.00,16204.00,-2032.00
17867,-32768.00,-5410.00,-6699.00,-1700.00,4908.00,16652.00,-2032.00
17885,-32768.00,-9235.00,-3007.00,156.00,4308.00,13948.00,-2032.00
17901,-32768.00,-10429.00,2027.00,2124.00,2460.00,12084.00,-2048.00
17917,-32768.00,-7491.00,5070.00,2928.00,892.00,13276.00,-2032.00
17935,-26449.00,-4479.00,2060.00,1024.00,-7708.00,15828.00,-2016.00
17951,-173.00,2543.00,2294.00,-796.00,-11396.00,16952.00,-2032.00
17969,25101.00,513.00,2587.00,420.00,-9328.00,16564.00,-2032.00
17985,32767.00,1571.00,213.00,60.00,-7128.00,17780.00,-2064.00
18001,32767.00,7723.00,-2310.00,1528.00,-588.00,22364.00,-2032.00
18018,32767.00,12251.00,-3610.00,2696.00,3388.00,21628.00,-2032.00
18035,32767.00,10902.00,-535.00,3980.00,6012.00,20812.00,-2048.00
18052,32767.00,7411.00,2084.00,1928.00,8360.00,19508.00,-2032.00
18069,32767.00,6263.00,486.00,-1548.00,7912.00,19160.00,-2016.00
18085,16860.00,6145.00,-4316.00,-2544.00,8732.00,19832.00,-2048.00
18103,-8633.00,3678.00,-6384.00,-3484.00,7296.00,17412.00,-2064.00
18119,-32462.00,-2086.00,-5959.00,-4140.00,5520.00,15584.00,-2016.00
18136,-32768.00,-8714.00,-2213.00,-3116.00,6012.00,14592.00,-2032.00
18153,-32768.00,-13956.00,4030.00,-1192.00,4756.00,12532.00,-2032.00
18169,-32768.00,-13910.00,8890.00,1080.00,5208.00,13256.00,-2000.00
18187,-32768.00,-4279.00,8111.00,-796.00,-840.00,14112.00,-2064.00
18203,-32768.00,5300.00,4151.00,-2388.00,-4992.00,15372.00,-2032.00
18221,-13966.00,5457.00,1135.00,-1268.00,-5208.00,16964.00,-2048.00
18237,5316.00,3269.00,3794.00,1036.00,-7296.00,18672.00,-2032.00
18253,14096.00,2475.00,-29.00,596.00,-9560.00,21820.00,-2032.00
18271,21257.00,-1283.00,-5436.00,-100.00,-5644.00,22600.00,-2032.00
18287,28728.00,-6742.00,-4642.00,1124.00,-2448.00,19752.00,-2032.00
18304,31062.00,-6671.00,-1011.00,3992.00,2484.00,19900.00,-2016.00
18321,30357.00,-1057.00,2558.00,2116.00,1920.00,19544.00,-2032.00
18337,28715.00,8923.00,5297.00,-4204.00,3584.00,18580.00,-2048.00
18355,28146.00,8948.00,-1199.00,596.00,3224.00,19568.00,-2032.00
18371,23908.00,5036.00,567.00,-2492.00,3084.00,19220.00,-2064.00
18387,15518.00,-5.00,278.00,-3068.00,4044.00,20772.00,-2048.00
18405,5216.00,-9245.00,1478.00,-2552.00,4524.00,18452.00,-2064.00
18421,-8205.00,-13044.00,4641.00,-2276.00,4120.00,18160.00,-2032.00
18439,-19073.00,-9508.00,3477.00,-1264.00,2160.00,17788.00,-2016.00
18455,-30085.00,-7861.00,2776.00,-1184.00,5372.00,14608.00,-2032.00
18471,-32768.00,-5892.00,1074.00,1396.00,1240.00,16832.00,-2016.00
18489,-32768.00,-5978.00,-3205.00,3392.00,516.00,17088.00,-2032.00
18505,-31839.00,-5608.00,-5046.00,3092.00,-1632.00,15648.00,-2032.00
18523,-11001.00,-3843.00,-4902.00,5728.00,4.00,15152.00,-2080.00
18539,12857.00,-1326.00,-1084.00,3672.00,-2468.00,16892.00,-2064.00
18555,30762.00,1722.00,3214.00,1500.00,-2456.00,17468.00,-2000.00
18573,32767.00,2111.00,3937.00,-280.00,-1396.00,19568.00,-2032.00
18589,32767.00,1830.00,-850.00,-636.00,836.00,20680.00,-2048.00
18606,32767.00,1839.00,-5273.00,672.00,5816.00,20616.00,-2032.00
18623,32767.00,3828.00,-8831.00,1584.00,8760.00,18884.00,-2000.00
18639,32767.00,4657.00,-6885.00,1608.00,10488.00,19252.00,-2064.00
18657,17629.00,4196.00,-1578.00,1748.00,11496.00,19708.00,-2016.00
18673,-7765.00,2631.00,558.00,516.00,9644.00,19152.00,-2032.00
18690,-30497.00,954.00,650.00,-404.00,8820.00,17284.00,-2064.00
18707,-32768.00,-3659.00,612.00,-680.00,7556.00,17640.00,-2048.00
18723,-32768.00,-9477.00,3213.00,-120.00,6520.00,14576.00,-2048.00
18740,-32768.00,-8057.00,3236.00,2780.00,5348.00,12516.00,-2064.00
18757,-32768.00,-4262.00,4529.00,3716.00,2364.00,11916.00,-2064.00
18774,-32768.00,-135.00,3755.00,1096.00,-3192.00,15704.00,-2016.00
18791,-11567.00,-1002.00,1580.00,256.00,-8124.00,19028.00,-2064.00
18807,12447.00,-1580.00,539.00,1036.00,-8532.00,20372.00,-2032.00
18824,32767.00,-332.00,-2803.00,-1020.00,-7208.00,20176.00,-2048.00
18841,32767.00,306.00,-5232.00,2228.00,-3360.00,21232.00,-2048.00
18857,32767.00,843.00,-4129.00,4808.00,1560.00,20900.00,-2032.00
18875,32767.00,5337.00,-1150.00,7204.00,4224.00,21560.00,-2064.00
18891,32767.00,5217.00,201.00,4468.00,5876.00,20232.00,-2064.00
18908,21486.00,4547.00,181.00,2044.00,6228.00,18460.00,-2048.00
18925,65.00,3732.00,-1100.00,-300.00,5440.00,17632.00,-2016.00
18941,-22161.00,2561.00,-2564.00,-2460.00,4320.00,15004.00,-2048.00
18958,-32768.00,329.00,-2384.00,-1400.00,4756.00,14328.00,-2032.00
18975,-32768.00,-5355.00,-881.00,-1348.00,3616.00,14900.00,-2000.00
18992,-32768.00,-8450.00,964.00,-620.00,3496.00,13048.00,-2048.00
19008,-32768.00,-10777.00,1793.00,1024.00,3004.00,13808.00,-2048.00
19025,-32768.00,-6433.00,1000.00,1424.00,-2092.00,16332.00,-2032.00
19042,-19014.00,-3429.00,1005.00,3884.00,-9860.00,19952.00,-2016.00
19059,-2049.00,-409.00,3575.00,448.00,-13640.00,18344.00,-2000.00
19076,21408.00,381.00,-4.00,192.00,-11476.00,22772.00,-2032.00
19092,32767.00,-498.00,-2748.00,1880.00,-11388.00,19604.00,-2048.00
19109,32767.00,893.00,-4724.00,5640.00,-112.00,20792.00,-2064.00
19126,32767.00,7398.00,-4926.00,7572.00,2936.00,20988.00,-2032.00
19143,32767.00,8402.00,-2208.00,6592.00,6056.00,19664.00,-2032.00
19160,32767.00,5122.00,-309.00,3636.00,6916.00,16384.00,-2048.00
19176,32767.00,5274.00,690.00,1352.00,7664.00,15940.00,-2064.00
19193,22244.00,4338.00,-1345.00,-1668.00,6900.00,18512.00,-2032.00
19210,-4978.00,3484.00,-2547.00,-2192.00,6396.00,17304.00,-2048.00
19227,-31431.00,1534.00,-3026.00,-1976.00,5572.00,17116.00,-2080.00
19244,-32768.00,-1000.00,-1037.00,-1576.00,5144.00,15748.00,-2032.00
19260,-32768.00,-5369.00,2350.00,-2384.00,2900.00,11160.00,-2048.00
19277,-32768.00,-7553.00,4416.00,696.00,2892.00,12620.00,-2032.00
19294,-32768.00,-4187.00,2381.00,220.00,-2396.00,14732.00,-2048.00
19311,-32768.00,-1343.00,693.00,892.00,-7284.00,14216.00,-2048.00
19328,-2930.00,-658.00,-1718.00,1272.00,-10272.00,19472.00,-2016.00
19344,23666.00,1096.00,-1292.00,1576.00,-10508.00,18672.00,-2032.00
19361,32767.00,3674.00,962.00,1812.00,-5728.00,18468.00,-2048.00
19378,32767.00,2866.00,1493.00,2640.00,-604.00,20932.00,-2048.00
19395,32767.00,5775.00,788.00,4648.00,2988.00,22620.00,-2032.00
19411,32767.00,4024.00,-791.00,5148.00,6076.00,19544.00,-2032.00
19428,32767.00,3679.00,842.00,2896.00,8740.00,19924.00,-2032.00
19445,32767.00,3285.00,484.00,1524.00,8776.00,17400.00,-2048.00
19462,18595.00,4098.00,-3343.00,-1200.00,8104.00,17840.00,-2016.00
19478,-4694.00,4778.00,-5712.00,-2836.00,6876.00,16964.00,-2032.00
19495,-29408.00,1871.00,-6640.00,-2620.00,6708.00,17132.00,-2032.00
19512,-32768.00,-1225.00,-4922.00,-3132.00,5764.00,15596.00,-2048.00
19529,-32768.00,-6984.00,-2529.00,-2624.00,4800.00,14080.00,-2032.00
19546,-32768.00,-11005.00,-683.00,756.00,4332.00,13788.00,-2048.00
19562,-32768.00,-10872.00,895.00,3500.00,4776.00,15884.00,-2048.00
19579,-32768.00,-6298.00,304.00,1772.00,340.00,23104.00,-2032.00
19596,-19523.00,-1270.00,1668.00,2632.00,-8440.00,19244.00,-2064.00
19613,6146.00,3249.00,1708.00,436.00,-9716.00,19080.00,-2032.00
19630,32767.00,3598.00,-78.00,2472.00,-8140.00,19340.00,-2016.00
19646,32767.00,6605.00,-884.00,884.00,-4116.00,19484.00,-2016.00
19663,32767.00,8312.00,-379.00,2976.00,3436.00,19828.00,-2016.00
19680,32767.00,10230.00,-585.00,4464.00,4896.00,21188.00,-2048.00
19696,32767.00,7690.00,2714.00,3856.00,7448.00,19948.00,-2032.00
19714,32767.00,7502.00,4475.00,268.00,8192.00,17912.00,-2080.00
19730,18317.00,4721.00,1351.00,-2508.00,7136.00,19212.00,-2080.00
19747,-5954.00,2236.00,-2799.00,-3960.00,6052.00,17244.00,-2032.00
19764,-28282.00,315.00,-6072.00,-5124.00,4044.00,18168.00,-2032.00
19780,-32768.00,-4853.00,-6511.00,-4216.00,6108.00,14348.00,-2048.00
19798,-32768.00,-8754.00,-3119.00,-2928.00,4188.00,14944.00,-2032.00
19814,-32768.00,-9373.00,1177.00,-504.00,4244.00,13412.00,-2048.00
19831,-32768.00,-4171.00,2979.00,1572.00,156.00,11924.00,-2016.00
19848,-32768.00,-5714.00,806.00,504.00,-3096.00,17764.00,-2032.00
19864,-18657.00,-3235.00,2149.00,2304.00,-5024.00,17216.00,-2064.00
19881,-5965.00,-2513.00,-1928.00,2572.00,-10564.00,18676.00,-2032.00
19898,19264.00,-3976.00,-3154.00,2208.00,-8028.00,19920.00,-2032.00
19915,27332.00,-3092.00,-2210.00,4124.00,-10996.00,23968.00,-2048.00
19932,32767.00,-2109.00,-1267.00,984.00,-5856.00,19480.00,-2064.00
19949,32538.00,1071.00,1950.00,2800.00,-1404.00,20648.00,-2016.00
19965,25493.00,4950.00,4309.00,3828.00,760.00,20756.00,-2048.00
19982,17343.00,9585.00,9294.00,-964.00,-1164.00,20472.00,-2064.00
19999,13530.00,6788.00,6352.00,-276.00,-840.00,19964.00,-2064.00
20016,13020.00,1359.00,2312.00,-760.00,-328.00,19472.00,-2064.00
20032,13735.00,-75.00,-2097.00,-248.00,348.00,18832.00,-2064.00
20049,18868.00,-2068.00,-4200.00,-168.00,1292.00,18552.00,-2048.00
20066,23243.00,-2518.00,-3873.00,-452.00,2748.00,17920.00,-2032.00
20082,25257.00,-445.00,-2938.00,188.00,4112.00,17648.00,-2064.00
20100,22954.00,2770.00,-719.00,100.00,4364.00,17124.00,-2032.00
20116,19832.00,3119.00,164.00,-304.00,4988.00,17900.00,-2064.00
20132,12727.00,-412.00,230.00,-1196.00,4036.00,19936.00,-2032.00
20150,-2098.00,-1765.00,-168.00,-604.00,5984.00,16472.00,-2032.00
20166,-13061.00,-2795.00,-523.00,-604.00,4856.00,18596.00,-2064.00
20183,-24147.00,-5273.00,364.00,28.00,5620.00,15792.00,-2000.00
20199,-30321.00,-6661.00,1512.00,-504.00,2848.00,17104.00,-2048.00
20216,-32768.00,-6535.00,2040.00,-120.00,2328.00,16532.00,-2064.00
20233,-32768.00,-5368.00,1078.00,-736.00,-40.00,16840.00,-2032.00
20250,-25854.00,-4615.00,-1461.00,328.00,-1204.00,17060.00,-2064.00
20267,-7151.00,-5171.00,-5372.00,3040.00,-1292.00,17596.00,-2032.00
20283,13812.00,-1262.00,-5637.00,3852.00,248.00,17648.00,-2016.00
20300,30819.00,1314.00,-3521.00,2960.00,1600.00,17612.00,-2032.00
20317,32767.00,3138.00,-1844.00,2808.00,3008.00,18480.00,-2032.00
20334,32767.00,4419.00,1431.00,3940.00,4552.00,17832.00,-2048.00
20350,32767.00,3988.00,-618.00,912.00,5756.00,18560.00,-2032.00
20367,32767.00,1963.00,-1573.00,56.00,8932.00,19316.00,-2032.00
20384,32767.00,624.00,-1809.00,516.00,9268.00,20884.00,-2032.00
20401,14226.00,-190.00,-960.00,-412.00,9740.00,20632.00,-2032.00
20417,-7965.00,-1035.00,574.00,-968.00,8496.00,18220.00,-2048.00
20433,-25472.00,-1840.00,912.00,-152.00,8124.00,16188.00,-2016.00
20451,-32768.00,-3159.00,1164.00,-560.00,7756.00,17280.00,-2016.00
20467,-32768.00,-6634.00,1671.00,-768.00,6640.00,15716.00,-2032.00
20485,-32768.00,-8050.00,2143.00,996.00,6028.00,14588.00,-2064.00
20501,-32768.00,-5894.00,2620.00,2752.00,3620.00,13828.00,-2064.00
20517,-32768.00,-5082.00,3038.00,2852.00,616.00,15732.00,-2032.00
20535,-23268.00,-2202.00,1496.00,2224.00,-4100.00,16592.00,-2032.00
20551,2677.00,-1556.00,-1957.00,3272.00,-6948.00,21308.00,-2048.00
20569,23090.00,42.00,-5113.00,2600.00,-6940.00,19992.00,-2048.00
20585,32767.00,1241.00,-5132.00,2384.00,-3780.00,18596.00,-2016.00
20601,32767.00,3752.00,-5920.00,3676.00,-512.00,20880.00,-2032.00
20619,32767.00,8102.00,-3649.00,3352.00,2908.00,20508.00,-2000.00
20635,32767.00,9774.00,-5475.00,4272.00,6024.00,19012.00,-2016.00
20653,32767.00,7852.00,-4045.00,3332.00,7964.00,16956.00,-2032.00
20669,32767.00,5865.00,-3366.00,1068.00,8996.00,16936.00,-2016.00
20685,23557.00,4186.00,-3097.00,-596.00,9324.00,16660.00,-2048.00
20703,-13.00,560.00,-2884.00,-2680.00,8056.00,16600.00,-2032.00
20719,-21923.00,-2595.00,-895.00,-2560.00,7416.00,14824.00,-2048.00
20736,-32768.00,-5185.00,1848.00,-2648.00,6720.00,16480.00,-2032.00
20753,-32768.00,-7589.00,4202.00,-2004.00,5568.00,15292.00,-2032.00
20769,-32768.00,-10206.00,6917.00,-1948.00,3596.00,12792.00,-2048.00
20787,-32768.00,-8776.00,8144.00,1132.00,664.00,13952.00,-2032.00
20803,-32768.00,-4573.00,6979.00,3520.00,-2800.00,18092.00,-2048.00
20819,-32768.00,-2375.00,4870.00,3620.00,-5720.00,18996.00,-2032.00
20837,-3290.00,-2667.00,-799.00,4668.00,-7292.00,20284.00,-2048.00
20853,22251.00,-2026.00,-4209.00,3428.00,-6424.00,20728.00,-2048.00
20871,32767.00,886.00,-5399.00,3552.00,-1892.00,19168.00,-2032.00
20887,32767.00,5060.00,-4840.00,4156.00,988.00,21188.00,-2064.00
20903,32767.00,11882.00,-341.00,4216.00,7740.00,21948.00,-2048.00
20921,32767.00,8833.00,-2929.00,3612.00,6756.00,18396.00,-2048.00
20937,32767.00,6034.00,-789.00,1900.00,7776.00,18592.00,-2064.00
20955,32767.00,4620.00,-282.00,-500.00,7536.00,18328.00,-2048.00
20971,17962.00,6510.00,-747.00,-3108.00,7264.00,17868.00,-2064.00
20987,-4681.00,4808.00,-1831.00,-3128.00,7120.00,16092.00,-2048.00
21005,-25885.00,1224.00,-2094.00,-3076.00,6216.00,14840.00,-2032.00
21021,-32768.00,-2567.00,-650.00,-1980.00,5968.00,14796.00,-2000.00
21039,-32768.00,-8798.00,1550.00,-1524.00,5108.00,14512.00,-2048.00
21055,-32768.00,-13798.00,3452.00,912.00,4468.00,13928.00,-2064.00
21071,-32768.00,-14319.00,2830.00,4964.00,1668.00,13412.00,-2064.00
21089,-32768.00,-9466.00,1332.00,4652.00,-1660.00,17844.00,-2064.00
21105,-15270.00,-4340.00,-828.00,6448.00,-5384.00,21736.00,-2016.00
21123,12574.00,897.00,-2973.00,4080.00,-7300.00,21572.00,-2048.00
21139,32683.00,2775.00,-4532.00,3032.00,-5288.00,21056.00,-2032.00
21156,32767.00,5263.00,-3916.00,3288.00,-1272.00,20920.00,-2032.00
21173,32767.00,7514.00,-3354.00,3648.00,2528.00,21612.00,-2048.00
21189,32767.00,10022.00,-867.00,3740.00,6696.00,19916.00,-2032.00
21207,32767.00,7778.00,-4611.00,2588.00,6932.00,19732.00,-2016.00
21223,32767.00,8976.00,-5270.00,2188.00,7948.00,17744.00,-2064.00
21240,27823.00,6855.00,-4982.00,1036.00,8784.00,16088.00,-2064.00
21257,9288.00,5112.00,-4493.00,-1344.00,8628.00,16040.00,-2048.00
21273,-12458.00,583.00,-3134.00,-2916.00,7576.00,15172.00,-2032.00
21291,-32559.00,-3119.00,-831.00,-3972.00,6500.00,13972.00,-2032.00
21307,-32768.00,-5977.00,3366.00,-2684.00,5188.00,14388.00,-2048.00
21324,-32768.00,-9342.00,8338.00,-3388.00,4096.00,10844.00,-2032.00
21341,-32768.00,-8649.00,8657.00,-496.00,2332.00,12344.00,-2064.00
21357,-32768.00,-5762.00,4242.00,136.00,156.00,14932.00,-2048.00
21374,-31271.00,-4663.00,-2509.00,1012.00,-112.00,22496.00,-2048.00
21391,-13046.00,-4228.00,-2688.00,5084.00,-5856.00,22824.00,-2016.00
21408,4205.00,-2571.00,-2999.00,4660.00,-8496.00,23144.00,-2032.00
21425,21350.00,-1515.00,-4090.00,3224.00,-6548.00,21448.00,-2048.00
21441,32767.00,27.00,-3801.00,3512.00,-3308.00,20872.00,-2064.00
21458,32767.00,7218.00,-4424.00,9280.00,3480.00,23060.00,-2032.00
21475,32767.00,10825.00,535.00,2640.00,3156.00,18924.00,-2032.00
21492,32767.00,11579.00,518.00,3556.00,4628.00,19528.00,-2016.00
21509,32767.00,10747.00,1546.00,1012.00,7076.00,16936.00,-2032.00
21525,28721.00,6916.00,1329.00,-72.00,8004.00,15376.00,-2016.00
21542,12216.00,4267.00,463.00,-1516.00,6968.00,16936.00,-2016.00
21559,-6329.00,3245.00,-971.00,-3128.00,6016.00,14924.00,-2048.00
21575,-23623.00,-360.00,-709.00,-2900.00,4980.00,14224.00,-2064.00
21593,-32768.00,-2985.00,-495.00,-2844.00,5436.00,13836.00,-2032.00
21609,-32768.00,-5161.00,711.00,-2940.00,3304.00,15756.00,-2032.00
21626,-32768.00,-9223.00,1701.00,-1176.00,2196.00,14772.00,-2048.00
21643,-32768.00,-7461.00,1984.00,1876.00,-52.00,14196.00,-2032.00
21659,-32768.00,-2968.00,1232.00,4012.00,-2384.00,19884.00,-2064.00
21677,-27126.00,605.00,-569.00,4736.00,-5816.00,18004.00,-2016.00
21693,4904.00,-1089.00,-2588.00,3928.00,-7036.00,22576.00,-2016.00
21709,22757.00,1477.00,-2322.00,3288.00,-5624.00,20668.00,-2048.00
21727,32767.00,4182.00,843.00,2020.00,-2276.00,20004.00,-2032.00
21743,32767.00,8023.00,3949.00,2300.00,2836.00,19284.00,-2032.00
21761,32767.00,7057.00,2081.00,1340.00,4272.00,18768.00,-2016.00
21777,32767.00,8160.00,2030.00,1792.00,4860.00,17200.00,-2064.00
21794,32767.00,5670.00,674.00,-820.00,8452.00,15744.00,-1984.00
21811,32767.00,3144.00,546.00,-1796.00,7680.00,15512.00,-2016.00
21827,25936.00,2577.00,-1097.00,-1564.00,6916.00,17148.00,-2016.00
21844,6777.00,3333.00,-738.00,-3636.00,8084.00,17180.00,-2032.00
21861,-11737.00,1603.00,-3279.00,-5124.00,8220.00,16940.00,-2032.00
21877,-31769.00,-2479.00,-342.00,-5380.00,7584.00,16276.00,-2016.00
21895,-32768.00,-10455.00,3189.00,-2600.00,8700.00,13168.00,-2032.00
21911,-32768.00,-6240.00,2644.00,936.00,5464.00,12956.00,-2048.00
21928,-32768.00,-3001.00,4642.00,2728.00,6012.00,15108.00,-2016.00
21945,-29658.00,4049.00,2472.00,2912.00,3060.00,16736.00,-2032.00
21961,-10467.00,938.00,-2913.00,2860.00,-76.00,22308.00,-2048.00
21979,4991.00,-4001.00,-6014.00,3396.00,684.00,22816.00,-2032.00
21995,10293.00,-4412.00,-8316.00,5924.00,5432.00,18676.00,-2032.00
22012,16120.00,-2690.00,-1214.00,644.00,2820.00,21076.00,-2048.00
22029,15789.00,-1044.00,2262.00,620.00,3748.00,21460.00,-2032.00
22045,14099.00,-5097.00,3235.00,-428.00,4412.00,19948.00,-2032.00
22063,12422.00,-5234.00,-861.00,120.00,4516.00,19032.00,-2016.00
22079,6539.00,-3533.00,-2993.00,116.00,4888.00,19132.00,-2080.00
22095,-1239.00,-2959.00,-2755.00,524.00,5164.00,16244.00,-2032.00
22113,-7218.00,68.00,-643.00,408.00,3540.00,14716.00,-2048.00
22129,-11674.00,-1456.00,1892.00,-1500.00,2872.00,13844.00,-2048.00
22146,-14110.00,-1784.00,2209.00,-124.00,4096.00,14780.00,-2032.00
22163,-13957.00,-194.00,4357.00,4580.00,4756.00,13812.00,-2032.00
22179,-12411.00,-656.00,5374.00,2904.00,4212.00,17032.00,-2048.00
22196,-7992.00,-7434.00,5966.00,-2060.00,1532.00,17620.00,-2016.00
22213,-7780.00,-1617.00,655.00,2020.00,4608.00,20348.00,-2064.00
22230,-8333.00,2891.00,-1586.00,2416.00,2812.00,21508.00,-2032.00
22246,-5003.00,4604.00,-1947.00,1500.00,-424.00,18000.00,-2032.00
22263,-304.00,3181.00,-1059.00,3252.00,-296.00,18264.00,-2032.00
22280,3066.00,1771.00,255.00,3336.00,2176.00,21536.00,-2064.00
22296,4125.00,2523.00,-651.00,3536.00,1960.00,18908.00,-2048.00
22313,6257.00,-326.00,1405.00,2220.00,2108.00,19840.00,-2048.00
22330,6417.00,2490.00,-79.00,1432.00,1612.00,18324.00,-2048.00
22346,4539.00,6079.00,-362.00,2044.00,3428.00,19740.00,-2048.00
22364,1570.00,2397.00,-852.00,-628.00,6276.00,23492.00,-2032.00
22380,-2974.00,-2688.00,-631.00,32.00,5576.00,19720.00,-2032.00
22396,-2544.00,-1444.00,3067.00,648.00,2984.00,17136.00,-2016.00
22413,-3249.00,-1109.00,4337.00,1028.00,252.00,17600.00,-2016.00
22430,-3237.00,469.00,3858.00,1544.00,-2772.00,17344.00,-2048.00
22447,-3330.00,1798.00,88.00,-204.00,260.00,19352.00,-2016.00
22463,-5446.00,1987.00,-2932.00,444.00,2920.00,19192.00,-2032.00
22480,-4884.00,2962.00,-5535.00,-476.00,2980.00,17612.00,-2000.00
22497,-3882.00,5035.00,-7809.00,-2176.00,2116.00,17036.00,-2032.00
22513,-3451.00,6066.00,-8891.00,704.00,2604.00,18220.00,-2032.00
22531,-4575.00,789.00,-3641.00,2588.00,1992.00,19892.00,-2000.00
22547,-5143.00,-135.00,1092.00,1040.00,1768.00,18648.00,-2032.00
22563,-6197.00,-1392.00,3638.00,-1400.00,-836.00,20556.00,-2000.00
22581,-8468.00,-5242.00,1429.00,1492.00,916.00,21248.00,-2064.00
22597,-11065.00,-1199.00,-284.00,3112.00,468.00,18444.00,-2032.00
22614,-10461.00,-3080.00,1926.00,188.00,840.00,17160.00,-2064.00
22631,-10567.00,-1115.00,1349.00,260.00,1696.00,16716.00,-2064.00
22647,-8077.00,188.00,2745.00,-856.00,-36.00,15324.00,-2032.00
22664,678.00,4048.00,6096.00,2516.00,-1436.00,17280.00,-2032.00
22680,9523.00,4451.00,12370.00,2644.00,-3356.00,19012.00,-2000.00
22697,21926.00,-1080.00,11600.00,192.00,-2308.00,19828.00,-2048.00
22714,32767.00,-5289.00,4685.00,-3264.00,-1044.00,18488.00,-2032.00
22731,32767.00,-1684.00,-2624.00,616.00,2676.00,17484.00,-2048.00
22748,32767.00,-3222.00,-3181.00,1104.00,5848.00,21812.00,-2048.00
22765,32767.00,-2096.00,-7114.00,2792.00,7976.00,22792.00,-2032.00
22781,19733.00,2657.00,-6413.00,-720.00,7228.00,19928.00,-2000.00
22798,2372.00,6237.00,-6251.00,828.00,7876.00,19016.00,-2048.00
22815,-15555.00,6344.00,-3385.00,1576.00,7900.00,17252.00,-2048.00
22832,-32768.00,3228.00,-282.00,96.00,6480.00,17548.00,-2000.00
22848,-32768.00,-2656.00,903.00,-752.00,4988.00,16856.00,-2016.00
22865,-32768.00,-10044.00,2913.00,-116.00,3848.00,15464.00,-2016.00
22882,-32768.00,-11095.00,2914.00,1924.00,2188.00,12232.00,-2000.00
22899,-32768.00,-6292.00,-320.00,1476.00,3136.00,17704.00,-2016.00
22916,-30473.00,848.00,259.00,112.00,-6504.00,11476.00,-2016.00
22932,-1933.00,3954.00,-1018.00,184.00,-8228.00,18096.00,-2048.00
22949,18164.00,847.00,1345.00,-1708.00,-11008.00,16316.00,-2048.00
22966,32767.00,-4584.00,1143.00,-2776.00,-8296.00,17540.00,-2032.00
22982,32767.00,-511.00,-3423.00,-1088.00,-4968.00,19708.00,-2032.00
23000,32767.00,8369.00,-6929.00,2228.00,-1892.00,17996.00,-2016.00
23016,32767.00,10282.00,-6544.00,2868.00,2420.00,20236.00,-2000.00
23033,32767.00,8825.00,-4855.00,2580.00,4812.00,21520.00,-2016.00
23050,28508.00,7116.00,-2909.00,2476.00,5160.00,20472.00,-2000.00
23067,11074.00,2197.00,36.00,820.00,5676.00,19052.00,-2000.00
23084,-8521.00,-2018.00,-92.00,-2372.00,4184.00,17220.00,-2032.00
23100,-29471.00,-4917.00,-684.00,-3560.00,2592.00,17288.00,-2016.00
23116,-32768.00,-5847.00,1251.00,-2808.00,3952.00,16304.00,-2000.00
23134,-32768.00,-8807.00,1213.00,-1220.00,4588.00,13840.00,-2032.00
23150,-32768.00,-8140.00,-493.00,-436.00,3208.00,11300.00,-2048.00
23168,-32768.00,-8499.00,-553.00,2988.00,-696.00,11996.00,-2048.00
23184,-28407.00,-6483.00,-770.00,2432.00,-5456.00,15792.00,-2016.00
23200,-5042.00,-2698.00,-681.00,4276.00,-11912.00,18412.00,-2032.00
23218,15228.00,-625.00,1284.00,1696.00,-12116.00,17160.00,-2032.00
23234,32767.00,-2448.00,417.00,1024.00,-12292.00,19416.00,-2048.00
23251,32767.00,1436.00,-3231.00,1252.00,-6912.00,21260.00,-2032.00
23268,32767.00,8323.00,-5447.00,2652.00,1768.00,24364.00,-2032.00
23284,32767.00,11395.00,-1805.00,3556.00,2096.00,19308.00,-2016.00
23302,32767.00,10021.00,-1007.00,1452.00,4276.00,18516.00,-2032.00
23318,32767.00,7508.00,-466.00,1340.00,6532.00,18648.00,-2016.00
23335,32767.00,4891.00,144.00,-168.00,7668.00,17920.00,-2048.00
23352,21060.00,1200.00,-379.00,-1960.00,8456.00,19100.00,-2016.00
23368,-4262.00,383.00,-2238.00,-3220.00,7724.00,18904.00,-2000.00
23386,-30366.00,647.00,-2492.00,-3268.00,6548.00,16220.00,-2032.00
23402,-32768.00,-1451.00,-3037.00,-1872.00,6032.00,17692.00,-2032.00
23419,-32768.00,-11369.00,-415.00,596.00,5180.00,15496.00,-2048.00
23436,-32768.00,-10711.00,569.00,2008.00,4052.00,13612.00,-2000.00
23452,-32768.00,-9280.00,-1226.00,3148.00,1564.00,14736.00,-2000.00
23470,-32768.00,-3921.00,-1739.00,2788.00,-3864.00,16960.00,-2048.00
23486,-6570.00,74.00,-1290.00,5064.00,-6032.00,21764.00,-2000.00
23503,16365.00,1844.00,2115.00,1952.00,-9284.00,18348.00,-2016.00
23520,32767.00,52.00,3364.00,472.00,-6512.00,17872.00,-2032.00
23536,32767.00,2036.00,2048.00,140.00,-2804.00,18560.00,-2032.00
23554,32767.00,5647.00,-1841.00,2216.00,2056.00,18500.00,-2064.00
23570,32767.00,6901.00,-3658.00,3928.00,5084.00,18088.00,-2016.00
23586,32767.00,4581.00,728.00,1448.00,5144.00,17444.00,-2016.00
23604,32767.00,2596.00,505.00,-664.00,8164.00,18780.00,-2000.00
23620,29062.00,2955.00,-24.00,-2332.00,7844.00,17980.00,-2080.00
23636,7189.00,4553.00,-584.00,-4472.00,7596.00,18616.00,-2048.00
23654,-17368.00,2611.00,-2060.00,-4464.00,7312.00,17360.00,-2016.00
23670,-32768.00,1318.00,-4244.00,-4012.00,6656.00,17696.00,-2032.00
23688,-32768.00,-4969.00,-3079.00,-1768.00,6524.00,15996.00,-2048.00
23704,-32768.00,-9782.00,-939.00,1924.00,6028.00,14208.00,-2032.00
23721,-32768.00,-11730.00,1779.00,3728.00,4228.00,12020.00,-2000.00
23738,-32768.00,-10757.00,2746.00,4184.00,-1204.00,14224.00,-2016.00
23754,-32768.00,-3157.00,1011.00,2064.00,-9248.00,9428.00,-2032.00
23772,-3854.00,-219.00,3661.00,3536.00,-9964.00,20320.00,-2016.00
23788,17776.00,1722.00,6672.00,-216.00,-11428.00,18052.00,-2032.00
23805,32767.00,1131.00,2270.00,-1096.00,-7944.00,18924.00,-2016.00
23822,32767.00,2573.00,-4102.00,144.00,-4264.00,19500.00,-2032.00
23838,32767.00,7676.00,-5264.00,3052.00,2984.00,17732.00,-2016.00
23856,32767.00,11013.00,-7029.00,4416.00,6224.00,18420.00,-2016.00
23872,32767.00,7583.00,-3284.00,3080.00,7324.00,18420.00,-2064.00
23889,32767.00,5723.00,1126.00,-344.00,9260.00,16956.00,-2048.00
23906,29897.00,4154.00,1123.00,-2508.00,8992.00,19556.00,-2048.00
23923,1110.00,2513.00,-1339.00,-4844.00,9080.00,19040.00,-2000.00
23940,-28140.00,392.00,-5257.00,-4556.00,8696.00,17224.00,-2016.00
23956,-32768.00,-3111.00,-3461.00,-4016.00,6916.00,16624.00,-1984.00
23973,-32768.00,-10735.00,676.00,-1448.00,6740.00,14176.00,-2064.00
23990,-32768.00,-12372.00,4218.00,2204.00,4820.00,13000.00,-2032.00
24007,-32768.00,-7819.00,2471.00,1864.00,2084.00,14020.00,-2032.00
24024,-32768.00,-4179.00,2494.00,3040.00,-1500.00,16680.00,-2032.00
24040,-5415.00,160.00,-402.00,3080.00,-6248.00,20240.00,-2016.00
24057,21150.00,1085.00,-1103.00,1096.00,-6652.00,18496.00,-2016.00
24074,32767.00,2339.00,-2232.00,1240.00,-3216.00,19084.00,-2000.00
24091,32767.00,4413.00,-3434.00,1804.00,1312.00,18604.00,-2032.00
24108,32767.00,6759.00,-3804.00,2588.00,4476.00,20484.00,-2016.00
24124,32767.00,7196.00,-3613.00,1900.00,6288.00,20524.00,-2032.00
24141,32767.00,4280.00,-992.00,444.00,7148.00,19508.00,-2032.00
24158,21044.00,3296.00,756.00,-1740.00,7948.00,18744.00,-2032.00
24175,-4269.00,3052.00,-1158.00,-2772.00,6816.00,17920.00,-2032.00
24192,-29494.00,512.00,-3581.00,-4016.00,6048.00,17500.00,-2048.00
24208,-32768.00,-5535.00,-3747.00,-4336.00,5708.00,17612.00,-2048.00
24225,-32768.00,-12396.00,-4332.00,-3036.00,5692.00,15240.00,-2064.00
24242,-32768.00,-16278.00,-1149.00,1360.00,5820.00,12664.00,-2016.00
24259,-32768.00,-16627.00,4049.00,2652.00,3908.00,11468.00,-2016.00
24275,-32768.00,-8521.00,2322.00,2548.00,504.00,24000.00,-2032.00
24293,-32768.00,-6520.00,3627.00,3912.00,-8312.00,18704.00,-2032.00
24309,-11621.00,-2412.00,3825.00,1224.00,-14004.00,18296.00,-2016.00
24326,13877.00,-376.00,-365.00,352.00,-15112.00,17596.00,-2032.00
24343,32767.00,1737.00,-1699.00,1992.00,-9968.00,17004.00,-2032.00
24359,32767.00,6241.00,-990.00,2264.00,-5808.00,16740.00,-2016.00
24377,32767.00,15598.00,-660.00,2508.00,1460.00,18416.00,-2048.00
24393,32767.00,18038.00,435.00,3468.00,644.00,19764.00,-2032.00
24410,32767.00,13280.00,1842.00,3172.00,3872.00,19156.00,-2032.00
24427,32767.00,8921.00,1691.00,-628.00,6712.00,20056.00,-2016.00
24443,32767.00,5020.00,-506.00,-1856.00,8208.00,20088.00,-2032.00
24461,18709.00,2307.00,-3783.00,-3828.00,9784.00,18136.00,-2032.00
24477,-9508.00,1501.00,-7251.00,-3600.00,7604.00,17680.00,-2032.00
24494,-32768.00,-7695.00,-4199.00,-2620.00,8100.00,16476.00,-2048.00
24511,-32768.00,-11071.00,587.00,-4096.00,7640.00,12560.00,-2032.00
24527,-32768.00,-12301.00,4867.00,-116.00,5360.00,12516.00,-2048.00
24545,-32768.00,-9262.00,7856.00,2312.00,2376.00,13256.00,-2032.00
24561,-32768.00,-1350.00,8402.00,2640.00,-1948.00,13400.00,-2016.00
24579,-13896.00,2839.00,6176.00,212.00,-6260.00,17864.00,-2016.00
24595,16839.00,3230.00,3081.00,36.00,-5036.00,17596.00,-2032.00
24611,32767.00,3199.00,-1789.00,-852.00,-4020.00,19304.00,-2016.00
24629,32767.00,4648.00,-3591.00,492.00,2044.00,19040.00,-2032.00
24645,32767.00,5845.00,-3684.00,3284.00,6192.00,21072.00,-2032.00
24662,32767.00,6492.00,-3379.00,3212.00,8652.00,22644.00,-2032.00
24679,32767.00,3786.00,1257.00,2568.00,11068.00,19936.00,-2000.00
24695,15356.00,2406.00,2708.00,-708.00,9448.00,20580.00,-2048.00
24713,-10638.00,1106.00,1452.00,-3796.00,10204.00,16228.00,-2048.00
24729,-32768.00,-2113.00,-1463.00,-4192.00,5968.00,17812.00,-2032.00
24747,-32768.00,-10400.00,-1175.00,-3104.00,4552.00,15948.00,-2016.00
24763,-32768.00,-15055.00,-419.00,-2660.00,4820.00,12588.00,-2032.00
24780,-32768.00,-11623.00,-625.00,-440.00,4060.00,13684.00,-2016.00
24797,-32768.00,-7051.00,-915.00,1464.00,5188.00,15700.00,-2032.00
24813,-32768.00,-8067.00,840.00,788.00,-2808.00,14612.00,-2032.00
24830,-25470.00,-3267.00,503.00,2804.00,-5824.00,18096.00,-2000.00
24847,-762.00,234.00,1042.00,504.00,-11132.00,19200.00,-2064.00
24863,24363.00,1163.00,-2284.00,1324.00,-10648.00,19248.00,-2000.00
24881,32767.00,4917.00,-3627.00,3620.00,-7128.00,21808.00,-2016.00
24897,32767.00,10524.00,-799.00,3200.00,756.00,17924.00,-2032.00
24914,32767.00,11757.00,2003.00,4356.00,4072.00,20176.00,-2032.00
24931,32767.00,11585.00,4741.00,4004.00,3164.00,17784.00,-2016.00
24947,32767.00,7843.00,5274.00,780.00,8200.00,17388.00,-2032.00
24965,32767.00,5550.00,1986.00,-1332.00,8152.00,18248.00,-2032.00
24981,25261.00,3894.00,-1547.00,-3704.00,7472.00,15880.00,-2016.00
24998,-2084.00,1086.00,-4032.00,-5824.00,7580.00,16756.00,-2000.00
25015,-27708.00,-8733.00,-3374.00,-3800.00,8064.00,16536.00,-2032.00
25031,-32768.00,-12291.00,-1225.00,-2348.00,6320.00,15516.00,-2016.00
25049,-32768.00,-8856.00,2482.00,36.00,6508.00,11624.00,-2032.00
25065,-32768.00,-3367.00,6313.00,2032.00,5204.00,13464.00,-2064.00
25082,-32768.00,3319.00,6100.00,948.00,1964.00,14812.00,-2048.00
25099,-32768.00,3700.00,6472.00,596.00,-3840.00,19588.00,-2016.00
25115,-5773.00,873.00,2845.00,-1980.00,-7352.00,21524.00,-2032.00
25133,21647.00,1222.00,-2222.00,-1504.00,-8796.00,21224.00,-2032.00
25149,32767.00,1481.00,-6788.00,-440.00,-4136.00,21260.00,-2032.00
25166,32767.00,1138.00,-7501.00,1024.00,1644.00,21916.00,-2016.00
25183,32767.00,2003.00,-5469.00,3340.00,5840.00,20264.00,-2000.00
25199,32767.00,5988.00,-3810.00,3716.00,8068.00,18868.00,-2016.00
25217,32767.00,2382.00,1401.00,3120.00,10136.00,17920.00,-2048.00
25233,22442.00,289.00,4324.00,-768.00,9012.00,19244.00,-2000.00
25250,837.00,-6729.00,6016.00,-3428.00,7384.00,18232.00,-2064.00
25267,-19806.00,-9308.00,3006.00,-3184.00,4596.00,15588.00,-2000.00
25283,-32768.00,-13349.00,1405.00,-2836.00,9364.00,12160.00,-2016.00
25300,-32768.00,-8614.00,-2043.00,-696.00,5680.00,13976.00,-2000.00
25317,-32768.00,-3528.00,843.00,-612.00,3436.00,13936.00,-2016.00
25334,-32768.00,3367.00,275.00,-1768.00,2140.00,13340.00,-2016.00
25351,-32768.00,2319.00,-1278.00,-40.00,-2172.00,16692.00,-2048.00
25367,-20205.00,3531.00,-2407.00,1268.00,-7424.00,19964.00,-2016.00
25384,10139.00,-1679.00,-3074.00,1040.00,-6152.00,20252.00,-2032.00
25401,32767.00,-894.00,1774.00,3056.00,-1972.00,21896.00,-2016.00
25418,32767.00,373.00,2287.00,2908.00,-432.00,21164.00,-2016.00
25435,32767.00,-1415.00,-1448.00,4048.00,4728.00,20804.00,-1984.00
25451,32767.00,-2930.00,-5736.00,4968.00,5992.00,21864.00,-2032.00
25468,32767.00,-2319.00,-3003.00,5608.00,9028.00,18060.00,-2016.00
25485,22641.00,-246.00,782.00,3128.00,7952.00,17584.00,-2048.00
25501,2944.00,-1442.00,2708.00,-596.00,6968.00,15704.00,-2016.00
25519,-15849.00,2076.00,2474.00,-2696.00,5476.00,15832.00,-2016.00
25535,-32768.00,1218.00,3510.00,-3912.00,4288.00,14952.00,-2032.00
25552,-32768.00,-1879.00,6017.00,-2908.00,2460.00,16092.00,-2016.00
25569,-32768.00,-5621.00,5544.00,-2264.00,1088.00,14520.00,-2000.00
25586,-32768.00,-6573.00,969.00,-536.00,-872.00,13548.00,-2016.00
25603,-32768.00,-9490.00,-4361.00,1852.00,-3960.00,17492.00,-2032.00
25619,-30549.00,-10311.00,-7216.00,5160.00,-5404.00,19588.00,-2048.00
25636,-3292.00,-7355.00,-8055.00,6472.00,-5128.00,19212.00,-2000.00
25653,24129.00,-861.00,-6437.00,6420.00,-5404.00,19528.00,-2016.00
25670,32767.00,1876.00,-4634.00,5040.00,-2188.00,19812.00,-2016.00
25687,32767.00,5959.00,-3856.00,4656.00,2032.00,19968.00,-2000.00
25703,32767.00,7179.00,-3578.00,5284.00,2656.00,20180.00,-2000.00
25720,32767.00,4308.00,1212.00,3892.00,4804.00,18628.00,-2016.00
25737,32767.00,1041.00,1174.00,2292.00,4616.00,17752.00,-2032.00
25754,19684.00,-1750.00,1869.00,1432.00,4816.00,19756.00,-2016.00
25771,250.00,-667.00,1215.00,-856.00,5024.00,18408.00,-2016.00
25787,-19199.00,3382.00,710.00,-2360.00,3452.00,18000.00,-2032.00
25804,-32768.00,1510.00,1767.00,-2876.00,2688.00,18756.00,-2048.00
25821,-32768.00,-2317.00,2341.00,-604.00,3744.00,14772.00,-2064.00
25837,-32768.00,-7066.00,1665.00,1444.00,3364.00,12236.00,-2064.00
25854,-32768.00,-8715.00,-985.00,5580.00,1640.00,9272.00,-2016.00
25871,-32768.00,-5342.00,-4829.00,4008.00,-6972.00,17648.00,-2048.00
25888,-18670.00,-7122.00,-2578.00,8560.00,-7092.00,19432.00,-2032.00
25905,3419.00,309.00,2729.00,6984.00,-9488.00,18132.00,-2048.00
25921,28524.00,2885.00,5972.00,3560.00,-10536.00,19952.00,-2048.00
25938,32767.00,1948.00,3697.00,1080.00,-8724.00,20056.00,-2032.00
25955,32767.00,4854.00,-4542.00,2340.00,-3508.00,20008.00,-2032.00
25972,32767.00,11747.00,-10603.00,4852.00,2296.00,19228.00,-2048.00
25989,32767.00,12801.00,-11765.00,5780.00,5428.00,20368.00,-2032.00
26006,32767.00,11500.00,-8618.00,5576.00,7328.00,20236.00,-2032.00
26022,32767.00,8335.00,-3347.00,2476.00,8524.00,16452.00,-2016.00
26040,16227.00,7141.00,90.00,200.00,8980.00,15760.00,-2032.00
26056,-9541.00,4544.00,775.00,-1684.00,6896.00,17796.00,-2016.00
26073,-32768.00,2846.00,-263.00,-3636.00,4752.00,16000.00,-2048.00
26090,-32768.00,-2432.00,394.00,-3956.00,3920.00,16704.00,-2032.00
26106,-32768.00,-9166.00,855.00,-752.00,4080.00,12992.00,-2032.00
26123,-32768.00,-7856.00,865.00,1792.00,1412.00,11668.00,-2032.00
26140,-32768.00,-9797.00,1287.00,3560.00,-20.00,13160.00,-2016.00
26157,-32768.00,-6124.00,1834.00,3964.00,-5756.00,14528.00,-2032.00
26173,-3152.00,-1400.00,359.00,3012.00,-8268.00,20436.00,-2016.00
26190,23939.00,2585.00,1976.00,2092.00,-11252.00,20104.00,-2016.00
26207,32767.00,7835.00,1134.00,7932.00,-8136.00,25548.00,-2048.00
26224,32767.00,12572.00,-704.00,2384.00,-156.00,20864.00,-2016.00
26241,32767.00,17080.00,-2661.00,4228.00,3504.00,21268.00,-2032.00
26258,32767.00,16836.00,-2389.00,3096.00,5768.00,20972.00,-2032.00
26274,32767.00,9669.00,-1106.00,-1136.00,9452.00,25564.00,-2032.00
26291,32767.00,4382.00,4539.00,-1540.00,7536.00,17076.00,-2048.00
26308,13083.00,2998.00,3029.00,-2916.00,7600.00,14836.00,-2048.00
26324,-11832.00,676.00,-1277.00,-6244.00,8536.00,14992.00,-2032.00
26342,-30626.00,-3308.00,-7649.00,-4144.00,6744.00,13384.00,-2000.00
26358,-32768.00,-11277.00,-6843.00,-2672.00,5376.00,13092.00,-2016.00
26376,-32768.00,-16737.00,-2797.00,-736.00,5572.00,12236.00,-2032.00
26392,-32768.00,-18221.00,-37.00,2216.00,2676.00,13216.00,-2016.00
26408,-32768.00,-12689.00,899.00,2492.00,3116.00,14268.00,-2064.00
26426,-32768.00,-8406.00,4841.00,3936.00,-2060.00,18028.00,-2000.00
26442,-14940.00,-5646.00,5106.00,3492.00,-8092.00,20908.00,-2016.00
26460,7425.00,4951.00,4963.00,3472.00,-6944.00,23328.00,-2032.00
26476,27661.00,12565.00,2949.00,2116.00,-7760.00,23404.00,-2032.00
26493,32767.00,18898.00,-957.00,2628.00,-4248.00,22988.00,-2032.00
26510,32767.00,18795.00,-3161.00,2516.00,2708.00,18176.00,-2032.00
26526,32767.00,18387.00,-4582.00,3248.00,7368.00,19348.00,-2064.00
26544,32767.00,16408.00,-242.00,2552.00,8316.00,21280.00,-2048.00
26560,32767.00,10997.00,4184.00,120.00,8100.00,17680.00,-1984.00
26577,16988.00,4715.00,5047.00,-2404.00,6444.00,14548.00,-2000.00
26594,-3165.00,1967.00,2164.00,-5720.00,5564.00,13304.00,-2000.00
26611,-26468.00,-2259.00,-2447.00,-7408.00,3508.00,14020.00,-2016.00
26628,-32768.00,-11015.00,-2386.00,-6384.00,3656.00,14996.00,-2000.00
26644,-32768.00,-12416.00,-2285.00,-2964.00,1040.00,10064.00,-1984.00
26661,-32768.00,-12893.00,-5762.00,-1228.00,2628.00,11404.00,-2032.00
26678,-32768.00,-7698.00,-5509.00,1036.00,992.00,11964.00,-2000.00
26695,-32768.00,-8076.00,-7704.00,1788.00,-10504.00,1624.00,-2000.00
26712,-14690.00,-10688.00,-3728.00,2648.00,-5220.00,23552.00,-2064.00
26729,8183.00,-2852.00,-316.00,1576.00,-6064.00,21684.00,-2032.00
26745,32767.00,6141.00,983.00,3536.00,-5644.00,21676.00,-2032.00
26762,32767.00,16162.00,844.00,2540.00,-1408.00,22580.00,-2048.00
26779,32767.00,16476.00,963.00,-516.00,2768.00,18376.00,-2016.00
26796,32767.00,25272.00,2901.00,10064.00,6868.00,14084.00,-2064.00
26813,32767.00,16309.00,19427.00,2856.00,7404.00,16420.00,-2016.00
26829,20554.00,-5456.00,21714.00,212.00,-10960.00,15328.00,-2032.00
26847,-2742.00,-7139.00,11795.00,-22832.00,-3272.00,19284.00,-2032.00
26863,-17547.00,672.00,-6605.00,3064.00,3364.00,10832.00,-2016.00
26881,-22884.00,-10150.00,-4757.00,-4796.00,-392.00,10124.00,-2016.00
26897,-24861.00,-8504.00,-10909.00,-6404.00,4184.00,12972.00,-2032.00
26913,-21540.00,-1981.00,-19218.00,-2940.00,12136.00,17820.00,-2048.00
26931,-22367.00,-666.00,-20441.00,1600.00,13568.00,25960.00,-2016.00
26947,-14141.00,-6086.00,-5622.00,10804.00,3712.00,15788.00,-2000.00
26964,-3618.00,-8570.00,4954.00,4624.00,-4.00,19392.00,-2032.00
26981,-119.00,-5181.00,4081.00,-1676.00,-644.00,20580.00,-2016.00
26997,1360.00,-53.00,-973.00,-2200.00,-1156.00,21260.00,-2016.00
27015,1759.00,3496.00,-5349.00,476.00,-1216.00,20636.00,-2032.00
27031,1805.00,3423.00,-5144.00,1780.00,-1268.00,19420.00,-2032.00
27047,1638.00,1551.00,-3000.00,2432.00,-1044.00,18788.00,-2016.00
27065,1098.00,-965.00,747.00,3284.00,-160.00,18972.00,-2016.00
27081,109.00,-2354.00,3847.00,1204.00,676.00,18800.00,-2000.00
27098,-600.00,-1426.00,3667.00,-276.00,100.00,18256.00,-2032.00
27115,-579.00,-99.00,1740.00,-1220.00,788.00,17684.00,-2048.00
27131,-805.00,419.00,526.00,-632.00,1216.00,18160.00,-2032.00
27148,-1183.00,446.00,-202.00,-12.00,580.00,18376.00,-2032.00
27164,-1708.00,-930.00,761.00,1736.00,-96.00,17760.00,-2016.00
27181,-1226.00,-2600.00,2882.00,2080.00,-16.00,17452.00,-2032.00
27197,-321.00,-2016.00,3692.00,380.00,1216.00,18744.00,-2048.00
27214,-1632.00,-2103.00,2506.00,-660.00,1820.00,19992.00,-2016.00
27231,-1717.00,-1392.00,1411.00,-232.00,856.00,17800.00,-1984.00
27247,-562.00,726.00,-259.00,-756.00,336.00,18280.00,-2048.00
27264,103.00,1436.00,-1481.00,1000.00,408.00,18616.00,-2048.00
27281,733.00,1418.00,-841.00,964.00,1028.00,18696.00,-2000.00
27297,744.00,1506.00,-963.00,-92.00,1860.00,20156.00,-2000.00
27314,-634.00,760.00,-1496.00,168.00,2132.00,20108.00,-2016.00
27330,-1550.00,-790.00,-545.00,1268.00,972.00,19088.00,-2032.00
27347,-1617.00,-1436.00,618.00,1232.00,-52.00,18540.00,-2048.00
27364,-898.00,-1254.00,1416.00,788.00,-104.00,17596.00,-2000.00
27380,-130.00,432.00,204.00,-740.00,-16.00,18160.00,-2032.00
27397,62.00,674.00,-1009.00,148.00,600.00,18476.00,-2000.00
27413,-110.00,364.00,-1132.00,836.00,1164.00,19148.00,-2000.00
27430,-756.00,534.00,-863.00,428.00,468.00,18812.00,-2048.00
27447,-1328.00,-324.00,-442.00,1668.00,220.00,18664.00,-2032.00
27463,-822.00,-639.00,985.00,920.00,164.00,17864.00,-2016.00
27480,-179.00,-96.00,249.00,80.00,572.00,18632.00,-2016.00
27496,-308.00,-450.00,-324.00,612.00,824.00,19016.00,-1984.00
27512,-107.00,-161.00,-586.00,372.00,388.00,18968.00,-2016.00
27529,-710.00,-314.00,-593.00,1288.00,-24.00,18996.00,-2032.00
27545,-764.00,-1068.00,908.00,1052.00,-452.00,17556.00,-2000.00
27563,-168.00,-240.00,959.00,-112.00,-916.00,17368.00,-2000.00
27579,448.00,441.00,-246.00,268.00,-168.00,18112.00,-2032.00
27595,740.00,260.00,-153.00,1024.00,892.00,19000.00,-2000.00
27612,128.00,-384.00,345.00,488.00,936.00,19216.00,-2048.00
27628,-551.00,-1270.00,611.00,684.00,612.00,18908.00,-2048.00
27644,-734.00,-1264.00,1118.00,852.00,172.00,18412.00,-2032.00
27662,300.00,-129.00,552.00,-44.00,-100.00,17936.00,-2016.00
27678,961.00,460.00,-721.00,300.00,692.00,19024.00,-1984.00
27695,442.00,673.00,-1003.00,824.00,1020.00,20108.00,-2000.00
27711,-896.00,23.00,106.00,1616.00,772.00,20064.00,-2016.00
27727,-1754.00,-12.00,-57.00,108.00,-344.00,19060.00,-1984.00
27744,-1790.00,-78.00,-712.00,476.00,-512.00,17804.00,-1984.00
27760,-1287.00,-378.00,-140.00,2220.00,-44.00,19116.00,-2000.00
27778,-1387.00,-1154.00,1351.00,1540.00,316.00,19100.00,-2016.00
27794,-629.00,-864.00,1237.00,-96.00,100.00,18024.00,-2016.00
27810,183.00,-274.00,123.00,-88.00,-284.00,17976.00,-1984.00
27827,234.00,-77.00,-450.00,432.00,-360.00,18196.00,-2016.00
27843,-46.00,602.00,-686.00,476.00,-280.00,18440.00,-2048.00
27859,-339.00,462.00,-456.00,820.00,-232.00,18836.00,-2048.00
27876,-394.00,461.00,-606.00,640.00,-168.00,18692.00,-1984.00
27893,-358.00,399.00,-724.00,976.00,-160.00,18704.00,-2032.00
27910,-272.00,-118.00,-413.00,1024.00,-352.00,18760.00,-2032.00
27926,-178.00,-116.00,-605.00,664.00,-256.00,18852.00,-1984.00
27942,-160.00,97.00,-529.00,1032.00,-208.00,18720.00,-1984.00
27959,67.00,-139.00,-240.00,852.00,-104.00,19040.00,-2000.00
27975,7.00,199.00,150.00,748.00,172.00,18588.00,-2032.00
27992,127.00,447.00,162.00,544.00,-44.00,18276.00,-2048.00
28008,114.00,230.00,108.00,496.00,-380.00,18376.00,-2000.00
28024,348.00,401.00,-85.00,776.00,-260.00,18524.00,-2016.00
28042,221.00,414.00,-513.00,660.00,-484.00,18500.00,-2000.00
28058,-111.00,63.00,-780.00,748.00,36.00,18748.00,-2048.00
28075,-185.00,76.00,-596.00,624.00,92.00,18952.00,-2032.00
28091,-140.00,-95.00,-311.00,1012.00,-128.00,18688.00,-2000.00
28107,-143.00,-859.00,179.00,1220.00,36.00,18700.00,-2000.00
28124,195.00,-1174.00,376.00,764.00,-108.00,18724.00,-2000.00
28140,297.00,-147.00,289.00,404.00,-304.00,18492.00,-2016.00
28156,272.00,358.00,-199.00,476.00,-356.00,18676.00,-2032.00
28173,496.00,490.00,-641.00,448.00,-284.00,18608.00,-2000.00
28190,681.00,691.00,-802.00,440.00,-44.00,19008.00,-2032.00
28207,398.00,246.00,-941.00,488.00,-16.00,18576.00,-2000.00
28223,325.00,181.00,-768.00,612.00,48.00,18744.00,-2032.00
28239,200.00,574.00,-399.00,824.00,-28.00,18860.00,-2032.00
28256,-89.00,299.00,-180.00,988.00,-156.00,19012.00,-2032.00
28272,-243.00,99.00,12.00,860.00,-140.00,18680.00,-2000.00
28289,-271.00,-95.00,-27.00,1096.00,120.00,18972.00,-2016.00
28305,-379.00,-374.00,22.00,600.00,20.00,19228.00,-2016.00
28321,-449.00,216.00,-297.00,588.00,-276.00,18740.00,-2000.00
28338,-482.00,334.00,-711.00,304.00,-320.00,18556.00,-2032.00
28354,-351.00,575.00,-923.00,336.00,-76.00,18384.00,-2048.00
28370,-277.00,591.00,-402.00,764.00,120.00,18548.00,-2016.00
28387,-610.00,170.00,402.00,844.00,-276.00,18624.00,-2016.00
28404,-548.00,-623.00,868.00,552.00,-268.00,18304.00,-2000.00
28421,-220.00,-604.00,566.00,472.00,-408.00,18568.00,-2000.00
28437,236.00,-414.00,70.00,436.00,-648.00,18632.00,-2032.00
28453,323.00,171.00,-500.00,512.00,-384.00,18668.00,-2000.00
28470,240.00,243.00,-541.00,716.00,-328.00,18436.00,-2016.00
28486,-49.00,-41.00,-61.00,884.00,-260.00,18616.00,-2016.00
28503,-51.00,-47.00,435.00,736.00,136.00,18444.00,-2032.00
28519,120.00,124.00,211.00,456.00,-572.00,18472.00,-2032.00
28535,663.00,285.00,-415.00,596.00,-352.00,18584.00,-2000.00
28552,899.00,70.00,-685.00,736.00,-368.00,18828.00,-2032.00
28569,1051.00,-30.00,-678.00,628.00,-208.00,18628.00,-2000.00
28585,1190.00,384.00,-812.00,216.00,-200.00,17892.00,-2032.00
28602,1248.00,1229.00,-1022.00,216.00,104.00,18536.00,-2016.00
28618,741.00,750.00,-678.00,756.00,48.00,18984.00,-2000.00
28635,257.00,614.00,-380.00,828.00,40.00,19080.00,-2016.00
28651,-115.00,391.00,-56.00,656.00,-200.00,18904.00,-2032.00
28667,-364.00,-129.00,154.00,540.00,-304.00,18496.00,-2032.00
28684,-130.00,-765.00,-242.00,368.00,-352.00,18552.00,-2032.00
28701,272.00,-957.00,-628.00,460.00,-80.00,18720.00,-2016.00
28718,488.00,-256.00,-841.00,696.00,204.00,18688.00,-2016.00
28734,738.00,404.00,-683.00,672.00,224.00,18520.00,-2000.00
28750,764.00,856.00,-291.00,1084.00,-84.00,18460.00,-2032.00
28767,448.00,969.00,-105.00,640.00,-24.00,18912.00,-2000.00
28783,135.00,727.00,-115.00,240.00,-172.00,18716.00,-1968.00
28800,35.00,274.00,-435.00,408.00,-120.00,18708.00,-2000.00
28816,141.00,106.00,-753.00,608.00,92.00,18808.00,-2032.00
28832,150.00,-315.00,-519.00,644.00,-52.00,18716.00,-2032.00
28850,179.00,-339.00,-407.00,820.00,72.00,18760.00,-2000.00
28866,171.00,-8.00,-120.00,528.00,112.00,18616.00,-2032.00
28882,123.00,40.00,-56.00,684.00,64.00,18660.00,-2016.00
28899,113.00,34.00,-35.00,312.00,-136.00,18412.00,-2032.00
28915,59.00,-347.00,-116.00,500.00,148.00,18568.00,-2000.00
28932,185.00,-378.00,-200.00,616.00,240.00,18672.00,-2016.00
28948,299.00,-105.00,-183.00,624.00,4.00,18544.00,-2032.00
28964,519.00,5.00,-288.00,604.00,-52.00,18864.00,-2016.00
28981,543.00,-194.00,-454.00,316.00,96.00,18600.00,-2000.00
28997,471.00,377.00,-913.00,-440.00,-80.00,18356.00,-2032.00
29014,385.00,1417.00,-1655.00,-56.00,108.00,18376.00,-2000.00
29030,166.00,1078.00,-1316.00,876.00,104.00,19200.00,-2048.00
29046,-234.00,491.00,-460.00,1464.00,180.00,19304.00,-2000.00
29063,-512.00,-173.00,-112.00,636.00,96.00,18500.00,-2016.00
29080,-121.00,-43.00,-9.00,112.00,-40.00,18084.00,-2000.00
29095,651.00,384.00,-1207.00,16.00,-576.00,18356.00,-2016.00
29113,1019.00,487.00,-1781.00,632.00,-352.00,18752.00,-2032.00
29129,2097.00,1159.00,-1523.00,1824.00,308.00,17940.00,-2016.00
29146,1680.00,1184.00,-952.00,1292.00,196.00,18240.00,-1984.00
29162,674.00,954.00,-358.00,660.00,468.00,18568.00,-2032.00
29179,-280.00,876.00,544.00,56.00,668.00,17712.00,-2016.00
29196,-605.00,500.00,913.00,28.00,32.00,18176.00,-2000.00
29212,-810.00,419.00,699.00,100.00,-40.00,18920.00,-2032.00
29229,-608.00,-160.00,-2.00,372.00,504.00,19040.00,-2000.00
29245,-481.00,-595.00,200.00,692.00,508.00,19108.00,-2048.00
29261,-720.00,-616.00,307.00,244.00,268.00,19144.00,-2032.00
29278,213.00,313.00,-425.00,-12.00,-588.00,18100.00,-2000.00
29294,1045.00,1356.00,-1540.00,92.00,660.00,18388.00,-2032.00
29310,1383.00,1791.00,-1591.00,208.00,68.00,18656.00,-2016.00
29328,1319.00,1657.00,-1414.00,284.00,-4.00,18480.00,-2032.00
29344,3426.00,-412.00,-1738.00,856.00,-176.00,16760.00,-2048.00
29361,2284.00,754.00,-2276.00,-1020.00,1052.00,19056.00,-2032.00
29377,1127.00,810.00,-1498.00,1140.00,1056.00,19120.00,-1968.00
29394,829.00,162.00,-735.00,120.00,820.00,18776.00,-2032.00
29411,248.00,593.00,-1104.00,40.00,460.00,18744.00,-1984.00
29427,290.00,121.00,-945.00,112.00,224.00,18600.00,-2000.00
29444,522.00,43.00,-1235.00,120.00,64.00,18436.00,-2016.00
29460,942.00,442.00,-1719.00,168.00,-172.00,18444.00,-2000.00
29476,1358.00,251.00,-1851.00,448.00,112.00,18412.00,-2016.00
29493,1277.00,468.00,-974.00,-124.00,1812.00,19392.00,-2000.00
29510,969.00,1087.00,-1254.00,12.00,768.00,19460.00,-2000.00
29527,231.00,212.00,-50.00,784.00,584.00,18824.00,-2032.00
29543,414.00,392.00,661.00,872.00,328.00,18868.00,-1968.00
29559,-845.00,-360.00,1501.00,-128.00,368.00,19864.00,-2000.00
29576,-2419.00,-1163.00,585.00,-852.00,468.00,20368.00,-2016.00
29592,-3610.00,-796.00,-4.00,-1228.00,492.00,18192.00,-2016.00
29608,-2597.00,-976.00,-609.00,-652.00,-280.00,17112.00,-1984.00
29626,-1639.00,-1033.00,-826.00,-28.00,228.00,18048.00,-2032.00
29642,-2106.00,-535.00,-63.00,648.00,648.00,19356.00,-2016.00
29659,-2820.00,-1127.00,1022.00,872.00,536.00,18544.00,-2016.00
29675,-2670.00,-1864.00,1277.00,-136.00,-204.00,17376.00,-2016.00
29692,-1203.00,-635.00,-229.00,-272.00,-12.00,17080.00,-2000.00
29709,-53.00,-336.00,241.00,1544.00,304.00,18524.00,-2000.00
29725,651.00,205.00,1996.00,2084.00,1044.00,18896.00,-2016.00
29742,799.00,533.00,4037.00,988.00,-480.00,19436.00,-2016.00
29758,-499.00,1983.00,1189.00,-1140.00,-1052.00,17824.00,-1984.00
29775,-831.00,1005.00,-1067.00,400.00,-1312.00,19268.00,-2016.00
29792,-843.00,-4634.00,550.00,684.00,416.00,18792.00,-2016.00
29808,-956.00,-5482.00,1439.00,-516.00,-36.00,18516.00,-2032.00
29825,-1141.00,-7562.00,2708.00,-20.00,-924.00,19408.00,-2048.00
29841,-1543.00,-6297.00,223.00,-1080.00,-1516.00,18860.00,-2032.00
29858,-595.00,-3036.00,-3319.00,480.00,352.00,18212.00,-2000.00
29875,5.00,868.00,-5156.00,1704.00,1816.00,18308.00,-1984.00
29891,244.00,2433.00,-6291.00,1396.00,744.00,17612.00,-2000.00
29907,-1747.00,3086.00,-3812.00,3492.00,-596.00,21008.00,-2032.00
29925,-2490.00,2109.00,-2791.00,1244.00,56.00,20056.00,-2000.00
29941,-3509.00,456.00,-1859.00,980.00,-564.00,19208.00,-1984.00
29958,-3045.00,-347.00,-1255.00,856.00,20.00,19432.00,-2032.00
29975,-2601.00,-1020.00,-70.00,1472.00,-452.00,18404.00,-2016.00
29991,-1159.00,197.00,610.00,1336.00,-1080.00,17672.00,-2016.00
30008,775.00,1846.00,1547.00,-32.00,-1408.00,17600.00,-2000.00
30024,3296.00,2206.00,150.00,-816.00,-1312.00,16860.00,-2016.00
30042,5053.00,1803.00,-696.00,-112.00,-1208.00,17748.00,-1984.00
30058,6889.00,1093.00,-1125.00,636.00,-1028.00,18388.00,-2000.00
30074,9104.00,-1260.00,-1493.00,200.00,-1232.00,18216.00,-1968.00
30091,8461.00,-949.00,-2809.00,1024.00,-440.00,18608.00,-2000.00
30108,7706.00,-608.00,-2278.00,2100.00,900.00,18868.00,-2000.00
30125,6260.00,-270.00,-928.00,1460.00,1244.00,18668.00,-2032.00
30141,4538.00,1047.00,-140.00,2392.00,1628.00,19420.00,-2016.00
30158,2516.00,1511.00,225.00,1312.00,1560.00,19616.00,-2016.00
30175,869.00,1189.00,68.00,120.00,1032.00,18672.00,-2000.00
30191,108.00,381.00,-893.00,-32.00,400.00,18700.00,-2016.00
30208,-480.00,739.00,-1759.00,568.00,616.00,19576.00,-2016.00
30224,-30.00,136.00,-1988.00,1300.00,1336.00,19204.00,-2000.00
30241,553.00,-173.00,-1306.00,1664.00,2220.00,19276.00,-2016.00
30258,620.00,473.00,-833.00,1592.00,1988.00,19208.00,-1984.00
30274,484.00,449.00,-603.00,904.00,1324.00,19124.00,-2000.00
30290,218.00,404.00,-239.00,924.00,692.00,18772.00,-2016.00
30307,95.00,164.00,170.00,672.00,720.00,17856.00,-1984.00
30323,155.00,640.00,811.00,460.00,1076.00,18464.00,-2016.00
30341,-507.00,232.00,1505.00,644.00,1740.00,18528.00,-2000.00
30357,-647.00,1037.00,2018.00,780.00,1692.00,18252.00,-2016.00
30373,-11.00,596.00,1443.00,4.00,1332.00,18132.00,-2000.00
30390,476.00,560.00,1107.00,416.00,1028.00,18280.00,-2000.00
30406,-203.00,610.00,851.00,184.00,416.00,18688.00,-2016.00
30423,-821.00,1435.00,1087.00,-376.00,300.00,18024.00,-2032.00
30440,-628.00,1328.00,339.00,-516.00,280.00,18212.00,-2048.00
30456,566.00,333.00,-1387.00,128.00,1040.00,18580.00,-2000.00
30473,1448.00,-537.00,-2367.00,244.00,1084.00,18700.00,-1984.00
30489,1836.00,-368.00,-3101.00,424.00,1500.00,18880.00,-2000.00
30507,1585.00,-250.00,-3088.00,884.00,1320.00,19148.00,-2000.00
30523,450.00,-694.00,-2018.00,280.00,1184.00,18400.00,-1968.00
30539,-101.00,-1338.00,-1280.00,688.00,908.00,18496.00,-2016.00
30556,-1342.00,-747.00,-656.00,628.00,1236.00,18992.00,-2032.00
