t,gx,gy,gz,ax,ay,az,temp
3,131.00,61.00,-225.00,1320.00,-492.00,18444.00,-1680.00
19,116.00,61.00,-245.00,1272.00,-384.00,18444.00,-1648.00
35,129.00,48.00,-250.00,1312.00,-368.00,18272.00,-1664.00
52,119.00,46.00,-240.00,1272.00,-412.00,18280.00,-1664.00
68,123.00,42.00,-237.00,1288.00,-504.00,18304.00,-1648.00
84,120.00,72.00,-246.00,1264.00,-480.00,18380.00,-1696.00
101,132.00,55.00,-247.00,1240.00,-388.00,18424.00,-1664.00
117,128.00,65.00,-223.00,1148.00,-412.00,18312.00,-1632.00
134,145.00,70.00,-228.00,1236.00,-420.00,18304.00,-1632.00
150,131.00,68.00,-205.00,1180.00,-416.00,18320.00,-1648.00
166,105.00,42.00,-199.00,1284.00,-444.00,18252.00,-1680.00
183,119.00,40.00,-215.00,1248.00,-376.00,18372.00,-1664.00
199,136.00,46.00,-216.00,1344.00,-332.00,18380.00,-1648.00
216,125.00,48.00,-206.00,1328.00,-428.00,18204.00,-1648.00
232,135.00,65.00,-210.00,1304.00,-488.00,18344.00,-1664.00
248,121.00,62.00,-211.00,1260.00,-440.00,18388.00,-1632.00
265,117.00,75.00,-207.00,1296.00,-480.00,18436.00,-1648.00
281,115.00,47.00,-227.00,1188.00,-392.00,18444.00,-1648.00
297,112.00,49.00,-221.00,1292.00,-412.00,18408.00,-1632.00
314,114.00,69.00,-206.00,1304.00,-396.00,18348.00,-1632.00
330,137.00,64.00,-222.00,1316.00,-412.00,18204.00,-1648.00
347,120.00,72.00,-196.00,1332.00,-484.00,18308.00,-1648.00
363,138.00,18.00,-214.00,1172.00,-412.00,18396.00,-1632.00
379,130.00,59.00,-233.00,1252.00,-440.00,18372.00,-1664.00
396,130.00,64.00,-225.00,1220.00,-436.00,18340.00,-1648.00
412,133.00,59.00,-227.00,1328.00,-476.00,18380.00,-1648.00
429,120.00,77.00,-205.00,1268.00,-424.00,18400.00,-1664.00
445,117.00,32.00,-205.00,1320.00,-392.00,18424.00,-1664.00
461,130.00,83.00,-236.00,1300.00,-332.00,18276.00,-1648.00
478,116.00,69.00,-210.00,1332.00,-368.00,18348.00,-1664.00
494,120.00,62.00,-221.00,1244.00,-464.00,18484.00,-1664.00
510,120.00,85.00,-211.00,1376.00,-480.00,18344.00,-1648.00
527,128.00,44.00,-211.00,1236.00,-340.00,18400.00,-1648.00
543,121.00,19.00,-205.00,1164.00,-368.00,18264.00,-1632.00
560,120.00,38.00,-224.00,1292.00,-356.00,18368.00,-1632.00
576,102.00,62.00,-194.00,1300.00,-420.00,18216.00,-1648.00
592,113.00,67.00,-199.00,1224.00,-464.00,18440.00,-1664.00
609,110.00,64.00,-243.00,1232.00,-400.00,18424.00,-1664.00
625,110.00,50.00,-203.00,1132.00,-400.00,18364.00,-1664.00
642,136.00,69.00,-241.00,1240.00,-416.00,18348.00,-1648.00
658,122.00,75.00,-250.00,1184.00,-384.00,18336.00,-1648.00
674,119.00,48.00,-215.00,1200.00,-472.00,18340.00,-1664.00
691,121.00,33.00,-225.00,1316.00,-440.00,18308.00,-1664.00
707,123.00,61.00,-215.00,1180.00,-384.00,18316.00,-1648.00
723,131.00,60.00,-203.00,1288.00,-432.00,18304.00,-1648.00
740,101.00,59.00,-216.00,1256.00,-492.00,18320.00,-1664.00
756,117.00,85.00,-239.00,1288.00,-424.00,18464.00,-1664.00
773,106.00,47.00,-234.00,1180.00,-384.00,18336.00,-1616.00
789,116.00,79.00,-208.00,1348.00,-440.00,18356.00,-1648.00
805,144.00,61.00,-209.00,1272.00,-400.00,18332.00,-1648.00
822,136.00,44.00,-216.00,1176.00,-568.00,18508.00,-1664.00
838,135.00,47.00,-242.00,1224.00,-388.00,18412.00,-1632.00
855,126.00,43.00,-199.00,1316.00,-428.00,18348.00,-1680.00
871,131.00,61.00,-196.00,1176.00,-360.00,18300.00,-1648.00
887,145.00,48.00,-223.00,1220.00,-388.00,18464.00,-1664.00
904,99.00,54.00,-233.00,1260.00,-456.00,18240.00,-1664.00
920,126.00,75.00,-247.00,1284.00,-344.00,18428.00,-1648.00
936,106.00,53.00,-204.00,1292.00,-372.00,18380.00,-1680.00
953,120.00,57.00,-227.00,1332.00,-436.00,18376.00,-1696.00
969,130.00,50.00,-238.00,1252.00,-336.00,18400.00,-1664.00
986,108.00,65.00,-225.00,1244.00,-384.00,18328.00,-1648.00
1003,94.00,58.00,-216.00,1164.00,-424.00,18452.00,-1696.00
1019,106.00,63.00,-198.00,1232.00,-504.00,18292.00,-1664.00
1036,118.00,50.00,-223.00,1188.00,-324.00,18316.00,-1664.00
1052,114.00,37.00,-234.00,1244.00,-412.00,18380.00,-1632.00
1069,139.00,61.00,-212.00,1180.00,-400.00,18200.00,-1664.00
1085,140.00,53.00,-216.00,1216.00,-428.00,18384.00,-1696.00
1101,124.00,74.00,-209.00,1208.00,-364.00,18304.00,-1664.00
1118,125.00,55.00,-238.00,1272.00,-484.00,18284.00,-1632.00
1134,140.00,54.00,-227.00,1208.00,-336.00,18344.00,-1664.00
1150,134.00,27.00,-221.00,1236.00,-412.00,18400.00,-1664.00
1167,107.00,33.00,-219.00,1284.00,-304.00,18544.00,-1664.00
1183,110.00,20.00,-208.00,1288.00,-408.00,18376.00,-1632.00
1200,101.00,64.00,-228.00,1256.00,-412.00,18468.00,-1664.00
1216,128.00,39.00,-225.00,1304.00,-436.00,18316.00,-1632.00
1232,137.00,23.00,-233.00,1320.00,-312.00,18352.00,-1664.00
1250,113.00,42.00,-216.00,1240.00,-416.00,18336.00,-1664.00
1266,104.00,44.00,-222.00,1204.00,-460.00,18448.00,-1664.00
1283,111.00,51.00,-213.00,1240.00,-464.00,18356.00,-1680.00
1299,119.00,62.00,-232.00,1304.00,-416.00,18336.00,-1648.00
1315,138.00,43.00,-198.00,1256.00,-408.00,18380.00,-1648.00
1332,141.00,18.00,-233.00,1220.00,-392.00,18328.00,-1680.00
1348,114.00,18.00,-225.00,1272.00,-448.00,18532.00,-1680.00
1364,123.00,85.00,-228.00,1336.00,-380.00,18432.00,-1648.00
1381,115.00,54.00,-207.00,1260.00,-464.00,18268.00,-1680.00
1397,144.00,78.00,-197.00,1260.00,-384.00,18264.00,-1648.00
1414,142.00,49.00,-221.00,1260.00,-380.00,18488.00,-1648.00
1430,126.00,53.00,-223.00,1232.00,-392.00,18344.00,-1680.00
1446,111.00,18.00,-215.00,1240.00,-376.00,18380.00,-1680.00
1464,115.00,51.00,-225.00,1180.00,-384.00,18384.00,-1616.00
1480,128.00,59.00,-188.00,1212.00,-444.00,18560.00,-1648.00
1497,126.00,32.00,-216.00,1312.00,-500.00,18332.00,-1648.00
1513,119.00,47.00,-221.00,1264.00,-488.00,18444.00,-1680.00
1529,122.00,37.00,-222.00,1332.00,-452.00,18596.00,-1648.00
1546,114.00,79.00,-244.00,1276.00,-492.00,18368.00,-1648.00
1562,125.00,23.00,-237.00,1164.00,-416.00,18404.00,-1664.00
1579,149.00,68.00,-199.00,1164.00,-324.00,18464.00,-1664.00
1595,145.00,52.00,-222.00,1320.00,-452.00,18396.00,-1664.00
1611,119.00,76.00,-213.00,1316.00,-500.00,18312.00,-1664.00
1628,137.00,64.00,-237.00,1224.00,-392.00,18280.00,-1664.00
1644,125.00,76.00,-232.00,1268.00,-420.00,18436.00,-1696.00
1660,111.00,65.00,-217.00,1240.00,-476.00,18308.00,-1664.00
1677,141.00,62.00,-216.00,1192.00,-504.00,18364.00,-1696.00
1694,126.00,48.00,-221.00,1164.00,-476.00,18432.00,-1632.00
1711,119.00,50.00,-249.00,1208.00,-352.00,18368.00,-1632.00
1727,151.00,48.00,-226.00,1224.00,-396.00,18376.00,-1664.00
1743,134.00,20.00,-220.00,1260.00,-460.00,18364.00,-1664.00
1760,111.00,62.00,-202.00,1256.00,-412.00,18464.00,-1632.00
1776,120.00,38.00,-203.00,1316.00,-284.00,18444.00,-1664.00
1793,115.00,62.00,-189.00,1304.00,-384.00,18280.00,-1632.00
1809,135.00,49.00,-233.00,1212.00,-352.00,18408.00,-1664.00
1825,146.00,54.00,-225.00,1212.00,-456.00,18416.00,-1664.00
1842,133.00,49.00,-247.00,1236.00,-448.00,18320.00,-1664.00
1858,94.00,67.00,-223.00,1296.00,-364.00,18312.00,-1664.00
1874,100.00,64.00,-223.00,1144.00,-468.00,18520.00,-1616.00
1891,108.00,53.00,-204.00,1176.00,-492.00,18284.00,-1648.00
1907,135.00,55.00,-225.00,1176.00,-428.00,18392.00,-1648.00
1924,151.00,54.00,-203.00,1240.00,-356.00,18460.00,-1648.00
1941,118.00,80.00,-211.00,1220.00,-460.00,18312.00,-1648.00
1957,126.00,31.00,-229.00,1188.00,-444.00,18440.00,-1648.00
1974,121.00,56.00,-231.00,1264.00,-372.00,18328.00,-1648.00
1990,124.00,36.00,-241.00,1244.00,-468.00,18320.00,-1648.00
2007,123.00,50.00,-222.00,1276.00,-444.00,18300.00,-1680.00
2023,121.00,63.00,-199.00,1212.00,-476.00,18440.00,-1648.00
2039,119.00,62.00,-236.00,1232.00,-456.00,18280.00,-1664.00
2056,122.00,50.00,-204.00,1196.00,-280.00,18344.00,-1648.00
2072,131.00,16.00,-207.00,1136.00,-468.00,18352.00,-1664.00
2088,136.00,52.00,-203.00,1304.00,-496.00,18248.00,-1680.00
2105,94.00,38.00,-201.00,1284.00,-396.00,18316.00,-1664.00
2121,115.00,54.00,-209.00,1340.00,-368.00,18516.00,-1696.00
2138,125.00,64.00,-210.00,1300.00,-436.00,18328.00,-1664.00
2154,126.00,37.00,-215.00,1236.00,-308.00,18292.00,-1632.00
2171,122.00,31.00,-221.00,1212.00,-376.00,18332.00,-1664.00
2188,150.00,66.00,-218.00,1296.00,-332.00,18492.00,-1664.00
2204,132.00,46.00,-190.00,1260.00,-412.00,18468.00,-1664.00
2221,132.00,41.00,-216.00,1264.00,-444.00,18292.00,-1696.00
2237,122.00,59.00,-224.00,1160.00,-436.00,18480.00,-1664.00
2253,142.00,28.00,-213.00,1232.00,-408.00,18368.00,-1664.00
2270,133.00,54.00,-245.00,1304.00,-328.00,18412.00,-1632.00
2286,137.00,45.00,-254.00,1336.00,-396.00,18504.00,-1632.00
2302,149.00,49.00,-271.00,1252.00,-300.00,18540.00,-1664.00
2319,156.00,92.00,-280.00,1288.00,-376.00,18252.00,-1632.00
2335,163.00,90.00,-238.00,1264.00,-476.00,18512.00,-1664.00
2352,157.00,117.00,-258.00,1160.00,-528.00,18536.00,-1664.00
2368,150.00,85.00,-264.00,1292.00,-780.00,18528.00,-1664.00
2385,107.00,66.00,-198.00,1004.00,-832.00,18172.00,-1664.00
2402,135.00,47.00,-121.00,1032.00,-536.00,18440.00,-1664.00
2418,121.00,64.00,-124.00,1052.00,-252.00,18252.00,-1632.00
2435,124.00,38.00,-185.00,1252.00,-316.00,18316.00,-1632.00
2451,128.00,37.00,-170.00,1392.00,-328.00,18384.00,-1664.00
2467,116.00,71.00,-182.00,1396.00,-424.00,18432.00,-1664.00
2484,145.00,55.00,-173.00,1368.00,-368.00,18264.00,-1648.00
2500,160.00,64.00,-203.00,1208.00,-332.00,18244.00,-1680.00
2516,124.00,55.00,-163.00,1432.00,-108.00,18292.00,-1680.00
2533,134.00,55.00,-189.00,1404.00,-52.00,18532.00,-1648.00
2549,130.00,57.00,-304.00,1232.00,-308.00,18380.00,-1680.00
2566,126.00,44.00,-290.00,1232.00,-392.00,18300.00,-1648.00
2582,131.00,72.00,-260.00,1256.00,-600.00,18284.00,-1680.00
2598,125.00,74.00,-198.00,1140.00,-624.00,18368.00,-1648.00
2615,107.00,73.00,-218.00,1300.00,-592.00,18228.00,-1648.00
2632,113.00,39.00,-220.00,1168.00,-408.00,18468.00,-1648.00
2649,132.00,53.00,-238.00,1128.00,-276.00,18340.00,-1632.00
2665,135.00,67.00,-220.00,1096.00,-460.00,18324.00,-1664.00
2681,131.00,32.00,-222.00,1192.00,-640.00,18392.00,-1664.00
2698,128.00,58.00,-200.00,1228.00,-600.00,18504.00,-1664.00
2714,127.00,51.00,-197.00,1316.00,-392.00,18516.00,-1664.00
2731,111.00,69.00,-202.00,1328.00,-248.00,18328.00,-1696.00
2747,131.00,69.00,-183.00,1416.00,-180.00,18296.00,-1664.00
2763,126.00,38.00,-264.00,1308.00,-212.00,18312.00,-1664.00
2780,124.00,26.00,-243.00,1176.00,-432.00,18520.00,-1664.00
2796,120.00,43.00,-236.00,1232.00,-512.00,18512.00,-1664.00
2812,136.00,58.00,-205.00,1180.00,-488.00,18388.00,-1664.00
2829,124.00,26.00,-214.00,1208.00,-536.00,18336.00,-1632.00
2845,120.00,32.00,-213.00,1208.00,-500.00,18400.00,-1664.00
2862,119.00,47.00,-226.00,1116.00,-328.00,18396.00,-1632.00
2879,117.00,67.00,-229.00,1260.00,-368.00,18340.00,-1664.00
2895,104.00,30.00,-239.00,1284.00,-484.00,18316.00,-1632.00
2912,142.00,29.00,-218.00,1400.00,-288.00,18328.00,-1664.00
2928,139.00,64.00,-204.00,1416.00,-420.00,18348.00,-1664.00
2945,137.00,44.00,-202.00,1428.00,-360.00,18480.00,-1664.00
2961,106.00,78.00,-218.00,1176.00,-376.00,18336.00,-1664.00
2977,129.00,63.00,-227.00,1272.00,-344.00,18352.00,-1664.00
2994,123.00,57.00,-240.00,1268.00,-340.00,18412.00,-1664.00
3010,95.00,96.00,-274.00,1276.00,-628.00,18316.00,-1696.00
3026,124.00,46.00,-198.00,1216.00,-540.00,18400.00,-1648.00
3043,86.00,63.00,-196.00,1132.00,-520.00,18460.00,-1648.00
3059,129.00,79.00,-199.00,1100.00,-356.00,18504.00,-1648.00
3076,151.00,66.00,-223.00,1152.00,-360.00,18432.00,-1680.00
3092,126.00,57.00,-208.00,1168.00,-304.00,18296.00,-1680.00
3109,121.00,28.00,-205.00,1196.00,-412.00,18272.00,-1680.00
3126,118.00,31.00,-227.00,1240.00,-508.00,18212.00,-1648.00
3142,119.00,70.00,-220.00,1284.00,-444.00,18304.00,-1680.00
3159,132.00,51.00,-208.00,1336.00,-400.00,18352.00,-1648.00
3175,157.00,53.00,-200.00,1188.00,-280.00,18224.00,-1648.00
3191,126.00,55.00,-214.00,1192.00,-432.00,18384.00,-1648.00
3208,120.00,54.00,-217.00,1264.00,-392.00,18520.00,-1648.00
3224,111.00,79.00,-232.00,1216.00,-480.00,18380.00,-1648.00
3240,132.00,66.00,-228.00,1256.00,-428.00,18444.00,-1664.00
3257,142.00,61.00,-220.00,1208.00,-492.00,18268.00,-1648.00
3273,127.00,42.00,-199.00,1208.00,-420.00,18356.00,-1632.00
3290,122.00,60.00,-231.00,1236.00,-328.00,18496.00,-1680.00
3306,108.00,42.00,-223.00,1284.00,-340.00,18440.00,-1648.00
3322,128.00,13.00,-217.00,1288.00,-320.00,18368.00,-1680.00
3339,133.00,53.00,-224.00,1304.00,-364.00,18384.00,-1680.00
3356,118.00,65.00,-211.00,1268.00,-456.00,18480.00,-1648.00
3373,108.00,41.00,-230.00,1196.00,-468.00,18492.00,-1680.00
3389,121.00,59.00,-208.00,1304.00,-364.00,18408.00,-1680.00
3405,118.00,57.00,-204.00,1224.00,-372.00,18284.00,-1664.00
3422,115.00,18.00,-237.00,1180.00,-424.00,18452.00,-1648.00
3438,128.00,53.00,-245.00,1228.00,-464.00,18264.00,-1664.00
3454,134.00,79.00,-239.00,1136.00,-428.00,18348.00,-1648.00
3471,116.00,41.00,-181.00,1204.00,-396.00,18348.00,-1664.00
3487,126.00,28.00,-182.00,1240.00,-428.00,18352.00,-1680.00
3504,133.00,27.00,-222.00,1288.00,-412.00,18240.00,-1664.00
3520,137.00,56.00,-224.00,1320.00,-348.00,18264.00,-1680.00
3536,148.00,34.00,-231.00,1216.00,-440.00,18392.00,-1696.00
3553,101.00,26.00,-232.00,1296.00,-460.00,18288.00,-1680.00
3569,133.00,49.00,-217.00,1244.00,-440.00,18384.00,-1680.00
3587,108.00,46.00,-225.00,1268.00,-380.00,18288.00,-1648.00
3603,123.00,37.00,-224.00,1192.00,-476.00,18304.00,-1648.00
3619,109.00,22.00,-225.00,1256.00,-344.00,18328.00,-1680.00
3636,120.00,64.00,-228.00,1252.00,-340.00,18484.00,-1680.00
3652,99.00,60.00,-218.00,1344.00,-452.00,18504.00,-1680.00
3668,119.00,74.00,-217.00,1232.00,-476.00,18492.00,-1664.00
3685,147.00,54.00,-198.00,1260.00,-336.00,18284.00,-1664.00
3701,134.00,50.00,-210.00,1180.00,-432.00,18364.00,-1664.00
3718,124.00,59.00,-208.00,1052.00,-512.00,18320.00,-1648.00
3734,133.00,69.00,-202.00,1316.00,-392.00,18528.00,-1664.00
3750,135.00,66.00,-241.00,1300.00,-504.00,18476.00,-1648.00
3767,141.00,70.00,-256.00,1300.00,-456.00,18340.00,-1664.00
3783,143.00,56.00,-223.00,1232.00,-500.00,18312.00,-1616.00
3800,115.00,70.00,-226.00,1324.00,-500.00,18428.00,-1632.00
3817,131.00,44.00,-247.00,1224.00,-384.00,18428.00,-1648.00
3833,130.00,42.00,-224.00,1340.00,-304.00,18364.00,-1696.00
3850,132.00,50.00,-205.00,1256.00,-432.00,18388.00,-1648.00
3866,120.00,46.00,-216.00,1176.00,-492.00,18336.00,-1664.00
3883,132.00,51.00,-221.00,1252.00,-416.00,18472.00,-1648.00
3899,102.00,43.00,-224.00,1280.00,-568.00,18492.00,-1664.00
3915,115.00,56.00,-196.00,1196.00,-432.00,18268.00,-1680.00
3932,141.00,59.00,-199.00,1228.00,-224.00,18348.00,-1664.00
3948,123.00,28.00,-207.00,1260.00,-360.00,18416.00,-1680.00
3964,122.00,72.00,-213.00,1136.00,-396.00,18380.00,-1664.00
3981,119.00,53.00,-216.00,1132.00,-392.00,18408.00,-1648.00
3997,115.00,59.00,-220.00,1328.00,-476.00,18324.00,-1664.00
4014,131.00,43.00,-230.00,1284.00,-404.00,18384.00,-1648.00
4030,110.00,72.00,-230.00,1332.00,-320.00,18348.00,-1632.00
4047,110.00,40.00,-222.00,1256.00,-428.00,18508.00,-1648.00
4064,122.00,33.00,-234.00,1192.00,-356.00,18376.00,-1632.00
4080,125.00,40.00,-240.00,1220.00,-376.00,18324.00,-1648.00
4097,140.00,41.00,-202.00,1244.00,-352.00,18284.00,-1664.00
4113,134.00,71.00,-194.00,1200.00,-432.00,18288.00,-1616.00
4129,108.00,74.00,-238.00,1268.00,-484.00,18308.00,-1664.00
4146,114.00,85.00,-194.00,1088.00,-392.00,18316.00,-1712.00
4162,126.00,33.00,-214.00,1200.00,-388.00,18440.00,-1632.00
4178,120.00,69.00,-222.00,1180.00,-484.00,18332.00,-1632.00
4195,106.00,41.00,-193.00,1364.00,-428.00,18272.00,-1696.00
4211,113.00,21.00,-192.00,1260.00,-444.00,18384.00,-1632.00
4228,104.00,19.00,-226.00,1296.00,-460.00,18404.00,-1664.00
4244,118.00,45.00,-222.00,1116.00,-376.00,18492.00,-1664.00
4260,115.00,80.00,-211.00,1264.00,-384.00,18276.00,-1664.00
4278,132.00,44.00,-209.00,1188.00,-476.00,18272.00,-1648.00
4294,107.00,48.00,-214.00,1268.00,-444.00,18244.00,-1664.00
4311,112.00,65.00,-215.00,1280.00,-512.00,18528.00,-1712.00
4327,116.00,33.00,-202.00,1264.00,-412.00,18264.00,-1664.00
4343,121.00,23.00,-224.00,1236.00,-448.00,18292.00,-1648.00
4360,133.00,62.00,-197.00,1236.00,-428.00,18212.00,-1664.00
4376,133.00,50.00,-192.00,1288.00,-348.00,18332.00,-1648.00
4392,111.00,87.00,-212.00,1308.00,-376.00,18488.00,-1664.00
4409,105.00,53.00,-239.00,1308.00,-384.00,18328.00,-1648.00
4425,141.00,66.00,-225.00,1336.00,-380.00,18436.00,-1664.00
4442,133.00,64.00,-215.00,1252.00,-476.00,18220.00,-1648.00
4458,130.00,45.00,-208.00,1296.00,-424.00,18336.00,-1632.00
4474,107.00,70.00,-228.00,1236.00,-328.00,18288.00,-1648.00
4491,113.00,52.00,-248.00,1216.00,-376.00,18492.00,-1664.00
4508,139.00,34.00,-211.00,1196.00,-352.00,18356.00,-1648.00
4525,112.00,51.00,-220.00,1260.00,-376.00,18400.00,-1664.00
4541,123.00,60.00,-193.00,1372.00,-380.00,18400.00,-1712.00
4557,108.00,61.00,-194.00,1188.00,-340.00,18424.00,-1664.00
4574,98.00,49.00,-223.00,1280.00,-412.00,18384.00,-1680.00
4590,122.00,56.00,-243.00,1244.00,-388.00,18332.00,-1664.00
4606,130.00,46.00,-215.00,1280.00,-480.00,18420.00,-1664.00
4623,133.00,30.00,-226.00,1304.00,-428.00,18388.00,-1696.00
4639,111.00,48.00,-229.00,1236.00,-324.00,18384.00,-1632.00
4656,112.00,69.00,-231.00,1196.00,-428.00,18420.00,-1664.00
4672,137.00,32.00,-220.00,1308.00,-308.00,18428.00,-1664.00
4688,101.00,45.00,-189.00,1204.00,-364.00,18464.00,-1664.00
4705,115.00,37.00,-224.00,1292.00,-344.00,18396.00,-1648.00
4721,107.00,84.00,-232.00,1216.00,-432.00,18452.00,-1664.00
4739,131.00,37.00,-245.00,1332.00,-488.00,18376.00,-1680.00
4755,132.00,48.00,-194.00,1272.00,-412.00,18424.00,-1696.00
4771,155.00,35.00,-222.00,1220.00,-344.00,18264.00,-1680.00
4788,143.00,71.00,-206.00,1280.00,-392.00,18288.00,-1664.00
4804,138.00,52.00,-235.00,1336.00,-436.00,18452.00,-1680.00
4820,95.00,64.00,-225.00,1272.00,-376.00,18424.00,-1632.00
4837,106.00,62.00,-238.00,1172.00,-372.00,18624.00,-1664.00
4853,141.00,49.00,-225.00,1316.00,-336.00,18476.00,-1664.00
4870,109.00,44.00,-241.00,1160.00,-324.00,18400.00,-1664.00
4886,122.00,46.00,-231.00,1280.00,-416.00,18440.00,-1664.00
4902,135.00,72.00,-207.00,1188.00,-420.00,18360.00,-1696.00
4919,119.00,79.00,-219.00,1212.00,-368.00,18448.00,-1664.00
4935,119.00,61.00,-205.00,1208.00,-468.00,18312.00,-1696.00
4952,114.00,39.00,-211.00,1200.00,-476.00,18288.00,-1664.00
4968,137.00,62.00,-221.00,1148.00,-476.00,18412.00,-1680.00
4985,137.00,49.00,-214.00,1240.00,-372.00,18376.00,-1664.00
5002,136.00,70.00,-211.00,1220.00,-392.00,18492.00,-1696.00
5018,134.00,54.00,-223.00,1144.00,-292.00,18264.00,-1696.00
5035,139.00,51.00,-206.00,1260.00,-412.00,18308.00,-1664.00
5051,135.00,62.00,-210.00,1356.00,-540.00,18444.00,-1664.00
5067,130.00,49.00,-213.00,1304.00,-376.00,18332.00,-1664.00
5084,125.00,54.00,-188.00,1320.00,-448.00,18408.00,-1696.00
5100,121.00,60.00,-213.00,1248.00,-432.00,18268.00,-1696.00
5116,129.00,35.00,-218.00,1228.00,-484.00,18420.00,-1696.00
5133,135.00,62.00,-205.00,1188.00,-396.00,18284.00,-1664.00
5149,125.00,49.00,-218.00,1224.00,-396.00,18540.00,-1696.00
5166,93.00,65.00,-215.00,1164.00,-348.00,18416.00,-1648.00
5182,131.00,46.00,-222.00,1220.00,-444.00,18264.00,-1664.00
5198,131.00,46.00,-197.00,1204.00,-444.00,18316.00,-1664.00
5216,135.00,65.00,-219.00,1320.00,-416.00,18396.00,-1632.00
5232,114.00,52.00,-229.00,1204.00,-448.00,18376.00,-1664.00
5249,116.00,54.00,-218.00,1176.00,-364.00,18396.00,-1664.00
5265,122.00,37.00,-240.00,1168.00,-328.00,18360.00,-1664.00
5281,128.00,33.00,-201.00,1180.00,-340.00,18356.00,-1696.00
5298,112.00,26.00,-205.00,1160.00,-368.00,18264.00,-1632.00
5314,115.00,58.00,-209.00,1228.00,-336.00,18448.00,-1664.00
5330,96.00,68.00,-229.00,1240.00,-416.00,18440.00,-1664.00
5347,129.00,65.00,-224.00,1252.00,-368.00,18300.00,-1664.00
5363,120.00,27.00,-231.00,1224.00,-432.00,18320.00,-1664.00
5380,100.00,72.00,-217.00,1168.00,-340.00,18456.00,-1632.00
5396,139.00,67.00,-188.00,1236.00,-368.00,18268.00,-1696.00
5412,117.00,72.00,-209.00,1180.00,-436.00,18328.00,-1632.00
5429,121.00,56.00,-223.00,1164.00,-304.00,18320.00,-1664.00
5445,115.00,22.00,-211.00,1256.00,-316.00,18432.00,-1632.00
5463,140.00,64.00,-219.00,1356.00,-428.00,18272.00,-1632.00
5479,115.00,77.00,-212.00,1220.00,-412.00,18240.00,-1664.00
5495,126.00,57.00,-210.00,1212.00,-360.00,18364.00,-1664.00
5512,136.00,62.00,-220.00,1244.00,-416.00,18412.00,-1664.00
5528,130.00,56.00,-229.00,1228.00,-456.00,18328.00,-1680.00
5544,150.00,63.00,-214.00,1188.00,-436.00,18184.00,-1664.00
5561,112.00,35.00,-199.00,1232.00,-428.00,18216.00,-1680.00
5577,119.00,57.00,-233.00,1248.00,-428.00,18308.00,-1664.00
5594,115.00,51.00,-220.00,1260.00,-332.00,18444.00,-1680.00
5610,139.00,70.00,-241.00,1168.00,-416.00,18464.00,-1632.00
5626,143.00,64.00,-201.00,1300.00,-460.00,18136.00,-1648.00
5643,146.00,38.00,-219.00,1132.00,-392.00,18220.00,-1680.00
5659,102.00,43.00,-228.00,1232.00,-440.00,18364.00,-1680.00
5676,133.00,28.00,-235.00,1204.00,-344.00,18552.00,-1680.00
5693,125.00,59.00,-244.00,1332.00,-344.00,18460.00,-1648.00
5709,150.00,46.00,-205.00,1244.00,-388.00,18276.00,-1648.00
5726,138.00,30.00,-225.00,1272.00,-484.00,18392.00,-1680.00
5742,118.00,65.00,-253.00,1300.00,-356.00,18200.00,-1680.00
5758,135.00,43.00,-239.00,1268.00,-352.00,18356.00,-1680.00
5775,128.00,34.00,-217.00,1204.00,-356.00,18484.00,-1680.00
5791,141.00,55.00,-217.00,1208.00,-308.00,18500.00,-1648.00
5808,111.00,52.00,-213.00,1328.00,-448.00,18260.00,-1648.00
5824,118.00,59.00,-227.00,1152.00,-328.00,18428.00,-1664.00
5840,127.00,62.00,-205.00,1288.00,-360.00,18476.00,-1664.00
5857,144.00,55.00,-226.00,1276.00,-428.00,18356.00,-1664.00
5873,134.00,13.00,-235.00,1292.00,-456.00,18272.00,-1664.00
5890,129.00,49.00,-219.00,1288.00,-424.00,18296.00,-1664.00
5907,118.00,41.00,-219.00,1356.00,-452.00,18320.00,-1632.00
5923,124.00,66.00,-177.00,1168.00,-456.00,18372.00,-1696.00
5940,118.00,19.00,-203.00,1280.00,-404.00,18376.00,-1632.00
5956,134.00,61.00,-219.00,1212.00,-436.00,18276.00,-1664.00
5972,126.00,53.00,-202.00,1252.00,-480.00,18316.00,-1664.00
5989,118.00,60.00,-219.00,1272.00,-420.00,18352.00,-1664.00
6005,118.00,69.00,-234.00,1364.00,-376.00,18196.00,-1664.00
6022,130.00,64.00,-214.00,1356.00,-460.00,18452.00,-1664.00
6038,137.00,68.00,-242.00,1284.00,-432.00,18408.00,-1664.00
6054,113.00,52.00,-221.00,1300.00,-400.00,18356.00,-1664.00
6071,124.00,51.00,-226.00,1276.00,-432.00,18436.00,-1664.00
6087,101.00,56.00,-194.00,1336.00,-328.00,18420.00,-1664.00
6104,135.00,60.00,-198.00,1180.00,-424.00,18452.00,-1664.00
6120,112.00,54.00,-228.00,1224.00,-336.00,18364.00,-1664.00
6137,116.00,59.00,-202.00,1268.00,-444.00,18300.00,-1664.00
6154,131.00,52.00,-232.00,1220.00,-464.00,18452.00,-1648.00
6170,122.00,40.00,-216.00,1216.00,-348.00,18424.00,-1648.00
6187,104.00,58.00,-183.00,1348.00,-424.00,18356.00,-1680.00
6203,128.00,33.00,-240.00,1184.00,-584.00,18396.00,-1648.00
6219,126.00,46.00,-222.00,1244.00,-420.00,18412.00,-1648.00
6236,111.00,27.00,-226.00,1228.00,-400.00,18448.00,-1680.00
6252,98.00,54.00,-216.00,1244.00,-296.00,18408.00,-1680.00
6268,124.00,63.00,-221.00,1204.00,-436.00,18408.00,-1680.00
6285,141.00,41.00,-209.00,1192.00,-388.00,18288.00,-1648.00
6301,145.00,76.00,-186.00,1284.00,-324.00,18376.00,-1648.00
6318,119.00,40.00,-195.00,1340.00,-500.00,18288.00,-1680.00
6334,131.00,44.00,-180.00,1208.00,-436.00,18388.00,-1648.00
6350,145.00,43.00,-210.00,1260.00,-368.00,18436.00,-1680.00
6367,133.00,67.00,-212.00,1280.00,-380.00,18352.00,-1680.00
6384,125.00,72.00,-203.00,1276.00,-396.00,18308.00,-1648.00
6401,127.00,55.00,-214.00,1224.00,-480.00,18348.00,-1648.00
6417,133.00,69.00,-211.00,1272.00,-520.00,18492.00,-1680.00
6433,122.00,76.00,-229.00,1212.00,-328.00,18388.00,-1680.00
6450,136.00,52.00,-212.00,1224.00,-372.00,18300.00,-1648.00
6466,121.00,59.00,-214.00,1252.00,-376.00,18132.00,-1648.00
6482,129.00,52.00,-205.00,1272.00,-440.00,18364.00,-1680.00
6499,111.00,37.00,-243.00,1152.00,-388.00,18560.00,-1648.00
6515,119.00,55.00,-242.00,1192.00,-268.00,18436.00,-1648.00
6532,121.00,63.00,-236.00,1220.00,-316.00,18452.00,-1680.00
6548,123.00,67.00,-230.00,1272.00,-400.00,18404.00,-1680.00
6564,143.00,37.00,-205.00,1152.00,-392.00,18304.00,-1680.00
6581,142.00,74.00,-191.00,1244.00,-460.00,18396.00,-1680.00
6597,142.00,72.00,-241.00,1276.00,-356.00,18400.00,-1680.00
6615,116.00,62.00,-217.00,1136.00,-456.00,18468.00,-1680.00
6631,120.00,63.00,-213.00,1268.00,-288.00,18324.00,-1712.00
6647,132.00,50.00,-223.00,1216.00,-396.00,18328.00,-1680.00
6664,122.00,68.00,-219.00,1292.00,-368.00,18348.00,-1680.00
6680,122.00,61.00,-207.00,1240.00,-352.00,18380.00,-1680.00
6696,127.00,57.00,-251.00,1176.00,-312.00,18252.00,-1648.00
6713,144.00,58.00,-195.00,1220.00,-376.00,18296.00,-1680.00
6729,141.00,65.00,-212.00,1272.00,-436.00,18308.00,-1680.00
6746,109.00,45.00,-207.00,1160.00,-428.00,18316.00,-1680.00
6762,103.00,67.00,-214.00,1180.00,-384.00,18312.00,-1648.00
6778,107.00,48.00,-234.00,1236.00,-328.00,18328.00,-1680.00
6795,135.00,69.00,-189.00,1112.00,-384.00,18312.00,-1664.00
6811,144.00,37.00,-217.00,1292.00,-388.00,18284.00,-1664.00
6829,96.00,68.00,-225.00,1196.00,-516.00,18424.00,-1664.00
6845,121.00,84.00,-200.00,1240.00,-408.00,18364.00,-1680.00
6861,115.00,44.00,-217.00,1204.00,-480.00,18396.00,-1680.00
6878,121.00,62.00,-243.00,1332.00,-384.00,18324.00,-1648.00
6894,112.00,49.00,-195.00,1196.00,-456.00,18256.00,-1648.00
6910,122.00,59.00,-207.00,1248.00,-400.00,18464.00,-1680.00
6927,118.00,25.00,-236.00,1180.00,-456.00,18432.00,-1680.00
6943,116.00,42.00,-215.00,1196.00,-468.00,18356.00,-1648.00
6960,129.00,45.00,-227.00,1304.00,-336.00,18540.00,-1648.00
6976,118.00,65.00,-231.00,1204.00,-420.00,18488.00,-1648.00
6992,127.00,59.00,-232.00,1184.00,-488.00,18284.00,-1680.00
7009,140.00,53.00,-212.00,1280.00,-324.00,18400.00,-1648.00
7025,116.00,79.00,-249.00,1184.00,-392.00,18424.00,-1680.00
7042,130.00,47.00,-205.00,1224.00,-348.00,18268.00,-1648.00
7058,126.00,43.00,-243.00,1180.00,-384.00,18512.00,-1680.00
7075,134.00,65.00,-226.00,1264.00,-476.00,18372.00,-1664.00
7092,118.00,60.00,-221.00,1164.00,-444.00,18364.00,-1680.00
7108,158.00,43.00,-251.00,1272.00,-344.00,18524.00,-1648.00
7124,118.00,47.00,-236.00,1224.00,-440.00,18392.00,-1680.00
7141,121.00,47.00,-205.00,1152.00,-376.00,18296.00,-1680.00
7157,126.00,61.00,-211.00,1216.00,-392.00,18476.00,-1680.00
7174,128.00,64.00,-207.00,1044.00,-336.00,18360.00,-1648.00
7190,97.00,67.00,-217.00,1192.00,-320.00,18424.00,-1680.00
7206,111.00,47.00,-210.00,1164.00,-384.00,18200.00,-1680.00
7223,160.00,53.00,-213.00,1492.00,-364.00,18292.00,-1680.00
7239,122.00,64.00,-244.00,1404.00,-436.00,18200.00,-1680.00
7256,113.00,75.00,-212.00,1264.00,-512.00,18512.00,-1648.00
7272,120.00,69.00,-239.00,1220.00,-452.00,18396.00,-1648.00
7288,120.00,34.00,-248.00,1224.00,-440.00,18376.00,-1648.00
7306,147.00,44.00,-216.00,1324.00,-348.00,18432.00,-1648.00
7322,148.00,89.00,-228.00,1216.00,-432.00,18252.00,-1680.00
7339,130.00,84.00,-245.00,1260.00,-368.00,18552.00,-1680.00
7355,93.00,40.00,-229.00,1224.00,-372.00,18388.00,-1680.00
7371,93.00,28.00,-239.00,1240.00,-392.00,18396.00,-1680.00
7388,127.00,43.00,-237.00,1160.00,-432.00,18248.00,-1664.00
7404,122.00,34.00,-246.00,1192.00,-324.00,18368.00,-1664.00
7420,131.00,41.00,-242.00,1212.00,-460.00,18352.00,-1664.00
7437,119.00,29.00,-227.00,1244.00,-532.00,18512.00,-1664.00
7453,132.00,49.00,-210.00,1252.00,-372.00,18368.00,-1664.00
7470,115.00,57.00,-213.00,1136.00,-448.00,18356.00,-1664.00
7486,123.00,54.00,-200.00,1280.00,-400.00,18308.00,-1664.00
7502,120.00,95.00,-210.00,1300.00,-364.00,18308.00,-1696.00
7519,120.00,62.00,-198.00,1280.00,-264.00,18484.00,-1696.00
7535,110.00,40.00,-232.00,1284.00,-304.00,18392.00,-1664.00
7553,129.00,14.00,-251.00,1328.00,-380.00,18340.00,-1664.00
7569,147.00,57.00,-221.00,1180.00,-404.00,18332.00,-1664.00
7585,127.00,49.00,-273.00,1232.00,-484.00,18308.00,-1664.00
7602,121.00,54.00,-230.00,1260.00,-492.00,18464.00,-1664.00
7618,118.00,53.00,-212.00,1292.00,-292.00,18428.00,-1664.00
7634,112.00,39.00,-226.00,1180.00,-368.00,18432.00,-1696.00
7651,134.00,69.00,-242.00,1256.00,-544.00,18356.00,-1664.00
7667,139.00,51.00,-229.00,1220.00,-368.00,18356.00,-1664.00
7684,124.00,51.00,-235.00,1276.00,-448.00,18448.00,-1696.00
7700,110.00,54.00,-207.00,1200.00,-408.00,18436.00,-1696.00
7716,156.00,22.00,-225.00,1200.00,-336.00,18376.00,-1696.00
7733,123.00,49.00,-236.00,1272.00,-296.00,18432.00,-1680.00
7749,113.00,58.00,-236.00,1268.00,-384.00,18244.00,-1680.00
7766,114.00,63.00,-211.00,1224.00,-384.00,18324.00,-1648.00
7783,140.00,60.00,-200.00,1260.00,-368.00,18432.00,-1648.00
7799,102.00,75.00,-229.00,1284.00,-464.00,18428.00,-1648.00
7816,141.00,55.00,-224.00,1124.00,-348.00,18272.00,-1680.00
7832,140.00,31.00,-219.00,1164.00,-408.00,18360.00,-1680.00
7848,113.00,48.00,-224.00,1212.00,-472.00,18324.00,-1648.00
7865,125.00,54.00,-217.00,1188.00,-420.00,18436.00,-1680.00
7881,113.00,55.00,-201.00,1168.00,-420.00,18416.00,-1680.00
7898,122.00,49.00,-237.00,1224.00,-400.00,18344.00,-1680.00
7914,126.00,72.00,-212.00,1292.00,-340.00,18196.00,-1680.00
7930,129.00,79.00,-204.00,1212.00,-456.00,18360.00,-1680.00
7947,135.00,63.00,-242.00,1216.00,-280.00,18324.00,-1648.00
7963,103.00,49.00,-232.00,1208.00,-284.00,18516.00,-1680.00
7980,132.00,65.00,-218.00,1320.00,-340.00,18436.00,-1712.00
7996,135.00,15.00,-234.00,1140.00,-400.00,18444.00,-1680.00
8013,134.00,44.00,-230.00,1312.00,-400.00,18376.00,-1648.00
8030,116.00,45.00,-236.00,1232.00,-456.00,18424.00,-1680.00
8046,105.00,54.00,-204.00,1304.00,-388.00,18500.00,-1680.00
8062,117.00,31.00,-194.00,1252.00,-424.00,18324.00,-1680.00
8079,130.00,35.00,-204.00,1308.00,-348.00,18424.00,-1680.00
8095,126.00,24.00,-192.00,1184.00,-452.00,18480.00,-1648.00
8112,125.00,62.00,-226.00,1308.00,-392.00,18328.00,-1712.00
8128,112.00,40.00,-229.00,1312.00,-456.00,18332.00,-1648.00
8144,142.00,50.00,-184.00,1252.00,-392.00,18360.00,-1680.00
8161,120.00,61.00,-229.00,1260.00,-392.00,18448.00,-1680.00
8177,123.00,64.00,-242.00,1220.00,-340.00,18300.00,-1680.00
8194,120.00,76.00,-227.00,1284.00,-424.00,18400.00,-1680.00
8210,119.00,34.00,-205.00,1208.00,-316.00,18400.00,-1648.00
8226,126.00,69.00,-196.00,1212.00,-448.00,18364.00,-1680.00
8244,111.00,87.00,-237.00,1316.00,-464.00,18488.00,-1680.00
8260,118.00,35.00,-241.00,1256.00,-248.00,18380.00,-1680.00
8276,118.00,58.00,-225.00,1288.00,-376.00,18480.00,-1680.00
8293,134.00,54.00,-246.00,1272.00,-404.00,18356.00,-1680.00
8309,123.00,66.00,-229.00,1168.00,-512.00,18428.00,-1680.00
8326,134.00,44.00,-203.00,1160.00,-368.00,18340.00,-1648.00
8342,139.00,58.00,-215.00,1344.00,-412.00,18352.00,-1680.00
8358,139.00,77.00,-222.00,1216.00,-400.00,18472.00,-1648.00
8375,111.00,60.00,-228.00,1184.00,-376.00,18440.00,-1648.00
8391,133.00,55.00,-219.00,1264.00,-384.00,18488.00,-1712.00
8408,116.00,48.00,-250.00,1220.00,-340.00,18324.00,-1648.00
8424,127.00,65.00,-219.00,1320.00,-432.00,18348.00,-1680.00
8440,109.00,46.00,-196.00,1240.00,-432.00,18404.00,-1648.00
8457,107.00,88.00,-211.00,1324.00,-396.00,18436.00,-1680.00
8473,138.00,82.00,-221.00,1264.00,-348.00,18340.00,-1680.00
8491,120.00,55.00,-241.00,1220.00,-336.00,18356.00,-1712.00
8507,112.00,63.00,-192.00,1208.00,-400.00,18424.00,-1648.00
8523,104.00,38.00,-223.00,1224.00,-468.00,18484.00,-1648.00
8540,120.00,68.00,-222.00,1324.00,-360.00,18448.00,-1648.00
8556,121.00,32.00,-208.00,1276.00,-392.00,18432.00,-1680.00
8572,110.00,48.00,-217.00,1228.00,-488.00,18376.00,-1696.00
8589,128.00,65.00,-216.00,1252.00,-416.00,18272.00,-1664.00
8605,124.00,62.00,-227.00,1272.00,-476.00,18436.00,-1664.00
8622,96.00,19.00,-218.00,1328.00,-404.00,18448.00,-1664.00
8638,119.00,57.00,-248.00,1272.00,-412.00,18424.00,-1664.00
8654,155.00,43.00,-225.00,1160.00,-356.00,18260.00,-1664.00
8671,124.00,85.00,-219.00,1240.00,-412.00,18280.00,-1664.00
8687,138.00,48.00,-202.00,1108.00,-300.00,18432.00,-1696.00
8704,122.00,52.00,-223.00,1300.00,-372.00,18444.00,-1664.00
8721,120.00,69.00,-208.00,1320.00,-360.00,18360.00,-1664.00
8737,122.00,49.00,-235.00,1172.00,-484.00,18456.00,-1712.00
8754,121.00,57.00,-224.00,1220.00,-356.00,18292.00,-1664.00
8770,123.00,51.00,-224.00,1292.00,-444.00,18476.00,-1648.00
8786,120.00,18.00,-211.00,1192.00,-288.00,18416.00,-1680.00
8803,141.00,62.00,-227.00,1256.00,-284.00,18384.00,-1680.00
8819,133.00,66.00,-180.00,1280.00,-420.00,18344.00,-1680.00
8836,153.00,29.00,-198.00,1352.00,-368.00,18324.00,-1680.00
8852,129.00,53.00,-217.00,1296.00,-412.00,18336.00,-1648.00
8868,112.00,60.00,-218.00,1220.00,-360.00,18288.00,-1680.00
8885,140.00,26.00,-239.00,1196.00,-404.00,18408.00,-1680.00
8901,122.00,60.00,-240.00,1220.00,-388.00,18476.00,-1680.00
8918,147.00,55.00,-232.00,1096.00,-340.00,18320.00,-1680.00
8934,115.00,42.00,-195.00,1248.00,-548.00,18460.00,-1648.00
8951,139.00,45.00,-200.00,1180.00,-464.00,18404.00,-1680.00
8968,120.00,85.00,-231.00,1220.00,-440.00,18356.00,-1680.00
8984,138.00,2.00,-196.00,1124.00,-440.00,18236.00,-1680.00
9000,117.00,65.00,-207.00,1324.00,-356.00,18388.00,-1664.00
9017,113.00,56.00,-218.00,1256.00,-400.00,18528.00,-1664.00
9033,122.00,30.00,-211.00,1292.00,-396.00,18392.00,-1632.00
9050,108.00,31.00,-206.00,1264.00,-456.00,18524.00,-1664.00
9066,123.00,62.00,-209.00,1224.00,-356.00,18444.00,-1664.00
9082,116.00,68.00,-202.00,1320.00,-320.00,18348.00,-1696.00
9099,148.00,53.00,-229.00,1260.00,-420.00,18384.00,-1664.00
9115,115.00,46.00,-226.00,1236.00,-428.00,18160.00,-1664.00
9132,145.00,13.00,-217.00,1340.00,-376.00,18420.00,-1632.00
9148,106.00,84.00,-203.00,1176.00,-328.00,18292.00,-1664.00
9164,152.00,41.00,-243.00,1260.00,-324.00,18532.00,-1696.00
9181,131.00,48.00,-227.00,1204.00,-488.00,18416.00,-1664.00
9198,126.00,35.00,-231.00,1300.00,-456.00,18284.00,-1696.00
9214,123.00,76.00,-228.00,1184.00,-440.00,18204.00,-1664.00
9231,116.00,64.00,-230.00,1284.00,-432.00,18392.00,-1696.00
9247,124.00,51.00,-222.00,1240.00,-356.00,18392.00,-1664.00
9264,120.00,59.00,-216.00,1316.00,-372.00,18384.00,-1664.00
9280,114.00,44.00,-196.00,1140.00,-440.00,18324.00,-1696.00
9296,119.00,72.00,-240.00,1260.00,-344.00,18472.00,-1664.00
9313,134.00,31.00,-217.00,1172.00,-432.00,18412.00,-1664.00
9329,119.00,37.00,-235.00,1300.00,-428.00,18372.00,-1664.00
9346,143.00,39.00,-232.00,1204.00,-360.00,18268.00,-1696.00
9362,135.00,29.00,-259.00,1148.00,-336.00,18232.00,-1664.00
9378,98.00,55.00,-209.00,1292.00,-312.00,18252.00,-1648.00
9395,131.00,46.00,-216.00,1276.00,-388.00,18388.00,-1632.00
9411,129.00,54.00,-210.00,1160.00,-384.00,18488.00,-1664.00
9428,129.00,51.00,-208.00,1196.00,-364.00,18332.00,-1664.00
9445,136.00,74.00,-192.00,1248.00,-452.00,18328.00,-1664.00
9461,108.00,60.00,-245.00,1316.00,-380.00,18312.00,-1664.00
9478,103.00,32.00,-194.00,1284.00,-336.00,18452.00,-1680.00
9494,132.00,37.00,-227.00,1304.00,-380.00,18396.00,-1680.00
9510,137.00,57.00,-209.00,1240.00,-404.00,18452.00,-1680.00
9527,131.00,82.00,-247.00,1208.00,-508.00,18336.00,-1680.00
9543,113.00,53.00,-196.00,1252.00,-396.00,18428.00,-1648.00
9560,100.00,21.00,-226.00,1196.00,-348.00,18464.00,-1680.00
9576,128.00,55.00,-233.00,1260.00,-324.00,18432.00,-1680.00
9592,134.00,32.00,-235.00,1160.00,-356.00,18248.00,-1680.00
9609,114.00,64.00,-193.00,1284.00,-360.00,18424.00,-1680.00
9625,110.00,66.00,-227.00,1252.00,-468.00,18404.00,-1712.00
9641,112.00,27.00,-205.00,1168.00,-476.00,18456.00,-1648.00
9659,121.00,69.00,-218.00,1208.00,-432.00,18292.00,-1648.00
9675,148.00,37.00,-213.00,1216.00,-396.00,18300.00,-1680.00
9692,125.00,53.00,-219.00,1228.00,-356.00,18212.00,-1680.00
9708,118.00,71.00,-198.00,1332.00,-376.00,18328.00,-1712.00
9724,116.00,32.00,-226.00,1292.00,-324.00,18388.00,-1680.00
9741,101.00,66.00,-230.00,1276.00,-360.00,18424.00,-1680.00
9757,141.00,57.00,-238.00,1300.00,-400.00,18380.00,-1680.00
9774,127.00,42.00,-210.00,1244.00,-468.00,18452.00,-1680.00
9790,123.00,64.00,-214.00,1256.00,-376.00,18192.00,-1680.00
9806,127.00,47.00,-222.00,1252.00,-400.00,18592.00,-1680.00
9823,102.00,60.00,-211.00,1268.00,-332.00,18508.00,-1680.00
9839,140.00,18.00,-223.00,1260.00,-408.00,18328.00,-1680.00
9856,140.00,54.00,-247.00,1276.00,-444.00,18312.00,-1680.00
9873,108.00,46.00,-216.00,1248.00,-396.00,18276.00,-1648.00
9889,104.00,57.00,-205.00,1232.00,-500.00,18288.00,-1680.00
9906,122.00,74.00,-211.00,1228.00,-264.00,18260.00,-1712.00
9922,107.00,35.00,-230.00,1328.00,-440.00,18396.00,-1680.00
9938,115.00,47.00,-224.00,1236.00,-300.00,18300.00,-1680.00
9955,113.00,50.00,-214.00,1220.00,-448.00,18356.00,-1648.00
9971,94.00,60.00,-228.00,1256.00,-460.00,18444.00,-1680.00
9988,111.00,50.00,-226.00,1220.00,-332.00,18492.00,-1680.00
10004,129.00,56.00,-220.00,1292.00,-440.00,18300.00,-1680.00
10020,140.00,74.00,-227.00,1140.00,-388.00,18260.00,-1664.00
10037,118.00,38.00,-230.00,1300.00,-432.00,18424.00,-1664.00
10053,129.00,36.00,-231.00,1120.00,-460.00,18452.00,-1664.00
10071,126.00,33.00,-223.00,1256.00,-340.00,18284.00,-1696.00
10087,150.00,44.00,-210.00,1248.00,-312.00,18320.00,-1680.00
10103,135.00,55.00,-224.00,1212.00,-292.00,18392.00,-1664.00
10120,112.00,66.00,-212.00,1228.00,-468.00,18488.00,-1664.00
10136,138.00,55.00,-200.00,1280.00,-400.00,18200.00,-1664.00
10152,106.00,43.00,-218.00,1328.00,-316.00,18512.00,-1680.00
10169,119.00,68.00,-247.00,1216.00,-384.00,18400.00,-1680.00
10185,123.00,37.00,-193.00,1256.00,-480.00,18336.00,-1696.00
10202,105.00,58.00,-228.00,1312.00,-456.00,18412.00,-1664.00
10219,109.00,28.00,-236.00,1224.00,-448.00,18380.00,-1696.00
10235,135.00,33.00,-200.00,1168.00,-388.00,18404.00,-1680.00
10252,128.00,33.00,-224.00,1276.00,-380.00,18316.00,-1680.00
10268,122.00,41.00,-225.00,1248.00,-360.00,18308.00,-1664.00
10285,126.00,59.00,-223.00,1240.00,-336.00,18404.00,-1696.00
10301,121.00,81.00,-241.00,1248.00,-384.00,18284.00,-1632.00
10317,126.00,60.00,-264.00,1304.00,-376.00,18372.00,-1680.00
10334,128.00,51.00,-217.00,1308.00,-352.00,18320.00,-1680.00
10351,104.00,64.00,-234.00,1228.00,-388.00,18280.00,-1696.00
10368,144.00,53.00,-217.00,1220.00,-448.00,18356.00,-1664.00
10384,132.00,75.00,-205.00,1240.00,-444.00,18404.00,-1664.00
10400,96.00,57.00,-222.00,1224.00,-416.00,18452.00,-1696.00
10417,123.00,52.00,-220.00,1220.00,-412.00,18456.00,-1664.00
10433,141.00,74.00,-232.00,1192.00,-324.00,18360.00,-1680.00
10449,140.00,44.00,-213.00,1224.00,-512.00,18296.00,-1648.00
10466,124.00,34.00,-237.00,1272.00,-472.00,18180.00,-1696.00
10482,118.00,88.00,-229.00,1224.00,-400.00,18352.00,-1696.00
10500,131.00,14.00,-215.00,1220.00,-440.00,18468.00,-1712.00
10516,128.00,43.00,-224.00,1220.00,-396.00,18452.00,-1680.00
10532,147.00,81.00,-209.00,1332.00,-384.00,18428.00,-1680.00
10549,127.00,54.00,-193.00,1220.00,-288.00,18368.00,-1664.00
10565,133.00,54.00,-190.00,1288.00,-444.00,18452.00,-1664.00
10582,127.00,70.00,-229.00,1180.00,-384.00,18368.00,-1664.00
10598,134.00,42.00,-235.00,1236.00,-444.00,18348.00,-1648.00
10614,142.00,68.00,-219.00,1256.00,-480.00,18384.00,-1712.00
10631,158.00,46.00,-221.00,1208.00,-512.00,18208.00,-1696.00
10648,118.00,62.00,-231.00,1252.00,-520.00,18460.00,-1664.00
10664,128.00,41.00,-200.00,1104.00,-400.00,18348.00,-1664.00
10681,108.00,67.00,-216.00,1312.00,-420.00,18328.00,-1680.00
10697,98.00,60.00,-203.00,1228.00,-368.00,18304.00,-1680.00
10714,127.00,32.00,-208.00,1224.00,-352.00,18360.00,-1680.00
10730,116.00,64.00,-222.00,1272.00,-412.00,18388.00,-1664.00
10746,108.00,47.00,-241.00,1272.00,-368.00,18380.00,-1664.00
10763,133.00,42.00,-225.00,1284.00,-364.00,18332.00,-1664.00
10779,116.00,70.00,-206.00,1220.00,-360.00,18168.00,-1680.00
10797,132.00,51.00,-229.00,1292.00,-432.00,18312.00,-1712.00
10813,138.00,67.00,-215.00,1196.00,-484.00,18300.00,-1680.00
10829,116.00,46.00,-242.00,1272.00,-448.00,18336.00,-1664.00
10846,104.00,82.00,-222.00,1248.00,-432.00,18344.00,-1696.00
10862,128.00,30.00,-208.00,1272.00,-372.00,18420.00,-1696.00
10878,110.00,79.00,-200.00,1256.00,-320.00,18296.00,-1680.00
10895,102.00,55.00,-209.00,1272.00,-376.00,18404.00,-1680.00
10911,118.00,51.00,-214.00,1136.00,-424.00,18432.00,-1648.00
10928,109.00,58.00,-213.00,1280.00,-420.00,18356.00,-1664.00
10945,123.00,59.00,-214.00,1248.00,-444.00,18220.00,-1664.00
10961,145.00,52.00,-221.00,1180.00,-432.00,18308.00,-1664.00
10978,126.00,38.00,-234.00,1256.00,-496.00,18416.00,-1664.00
10994,112.00,39.00,-216.00,1276.00,-428.00,18424.00,-1680.00
11011,120.00,49.00,-233.00,1160.00,-444.00,18356.00,-1664.00
11027,110.00,31.00,-237.00,1188.00,-464.00,18204.00,-1696.00
11043,125.00,61.00,-228.00,1232.00,-476.00,18124.00,-1664.00
11060,121.00,67.00,-196.00,1224.00,-488.00,18376.00,-1680.00
11077,106.00,47.00,-239.00,1264.00,-352.00,18284.00,-1712.00
11094,113.00,54.00,-219.00,1204.00,-416.00,18548.00,-1664.00
11110,126.00,58.00,-210.00,1360.00,-368.00,18356.00,-1664.00
11126,138.00,28.00,-216.00,1288.00,-404.00,18384.00,-1696.00
11143,128.00,43.00,-221.00,1308.00,-452.00,18236.00,-1696.00
11159,127.00,69.00,-228.00,1240.00,-428.00,18380.00,-1648.00
11175,94.00,54.00,-222.00,1276.00,-436.00,18416.00,-1648.00
11192,110.00,69.00,-216.00,1220.00,-428.00,18464.00,-1680.00
11208,131.00,68.00,-239.00,1188.00,-432.00,18300.00,-1696.00
11226,120.00,45.00,-212.00,1208.00,-360.00,18212.00,-1664.00
11242,137.00,59.00,-198.00,1116.00,-364.00,18424.00,-1664.00
11258,122.00,69.00,-236.00,1284.00,-460.00,18460.00,-1680.00
11275,123.00,88.00,-210.00,1220.00,-304.00,18464.00,-1648.00
11291,134.00,36.00,-220.00,1260.00,-372.00,18204.00,-1680.00
11308,164.00,41.00,-202.00,1316.00,-332.00,18348.00,-1664.00
11324,114.00,54.00,-236.00,1192.00,-432.00,18360.00,-1664.00
11340,114.00,65.00,-211.00,1164.00,-416.00,18348.00,-1696.00
11358,128.00,44.00,-178.00,1308.00,-304.00,18500.00,-1680.00
11374,127.00,49.00,-225.00,1252.00,-420.00,18352.00,-1680.00
11390,118.00,45.00,-228.00,1332.00,-444.00,18200.00,-1680.00
11407,130.00,54.00,-210.00,1204.00,-320.00,18324.00,-1664.00
11423,120.00,48.00,-231.00,1228.00,-460.00,18368.00,-1664.00
11440,126.00,44.00,-249.00,1224.00,-300.00,18364.00,-1664.00
11456,115.00,40.00,-224.00,1300.00,-396.00,18472.00,-1680.00
11472,135.00,66.00,-225.00,1184.00,-352.00,18408.00,-1680.00
11489,116.00,63.00,-216.00,1220.00,-404.00,18424.00,-1664.00
11506,124.00,58.00,-227.00,1188.00,-416.00,18320.00,-1696.00
11523,117.00,78.00,-222.00,1272.00,-376.00,18464.00,-1664.00
11539,135.00,34.00,-219.00,1316.00,-464.00,18288.00,-1712.00
11555,111.00,56.00,-241.00,1288.00,-292.00,18384.00,-1696.00
11572,129.00,70.00,-223.00,1316.00,-420.00,18388.00,-1680.00
11588,130.00,56.00,-258.00,1236.00,-480.00,18428.00,-1696.00
11604,121.00,36.00,-220.00,1260.00,-444.00,18412.00,-1696.00
11621,127.00,44.00,-224.00,1368.00,-296.00,18492.00,-1648.00
11638,117.00,26.00,-200.00,1344.00,-364.00,18364.00,-1680.00
11655,131.00,76.00,-236.00,1264.00,-308.00,18308.00,-1680.00
11671,95.00,58.00,-215.00,1224.00,-348.00,18316.00,-1696.00
11687,118.00,83.00,-198.00,1224.00,-352.00,18464.00,-1664.00
11704,138.00,54.00,-220.00,1216.00,-308.00,18412.00,-1664.00
11720,143.00,29.00,-223.00,1196.00,-332.00,18260.00,-1664.00
11737,138.00,35.00,-192.00,1316.00,-404.00,18428.00,-1696.00
11753,139.00,72.00,-196.00,1248.00,-388.00,18416.00,-1680.00
11769,129.00,66.00,-212.00,1196.00,-428.00,18388.00,-1680.00
11787,90.00,26.00,-225.00,1248.00,-376.00,18492.00,-1696.00
11803,139.00,40.00,-262.00,1236.00,-392.00,18312.00,-1696.00
11820,134.00,72.00,-225.00,1260.00,-440.00,18180.00,-1664.00
11836,108.00,29.00,-202.00,1236.00,-468.00,18376.00,-1696.00
11852,118.00,39.00,-216.00,1288.00,-340.00,18376.00,-1680.00
11869,114.00,61.00,-210.00,1192.00,-352.00,18276.00,-1680.00
11885,131.00,33.00,-212.00,1152.00,-340.00,18344.00,-1680.00
11901,127.00,63.00,-208.00,1208.00,-472.00,18364.00,-1664.00
11918,126.00,60.00,-209.00,1224.00,-408.00,18392.00,-1664.00
11935,121.00,62.00,-240.00,1248.00,-376.00,18548.00,-1680.00
11952,127.00,55.00,-225.00,1276.00,-384.00,18428.00,-1664.00
11968,136.00,64.00,-217.00,1284.00,-356.00,18384.00,-1648.00
11984,126.00,60.00,-203.00,1240.00,-412.00,18368.00,-1648.00
12001,128.00,48.00,-205.00,1368.00,-336.00,18304.00,-1696.00
12017,146.00,40.00,-227.00,1340.00,-464.00,18440.00,-1696.00
12034,115.00,91.00,-215.00,1216.00,-464.00,18300.00,-1664.00
12050,142.00,59.00,-255.00,1332.00,-396.00,18304.00,-1680.00
12066,108.00,45.00,-235.00,1160.00,-404.00,18256.00,-1680.00
12084,132.00,51.00,-226.00,1188.00,-460.00,18356.00,-1664.00
12100,128.00,80.00,-197.00,1212.00,-420.00,18416.00,-1696.00
12116,120.00,51.00,-214.00,1216.00,-484.00,18332.00,-1696.00
12133,135.00,80.00,-238.00,1232.00,-320.00,18216.00,-1664.00
12149,135.00,46.00,-219.00,1220.00,-344.00,18328.00,-1680.00
12166,118.00,67.00,-237.00,1304.00,-400.00,18308.00,-1680.00
12182,114.00,48.00,-231.00,1308.00,-432.00,18464.00,-1664.00
12198,67.00,59.00,-207.00,1216.00,-412.00,18400.00,-1664.00
12215,106.00,61.00,-234.00,1144.00,-420.00,18256.00,-1664.00
12232,139.00,46.00,-219.00,1264.00,-456.00,18428.00,-1664.00
12249,120.00,45.00,-217.00,1280.00,-336.00,18272.00,-1648.00
12265,129.00,49.00,-217.00,1272.00,-376.00,18336.00,-1680.00
12281,113.00,31.00,-219.00,1220.00,-448.00,18472.00,-1680.00
12298,109.00,29.00,-243.00,1280.00,-460.00,18384.00,-1664.00
12314,144.00,70.00,-232.00,1272.00,-332.00,18356.00,-1632.00
12331,146.00,28.00,-233.00,1148.00,-372.00,18364.00,-1712.00
12347,126.00,44.00,-214.00,1272.00,-432.00,18340.00,-1680.00
12364,131.00,76.00,-240.00,1272.00,-428.00,18360.00,-1680.00
12381,100.00,67.00,-235.00,1216.00,-340.00,18436.00,-1664.00
12397,131.00,70.00,-221.00,1200.00,-344.00,18436.00,-1664.00
12413,116.00,60.00,-205.00,1252.00,-416.00,18392.00,-1728.00
12430,122.00,78.00,-239.00,1288.00,-312.00,18228.00,-1664.00
12446,134.00,81.00,-230.00,1252.00,-416.00,18544.00,-1680.00
12463,118.00,63.00,-227.00,1260.00,-444.00,18524.00,-1680.00
12479,132.00,77.00,-216.00,1248.00,-416.00,18416.00,-1664.00
12495,114.00,33.00,-226.00,1240.00,-376.00,18296.00,-1664.00
12513,119.00,72.00,-229.00,1160.00,-452.00,18440.00,-1664.00
12529,123.00,55.00,-199.00,1292.00,-496.00,18332.00,-1664.00
12546,110.00,58.00,-222.00,1300.00,-376.00,18432.00,-1680.00
12562,100.00,40.00,-219.00,1256.00,-376.00,18372.00,-1712.00
12578,114.00,80.00,-212.00,1264.00,-344.00,18496.00,-1664.00
12595,124.00,39.00,-216.00,1280.00,-528.00,18528.00,-1664.00
12611,115.00,70.00,-217.00,1192.00,-420.00,18284.00,-1696.00
12627,137.00,54.00,-188.00,1316.00,-456.00,18472.00,-1680.00
12645,122.00,45.00,-243.00,1288.00,-368.00,18548.00,-1680.00
12661,156.00,19.00,-232.00,1252.00,-420.00,18368.00,-1680.00
12678,118.00,70.00,-218.00,1200.00,-428.00,18324.00,-1696.00
12694,131.00,91.00,-210.00,1144.00,-448.00,18352.00,-1696.00
12710,118.00,59.00,-206.00,1212.00,-408.00,18440.00,-1632.00
12727,124.00,42.00,-237.00,1268.00,-368.00,18396.00,-1712.00
12743,134.00,64.00,-214.00,1284.00,-460.00,18312.00,-1680.00
12760,141.00,55.00,-232.00,1292.00,-344.00,18360.00,-1696.00
12777,122.00,63.00,-203.00,1228.00,-344.00,18428.00,-1664.00
12793,120.00,41.00,-235.00,1248.00,-484.00,18456.00,-1696.00
12810,110.00,65.00,-203.00,1248.00,-396.00,18312.00,-1680.00
12826,129.00,58.00,-221.00,1220.00,-384.00,18448.00,-1680.00
12843,155.00,36.00,-226.00,1156.00,-376.00,18348.00,-1680.00
12859,132.00,58.00,-240.00,1272.00,-400.00,18404.00,-1632.00
12875,100.00,56.00,-224.00,1256.00,-400.00,18504.00,-1696.00
12892,119.00,45.00,-216.00,1248.00,-340.00,18432.00,-1664.00
12908,125.00,71.00,-198.00,1160.00,-304.00,18320.00,-1680.00
12925,123.00,4.00,-267.00,1260.00,-360.00,18216.00,-1680.00
12942,125.00,65.00,-219.00,1280.00,-360.00,18436.00,-1680.00
12958,129.00,61.00,-242.00,1236.00,-456.00,18440.00,-1680.00
12975,102.00,70.00,-198.00,1248.00,-440.00,18300.00,-1664.00
12991,111.00,42.00,-207.00,1244.00,-368.00,18484.00,-1664.00
13007,152.00,11.00,-204.00,1356.00,-412.00,18364.00,-1696.00
13024,109.00,68.00,-228.00,1256.00,-336.00,18268.00,-1680.00
13040,127.00,67.00,-222.00,1316.00,-332.00,18484.00,-1680.00
13057,112.00,59.00,-227.00,1144.00,-444.00,18420.00,-1696.00
13074,140.00,35.00,-244.00,1264.00,-340.00,18400.00,-1664.00
13090,147.00,46.00,-240.00,1164.00,-392.00,18384.00,-1696.00
13107,134.00,36.00,-185.00,1204.00,-476.00,18432.00,-1664.00
13123,113.00,64.00,-228.00,1300.00,-400.00,18300.00,-1648.00
13139,122.00,44.00,-205.00,1248.00,-368.00,18596.00,-1712.00
13156,103.00,30.00,-232.00,1144.00,-452.00,18416.00,-1648.00
13172,144.00,49.00,-202.00,1160.00,-252.00,18264.00,-1696.00
13189,139.00,49.00,-232.00,1328.00,-328.00,18324.00,-1664.00
13205,124.00,65.00,-224.00,1184.00,-392.00,18440.00,-1680.00
13222,118.00,50.00,-217.00,1244.00,-392.00,18472.00,-1680.00
13239,100.00,72.00,-208.00,1252.00,-412.00,18300.00,-1680.00
13255,138.00,53.00,-239.00,1216.00,-272.00,18416.00,-1728.00
13272,146.00,36.00,-219.00,1272.00,-392.00,18408.00,-1696.00
13288,142.00,61.00,-224.00,1284.00,-420.00,18312.00,-1664.00
13304,108.00,62.00,-205.00,1276.00,-364.00,18336.00,-1680.00
13321,104.00,55.00,-220.00,1236.00,-352.00,18416.00,-1680.00
13337,125.00,80.00,-191.00,1264.00,-376.00,18248.00,-1696.00
13355,134.00,26.00,-245.00,1188.00,-416.00,18280.00,-1696.00
13371,130.00,68.00,-190.00,1244.00,-364.00,18396.00,-1664.00
13387,126.00,62.00,-194.00,1272.00,-352.00,18372.00,-1696.00
13404,124.00,78.00,-236.00,1248.00,-412.00,18316.00,-1680.00
13420,123.00,48.00,-211.00,1176.00,-392.00,18424.00,-1680.00
13436,123.00,61.00,-240.00,1280.00,-416.00,18316.00,-1680.00
13453,104.00,44.00,-232.00,1252.00,-456.00,18328.00,-1696.00
13469,135.00,71.00,-230.00,1288.00,-440.00,18388.00,-1696.00
13486,130.00,79.00,-209.00,1204.00,-400.00,18580.00,-1680.00
13503,131.00,50.00,-223.00,1320.00,-356.00,18444.00,-1680.00
13519,124.00,72.00,-215.00,1252.00,-408.00,18448.00,-1680.00
13536,118.00,23.00,-211.00,1152.00,-396.00,18368.00,-1696.00
13552,134.00,48.00,-221.00,1236.00,-436.00,18424.00,-1696.00
13569,124.00,62.00,-225.00,1156.00,-312.00,18332.00,-1664.00
13585,94.00,45.00,-212.00,1252.00,-408.00,18336.00,-1648.00
13601,133.00,77.00,-208.00,1180.00,-324.00,18364.00,-1680.00
13618,118.00,58.00,-226.00,1224.00,-376.00,18356.00,-1712.00
13634,116.00,79.00,-210.00,1324.00,-428.00,18332.00,-1696.00
13651,103.00,24.00,-224.00,1300.00,-468.00,18396.00,-1664.00
13668,130.00,53.00,-216.00,1272.00,-264.00,18384.00,-1664.00
13684,136.00,23.00,-225.00,1220.00,-432.00,18320.00,-1664.00
13701,143.00,72.00,-198.00,1220.00,-368.00,18324.00,-1680.00
13717,118.00,62.00,-249.00,1304.00,-468.00,18208.00,-1680.00
13733,123.00,78.00,-201.00,1252.00,-356.00,18444.00,-1696.00
13750,118.00,50.00,-234.00,1208.00,-404.00,18492.00,-1728.00
13766,139.00,49.00,-228.00,1232.00,-368.00,18348.00,-1648.00
13784,126.00,41.00,-213.00,1304.00,-420.00,18404.00,-1680.00
13800,120.00,55.00,-229.00,1272.00,-356.00,18424.00,-1680.00
13816,117.00,27.00,-204.00,1248.00,-428.00,18280.00,-1664.00
13833,136.00,47.00,-220.00,1228.00,-376.00,18536.00,-1664.00
13849,135.00,61.00,-206.00,1276.00,-472.00,18344.00,-1664.00
13865,146.00,70.00,-234.00,1240.00,-284.00,18500.00,-1664.00
13882,122.00,70.00,-225.00,1372.00,-468.00,18428.00,-1680.00
13898,111.00,27.00,-229.00,1332.00,-368.00,18356.00,-1664.00
13915,116.00,29.00,-219.00,1284.00,-372.00,18404.00,-1664.00
13932,133.00,63.00,-214.00,1288.00,-412.00,18400.00,-1696.00
13948,121.00,60.00,-207.00,1216.00,-464.00,18524.00,-1680.00
13965,132.00,64.00,-249.00,1256.00,-376.00,18336.00,-1712.00
13981,123.00,40.00,-212.00,1364.00,-420.00,18456.00,-1712.00
13998,110.00,77.00,-230.00,1268.00,-208.00,18312.00,-1696.00
14014,127.00,48.00,-226.00,1244.00,-412.00,18416.00,-1664.00
14030,133.00,48.00,-239.00,1308.00,-424.00,18380.00,-1712.00
14047,114.00,79.00,-246.00,1412.00,-384.00,18288.00,-1648.00
14064,116.00,45.00,-221.00,1204.00,-352.00,18436.00,-1680.00
14081,103.00,61.00,-201.00,1292.00,-396.00,18304.00,-1696.00
14097,107.00,60.00,-239.00,1268.00,-432.00,18328.00,-1664.00
14113,141.00,40.00,-232.00,1224.00,-340.00,18308.00,-1664.00
14130,118.00,56.00,-231.00,1224.00,-388.00,18316.00,-1680.00
14146,119.00,41.00,-227.00,1248.00,-356.00,18464.00,-1680.00
14162,123.00,62.00,-219.00,1208.00,-368.00,18452.00,-1648.00
14179,131.00,56.00,-221.00,1344.00,-384.00,18584.00,-1664.00
14195,114.00,30.00,-205.00,1248.00,-444.00,18444.00,-1696.00
14213,124.00,32.00,-242.00,1264.00,-308.00,18368.00,-1664.00
14229,129.00,48.00,-199.00,1292.00,-468.00,18312.00,-1696.00
14245,119.00,60.00,-212.00,1220.00,-464.00,18132.00,-1648.00
14262,134.00,49.00,-178.00,1340.00,-336.00,18440.00,-1712.00
14278,131.00,53.00,-200.00,1232.00,-408.00,18356.00,-1696.00
14295,121.00,40.00,-228.00,1332.00,-384.00,18464.00,-1696.00
14311,121.00,53.00,-232.00,1224.00,-520.00,18368.00,-1696.00
14327,132.00,49.00,-213.00,1224.00,-368.00,18408.00,-1712.00
14345,112.00,42.00,-220.00,1268.00,-392.00,18468.00,-1680.00
14361,124.00,59.00,-210.00,1212.00,-352.00,18416.00,-1696.00
14377,136.00,63.00,-193.00,1384.00,-440.00,18400.00,-1664.00
14394,141.00,60.00,-223.00,1320.00,-516.00,18484.00,-1664.00
14410,118.00,64.00,-197.00,1228.00,-376.00,18360.00,-1664.00
14427,124.00,58.00,-211.00,1208.00,-484.00,18220.00,-1712.00
14443,111.00,61.00,-216.00,1220.00,-360.00,18468.00,-1680.00
14459,114.00,88.00,-227.00,1276.00,-512.00,18296.00,-1696.00
14476,141.00,69.00,-211.00,1328.00,-388.00,18388.00,-1696.00
14493,120.00,46.00,-200.00,1192.00,-384.00,18464.00,-1664.00
14510,123.00,41.00,-216.00,1216.00,-488.00,18388.00,-1680.00
14526,127.00,86.00,-204.00,1236.00,-312.00,18328.00,-1680.00
14542,134.00,54.00,-223.00,1280.00,-332.00,18548.00,-1648.00
14559,136.00,37.00,-191.00,1380.00,-432.00,18424.00,-1664.00
14575,107.00,87.00,-238.00,1224.00,-488.00,18552.00,-1696.00
14592,116.00,35.00,-217.00,1256.00,-468.00,18300.00,-1696.00
14608,124.00,21.00,-186.00,1168.00,-436.00,18500.00,-1680.00
14625,134.00,44.00,-244.00,1208.00,-432.00,18300.00,-1680.00
14642,153.00,47.00,-250.00,1264.00,-396.00,18300.00,-1664.00
14658,90.00,30.00,-245.00,1284.00,-416.00,18252.00,-1696.00
14674,98.00,50.00,-193.00,1336.00,-392.00,18456.00,-1696.00
14691,134.00,43.00,-225.00,1172.00,-384.00,18420.00,-1696.00
14707,133.00,52.00,-223.00,1200.00,-332.00,18480.00,-1696.00
14724,110.00,68.00,-213.00,1340.00,-348.00,18240.00,-1648.00
14740,101.00,42.00,-218.00,1260.00,-360.00,18296.00,-1648.00
14756,107.00,74.00,-218.00,1092.00,-372.00,18460.00,-1680.00
14773,101.00,42.00,-199.00,1188.00,-464.00,18380.00,-1696.00
14790,128.00,26.00,-239.00,1228.00,-468.00,18312.00,-1696.00
14807,146.00,36.00,-186.00,1236.00,-332.00,18336.00,-1664.00
14823,131.00,53.00,-227.00,1204.00,-528.00,18264.00,-1712.00
14839,112.00,61.00,-242.00,1208.00,-412.00,18284.00,-1712.00
14856,120.00,63.00,-227.00,1272.00,-300.00,18436.00,-1712.00
14872,115.00,46.00,-226.00,1236.00,-484.00,18308.00,-1664.00
14888,110.00,17.00,-241.00,1192.00,-380.00,18364.00,-1664.00
14905,105.00,43.00,-216.00,1212.00,-320.00,18416.00,-1648.00
14922,105.00,80.00,-232.00,1292.00,-404.00,18568.00,-1648.00
14939,95.00,58.00,-210.00,1232.00,-360.00,18380.00,-1680.00
14955,97.00,42.00,-218.00,1224.00,-400.00,18216.00,-1680.00
14971,132.00,62.00,-231.00,1236.00,-324.00,18400.00,-1712.00
14988,139.00,62.00,-205.00,1276.00,-396.00,18408.00,-1696.00
15004,121.00,39.00,-218.00,1120.00,-488.00,18356.00,-1696.00
15021,108.00,39.00,-198.00,1288.00,-456.00,18384.00,-1696.00
15037,156.00,48.00,-215.00,1284.00,-348.00,18400.00,-1712.00
15053,140.00,38.00,-233.00,1304.00,-428.00,18328.00,-1712.00
15071,149.00,45.00,-244.00,1224.00,-284.00,18300.00,-1696.00
15087,117.00,53.00,-223.00,1348.00,-412.00,18324.00,-1696.00
15104,114.00,64.00,-213.00,1220.00,-392.00,18392.00,-1696.00
15120,138.00,53.00,-219.00,1300.00,-356.00,18552.00,-1680.00
15136,134.00,67.00,-214.00,1232.00,-472.00,18412.00,-1712.00
15153,135.00,43.00,-226.00,1196.00,-324.00,18228.00,-1712.00
15169,134.00,58.00,-231.00,1296.00,-408.00,18284.00,-1664.00
15185,104.00,56.00,-185.00,1224.00,-500.00,18436.00,-1664.00
15202,132.00,67.00,-236.00,1228.00,-340.00,18476.00,-1696.00
15219,131.00,73.00,-202.00,1196.00,-436.00,18348.00,-1680.00
15236,138.00,57.00,-211.00,1284.00,-400.00,18328.00,-1648.00
15252,119.00,36.00,-222.00,1292.00,-344.00,18404.00,-1664.00
15268,139.00,64.00,-195.00,1188.00,-304.00,18464.00,-1696.00
15285,113.00,43.00,-231.00,1176.00,-412.00,18436.00,-1712.00
15301,127.00,66.00,-224.00,1252.00,-428.00,18352.00,-1680.00
15318,124.00,50.00,-218.00,1228.00,-376.00,18376.00,-1712.00
15334,144.00,50.00,-235.00,1292.00,-384.00,18440.00,-1696.00
15351,101.00,76.00,-224.00,1216.00,-468.00,18396.00,-1664.00
15368,99.00,54.00,-208.00,1192.00,-388.00,18324.00,-1680.00
15384,105.00,70.00,-192.00,1292.00,-284.00,18444.00,-1664.00
15400,126.00,46.00,-254.00,1320.00,-440.00,18416.00,-1680.00
15417,166.00,41.00,-231.00,1360.00,-500.00,18368.00,-1680.00
15433,115.00,82.00,-201.00,1288.00,-412.00,18360.00,-1696.00
15450,107.00,77.00,-232.00,1284.00,-416.00,18440.00,-1696.00
15466,129.00,102.00,-233.00,1240.00,-364.00,18528.00,-1696.00
15482,126.00,23.00,-197.00,1196.00,-400.00,18420.00,-1680.00
15500,142.00,49.00,-221.00,1212.00,-432.00,18376.00,-1664.00
15516,134.00,64.00,-235.00,1336.00,-452.00,18276.00,-1664.00
15533,113.00,34.00,-222.00,1260.00,-364.00,18596.00,-1664.00
15549,103.00,41.00,-181.00,1216.00,-460.00,18496.00,-1664.00
15565,119.00,51.00,-195.00,1216.00,-512.00,18512.00,-1680.00
15582,139.00,72.00,-208.00,1300.00,-396.00,18340.00,-1680.00
15598,133.00,29.00,-254.00,1196.00,-404.00,18336.00,-1696.00
15614,105.00,68.00,-218.00,1232.00,-348.00,18328.00,-1696.00
15632,124.00,71.00,-209.00,1292.00,-376.00,18428.00,-1680.00
15648,111.00,64.00,-236.00,1188.00,-424.00,18372.00,-1712.00
15665,139.00,80.00,-206.00,1296.00,-380.00,18408.00,-1680.00
15681,126.00,46.00,-249.00,1360.00,-332.00,18248.00,-1664.00
15697,106.00,58.00,-205.00,1272.00,-392.00,18376.00,-1696.00
15714,113.00,52.00,-217.00,1288.00,-292.00,18416.00,-1696.00
15730,142.00,70.00,-213.00,1276.00,-432.00,18436.00,-1648.00
15747,125.00,39.00,-207.00,1164.00,-456.00,18352.00,-1680.00
15763,111.00,48.00,-221.00,1208.00,-464.00,18424.00,-1680.00
15780,104.00,23.00,-196.00,1236.00,-488.00,18312.00,-1696.00
15797,125.00,33.00,-204.00,1260.00,-324.00,18440.00,-1696.00
15813,110.00,15.00,-214.00,1248.00,-348.00,18468.00,-1696.00
15830,135.00,47.00,-216.00,1240.00,-476.00,18260.00,-1712.00
15846,129.00,61.00,-188.00,1356.00,-348.00,18468.00,-1712.00
15862,118.00,39.00,-237.00,1340.00,-344.00,18424.00,-1712.00
15879,116.00,56.00,-194.00,1160.00,-380.00,18336.00,-1696.00
15895,122.00,40.00,-189.00,1244.00,-340.00,18468.00,-1696.00
15912,137.00,44.00,-223.00,1196.00,-368.00,18348.00,-1712.00
15929,150.00,17.00,-240.00,1220.00,-412.00,18264.00,-1680.00
15945,124.00,43.00,-250.00,1276.00,-428.00,18328.00,-1712.00
15962,127.00,50.00,-219.00,1164.00,-440.00,18308.00,-1696.00
15978,129.00,80.00,-219.00,1320.00,-384.00,18436.00,-1664.00
15994,121.00,63.00,-216.00,1136.00,-468.00,18400.00,-1664.00
16011,129.00,38.00,-215.00,1212.00,-352.00,18340.00,-1680.00
16027,133.00,45.00,-221.00,1248.00,-500.00,18308.00,-1680.00
16044,116.00,39.00,-214.00,1184.00,-384.00,18376.00,-1696.00
16061,117.00,56.00,-227.00,1232.00,-324.00,18512.00,-1664.00
16077,147.00,56.00,-236.00,1204.00,-416.00,18416.00,-1696.00
16094,132.00,44.00,-216.00,1232.00,-372.00,18396.00,-1664.00
16110,143.00,57.00,-232.00,1200.00,-480.00,18420.00,-1664.00
16126,110.00,81.00,-243.00,1224.00,-432.00,18436.00,-1712.00
16143,102.00,63.00,-225.00,1220.00,-428.00,18464.00,-1680.00
16159,119.00,52.00,-226.00,1276.00,-468.00,18376.00,-1696.00
16176,99.00,33.00,-215.00,1192.00,-368.00,18268.00,-1696.00
16192,138.00,60.00,-229.00,1288.00,-424.00,18364.00,-1664.00
16209,134.00,63.00,-214.00,1228.00,-388.00,18408.00,-1680.00
16226,95.00,71.00,-229.00,1272.00,-384.00,18396.00,-1680.00
16242,124.00,41.00,-209.00,1304.00,-320.00,18340.00,-1680.00
16259,121.00,58.00,-247.00,1272.00,-340.00,18356.00,-1680.00
16275,108.00,96.00,-215.00,1160.00,-400.00,18340.00,-1696.00
16291,101.00,40.00,-218.00,1196.00,-368.00,18332.00,-1696.00
16308,91.00,74.00,-205.00,1288.00,-384.00,18452.00,-1696.00
16324,128.00,78.00,-232.00,1236.00,-364.00,18340.00,-1696.00
16340,137.00,51.00,-224.00,1328.00,-328.00,18312.00,-1680.00
16358,125.00,76.00,-186.00,1368.00,-452.00,18332.00,-1712.00
16374,129.00,54.00,-220.00,1296.00,-380.00,18364.00,-1664.00
16391,117.00,49.00,-210.00,1216.00,-456.00,18548.00,-1696.00
16407,126.00,84.00,-203.00,1320.00,-448.00,18452.00,-1664.00
16423,121.00,63.00,-214.00,1292.00,-336.00,18416.00,-1680.00
16440,142.00,37.00,-225.00,1256.00,-452.00,18268.00,-1680.00
16456,124.00,65.00,-194.00,1208.00,-504.00,18420.00,-1680.00
16473,125.00,36.00,-245.00,1300.00,-376.00,18408.00,-1664.00
16489,138.00,43.00,-214.00,1192.00,-396.00,18468.00,-1664.00
16506,110.00,70.00,-198.00,1192.00,-412.00,18432.00,-1664.00
16523,139.00,40.00,-214.00,1128.00,-516.00,18376.00,-1680.00
16539,133.00,51.00,-225.00,1276.00,-436.00,18228.00,-1680.00
16556,102.00,54.00,-227.00,1296.00,-368.00,18384.00,-1680.00
16572,116.00,48.00,-226.00,1208.00,-384.00,18444.00,-1696.00
16588,109.00,58.00,-219.00,1136.00,-432.00,18432.00,-1664.00
16605,165.00,46.00,-214.00,1268.00,-404.00,18276.00,-1680.00
16621,108.00,85.00,-237.00,1352.00,-464.00,18380.00,-1680.00
16638,117.00,36.00,-226.00,1264.00,-452.00,18392.00,-1696.00
16655,123.00,57.00,-201.00,1252.00,-484.00,18512.00,-1664.00
16671,132.00,39.00,-218.00,1224.00,-368.00,18436.00,-1696.00
16688,131.00,46.00,-231.00,1216.00,-352.00,18404.00,-1664.00
16704,133.00,23.00,-239.00,1284.00,-516.00,18360.00,-1680.00
16720,111.00,94.00,-219.00,1320.00,-468.00,18476.00,-1696.00
16737,135.00,51.00,-202.00,1272.00,-332.00,18332.00,-1664.00
16753,112.00,55.00,-203.00,1208.00,-384.00,18284.00,-1712.00
16770,114.00,54.00,-223.00,1236.00,-448.00,18284.00,-1680.00
16787,129.00,46.00,-208.00,1356.00,-424.00,18320.00,-1712.00
16803,109.00,65.00,-211.00,1240.00,-432.00,18448.00,-1664.00
16820,108.00,64.00,-211.00,1240.00,-400.00,18324.00,-1728.00
16836,123.00,33.00,-224.00,1112.00,-416.00,18236.00,-1696.00
16852,137.00,48.00,-209.00,1148.00,-416.00,18384.00,-1712.00
16869,120.00,54.00,-210.00,1196.00,-448.00,18304.00,-1680.00
16885,105.00,56.00,-217.00,1260.00,-412.00,18524.00,-1728.00
16902,102.00,67.00,-224.00,1240.00,-388.00,18392.00,-1696.00
16919,99.00,90.00,-209.00,1284.00,-444.00,18380.00,-1680.00
16935,138.00,50.00,-220.00,1204.00,-340.00,18332.00,-1680.00
16952,150.00,66.00,-221.00,1204.00,-420.00,18500.00,-1680.00
16968,117.00,46.00,-209.00,1300.00,-436.00,18380.00,-1712.00
16985,123.00,56.00,-206.00,1312.00,-428.00,18376.00,-1680.00
17001,118.00,17.00,-194.00,1220.00,-356.00,18356.00,-1696.00
17017,138.00,45.00,-218.00,1184.00,-420.00,18280.00,-1664.00
17034,130.00,63.00,-217.00,1240.00,-416.00,18368.00,-1712.00
17050,138.00,44.00,-236.00,1236.00,-440.00,18236.00,-1712.00
17067,105.00,58.00,-198.00,1196.00,-424.00,18428.00,-1680.00
17084,122.00,78.00,-255.00,1252.00,-404.00,18396.00,-1696.00
17100,120.00,46.00,-198.00,1144.00,-348.00,18312.00,-1696.00
17117,115.00,44.00,-239.00,1204.00,-368.00,18320.00,-1696.00
17133,130.00,35.00,-229.00,1220.00,-308.00,18356.00,-1680.00
17149,104.00,37.00,-200.00,1252.00,-328.00,18300.00,-1680.00
17166,128.00,59.00,-198.00,1284.00,-344.00,18400.00,-1696.00
17182,133.00,47.00,-216.00,1260.00,-376.00,18224.00,-1728.00
17199,125.00,60.00,-222.00,1236.00,-452.00,18320.00,-1664.00
17216,147.00,54.00,-238.00,1268.00,-412.00,18292.00,-1680.00
17232,134.00,52.00,-214.00,1196.00,-388.00,18352.00,-1680.00
17249,112.00,46.00,-223.00,1236.00,-404.00,18432.00,-1680.00
17265,114.00,55.00,-208.00,1380.00,-348.00,18296.00,-1664.00
17282,128.00,50.00,-207.00,1288.00,-356.00,18460.00,-1696.00
17298,135.00,47.00,-229.00,1208.00,-404.00,18416.00,-1728.00
17314,100.00,48.00,-232.00,1272.00,-492.00,18496.00,-1648.00
17331,114.00,58.00,-209.00,1324.00,-436.00,18412.00,-1680.00
17347,110.00,31.00,-241.00,1268.00,-372.00,18424.00,-1696.00
17364,134.00,44.00,-209.00,1176.00,-280.00,18256.00,-1664.00
17381,137.00,36.00,-214.00,1248.00,-408.00,18376.00,-1696.00
17397,107.00,41.00,-237.00,1304.00,-416.00,18380.00,-1712.00
17414,118.00,56.00,-231.00,1316.00,-324.00,18272.00,-1680.00
17430,137.00,67.00,-250.00,1276.00,-332.00,18472.00,-1680.00
17446,130.00,67.00,-211.00,1240.00,-328.00,18480.00,-1696.00
17463,138.00,59.00,-220.00,1212.00,-460.00,18276.00,-1728.00
17479,118.00,59.00,-233.00,1256.00,-448.00,18408.00,-1712.00
17497,117.00,72.00,-215.00,1312.00,-404.00,18368.00,-1680.00
17513,131.00,42.00,-227.00,1320.00,-420.00,18404.00,-1680.00
17529,106.00,58.00,-206.00,1188.00,-404.00,18204.00,-1696.00
17546,138.00,68.00,-228.00,1288.00,-392.00,18392.00,-1696.00
17562,151.00,84.00,-217.00,1292.00,-424.00,18440.00,-1696.00
17579,131.00,38.00,-212.00,1256.00,-340.00,18400.00,-1680.00
17595,114.00,43.00,-181.00,1184.00,-448.00,18352.00,-1680.00
17611,131.00,64.00,-218.00,1220.00,-384.00,18220.00,-1680.00
17628,130.00,22.00,-211.00,1236.00,-360.00,18228.00,-1696.00
17645,140.00,49.00,-202.00,1236.00,-384.00,18232.00,-1696.00
17661,130.00,58.00,-204.00,1264.00,-456.00,18384.00,-1680.00
17678,114.00,51.00,-222.00,1180.00,-396.00,18556.00,-1680.00
17694,135.00,60.00,-221.00,1228.00,-284.00,18316.00,-1712.00
17711,131.00,57.00,-225.00,1268.00,-400.00,18264.00,-1664.00
17727,144.00,40.00,-225.00,1148.00,-404.00,18408.00,-1696.00
17743,118.00,29.00,-222.00,1184.00,-456.00,18456.00,-1696.00
17760,129.00,61.00,-221.00,1304.00,-464.00,18380.00,-1712.00
17777,122.00,54.00,-242.00,1272.00,-372.00,18444.00,-1680.00
17794,144.00,78.00,-203.00,1236.00,-340.00,18416.00,-1696.00
17810,141.00,72.00,-239.00,1276.00,-424.00,18300.00,-1664.00
17826,96.00,49.00,-230.00,1208.00,-344.00,18396.00,-1696.00
17843,109.00,61.00,-209.00,1236.00,-436.00,18480.00,-1696.00
17859,131.00,72.00,-210.00,1188.00,-424.00,18296.00,-1680.00
17875,122.00,72.00,-216.00,1272.00,-356.00,18464.00,-1712.00
17892,134.00,63.00,-227.00,1228.00,-352.00,18452.00,-1712.00
17908,118.00,55.00,-235.00,1236.00,-484.00,18352.00,-1696.00
17926,107.00,60.00,-244.00,1244.00,-468.00,18412.00,-1696.00
17942,131.00,45.00,-215.00,1136.00,-508.00,18368.00,-1680.00
17958,124.00,57.00,-195.00,1204.00,-416.00,18340.00,-1696.00
17975,114.00,65.00,-246.00,1148.00,-408.00,18204.00,-1680.00
17991,127.00,60.00,-222.00,1244.00,-424.00,18232.00,-1712.00
18008,98.00,44.00,-233.00,1288.00,-408.00,18416.00,-1664.00
18024,99.00,57.00,-221.00,1296.00,-480.00,18412.00,-1696.00
18040,131.00,70.00,-231.00,1180.00,-312.00,18376.00,-1664.00
18057,125.00,86.00,-208.00,1236.00,-432.00,18208.00,-1664.00
18074,134.00,78.00,-240.00,1232.00,-460.00,18424.00,-1680.00
18091,116.00,31.00,-203.00,1168.00,-332.00,18432.00,-1712.00
18107,96.00,36.00,-208.00,1244.00,-484.00,18408.00,-1680.00
18123,99.00,50.00,-225.00,1268.00,-320.00,18328.00,-1680.00
18140,123.00,44.00,-235.00,1240.00,-372.00,18332.00,-1680.00
18156,120.00,64.00,-244.00,1176.00,-428.00,18412.00,-1696.00
18172,126.00,80.00,-224.00,1284.00,-432.00,18348.00,-1696.00
18189,109.00,55.00,-193.00,1176.00,-428.00,18500.00,-1712.00
18205,115.00,62.00,-219.00,1220.00,-384.00,18364.00,-1712.00
18222,143.00,63.00,-193.00,1256.00,-312.00,18308.00,-1712.00
18239,122.00,37.00,-233.00,1340.00,-388.00,18324.00,-1696.00
18255,104.00,65.00,-224.00,1264.00,-392.00,18500.00,-1664.00
18272,111.00,65.00,-227.00,1280.00,-388.00,18576.00,-1728.00
18288,159.00,42.00,-232.00,1264.00,-336.00,18480.00,-1680.00
18305,118.00,58.00,-236.00,1192.00,-300.00,18316.00,-1680.00
18321,124.00,62.00,-226.00,1208.00,-360.00,18336.00,-1696.00
18337,114.00,36.00,-238.00,1204.00,-368.00,18508.00,-1664.00
18354,111.00,43.00,-219.00,1260.00,-448.00,18404.00,-1696.00
18371,140.00,35.00,-213.00,1260.00,-384.00,18412.00,-1712.00
18387,135.00,45.00,-225.00,1204.00,-348.00,18392.00,-1680.00
18404,126.00,62.00,-218.00,1260.00,-328.00,18328.00,-1696.00
18420,140.00,55.00,-197.00,1216.00,-444.00,18360.00,-1664.00
18437,107.00,63.00,-210.00,1224.00,-464.00,18376.00,-1696.00
18453,127.00,73.00,-229.00,1180.00,-328.00,18356.00,-1648.00
18469,105.00,46.00,-248.00,1212.00,-352.00,18512.00,-1680.00
18486,130.00,53.00,-207.00,1208.00,-456.00,18376.00,-1696.00
18502,122.00,53.00,-241.00,1168.00,-360.00,18404.00,-1696.00
18520,120.00,65.00,-233.00,1240.00,-356.00,18436.00,-1680.00
18536,99.00,45.00,-228.00,1256.00,-432.00,18392.00,-1648.00
18552,119.00,35.00,-215.00,1184.00,-428.00,18448.00,-1680.00
18569,115.00,57.00,-195.00,1296.00,-392.00,18396.00,-1680.00
18585,125.00,57.00,-223.00,1352.00,-384.00,18376.00,-1696.00
18601,99.00,56.00,-224.00,1108.00,-440.00,18544.00,-1696.00
18618,120.00,72.00,-232.00,1192.00,-332.00,18488.00,-1664.00
18634,134.00,70.00,-208.00,1192.00,-336.00,18344.00,-1680.00
18651,129.00,59.00,-202.00,1264.00,-356.00,18276.00,-1680.00
18668,123.00,47.00,-219.00,1308.00,-364.00,18272.00,-1696.00
18684,119.00,48.00,-222.00,1240.00,-472.00,18492.00,-1696.00
18701,102.00,55.00,-232.00,1256.00,-376.00,18568.00,-1696.00
18717,145.00,53.00,-208.00,1176.00,-416.00,18404.00,-1664.00
18734,133.00,34.00,-224.00,1272.00,-392.00,18424.00,-1680.00
18750,131.00,78.00,-199.00,1284.00,-280.00,18384.00,-1664.00
18766,115.00,64.00,-235.00,1292.00,-376.00,18424.00,-1696.00
18783,117.00,59.00,-217.00,1184.00,-448.00,18464.00,-1680.00
18800,124.00,42.00,-215.00,1160.00,-336.00,18424.00,-1712.00
18817,101.00,59.00,-218.00,1220.00,-348.00,18348.00,-1680.00
18833,134.00,40.00,-221.00,1144.00,-348.00,18468.00,-1696.00
18849,129.00,59.00,-192.00,1252.00,-416.00,18384.00,-1696.00
18866,111.00,38.00,-221.00,1232.00,-368.00,18348.00,-1664.00
18882,116.00,61.00,-208.00,1272.00,-316.00,18400.00,-1680.00
18898,137.00,53.00,-209.00,1172.00,-340.00,18268.00,-1680.00
18915,141.00,35.00,-229.00,1304.00,-432.00,18316.00,-1728.00
18931,127.00,60.00,-214.00,1284.00,-468.00,18360.00,-1696.00
18949,123.00,77.00,-250.00,1224.00,-368.00,18520.00,-1712.00
18965,134.00,64.00,-212.00,1280.00,-416.00,18484.00,-1712.00
18981,120.00,24.00,-210.00,1348.00,-372.00,18288.00,-1680.00
18998,138.00,58.00,-211.00,1252.00,-340.00,18316.00,-1664.00
19014,134.00,30.00,-225.00,1248.00,-420.00,18340.00,-1664.00
19031,129.00,38.00,-220.00,1212.00,-368.00,18412.00,-1696.00
19047,125.00,65.00,-208.00,1236.00,-448.00,18380.00,-1696.00
19063,129.00,84.00,-225.00,1320.00,-404.00,18348.00,-1712.00
19081,141.00,44.00,-229.00,1268.00,-368.00,18464.00,-1728.00
19097,122.00,57.00,-213.00,1220.00,-412.00,18240.00,-1696.00
19113,117.00,36.00,-225.00,1188.00,-436.00,18564.00,-1696.00
19130,143.00,64.00,-231.00,1276.00,-380.00,18512.00,-1696.00
19146,145.00,22.00,-235.00,1296.00,-344.00,18568.00,-1680.00
19163,127.00,60.00,-215.00,1308.00,-360.00,18300.00,-1712.00
19179,132.00,50.00,-224.00,1252.00,-432.00,18304.00,-1696.00
19195,140.00,47.00,-217.00,1164.00,-444.00,18412.00,-1696.00
19212,104.00,19.00,-223.00,1236.00,-468.00,18360.00,-1696.00
19229,120.00,35.00,-227.00,1300.00,-388.00,18300.00,-1696.00
19246,121.00,77.00,-223.00,1280.00,-396.00,18388.00,-1680.00
19262,137.00,74.00,-243.00,1296.00,-412.00,18372.00,-1680.00
19278,123.00,69.00,-227.00,1204.00,-404.00,18396.00,-1680.00
19295,91.00,48.00,-227.00,1164.00,-320.00,18452.00,-1696.00
19311,118.00,88.00,-224.00,1220.00,-416.00,18448.00,-1664.00
19328,118.00,53.00,-219.00,1276.00,-476.00,18300.00,-1696.00
19344,104.00,67.00,-228.00,1232.00,-412.00,18432.00,-1712.00
19360,112.00,48.00,-239.00,1276.00,-344.00,18520.00,-1680.00
19378,117.00,81.00,-211.00,1244.00,-400.00,18384.00,-1712.00
19394,128.00,78.00,-212.00,1236.00,-456.00,18336.00,-1696.00
19410,124.00,42.00,-205.00,1224.00,-284.00,18384.00,-1696.00
19427,153.00,63.00,-236.00,1256.00,-380.00,18264.00,-1696.00
19443,124.00,49.00,-209.00,1292.00,-400.00,18484.00,-1664.00
19460,124.00,26.00,-184.00,1260.00,-460.00,18416.00,-1680.00
19476,140.00,51.00,-212.00,1196.00,-288.00,18480.00,-1696.00
19492,136.00,59.00,-202.00,1288.00,-408.00,18448.00,-1696.00
19510,118.00,66.00,-220.00,1164.00,-380.00,18408.00,-1664.00
19526,130.00,55.00,-193.00,1280.00,-368.00,18344.00,-1712.00
19543,99.00,64.00,-220.00,1160.00,-360.00,18328.00,-1680.00
19559,111.00,36.00,-219.00,1316.00,-440.00,18524.00,-1744.00
19575,124.00,41.00,-230.00,1164.00,-380.00,18336.00,-1680.00
19592,132.00,54.00,-208.00,1196.00,-440.00,18364.00,-1696.00
19608,119.00,62.00,-238.00,1260.00,-280.00,18308.00,-1664.00
19624,110.00,53.00,-212.00,1268.00,-408.00,18424.00,-1696.00
19641,104.00,71.00,-206.00,1128.00,-448.00,18504.00,-1712.00
19658,121.00,66.00,-210.00,1200.00,-436.00,18332.00,-1648.00
19675,144.00,54.00,-231.00,1284.00,-264.00,18320.00,-1712.00
19691,129.00,42.00,-217.00,1244.00,-396.00,18452.00,-1728.00
19707,137.00,55.00,-217.00,1320.00,-476.00,18464.00,-1664.00
19724,91.00,81.00,-228.00,1328.00,-444.00,18396.00,-1696.00
19740,115.00,49.00,-210.00,1312.00,-328.00,18368.00,-1664.00
19757,140.00,48.00,-227.00,1208.00,-336.00,18268.00,-1680.00
19773,136.00,49.00,-210.00,1224.00,-380.00,18540.00,-1712.00
19789,132.00,60.00,-221.00,1276.00,-436.00,18300.00,-1728.00
19807,143.00,48.00,-201.00,1248.00,-384.00,18456.00,-1696.00
19823,101.00,67.00,-227.00,1284.00,-372.00,18348.00,-1696.00
19840,127.00,66.00,-190.00,1212.00,-356.00,18364.00,-1728.00
19856,123.00,97.00,-209.00,1332.00,-428.00,18508.00,-1680.00
19872,125.00,65.00,-233.00,1248.00,-380.00,18376.00,-1648.00
19889,117.00,65.00,-207.00,1272.00,-380.00,18456.00,-1696.00
19905,142.00,29.00,-231.00,1224.00,-384.00,18452.00,-1728.00
19921,136.00,68.00,-215.00,1252.00,-424.00,18372.00,-1696.00
19939,152.00,31.00,-230.00,1180.00,-392.00,18348.00,-1712.00
19955,125.00,65.00,-234.00,1284.00,-476.00,18264.00,-1712.00
19972,96.00,35.00,-220.00,1248.00,-320.00,18436.00,-1680.00
19988,117.00,57.00,-209.00,1276.00,-332.00,18428.00,-1680.00
20004,113.00,24.00,-209.00,1244.00,-300.00,18372.00,-1696.00
20021,104.00,30.00,-244.00,1188.00,-408.00,18252.00,-1696.00
20037,122.00,47.00,-201.00,1232.00,-484.00,18452.00,-1680.00
20054,114.00,62.00,-227.00,1276.00,-568.00,18628.00,-1712.00
20070,112.00,64.00,-230.00,1124.00,-384.00,18544.00,-1680.00
20087,113.00,36.00,-232.00,1172.00,-284.00,18420.00,-1696.00
20104,133.00,8.00,-215.00,1128.00,-368.00,18404.00,-1696.00
20120,137.00,58.00,-228.00,1236.00,-380.00,18320.00,-1696.00
20136,128.00,53.00,-236.00,1360.00,-536.00,18364.00,-1664.00
20153,109.00,30.00,-211.00,1092.00,-368.00,18412.00,-1680.00
20169,112.00,24.00,-226.00,1248.00,-396.00,18316.00,-1712.00
20186,128.00,49.00,-245.00,1176.00,-348.00,18400.00,-1712.00
20202,138.00,58.00,-192.00,1252.00,-420.00,18352.00,-1728.00
20218,100.00,37.00,-222.00,1248.00,-440.00,18480.00,-1664.00
20236,117.00,59.00,-193.00,1248.00,-564.00,18356.00,-1664.00
20252,112.00,45.00,-219.00,1196.00,-444.00,18436.00,-1680.00
20269,139.00,46.00,-208.00,1296.00,-332.00,18324.00,-1680.00
20285,137.00,43.00,-233.00,1260.00,-408.00,18336.00,-1696.00
20301,133.00,44.00,-229.00,1232.00,-404.00,18180.00,-1696.00
20318,127.00,75.00,-209.00,1248.00,-512.00,18436.00,-1696.00
20334,119.00,31.00,-225.00,1220.00,-412.00,18424.00,-1712.00
20350,135.00,59.00,-232.00,1216.00,-428.00,18328.00,-1680.00
20367,131.00,76.00,-215.00,1260.00,-412.00,18432.00,-1728.00
20384,144.00,53.00,-210.00,1268.00,-336.00,18380.00,-1696.00
20401,108.00,56.00,-204.00,1208.00,-376.00,18212.00,-1664.00
20417,139.00,37.00,-205.00,1240.00,-472.00,18440.00,-1664.00
20433,125.00,50.00,-212.00,1276.00,-388.00,18396.00,-1680.00
20450,118.00,64.00,-222.00,1276.00,-304.00,18296.00,-1648.00
20466,121.00,30.00,-241.00,1340.00,-488.00,18392.00,-1696.00
20483,114.00,71.00,-222.00,1284.00,-476.00,18292.00,-1664.00
20499,96.00,30.00,-205.00,1272.00,-324.00,18480.00,-1680.00
20516,124.00,49.00,-245.00,1196.00,-368.00,18344.00,-1680.00
20533,134.00,38.00,-250.00,1240.00,-364.00,18404.00,-1712.00
20549,131.00,39.00,-195.00,1196.00,-428.00,18396.00,-1648.00
20566,113.00,62.00,-223.00,1264.00,-504.00,18256.00,-1680.00
20582,110.00,45.00,-246.00,1188.00,-500.00,18472.00,-1696.00
20598,105.00,53.00,-221.00,1292.00,-436.00,18200.00,-1728.00
20615,154.00,22.00,-218.00,1204.00,-456.00,18392.00,-1696.00
20631,125.00,60.00,-225.00,1244.00,-448.00,18276.00,-1680.00
20647,116.00,59.00,-208.00,1256.00,-448.00,18368.00,-1680.00
20665,112.00,58.00,-212.00,1132.00,-392.00,18440.00,-1696.00
20681,123.00,41.00,-236.00,1256.00,-428.00,18464.00,-1696.00
20698,143.00,57.00,-246.00,1228.00,-368.00,18284.00,-1696.00
20714,110.00,28.00,-203.00,1228.00,-304.00,18396.00,-1680.00
20730,135.00,47.00,-246.00,1252.00,-384.00,18476.00,-1648.00
20747,126.00,36.00,-210.00,1344.00,-316.00,18312.00,-1664.00
20763,144.00,54.00,-235.00,1288.00,-368.00,18388.00,-1696.00
20780,130.00,91.00,-209.00,1164.00,-380.00,18392.00,-1728.00
20796,142.00,52.00,-204.00,1232.00,-492.00,18428.00,-1680.00
20813,113.00,34.00,-238.00,1244.00,-464.00,18352.00,-1680.00
20830,128.00,68.00,-219.00,1296.00,-368.00,18420.00,-1664.00
20846,128.00,37.00,-210.00,1248.00,-332.00,18516.00,-1728.00
20862,123.00,36.00,-244.00,1288.00,-388.00,18380.00,-1696.00
20879,153.00,61.00,-231.00,1208.00,-376.00,18300.00,-1680.00
20895,133.00,52.00,-196.00,1260.00,-476.00,18364.00,-1648.00
20912,99.00,46.00,-230.00,1268.00,-368.00,18400.00,-1696.00
20928,127.00,55.00,-218.00,1204.00,-460.00,18416.00,-1696.00
20945,113.00,50.00,-225.00,1240.00,-392.00,18464.00,-1696.00
20962,114.00,59.00,-226.00,1388.00,-396.00,18452.00,-1728.00
20978,111.00,51.00,-246.00,1212.00,-388.00,18360.00,-1680.00
20995,121.00,48.00,-242.00,1204.00,-360.00,18520.00,-1648.00
21011,94.00,50.00,-219.00,1288.00,-352.00,18384.00,-1696.00
21027,133.00,32.00,-231.00,1256.00,-440.00,18348.00,-1696.00
21044,111.00,46.00,-229.00,1276.00,-392.00,18348.00,-1696.00
21060,138.00,82.00,-225.00,1116.00,-452.00,18372.00,-1696.00
21076,124.00,53.00,-245.00,1264.00,-508.00,18496.00,-1712.00
21094,115.00,20.00,-214.00,1196.00,-348.00,18376.00,-1680.00
21110,149.00,53.00,-217.00,1228.00,-332.00,18392.00,-1696.00
21127,123.00,46.00,-239.00,1188.00,-420.00,18324.00,-1696.00
21143,112.00,35.00,-196.00,1348.00,-476.00,18424.00,-1696.00
21159,135.00,47.00,-222.00,1288.00,-456.00,18360.00,-1680.00
21176,98.00,67.00,-196.00,1224.00,-360.00,18380.00,-1712.00
21192,127.00,48.00,-188.00,1220.00,-340.00,18328.00,-1712.00
21209,125.00,51.00,-241.00,1292.00,-396.00,18392.00,-1696.00
21225,123.00,57.00,-248.00,1264.00,-360.00,18368.00,-1696.00
21242,110.00,50.00,-217.00,1220.00,-468.00,18424.00,-1680.00
21259,124.00,61.00,-243.00,1176.00,-404.00,18348.00,-1680.00
21275,134.00,32.00,-200.00,1248.00,-308.00,18592.00,-1680.00
21292,130.00,62.00,-219.00,1224.00,-376.00,18332.00,-1696.00
21308,138.00,50.00,-202.00,1204.00,-444.00,18416.00,-1664.00
21324,139.00,23.00,-204.00,1168.00,-464.00,18448.00,-1728.00
21341,94.00,55.00,-193.00,1264.00,-388.00,18464.00,-1680.00
21357,117.00,57.00,-239.00,1220.00,-416.00,18408.00,-1664.00
21373,119.00,54.00,-230.00,1276.00,-392.00,18304.00,-1680.00
21391,155.00,70.00,-205.00,1164.00,-396.00,18344.00,-1696.00
21407,105.00,54.00,-201.00,1168.00,-420.00,18312.00,-1664.00
21424,123.00,68.00,-187.00,1280.00,-484.00,18324.00,-1696.00
21440,121.00,35.00,-238.00,1284.00,-356.00,18384.00,-1712.00
21456,138.00,33.00,-230.00,1316.00,-324.00,18308.00,-1712.00
21473,127.00,57.00,-226.00,1220.00,-368.00,18496.00,-1648.00
21489,132.00,44.00,-214.00,1276.00,-416.00,18416.00,-1728.00
21506,116.00,75.00,-218.00,1252.00,-424.00,18264.00,-1664.00
21522,118.00,52.00,-225.00,1284.00,-420.00,18340.00,-1680.00
21539,116.00,50.00,-243.00,1196.00,-404.00,18356.00,-1712.00
21556,138.00,55.00,-215.00,1192.00,-380.00,18256.00,-1680.00
21572,142.00,54.00,-211.00,1244.00,-436.00,18348.00,-1664.00
21588,138.00,32.00,-205.00,1264.00,-408.00,18424.00,-1696.00
21605,106.00,44.00,-220.00,1232.00,-320.00,18296.00,-1680.00
21621,108.00,55.00,-216.00,1192.00,-368.00,18348.00,-1680.00
21638,134.00,48.00,-207.00,1192.00,-376.00,18308.00,-1680.00
21654,136.00,68.00,-226.00,1280.00,-396.00,18288.00,-1728.00
21671,96.00,62.00,-232.00,1216.00,-440.00,18416.00,-1696.00
21688,115.00,36.00,-240.00,1112.00,-404.00,18336.00,-1664.00
21704,123.00,53.00,-210.00,1260.00,-396.00,18444.00,-1712.00
21721,160.00,67.00,-215.00,1304.00,-436.00,18428.00,-1680.00
21737,144.00,71.00,-212.00,1216.00,-440.00,18380.00,-1712.00
21753,135.00,45.00,-207.00,1268.00,-380.00,18452.00,-1728.00
21770,117.00,80.00,-231.00,1248.00,-316.00,18416.00,-1664.00
21786,82.00,58.00,-213.00,1248.00,-380.00,18580.00,-1680.00
21803,138.00,63.00,-210.00,1180.00,-332.00,18364.00,-1712.00
21819,140.00,58.00,-258.00,1352.00,-340.00,18464.00,-1712.00
21836,128.00,44.00,-228.00,1368.00,-436.00,18600.00,-1664.00
21853,147.00,49.00,-205.00,1216.00,-300.00,18280.00,-1696.00
21869,125.00,82.00,-217.00,1200.00,-356.00,18464.00,-1696.00
21885,127.00,63.00,-219.00,1368.00,-388.00,18292.00,-1712.00
21902,119.00,68.00,-209.00,1188.00,-388.00,18392.00,-1680.00
21918,130.00,43.00,-238.00,1368.00,-368.00,18296.00,-1696.00
21935,99.00,55.00,-208.00,1160.00,-456.00,18404.00,-1696.00
21951,90.00,61.00,-243.00,1272.00,-352.00,18500.00,-1664.00
21967,135.00,26.00,-221.00,1288.00,-340.00,18340.00,-1664.00
21985,138.00,29.00,-199.00,1192.00,-436.00,18312.00,-1680.00
22001,119.00,41.00,-224.00,1260.00,-468.00,18408.00,-1712.00
22018,132.00,76.00,-211.00,1256.00,-452.00,18416.00,-1680.00
22034,126.00,30.00,-259.00,1236.00,-316.00,18588.00,-1664.00
22050,114.00,88.00,-223.00,1280.00,-396.00,18308.00,-1664.00
22067,111.00,58.00,-220.00,1276.00,-252.00,18400.00,-1680.00
22083,123.00,47.00,-203.00,1220.00,-304.00,18404.00,-1680.00
22099,120.00,22.00,-228.00,1208.00,-480.00,18396.00,-1712.00
22117,106.00,60.00,-212.00,1348.00,-376.00,18300.00,-1696.00
22133,127.00,41.00,-214.00,1308.00,-292.00,18488.00,-1664.00
22150,135.00,73.00,-234.00,1208.00,-376.00,18464.00,-1664.00
22166,139.00,74.00,-243.00,1292.00,-376.00,18396.00,-1664.00
22182,93.00,89.00,-223.00,1324.00,-360.00,18400.00,-1712.00
22199,115.00,56.00,-231.00,1228.00,-436.00,18476.00,-1712.00
22215,91.00,22.00,-239.00,1276.00,-332.00,18244.00,-1680.00
22232,142.00,93.00,-214.00,1132.00,-384.00,18348.00,-1712.00
22248,137.00,36.00,-229.00,1268.00,-396.00,18420.00,-1664.00
22264,130.00,36.00,-204.00,1220.00,-412.00,18476.00,-1664.00
22282,106.00,37.00,-225.00,1224.00,-408.00,18424.00,-1696.00
22298,110.00,62.00,-221.00,1168.00,-368.00,18408.00,-1696.00
22315,119.00,53.00,-218.00,1252.00,-440.00,18436.00,-1680.00
22331,124.00,62.00,-183.00,1224.00,-396.00,18376.00,-1680.00
22347,127.00,45.00,-220.00,1240.00,-404.00,18376.00,-1664.00
22364,118.00,33.00,-235.00,1308.00,-412.00,18484.00,-1696.00
22380,131.00,43.00,-216.00,1292.00,-412.00,18384.00,-1680.00
22396,106.00,14.00,-244.00,1220.00,-288.00,18416.00,-1712.00
22414,110.00,52.00,-211.00,1220.00,-396.00,18324.00,-1680.00
22430,108.00,38.00,-217.00,1252.00,-412.00,18248.00,-1696.00
22447,112.00,64.00,-219.00,1216.00,-312.00,18400.00,-1696.00
22463,102.00,15.00,-211.00,1304.00,-396.00,18452.00,-1664.00
22479,131.00,41.00,-190.00,1332.00,-332.00,18316.00,-1696.00
22496,115.00,60.00,-207.00,1244.00,-484.00,18288.00,-1680.00
22512,147.00,61.00,-227.00,1268.00,-384.00,18312.00,-1680.00
22529,128.00,70.00,-237.00,1232.00,-484.00,18368.00,-1696.00
22545,116.00,43.00,-201.00,1316.00,-380.00,18344.00,-1696.00
22562,107.00,85.00,-195.00,1268.00,-304.00,18388.00,-1680.00
22579,131.00,60.00,-236.00,1160.00,-372.00,18412.00,-1680.00
22595,126.00,43.00,-227.00,1436.00,-448.00,18460.00,-1712.00
22611,111.00,38.00,-235.00,1208.00,-356.00,18424.00,-1728.00
22628,103.00,62.00,-208.00,1312.00,-428.00,18496.00,-1728.00
22644,131.00,40.00,-233.00,1244.00,-384.00,18360.00,-1696.00
22661,122.00,74.00,-233.00,1176.00,-416.00,18488.00,-1712.00
22677,141.00,54.00,-214.00,1268.00,-356.00,18264.00,-1712.00
22694,126.00,46.00,-218.00,1200.00,-336.00,18376.00,-1696.00
22711,116.00,69.00,-223.00,1232.00,-488.00,18496.00,-1696.00
22727,110.00,61.00,-220.00,1304.00,-364.00,18240.00,-1728.00
22744,107.00,41.00,-238.00,1284.00,-312.00,18520.00,-1712.00
22760,132.00,29.00,-228.00,1292.00,-468.00,18304.00,-1680.00
22776,126.00,33.00,-247.00,1320.00,-404.00,18480.00,-1680.00
22793,99.00,73.00,-234.00,1244.00,-472.00,18536.00,-1696.00
22809,114.00,41.00,-230.00,1280.00,-348.00,18464.00,-1664.00
22825,156.00,55.00,-201.00,1200.00,-424.00,18284.00,-1696.00
22843,119.00,49.00,-227.00,1252.00,-340.00,18372.00,-1696.00
22859,150.00,43.00,-203.00,1232.00,-436.00,18340.00,-1712.00
22876,137.00,57.00,-214.00,1244.00,-352.00,18440.00,-1680.00
22892,112.00,55.00,-204.00,1256.00,-372.00,18520.00,-1696.00
22908,103.00,71.00,-223.00,1368.00,-364.00,18296.00,-1664.00
22925,120.00,32.00,-236.00,1216.00,-324.00,18416.00,-1696.00
22941,116.00,54.00,-216.00,1280.00,-432.00,18256.00,-1680.00
22958,115.00,75.00,-217.00,1252.00,-352.00,18404.00,-1712.00
22974,117.00,26.00,-217.00,1264.00,-424.00,18484.00,-1696.00
22991,120.00,68.00,-221.00,1192.00,-324.00,18352.00,-1696.00
23008,122.00,70.00,-225.00,1276.00,-344.00,18292.00,-1696.00
23024,124.00,39.00,-183.00,1280.00,-420.00,18316.00,-1728.00
23041,142.00,47.00,-227.00,1320.00,-436.00,18412.00,-1680.00
23057,109.00,35.00,-194.00,1272.00,-436.00,18384.00,-1712.00
23073,126.00,48.00,-211.00,1244.00,-444.00,18432.00,-1760.00
23090,128.00,39.00,-226.00,1200.00,-348.00,18404.00,-1696.00
23106,137.00,80.00,-227.00,1364.00,-440.00,18192.00,-1680.00
23123,123.00,59.00,-239.00,1192.00,-436.00,18364.00,-1680.00
23140,120.00,36.00,-265.00,1276.00,-384.00,18392.00,-1680.00
23156,120.00,46.00,-230.00,1264.00,-388.00,18560.00,-1680.00
23173,131.00,75.00,-220.00,1272.00,-456.00,18348.00,-1696.00
23189,132.00,34.00,-227.00,1228.00,-348.00,18416.00,-1696.00
23205,112.00,49.00,-198.00,1172.00,-396.00,18388.00,-1664.00
23222,116.00,63.00,-240.00,1300.00,-372.00,18416.00,-1680.00
23238,120.00,22.00,-245.00,1340.00,-420.00,18316.00,-1680.00
23255,115.00,65.00,-231.00,1256.00,-448.00,18420.00,-1696.00
23272,129.00,49.00,-209.00,1228.00,-388.00,18464.00,-1696.00
23288,135.00,46.00,-254.00,1272.00,-412.00,18544.00,-1712.00
23305,142.00,48.00,-226.00,1208.00,-284.00,18476.00,-1680.00
23321,135.00,55.00,-216.00,1288.00,-384.00,18524.00,-1680.00
23337,124.00,55.00,-207.00,1148.00,-272.00,18340.00,-1696.00
23354,132.00,65.00,-211.00,1272.00,-372.00,18188.00,-1728.00
23370,119.00,57.00,-223.00,1364.00,-476.00,18396.00,-1648.00
23387,110.00,67.00,-235.00,1160.00,-348.00,18400.00,-1712.00
23404,113.00,54.00,-203.00,1184.00,-348.00,18356.00,-1680.00
23420,132.00,49.00,-212.00,1224.00,-392.00,18412.00,-1664.00
23437,116.00,42.00,-201.00,1224.00,-376.00,18460.00,-1664.00
23453,132.00,19.00,-228.00,1168.00,-484.00,18348.00,-1664.00
23470,121.00,-3.00,-230.00,1324.00,-464.00,18508.00,-1712.00
23486,122.00,70.00,-202.00,1228.00,-368.00,18352.00,-1712.00
23502,103.00,60.00,-229.00,1196.00,-376.00,18436.00,-1712.00
23519,120.00,58.00,-206.00,1236.00,-364.00,18260.00,-1728.00
23535,121.00,63.00,-233.00,1320.00,-460.00,18264.00,-1696.00
23553,112.00,68.00,-241.00,1224.00,-400.00,18312.00,-1680.00
23569,122.00,60.00,-218.00,1208.00,-440.00,18464.00,-1712.00
23585,140.00,55.00,-224.00,1280.00,-416.00,18264.00,-1712.00
23602,115.00,20.00,-218.00,1304.00,-412.00,18444.00,-1696.00
23618,125.00,64.00,-204.00,1284.00,-468.00,18364.00,-1696.00
23634,130.00,35.00,-213.00,1208.00,-480.00,18452.00,-1728.00
23651,120.00,72.00,-221.00,1148.00,-436.00,18228.00,-1680.00
23667,113.00,34.00,-222.00,1256.00,-340.00,18528.00,-1680.00
23685,118.00,18.00,-224.00,1232.00,-444.00,18424.00,-1696.00
23701,112.00,40.00,-220.00,1280.00,-472.00,18352.00,-1696.00
23717,132.00,65.00,-182.00,1252.00,-392.00,18288.00,-1696.00
23734,120.00,32.00,-256.00,1288.00,-456.00,18292.00,-1680.00
23750,106.00,95.00,-211.00,1264.00,-440.00,18488.00,-1680.00
23767,104.00,43.00,-226.00,1300.00,-340.00,18496.00,-1696.00
23783,117.00,70.00,-207.00,1264.00,-428.00,18300.00,-1696.00
23799,131.00,52.00,-207.00,1240.00,-408.00,18364.00,-1712.00
23816,130.00,48.00,-229.00,1256.00,-424.00,18508.00,-1680.00
23833,122.00,73.00,-218.00,1280.00,-356.00,18556.00,-1680.00
23849,102.00,37.00,-216.00,1336.00,-320.00,18236.00,-1696.00
23866,136.00,65.00,-245.00,1228.00,-332.00,18368.00,-1664.00
23882,135.00,40.00,-207.00,1184.00,-376.00,18444.00,-1696.00
23899,119.00,71.00,-221.00,1256.00,-464.00,18296.00,-1696.00
23915,111.00,58.00,-240.00,1260.00,-436.00,18360.00,-1680.00
23931,117.00,39.00,-220.00,1232.00,-412.00,18376.00,-1696.00
23948,109.00,62.00,-230.00,1276.00,-364.00,18332.00,-1728.00
23965,138.00,78.00,-200.00,1292.00,-368.00,18296.00,-1712.00
23982,137.00,55.00,-229.00,1320.00,-456.00,18424.00,-1680.00
23998,110.00,56.00,-241.00,1232.00,-404.00,18324.00,-1712.00
24014,106.00,50.00,-226.00,1200.00,-484.00,18336.00,-1696.00
24031,141.00,51.00,-208.00,1264.00,-448.00,18300.00,-1696.00
24047,123.00,49.00,-240.00,1140.00,-368.00,18260.00,-1664.00
24064,119.00,41.00,-240.00,1208.00,-464.00,18352.00,-1712.00
24080,123.00,64.00,-226.00,1188.00,-428.00,18528.00,-1664.00
24096,138.00,47.00,-231.00,1284.00,-432.00,18344.00,-1696.00
24114,134.00,30.00,-214.00,1268.00,-364.00,18460.00,-1696.00
24130,135.00,63.00,-203.00,1232.00,-456.00,18380.00,-1712.00
24146,117.00,33.00,-212.00,1328.00,-412.00,18312.00,-1712.00
24163,123.00,44.00,-197.00,1300.00,-420.00,18432.00,-1696.00
24179,130.00,83.00,-198.00,1216.00,-388.00,18536.00,-1696.00
24196,113.00,21.00,-209.00,1144.00,-380.00,18316.00,-1728.00
24212,133.00,57.00,-217.00,1296.00,-408.00,18288.00,-1712.00
24228,116.00,37.00,-236.00,1304.00,-372.00,18464.00,-1680.00
24245,121.00,39.00,-215.00,1264.00,-420.00,18448.00,-1696.00
24262,112.00,70.00,-238.00,1308.00,-400.00,18396.00,-1696.00
24279,121.00,57.00,-216.00,1276.00,-372.00,18384.00,-1744.00
24295,122.00,40.00,-209.00,1200.00,-504.00,18424.00,-1712.00
24311,143.00,57.00,-223.00,1168.00,-348.00,18320.00,-1712.00
24328,124.00,35.00,-224.00,1308.00,-408.00,18220.00,-1696.00
24344,108.00,59.00,-223.00,1276.00,-420.00,18452.00,-1696.00
24360,113.00,84.00,-219.00,1228.00,-468.00,18428.00,-1680.00
24377,151.00,53.00,-220.00,1244.00,-352.00,18316.00,-1680.00
24394,122.00,68.00,-241.00,1276.00,-416.00,18384.00,-1696.00
24411,125.00,37.00,-219.00,1208.00,-392.00,18424.00,-1664.00
24427,121.00,54.00,-203.00,1224.00,-416.00,18384.00,-1664.00
24443,113.00,54.00,-201.00,1232.00,-428.00,18488.00,-1712.00
24460,113.00,36.00,-197.00,1180.00,-404.00,18468.00,-1712.00
24476,133.00,83.00,-235.00,1300.00,-376.00,18500.00,-1712.00
24493,119.00,34.00,-221.00,1204.00,-440.00,18472.00,-1696.00
24509,127.00,86.00,-223.00,1272.00,-444.00,18544.00,-1728.00
24525,143.00,48.00,-206.00,1160.00,-388.00,18376.00,-1696.00
24543,117.00,59.00,-221.00,1276.00,-468.00,18312.00,-1712.00
24559,112.00,81.00,-231.00,1260.00,-380.00,18336.00,-1712.00
24576,132.00,54.00,-225.00,1264.00,-384.00,18432.00,-1728.00
24592,99.00,33.00,-222.00,1124.00,-476.00,18508.00,-1696.00
24608,102.00,53.00,-235.00,1272.00,-336.00,18588.00,-1696.00
24625,107.00,50.00,-202.00,1220.00,-324.00,18636.00,-1696.00
24641,118.00,43.00,-200.00,1180.00,-452.00,18308.00,-1680.00
24657,124.00,55.00,-223.00,1264.00,-420.00,18288.00,-1680.00
24675,119.00,69.00,-218.00,1200.00,-392.00,18412.00,-1696.00
24691,127.00,23.00,-226.00,1216.00,-468.00,18508.00,-1696.00
24708,115.00,58.00,-218.00,1304.00,-420.00,18340.00,-1696.00
24724,124.00,69.00,-225.00,1168.00,-376.00,18336.00,-1648.00
24740,131.00,55.00,-214.00,1268.00,-500.00,18428.00,-1712.00
24757,126.00,80.00,-217.00,1212.00,-384.00,18504.00,-1680.00
24773,102.00,60.00,-254.00,1252.00,-332.00,18324.00,-1696.00
24790,130.00,58.00,-221.00,1320.00,-412.00,18308.00,-1696.00
24806,124.00,66.00,-230.00,1204.00,-376.00,18208.00,-1680.00
24823,127.00,37.00,-211.00,1176.00,-428.00,18320.00,-1680.00
24840,116.00,34.00,-216.00,1248.00,-412.00,18412.00,-1680.00
24856,120.00,60.00,-238.00,1180.00,-340.00,18320.00,-1696.00
24872,127.00,57.00,-216.00,1276.00,-376.00,18548.00,-1696.00
24889,132.00,61.00,-205.00,1268.00,-396.00,18472.00,-1696.00
24905,128.00,41.00,-219.00,1256.00,-384.00,18348.00,-1680.00
24922,127.00,56.00,-237.00,1240.00,-380.00,18292.00,-1680.00
24938,98.00,101.00,-246.00,1272.00,-444.00,18340.00,-1696.00
24955,109.00,58.00,-235.00,1216.00,-380.00,18404.00,-1696.00
24972,136.00,64.00,-200.00,1132.00,-436.00,18352.00,-1664.00
24988,123.00,66.00,-204.00,1180.00,-380.00,18316.00,-1712.00
25005,120.00,66.00,-211.00,1360.00,-380.00,18524.00,-1712.00
25021,126.00,98.00,-212.00,1252.00,-412.00,18396.00,-1712.00
25037,102.00,64.00,-220.00,1084.00,-436.00,18312.00,-1664.00
25054,106.00,65.00,-197.00,1332.00,-336.00,18240.00,-1696.00
25070,114.00,66.00,-239.00,1200.00,-412.00,18336.00,-1696.00
25086,140.00,65.00,-231.00,1256.00,-456.00,18412.00,-1680.00
25104,134.00,66.00,-222.00,1264.00,-396.00,18536.00,-1712.00
25120,129.00,52.00,-204.00,1128.00,-432.00,18324.00,-1696.00
25137,126.00,54.00,-217.00,1256.00,-360.00,18276.00,-1696.00
25153,117.00,63.00,-224.00,1220.00,-388.00,18404.00,-1696.00
25169,121.00,51.00,-226.00,1156.00,-360.00,18304.00,-1696.00
25186,136.00,44.00,-223.00,1252.00,-400.00,18392.00,-1712.00
25202,119.00,65.00,-224.00,1276.00,-396.00,18360.00,-1680.00
25219,105.00,59.00,-222.00,1320.00,-428.00,18416.00,-1696.00
25236,127.00,49.00,-216.00,1192.00,-456.00,18212.00,-1728.00
25252,114.00,69.00,-219.00,1280.00,-424.00,18412.00,-1696.00
25269,125.00,58.00,-204.00,1244.00,-444.00,18392.00,-1680.00
25285,117.00,71.00,-212.00,1208.00,-428.00,18288.00,-1680.00
25302,121.00,65.00,-236.00,1284.00,-384.00,18380.00,-1696.00
25318,130.00,56.00,-205.00,1252.00,-412.00,18400.00,-1696.00
25334,132.00,74.00,-217.00,1260.00,-424.00,18256.00,-1696.00
25351,118.00,62.00,-223.00,1260.00,-404.00,18352.00,-1680.00
25367,134.00,62.00,-220.00,1228.00,-396.00,18484.00,-1712.00
25384,132.00,64.00,-214.00,1192.00,-348.00,18344.00,-1744.00
25401,126.00,56.00,-222.00,1320.00,-464.00,18392.00,-1664.00
25417,133.00,83.00,-224.00,1208.00,-328.00,18464.00,-1696.00
25434,108.00,56.00,-214.00,1224.00,-404.00,18216.00,-1696.00
25450,104.00,43.00,-233.00,1228.00,-492.00,18492.00,-1680.00
25466,115.00,41.00,-223.00,1228.00,-368.00,18260.00,-1712.00
25483,123.00,49.00,-219.00,1264.00,-376.00,18432.00,-1680.00
25499,125.00,72.00,-218.00,1256.00,-412.00,18328.00,-1696.00
25517,127.00,48.00,-216.00,1180.00,-380.00,18432.00,-1696.00
25533,134.00,81.00,-219.00,1200.00,-368.00,18524.00,-1696.00
25549,116.00,21.00,-220.00,1240.00,-392.00,18456.00,-1680.00
25566,125.00,48.00,-208.00,1268.00,-384.00,18444.00,-1680.00
25582,111.00,54.00,-209.00,1276.00,-316.00,18396.00,-1712.00
25598,125.00,83.00,-235.00,1112.00,-392.00,18372.00,-1728.00
25615,103.00,81.00,-253.00,1196.00,-400.00,18308.00,-1664.00
25631,101.00,50.00,-223.00,1296.00,-384.00,18432.00,-1712.00
25648,133.00,38.00,-258.00,1316.00,-276.00,18472.00,-1680.00
25665,134.00,31.00,-203.00,1248.00,-436.00,18108.00,-1712.00
25681,136.00,19.00,-213.00,1236.00,-332.00,18544.00,-1696.00
25698,127.00,44.00,-225.00,1252.00,-376.00,18432.00,-1696.00
25714,104.00,75.00,-224.00,1304.00,-292.00,18516.00,-1696.00
25731,126.00,23.00,-207.00,1268.00,-324.00,18428.00,-1696.00
25747,123.00,19.00,-225.00,1220.00,-280.00,18304.00,-1712.00
25763,122.00,28.00,-230.00,1224.00,-368.00,18424.00,-1712.00
25780,126.00,40.00,-205.00,1244.00,-416.00,18344.00,-1728.00
25796,109.00,41.00,-208.00,1216.00,-428.00,18416.00,-1696.00
25814,133.00,61.00,-202.00,1292.00,-312.00,18392.00,-1728.00
25830,127.00,42.00,-222.00,1164.00,-468.00,18492.00,-1696.00
25846,130.00,35.00,-220.00,1204.00,-360.00,18420.00,-1712.00
25863,114.00,57.00,-202.00,1232.00,-352.00,18320.00,-1712.00
25879,126.00,33.00,-211.00,1196.00,-340.00,18440.00,-1696.00
25895,105.00,92.00,-209.00,1220.00,-376.00,18428.00,-1664.00
25912,136.00,30.00,-227.00,1188.00,-344.00,18344.00,-1696.00
25928,140.00,38.00,-214.00,1300.00,-324.00,18212.00,-1712.00
25946,151.00,56.00,-232.00,1184.00,-328.00,18412.00,-1712.00
25962,111.00,64.00,-209.00,1184.00,-484.00,18492.00,-1728.00
25978,116.00,65.00,-203.00,1284.00,-368.00,18340.00,-1696.00
25995,112.00,29.00,-223.00,1304.00,-320.00,18308.00,-1696.00
26011,129.00,65.00,-220.00,1136.00,-388.00,18264.00,-1696.00
26028,107.00,63.00,-193.00,1292.00,-352.00,18268.00,-1680.00
26044,103.00,59.00,-203.00,1268.00,-396.00,18356.00,-1680.00
26060,116.00,51.00,-226.00,1372.00,-376.00,18300.00,-1696.00
26077,91.00,33.00,-227.00,1228.00,-320.00,18316.00,-1696.00
26094,105.00,65.00,-249.00,1236.00,-416.00,18232.00,-1696.00
26110,130.00,62.00,-223.00,1252.00,-324.00,18496.00,-1728.00
26127,126.00,67.00,-243.00,1208.00,-444.00,18352.00,-1712.00
26143,119.00,44.00,-187.00,1228.00,-332.00,18432.00,-1712.00
26160,148.00,66.00,-216.00,1236.00,-392.00,18392.00,-1712.00
26176,128.00,65.00,-218.00,1248.00,-300.00,18536.00,-1664.00
26192,145.00,75.00,-210.00,1288.00,-388.00,18472.00,-1696.00
26209,132.00,44.00,-203.00,1228.00,-464.00,18280.00,-1680.00
26225,127.00,19.00,-223.00,1272.00,-420.00,18512.00,-1728.00
26243,98.00,66.00,-204.00,1244.00,-312.00,18416.00,-1680.00
26259,153.00,45.00,-220.00,1224.00,-288.00,18376.00,-1680.00
26275,114.00,47.00,-220.00,1268.00,-364.00,18320.00,-1680.00
26292,124.00,40.00,-202.00,1304.00,-420.00,18220.00,-1728.00
26308,116.00,65.00,-220.00,1148.00,-376.00,18436.00,-1664.00
26324,125.00,46.00,-221.00,1268.00,-384.00,18460.00,-1696.00
26341,117.00,68.00,-191.00,1260.00,-396.00,18348.00,-1680.00
26357,128.00,60.00,-239.00,1284.00,-392.00,18292.00,-1680.00
26375,149.00,75.00,-212.00,1168.00,-444.00,18300.00,-1696.00
26391,93.00,63.00,-234.00,1220.00,-396.00,18448.00,-1696.00
26407,106.00,45.00,-218.00,1300.00,-416.00,18404.00,-1696.00
26424,121.00,46.00,-185.00,1224.00,-392.00,18276.00,-1728.00
26440,138.00,63.00,-207.00,1244.00,-292.00,18340.00,-1696.00
26457,115.00,59.00,-213.00,1208.00,-396.00,18440.00,-1680.00
26473,121.00,61.00,-228.00,1236.00,-440.00,18360.00,-1712.00
26489,119.00,67.00,-218.00,1308.00,-424.00,18436.00,-1696.00
26506,144.00,50.00,-232.00,1172.00,-476.00,18372.00,-1696.00
26523,144.00,59.00,-211.00,1400.00,-304.00,18184.00,-1712.00
26540,128.00,38.00,-185.00,1316.00,-440.00,18384.00,-1680.00
26556,116.00,44.00,-239.00,1208.00,-332.00,18360.00,-1744.00
26572,113.00,36.00,-233.00,1256.00,-396.00,18376.00,-1680.00
26589,119.00,42.00,-232.00,1240.00,-328.00,18540.00,-1696.00
26605,131.00,65.00,-245.00,1240.00,-440.00,18400.00,-1696.00
26621,115.00,47.00,-208.00,1208.00,-424.00,18344.00,-1696.00
26638,135.00,57.00,-222.00,1216.00,-468.00,18488.00,-1680.00
26654,126.00,38.00,-204.00,1168.00,-472.00,18276.00,-1680.00
26672,109.00,49.00,-224.00,1244.00,-428.00,18356.00,-1728.00
26688,136.00,52.00,-202.00,1196.00,-364.00,18504.00,-1728.00
26704,117.00,90.00,-213.00,1088.00,-340.00,18436.00,-1712.00
26721,135.00,62.00,-208.00,1236.00,-452.00,18304.00,-1712.00
26737,117.00,58.00,-214.00,1312.00,-304.00,18424.00,-1680.00
26754,133.00,49.00,-215.00,1180.00,-336.00,18464.00,-1728.00
26770,134.00,59.00,-206.00,1236.00,-384.00,18480.00,-1696.00
26786,128.00,66.00,-211.00,1272.00,-400.00,18452.00,-1680.00
26803,101.00,65.00,-246.00,1252.00,-396.00,18408.00,-1712.00
26820,129.00,44.00,-233.00,1288.00,-436.00,18424.00,-1712.00
26836,128.00,24.00,-211.00,1292.00,-360.00,18352.00,-1728.00
26853,126.00,71.00,-219.00,1316.00,-384.00,18324.00,-1696.00
26869,133.00,46.00,-224.00,1216.00,-344.00,18212.00,-1696.00
26886,130.00,26.00,-223.00,1220.00,-420.00,18392.00,-1744.00
26902,126.00,49.00,-238.00,1240.00,-348.00,18476.00,-1712.00
26918,131.00,78.00,-236.00,1228.00,-420.00,18452.00,-1696.00
26935,111.00,68.00,-229.00,1108.00,-236.00,18452.00,-1728.00
26952,135.00,43.00,-235.00,1232.00,-372.00,18436.00,-1728.00
26969,131.00,37.00,-224.00,1228.00,-376.00,18392.00,-1712.00
26985,116.00,74.00,-230.00,1152.00,-352.00,18520.00,-1680.00
27001,108.00,56.00,-207.00,1176.00,-376.00,18388.00,-1696.00
