t,gx,gy,gz,ax,ay,az,temp
3,-46.00,42.00,-525.00,1776.00,676.00,17796.00,-768.00
19,26.00,226.00,-324.00,1812.00,652.00,17952.00,-784.00
35,111.00,279.00,-148.00,1800.00,504.00,18296.00,-768.00
52,73.00,119.00,-219.00,1920.00,152.00,18396.00,-784.00
67,69.00,53.00,-453.00,1804.00,264.00,18072.00,-768.00
83,96.00,119.00,-502.00,1952.00,344.00,18204.00,-768.00
100,292.00,166.00,-351.00,1956.00,576.00,18168.00,-768.00
116,355.00,217.00,-270.00,1836.00,664.00,18108.00,-768.00
133,122.00,120.00,-410.00,1728.00,536.00,18244.00,-800.00
149,-84.00,23.00,-472.00,1708.00,516.00,18292.00,-736.00
165,64.00,75.00,-187.00,1812.00,304.00,18104.00,-784.00
182,223.00,59.00,-234.00,1836.00,356.00,18156.00,-768.00
198,374.00,178.00,-395.00,1772.00,588.00,18152.00,-768.00
215,170.00,154.00,-525.00,1764.00,512.00,18236.00,-768.00
231,-71.00,-48.00,-370.00,1664.00,420.00,18380.00,-768.00
247,20.00,-40.00,-305.00,1724.00,672.00,17720.00,-784.00
264,133.00,231.00,-384.00,1824.00,728.00,17884.00,-768.00
280,169.00,316.00,-295.00,1744.00,424.00,17992.00,-768.00
296,68.00,206.00,-274.00,1628.00,340.00,18384.00,-768.00
313,152.00,135.00,-332.00,1672.00,356.00,18424.00,-784.00
329,382.00,122.00,-355.00,1860.00,352.00,18112.00,-784.00
346,526.00,306.00,-312.00,2008.00,676.00,18124.00,-784.00
362,380.00,292.00,-155.00,1768.00,612.00,18092.00,-784.00
378,-51.00,16.00,-170.00,1812.00,476.00,18216.00,-752.00
395,-239.00,-131.00,-399.00,1940.00,300.00,18184.00,-768.00
411,-16.00,35.00,-422.00,1932.00,436.00,18036.00,-768.00
428,344.00,255.00,-236.00,1972.00,284.00,18048.00,-768.00
444,280.00,171.00,-346.00,1772.00,516.00,18068.00,-752.00
460,7.00,-19.00,-554.00,1832.00,576.00,18124.00,-752.00
477,-70.00,-38.00,-653.00,1920.00,716.00,17960.00,-768.00
493,46.00,191.00,-459.00,1776.00,568.00,18108.00,-784.00
509,61.00,198.00,-175.00,1736.00,540.00,18192.00,-784.00
526,-179.00,-32.00,-328.00,1836.00,336.00,18068.00,-752.00
542,-545.00,-260.00,-634.00,1724.00,484.00,18096.00,-800.00
559,-781.00,-345.00,-764.00,1600.00,604.00,18096.00,-800.00
575,-12.00,166.00,-290.00,1972.00,548.00,17936.00,-784.00
591,590.00,465.00,176.00,1872.00,396.00,18300.00,-768.00
608,630.00,260.00,-123.00,1860.00,256.00,18488.00,-768.00
624,-188.00,-19.00,-494.00,2116.00,264.00,18404.00,-768.00
641,-350.00,-196.00,-721.00,2084.00,360.00,18048.00,-736.00
657,70.00,181.00,-442.00,1868.00,452.00,17888.00,-736.00
673,586.00,522.00,-55.00,1964.00,452.00,18132.00,-720.00
690,410.00,451.00,-48.00,1656.00,636.00,18252.00,-752.00
706,-199.00,385.00,-246.00,1652.00,576.00,18240.00,-768.00
722,-375.00,53.00,-337.00,1900.00,612.00,18056.00,-768.00
739,-455.00,177.00,-286.00,1836.00,464.00,18092.00,-768.00
755,-367.00,332.00,-191.00,1880.00,484.00,17988.00,-800.00
772,-719.00,112.00,-104.00,1728.00,300.00,18312.00,-768.00
788,-737.00,241.00,-413.00,1376.00,180.00,18220.00,-768.00
804,-473.00,243.00,-484.00,1716.00,336.00,18296.00,-768.00
821,115.00,292.00,-450.00,1772.00,248.00,18180.00,-768.00
838,406.00,264.00,-154.00,1724.00,208.00,18032.00,-768.00
855,324.00,106.00,-25.00,1876.00,96.00,18172.00,-768.00
870,357.00,219.00,-223.00,1800.00,424.00,18328.00,-784.00
886,474.00,388.00,-277.00,1800.00,412.00,18364.00,-784.00
904,440.00,329.00,-181.00,1664.00,348.00,18408.00,-784.00
920,203.00,62.00,-196.00,1588.00,112.00,18560.00,-752.00
935,-4.00,-134.00,-420.00,1772.00,420.00,18428.00,-736.00
952,158.00,-142.00,-477.00,1648.00,532.00,18152.00,-784.00
968,456.00,102.00,-286.00,1768.00,604.00,18044.00,-784.00
985,580.00,253.00,-38.00,1744.00,424.00,17928.00,-784.00
1001,405.00,172.00,22.00,1708.00,192.00,18068.00,-768.00
1017,121.00,28.00,-259.00,1704.00,160.00,18140.00,-736.00
1034,108.00,-65.00,-392.00,1872.00,236.00,17984.00,-736.00
1051,204.00,-2.00,-434.00,1776.00,576.00,18012.00,-768.00
1068,225.00,166.00,-351.00,1900.00,528.00,17780.00,-768.00
1084,49.00,299.00,-378.00,1784.00,596.00,18072.00,-768.00
1100,-14.00,330.00,-276.00,1748.00,500.00,18040.00,-800.00
1117,36.00,242.00,-166.00,1636.00,284.00,18232.00,-736.00
1133,238.00,172.00,-326.00,1496.00,352.00,18328.00,-768.00
1149,255.00,234.00,-292.00,1480.00,332.00,18224.00,-768.00
1166,81.00,219.00,-276.00,1692.00,360.00,18168.00,-768.00
1182,-134.00,84.00,-282.00,1708.00,196.00,18132.00,-768.00
1199,-92.00,40.00,-387.00,1552.00,248.00,18240.00,-768.00
1215,278.00,105.00,-380.00,1532.00,412.00,18300.00,-784.00
1231,704.00,263.00,-197.00,1712.00,620.00,18048.00,-752.00
1248,512.00,281.00,-124.00,1880.00,700.00,17968.00,-768.00
1264,-242.00,83.00,-178.00,2032.00,560.00,17912.00,-800.00
1281,-867.00,-104.00,-349.00,2004.00,-36.00,18004.00,-736.00
1297,-518.00,60.00,-560.00,2036.00,360.00,18120.00,-768.00
1313,318.00,657.00,-431.00,1728.00,516.00,18052.00,-800.00
1330,660.00,851.00,-196.00,1384.00,432.00,18468.00,-736.00
1346,130.00,550.00,-198.00,1352.00,424.00,18440.00,-752.00
1362,-465.00,-11.00,-524.00,1384.00,136.00,18608.00,-768.00
1379,-436.00,-389.00,-755.00,1632.00,136.00,18480.00,-784.00
1395,196.00,-77.00,-646.00,1888.00,364.00,18068.00,-752.00
1413,445.00,232.00,-118.00,1868.00,604.00,18076.00,-752.00
1429,151.00,-113.00,33.00,2024.00,292.00,18152.00,-784.00
1445,-330.00,23.00,-259.00,1928.00,-28.00,18332.00,-752.00
1462,-143.00,-206.00,-554.00,1840.00,-116.00,18020.00,-736.00
1478,337.00,-190.00,-470.00,1760.00,68.00,17960.00,-720.00
1495,345.00,280.00,-332.00,1916.00,128.00,17812.00,-768.00
1511,41.00,149.00,-525.00,1720.00,244.00,18076.00,-752.00
1527,-199.00,26.00,-705.00,1656.00,360.00,18120.00,-768.00
1544,-305.00,-128.00,-762.00,1756.00,120.00,18020.00,-752.00
1560,177.00,247.00,-679.00,1728.00,580.00,17820.00,-768.00
1576,643.00,719.00,-356.00,1708.00,428.00,18068.00,-784.00
1593,441.00,555.00,-171.00,1396.00,208.00,18364.00,-752.00
1609,-223.00,-81.00,-502.00,1312.00,-64.00,18768.00,-736.00
1626,-452.00,-455.00,-982.00,1580.00,264.00,18304.00,-784.00
1642,-192.00,-292.00,-888.00,1616.00,604.00,17968.00,-800.00
1658,423.00,252.00,-209.00,1880.00,672.00,17948.00,-736.00
1675,613.00,610.00,236.00,1708.00,608.00,18084.00,-768.00
1691,264.00,289.00,78.00,1592.00,-56.00,18348.00,-752.00
1708,-445.00,-322.00,-573.00,1520.00,-88.00,18744.00,-736.00
1725,-358.00,-438.00,-993.00,1836.00,284.00,18316.00,-768.00
1741,-94.00,-122.00,-561.00,1756.00,276.00,18024.00,-784.00
1758,215.00,147.00,46.00,1784.00,240.00,18172.00,-784.00
1774,299.00,168.00,41.00,1764.00,480.00,18100.00,-768.00
1790,-58.00,162.00,-371.00,1904.00,472.00,18232.00,-736.00
1807,-582.00,-6.00,-670.00,1744.00,412.00,18072.00,-736.00
1823,-819.00,-129.00,-502.00,1652.00,396.00,18100.00,-800.00
1840,-561.00,75.00,-185.00,1964.00,48.00,18012.00,-768.00
1856,-342.00,561.00,-176.00,1696.00,104.00,18128.00,-752.00
1872,229.00,1242.00,-561.00,1516.00,316.00,18532.00,-768.00
1889,604.00,1085.00,-782.00,1476.00,264.00,18116.00,-768.00
1905,403.00,1254.00,-524.00,1316.00,92.00,18304.00,-784.00
1922,-2.00,485.00,-497.00,1396.00,500.00,18124.00,-752.00
1938,-200.00,953.00,-531.00,896.00,48.00,17968.00,-752.00
1954,-408.00,-56.00,-685.00,1416.00,-120.00,18416.00,-736.00
1971,-329.00,-262.00,-653.00,1348.00,-20.00,18436.00,-768.00
1987,-103.00,-206.00,-320.00,1348.00,100.00,18356.00,-768.00
2003,375.00,133.00,-371.00,1532.00,-52.00,18376.00,-752.00
2020,893.00,310.00,-613.00,1580.00,172.00,18100.00,-752.00
2036,970.00,443.00,-646.00,1768.00,296.00,18180.00,-752.00
2054,693.00,258.00,-472.00,1716.00,172.00,18288.00,-752.00
2070,272.00,233.00,-616.00,1660.00,140.00,18404.00,-768.00
2086,232.00,142.00,-789.00,1504.00,128.00,18348.00,-768.00
2103,416.00,183.00,-1018.00,1484.00,8.00,18144.00,-800.00
2119,109.00,-98.00,101.00,1552.00,188.00,18228.00,-768.00
2136,536.00,432.00,369.00,1588.00,580.00,17824.00,-768.00
2152,873.00,483.00,-237.00,1320.00,496.00,18132.00,-768.00
2168,322.00,177.00,-444.00,1464.00,448.00,18280.00,-768.00
2185,-120.00,-80.00,-722.00,1616.00,280.00,18064.00,-768.00
2201,257.00,108.00,-754.00,1796.00,-12.00,18096.00,-736.00
2217,971.00,367.00,-618.00,1880.00,-120.00,18320.00,-768.00
2234,853.00,66.00,-195.00,1512.00,-4.00,18408.00,-768.00
2250,126.00,-528.00,270.00,1552.00,360.00,18424.00,-768.00
2267,-468.00,-854.00,364.00,1444.00,640.00,18080.00,-736.00
2283,-617.00,-879.00,225.00,1504.00,544.00,18004.00,-768.00
2299,37.00,-399.00,-232.00,1692.00,536.00,17816.00,-784.00
2316,560.00,-147.00,-583.00,1612.00,576.00,17972.00,-752.00
2332,80.00,-673.00,-434.00,1540.00,292.00,18056.00,-752.00
2349,-929.00,-1813.00,-240.00,1596.00,124.00,18364.00,-752.00
2366,-1419.00,-2253.00,-295.00,1840.00,152.00,18232.00,-768.00
2382,-1819.00,-1831.00,-226.00,1944.00,436.00,18492.00,-752.00
2399,-1822.00,-1282.00,-419.00,1676.00,60.00,18432.00,-736.00
2415,-1213.00,-847.00,-1198.00,2152.00,-204.00,18272.00,-784.00
2432,-92.00,132.00,-1390.00,2088.00,520.00,17784.00,-768.00
2448,231.00,1217.00,-1253.00,2512.00,48.00,17776.00,-784.00
2465,-787.00,163.00,-261.00,1804.00,180.00,18180.00,-768.00
2482,-1765.00,-388.00,139.00,1904.00,380.00,18260.00,-768.00
2498,-2164.00,377.00,295.00,1960.00,344.00,18156.00,-768.00
2514,-1695.00,1378.00,-584.00,1700.00,-736.00,18340.00,-784.00
2531,-652.00,1537.00,-1415.00,1980.00,-728.00,17876.00,-752.00
2547,246.00,1812.00,-1604.00,1844.00,-100.00,17784.00,-800.00
2564,338.00,1151.00,-1535.00,1708.00,-216.00,17932.00,-816.00
2581,-111.00,388.00,-976.00,1988.00,-616.00,18232.00,-736.00
2597,16.00,192.00,-731.00,2276.00,96.00,17736.00,-752.00
2614,328.00,1138.00,-751.00,2056.00,-108.00,18268.00,-768.00
2630,197.00,1526.00,-905.00,1584.00,-500.00,18328.00,-752.00
2647,-79.00,938.00,-1039.00,1384.00,-468.00,18440.00,-784.00
2663,-40.00,1094.00,-1158.00,1508.00,-84.00,18180.00,-768.00
2679,131.00,924.00,-823.00,1592.00,204.00,18444.00,-768.00
2696,-2177.00,-5780.00,2816.00,3992.00,-1796.00,19496.00,-768.00
2712,1688.00,-4779.00,282.00,592.00,-716.00,16836.00,-784.00
2729,1939.00,-1709.00,236.00,2624.00,-716.00,18288.00,-752.00
2746,3078.00,-1725.00,736.00,1804.00,-904.00,18292.00,-768.00
2762,2855.00,-74.00,-198.00,1536.00,296.00,18576.00,-768.00
2779,1894.00,146.00,-549.00,1528.00,740.00,18892.00,-736.00
2795,385.00,500.00,-1030.00,1912.00,644.00,18520.00,-752.00
2811,-605.00,515.00,-915.00,1996.00,224.00,18912.00,-800.00
2828,-770.00,949.00,-595.00,2424.00,-708.00,18596.00,-736.00
2845,-334.00,91.00,397.00,2668.00,-656.00,18088.00,-752.00
2862,97.00,-478.00,1017.00,2300.00,-288.00,18136.00,-768.00
2878,770.00,-774.00,1307.00,2308.00,552.00,18260.00,-752.00
2894,916.00,-1063.00,1204.00,2052.00,616.00,17988.00,-768.00
2911,1087.00,-1494.00,955.00,2036.00,172.00,17816.00,-784.00
2927,1247.00,-1337.00,914.00,1888.00,-88.00,18380.00,-736.00
2944,1019.00,-1262.00,1515.00,2324.00,-28.00,18740.00,-736.00
2960,787.00,-739.00,1599.00,1756.00,476.00,18192.00,-768.00
2977,177.00,-671.00,549.00,2108.00,828.00,18076.00,-752.00
2994,-1466.00,-1407.00,773.00,1524.00,748.00,18344.00,-720.00
3010,-3337.00,-2153.00,114.00,2236.00,-276.00,18440.00,-736.00
3026,-4219.00,-843.00,-1618.00,2632.00,-776.00,18552.00,-784.00
3043,-1464.00,-98.00,-1932.00,2380.00,60.00,18112.00,-752.00
3059,2114.00,1165.00,-414.00,2216.00,36.00,17592.00,-784.00
3076,4622.00,1492.00,1110.00,2096.00,80.00,18036.00,-768.00
3093,5137.00,1054.00,1468.00,2168.00,352.00,18444.00,-784.00
3109,4147.00,949.00,669.00,2080.00,368.00,18324.00,-752.00
3126,2711.00,308.00,114.00,2172.00,160.00,18096.00,-752.00
3142,1487.00,75.00,-276.00,2052.00,548.00,17924.00,-736.00
3159,80.00,-241.00,-189.00,2372.00,484.00,17508.00,-736.00
3175,-1783.00,-970.00,-297.00,2384.00,236.00,17584.00,-768.00
3191,-2746.00,-962.00,-599.00,2944.00,376.00,17708.00,-752.00
3209,-2043.00,-403.00,-763.00,2844.00,144.00,17380.00,-768.00
3225,-580.00,98.00,-683.00,2800.00,-176.00,17716.00,-752.00
3241,755.00,658.00,-670.00,2656.00,200.00,17796.00,-752.00
3258,862.00,688.00,-573.00,2396.00,420.00,17996.00,-752.00
3274,73.00,277.00,-565.00,2328.00,736.00,18144.00,-784.00
3291,-732.00,-54.00,-552.00,2352.00,672.00,18168.00,-784.00
3307,-986.00,-31.00,-644.00,2600.00,412.00,17944.00,-784.00
3323,-514.00,210.00,-494.00,2404.00,300.00,17900.00,-752.00
3340,15.00,457.00,-158.00,2240.00,-32.00,18268.00,-768.00
3356,678.00,500.00,57.00,1968.00,72.00,18292.00,-720.00
3373,636.00,263.00,-64.00,1984.00,148.00,18392.00,-768.00
3389,-184.00,-70.00,-494.00,2100.00,460.00,18324.00,-736.00
3405,-760.00,-71.00,-659.00,2164.00,552.00,18044.00,-768.00
3422,-806.00,-122.00,-288.00,2300.00,292.00,17936.00,-768.00
3438,-350.00,154.00,96.00,2476.00,52.00,18004.00,-752.00
3454,272.00,311.00,301.00,2556.00,-80.00,18200.00,-768.00
3471,631.00,471.00,104.00,2432.00,44.00,18300.00,-736.00
3487,604.00,488.00,-162.00,2308.00,0.00,18332.00,-768.00
3504,306.00,352.00,-160.00,2256.00,32.00,18280.00,-768.00
3520,125.00,64.00,-32.00,2128.00,-260.00,18480.00,-736.00
3536,47.00,-280.00,-254.00,2260.00,72.00,18396.00,-784.00
3553,-18.00,-382.00,-491.00,2532.00,396.00,17972.00,-768.00
3569,-69.00,-189.00,-304.00,2520.00,380.00,17812.00,-752.00
3586,255.00,76.00,8.00,2528.00,260.00,17872.00,-752.00
3602,630.00,191.00,172.00,2324.00,216.00,18036.00,-768.00
3618,748.00,192.00,-118.00,2504.00,152.00,17800.00,-736.00
3635,346.00,148.00,-429.00,2540.00,188.00,17904.00,-752.00
3651,-292.00,-64.00,-467.00,2504.00,212.00,18028.00,-752.00
3667,-505.00,-1.00,-458.00,2568.00,200.00,18044.00,-752.00
3684,-163.00,219.00,-433.00,2420.00,88.00,18148.00,-768.00
3700,380.00,261.00,-397.00,2356.00,-24.00,18196.00,-768.00
3718,502.00,239.00,-537.00,2320.00,256.00,18072.00,-768.00
3734,317.00,289.00,-549.00,2276.00,436.00,18204.00,-752.00
3750,-241.00,143.00,-344.00,2256.00,164.00,18332.00,-752.00
3767,-413.00,-2.00,-105.00,2404.00,140.00,18332.00,-752.00
3783,-152.00,39.00,-98.00,2356.00,-280.00,18240.00,-736.00
3800,372.00,182.00,-354.00,2368.00,-420.00,18192.00,-736.00
3816,711.00,163.00,-597.00,2368.00,120.00,18104.00,-768.00
3832,562.00,54.00,-719.00,2316.00,348.00,17948.00,-752.00
3849,-71.00,17.00,-523.00,2468.00,480.00,17780.00,-768.00
3865,-586.00,108.00,-371.00,2448.00,304.00,17752.00,-736.00
3881,-717.00,124.00,-276.00,2400.00,-224.00,18068.00,-736.00
3898,-390.00,117.00,-477.00,2328.00,-48.00,18332.00,-752.00
3914,178.00,227.00,-719.00,2108.00,424.00,18384.00,-768.00
3931,522.00,372.00,-591.00,2116.00,412.00,18428.00,-752.00
3947,571.00,341.00,-154.00,2076.00,176.00,18336.00,-752.00
3963,279.00,61.00,44.00,2064.00,104.00,18492.00,-800.00
3980,13.00,-187.00,-303.00,2172.00,124.00,18452.00,-752.00
3996,-92.00,-236.00,-616.00,2320.00,112.00,18124.00,-720.00
4013,-240.00,-307.00,-582.00,2312.00,112.00,18312.00,-784.00
4029,-145.00,-139.00,-251.00,2348.00,208.00,18004.00,-768.00
4046,342.00,244.00,76.00,2404.00,92.00,17936.00,-768.00
4063,720.00,391.00,92.00,2396.00,40.00,18112.00,-784.00
4078,607.00,267.00,-145.00,2252.00,-76.00,17964.00,-736.00
4096,143.00,-22.00,-510.00,2340.00,76.00,18028.00,-784.00
4112,-478.00,-206.00,-709.00,2392.00,48.00,18000.00,-800.00
4128,-486.00,-151.00,-510.00,2468.00,192.00,17980.00,-768.00
4145,323.00,293.00,-283.00,2452.00,276.00,17888.00,-768.00
4161,872.00,629.00,-97.00,2396.00,320.00,18196.00,-752.00
4177,725.00,386.00,-158.00,2292.00,336.00,18296.00,-768.00
4194,-111.00,-16.00,-393.00,2308.00,212.00,18276.00,-752.00
4210,-943.00,-432.00,-509.00,2336.00,84.00,17980.00,-768.00
4227,-877.00,-357.00,-473.00,2328.00,460.00,18116.00,-720.00
4243,-116.00,163.00,-357.00,2428.00,180.00,17968.00,-752.00
4259,730.00,366.00,57.00,2400.00,-68.00,18080.00,-752.00
4276,948.00,318.00,-74.00,2460.00,-52.00,18056.00,-800.00
4292,456.00,162.00,-421.00,2392.00,92.00,18152.00,-736.00
4308,-190.00,-91.00,-540.00,2444.00,64.00,18068.00,-736.00
4325,-231.00,45.00,-447.00,2424.00,328.00,17880.00,-768.00
4341,144.00,289.00,-54.00,2408.00,-36.00,18188.00,-768.00
4358,233.00,110.00,-69.00,2388.00,68.00,18324.00,-752.00
4374,-76.00,-10.00,-511.00,2416.00,252.00,18036.00,-752.00
4390,-342.00,-38.00,-671.00,2416.00,16.00,18052.00,-768.00
4407,-101.00,66.00,-487.00,2340.00,96.00,18008.00,-768.00
4423,444.00,303.00,-144.00,2388.00,292.00,18024.00,-752.00
4440,540.00,212.00,-99.00,2184.00,272.00,18204.00,-752.00
4456,156.00,88.00,-389.00,2388.00,500.00,17656.00,-784.00
4472,-284.00,250.00,-538.00,2408.00,264.00,17880.00,-752.00
4489,-208.00,330.00,-202.00,2360.00,-52.00,18172.00,-768.00
4505,47.00,206.00,28.00,2172.00,-348.00,18584.00,-736.00
4521,298.00,189.00,-382.00,2164.00,-108.00,18484.00,-752.00
4538,121.00,-35.00,-649.00,2244.00,-60.00,18468.00,-768.00
4554,-128.00,-159.00,-533.00,2276.00,200.00,18320.00,-784.00
4571,-200.00,-82.00,-278.00,2604.00,292.00,18140.00,-736.00
4587,266.00,246.00,-100.00,2744.00,156.00,17872.00,-768.00
4603,514.00,507.00,-141.00,2612.00,164.00,18016.00,-768.00
4621,441.00,516.00,-179.00,2512.00,-44.00,18200.00,-768.00
4637,0.00,30.00,-324.00,2348.00,-312.00,18432.00,-768.00
4654,-154.00,-234.00,-605.00,2420.00,124.00,18028.00,-752.00
4670,88.00,-43.00,-531.00,2680.00,644.00,17784.00,-752.00
4686,291.00,478.00,-198.00,2704.00,772.00,17652.00,-736.00
4703,-81.00,801.00,-128.00,2716.00,328.00,17572.00,-784.00
4719,-614.00,821.00,-404.00,2352.00,-468.00,18344.00,-752.00
4736,-582.00,459.00,-658.00,2008.00,-668.00,18832.00,-752.00
4752,303.00,534.00,-773.00,1868.00,-160.00,18648.00,-768.00
4768,926.00,652.00,-538.00,1832.00,4.00,18544.00,-736.00
4785,528.00,295.00,-386.00,1892.00,56.00,18484.00,-768.00
4801,-277.00,-204.00,-624.00,2192.00,256.00,18072.00,-768.00
4817,-712.00,-360.00,-855.00,2228.00,200.00,18016.00,-768.00
4834,-115.00,-31.00,-514.00,2436.00,76.00,18016.00,-736.00
4850,882.00,412.00,41.00,2380.00,140.00,18056.00,-768.00
4867,1259.00,651.00,144.00,2444.00,220.00,17960.00,-768.00
4883,588.00,264.00,-178.00,2332.00,-48.00,18092.00,-736.00
4899,-404.00,-321.00,-559.00,2172.00,-220.00,18156.00,-768.00
4916,-732.00,-501.00,-620.00,2316.00,-280.00,18040.00,-752.00
4933,-151.00,-315.00,-509.00,2368.00,-52.00,17812.00,-800.00
4950,-62.00,-508.00,-617.00,3392.00,196.00,18472.00,-736.00
4966,396.00,9.00,-313.00,2648.00,256.00,17868.00,-800.00
4982,221.00,147.00,-281.00,2364.00,-116.00,18064.00,-752.00
4999,249.00,63.00,-466.00,2184.00,96.00,18268.00,-752.00
5015,371.00,266.00,-559.00,2288.00,496.00,17996.00,-784.00
5031,106.00,405.00,-297.00,2256.00,304.00,17980.00,-752.00
5048,-418.00,187.00,-119.00,2128.00,60.00,18280.00,-784.00
5064,-538.00,-174.00,8.00,2192.00,-292.00,18356.00,-752.00
5081,-197.00,-209.00,-254.00,2112.00,-16.00,18564.00,-752.00
5097,443.00,120.00,-399.00,2264.00,36.00,18512.00,-736.00
5113,745.00,228.00,-277.00,2336.00,-4.00,18532.00,-768.00
5130,490.00,93.00,-158.00,2268.00,140.00,18244.00,-768.00
5146,63.00,38.00,-157.00,2376.00,96.00,18152.00,-768.00
5163,-71.00,-119.00,-179.00,2356.00,28.00,18192.00,-752.00
5179,322.00,-122.00,-105.00,2504.00,-44.00,18036.00,-736.00
5195,571.00,51.00,-293.00,2472.00,276.00,18096.00,-768.00
5212,397.00,135.00,-479.00,2504.00,284.00,17944.00,-768.00
5228,170.00,124.00,-309.00,2544.00,168.00,18028.00,-768.00
5244,241.00,150.00,-124.00,2492.00,156.00,17764.00,-800.00
5261,417.00,148.00,-217.00,2380.00,136.00,17912.00,-736.00
5277,108.00,47.00,-507.00,2312.00,-8.00,17940.00,-768.00
5294,-117.00,52.00,-485.00,2420.00,0.00,17896.00,-736.00
5310,-1.00,190.00,-210.00,2472.00,-12.00,17928.00,-768.00
5326,372.00,275.00,-73.00,2172.00,140.00,18228.00,-768.00
5343,480.00,348.00,-262.00,2268.00,72.00,18232.00,-784.00
5359,265.00,195.00,-382.00,2172.00,-92.00,18268.00,-752.00
5376,0.00,15.00,-371.00,2100.00,-52.00,18368.00,-784.00
5392,128.00,-118.00,-244.00,2220.00,72.00,18440.00,-768.00
5408,540.00,13.00,-210.00,2240.00,384.00,18240.00,-768.00
5425,585.00,72.00,-209.00,2356.00,340.00,17820.00,-752.00
5441,207.00,63.00,-247.00,2368.00,440.00,18192.00,-784.00
5457,-236.00,-44.00,-303.00,2368.00,216.00,18236.00,-752.00
5474,-82.00,-115.00,-303.00,2364.00,20.00,18164.00,-752.00
5490,494.00,132.00,-146.00,2328.00,-44.00,18108.00,-768.00
5507,757.00,141.00,-115.00,2532.00,212.00,17944.00,-768.00
5523,510.00,145.00,-282.00,2652.00,428.00,17804.00,-768.00
5539,-42.00,148.00,-434.00,2544.00,324.00,17708.00,-752.00
5556,-347.00,84.00,-439.00,2336.00,64.00,17956.00,-752.00
5572,-93.00,67.00,-446.00,2428.00,80.00,17984.00,-736.00
5588,333.00,290.00,-456.00,2244.00,24.00,18184.00,-752.00
5605,497.00,311.00,-303.00,2144.00,232.00,18124.00,-752.00
5621,279.00,189.00,-261.00,2188.00,224.00,18340.00,-752.00
5638,-189.00,-101.00,-288.00,2312.00,24.00,18260.00,-768.00
5654,-371.00,-233.00,-535.00,2496.00,204.00,18116.00,-768.00
5670,-261.00,-140.00,-709.00,2456.00,156.00,17932.00,-768.00
5687,260.00,207.00,-331.00,2424.00,176.00,18164.00,-784.00
5704,640.00,311.00,-40.00,2312.00,100.00,18092.00,-752.00
5721,555.00,243.00,-275.00,2156.00,60.00,18400.00,-784.00
5737,222.00,-17.00,-563.00,2164.00,248.00,18144.00,-784.00
5753,-28.00,-123.00,-642.00,2216.00,396.00,18252.00,-752.00
5770,22.00,-32.00,-325.00,2348.00,496.00,17836.00,-784.00
5786,240.00,99.00,-106.00,2528.00,360.00,17820.00,-800.00
5803,265.00,230.00,-169.00,2436.00,284.00,17932.00,-768.00
5819,-1.00,165.00,-324.00,2408.00,64.00,18240.00,-736.00
5835,-181.00,3.00,-427.00,2356.00,68.00,18364.00,-784.00
5852,-220.00,29.00,-291.00,2388.00,48.00,18232.00,-768.00
5868,94.00,60.00,-207.00,2332.00,-32.00,18496.00,-768.00
5883,384.00,136.00,-273.00,2420.00,-44.00,18348.00,-752.00
5900,378.00,-20.00,-506.00,2152.00,-8.00,18308.00,-752.00
5916,487.00,59.00,-543.00,2460.00,416.00,18056.00,-704.00
5933,598.00,218.00,-166.00,2228.00,476.00,18156.00,-768.00
5950,390.00,-25.00,-221.00,2264.00,484.00,17924.00,-736.00
5966,-193.00,-118.00,-374.00,2348.00,444.00,18100.00,-768.00
5983,-107.00,-76.00,-218.00,2592.00,236.00,17976.00,-736.00
5999,79.00,42.00,-201.00,2488.00,436.00,17692.00,-768.00
6016,218.00,169.00,-404.00,2548.00,200.00,17776.00,-768.00
6032,396.00,422.00,-155.00,2448.00,-8.00,18164.00,-768.00
6048,531.00,368.00,41.00,2356.00,16.00,18292.00,-752.00
6065,180.00,58.00,-345.00,2404.00,168.00,18124.00,-720.00
6081,-299.00,-254.00,-790.00,2336.00,-64.00,18336.00,-768.00
6097,-142.00,-254.00,-628.00,2452.00,188.00,18232.00,-752.00
6114,199.00,-147.00,-353.00,2368.00,524.00,18028.00,-752.00
6130,77.00,104.00,-376.00,2364.00,380.00,18020.00,-784.00
6147,342.00,182.00,-123.00,2628.00,-84.00,18236.00,-784.00
6163,757.00,217.00,-15.00,2380.00,172.00,18160.00,-752.00
6179,680.00,194.00,-395.00,2496.00,236.00,18044.00,-736.00
6196,-177.00,-65.00,-601.00,2376.00,80.00,18212.00,-752.00
6212,-66.00,-74.00,-480.00,2636.00,284.00,18068.00,-768.00
6228,594.00,274.00,-264.00,2444.00,308.00,17900.00,-768.00
6245,730.00,293.00,-290.00,2320.00,168.00,18180.00,-768.00
6261,18.00,-62.00,-474.00,2452.00,96.00,18132.00,-752.00
6278,-316.00,-296.00,-509.00,2488.00,492.00,17916.00,-736.00
6294,-4.00,-123.00,-335.00,2720.00,324.00,17812.00,-752.00
6310,442.00,248.00,-221.00,2524.00,132.00,17968.00,-736.00
6327,339.00,350.00,-370.00,2408.00,164.00,17872.00,-752.00
6343,102.00,104.00,-625.00,2292.00,228.00,18256.00,-736.00
6360,220.00,94.00,-468.00,2432.00,296.00,18136.00,-752.00
6376,343.00,31.00,-173.00,2376.00,388.00,18028.00,-784.00
6392,218.00,-78.00,-281.00,2440.00,440.00,18172.00,-784.00
6410,-247.00,-181.00,-482.00,2340.00,464.00,18300.00,-800.00
6426,-154.00,-157.00,-457.00,2516.00,288.00,18000.00,-752.00
6443,217.00,62.00,-227.00,2408.00,496.00,18004.00,-736.00
6459,550.00,291.00,-80.00,2456.00,468.00,18040.00,-752.00
6475,369.00,204.00,-60.00,2432.00,324.00,18268.00,-720.00
6492,122.00,62.00,-248.00,2388.00,200.00,17924.00,-752.00
6508,-165.00,-1.00,-568.00,2332.00,368.00,18216.00,-768.00
6524,-301.00,-14.00,-573.00,2344.00,180.00,18116.00,-736.00
6541,-170.00,-6.00,-388.00,2320.00,172.00,18384.00,-768.00
6557,233.00,41.00,-226.00,2640.00,76.00,18004.00,-768.00
6574,651.00,248.00,-231.00,2512.00,92.00,18216.00,-752.00
6590,642.00,266.00,-157.00,2524.00,124.00,18348.00,-720.00
6606,269.00,23.00,-338.00,2536.00,144.00,18096.00,-752.00
6623,-79.00,-71.00,-636.00,2540.00,424.00,17888.00,-752.00
6639,-229.00,-9.00,-714.00,2536.00,400.00,17912.00,-752.00
6656,-121.00,211.00,-447.00,2308.00,540.00,18048.00,-768.00
6672,182.00,226.00,-141.00,2376.00,356.00,18024.00,-768.00
6688,457.00,181.00,-157.00,2296.00,212.00,18224.00,-784.00
6705,662.00,171.00,-341.00,2200.00,464.00,17956.00,-784.00
6721,544.00,138.00,-384.00,2360.00,632.00,17896.00,-784.00
6737,332.00,137.00,-308.00,2412.00,708.00,17900.00,-784.00
6754,93.00,108.00,-71.00,2556.00,324.00,17924.00,-784.00
6770,54.00,128.00,-77.00,2448.00,500.00,18088.00,-784.00
6787,196.00,216.00,-100.00,2492.00,328.00,18188.00,-736.00
6803,268.00,164.00,-162.00,2440.00,176.00,18236.00,-752.00
6819,159.00,6.00,-285.00,2364.00,-172.00,18128.00,-752.00
6836,-31.00,-58.00,-349.00,2508.00,140.00,18208.00,-736.00
6852,-38.00,-2.00,-370.00,2616.00,116.00,18116.00,-768.00
6868,289.00,124.00,-329.00,2620.00,544.00,18064.00,-784.00
6885,491.00,244.00,-266.00,2580.00,524.00,17888.00,-752.00
6901,254.00,222.00,-304.00,2448.00,628.00,17920.00,-736.00
6919,-174.00,30.00,-308.00,2416.00,504.00,18076.00,-736.00
6935,-220.00,-17.00,-272.00,2536.00,468.00,18124.00,-800.00
6951,-20.00,100.00,-306.00,2436.00,508.00,18096.00,-768.00
6968,149.00,134.00,-254.00,2408.00,264.00,18208.00,-784.00
6984,91.00,172.00,-285.00,2496.00,216.00,18300.00,-736.00
7001,105.00,119.00,-305.00,2552.00,-52.00,18172.00,-752.00
7017,212.00,119.00,-349.00,2532.00,36.00,18184.00,-752.00
7033,201.00,79.00,-407.00,2544.00,332.00,18260.00,-784.00
7050,102.00,94.00,-461.00,2560.00,456.00,18136.00,-784.00
7066,45.00,83.00,-402.00,2472.00,476.00,18028.00,-784.00
7083,65.00,35.00,-330.00,2420.00,364.00,18088.00,-768.00
7099,127.00,116.00,-335.00,2392.00,464.00,18012.00,-752.00
7115,67.00,105.00,-342.00,2388.00,444.00,18196.00,-768.00
7132,133.00,99.00,-294.00,2340.00,556.00,18112.00,-720.00
7148,96.00,4.00,-279.00,2392.00,272.00,18140.00,-752.00
7164,66.00,-32.00,-282.00,2492.00,316.00,18056.00,-736.00
7181,171.00,173.00,-254.00,2528.00,560.00,18036.00,-736.00
7197,310.00,238.00,-47.00,2368.00,460.00,18056.00,-768.00
7214,244.00,174.00,-97.00,2416.00,248.00,18228.00,-768.00
7230,120.00,99.00,-256.00,2604.00,276.00,17840.00,-720.00
7246,21.00,-43.00,-367.00,2512.00,216.00,18176.00,-752.00
7263,43.00,39.00,-402.00,2508.00,520.00,17888.00,-736.00
7279,140.00,150.00,-277.00,2596.00,316.00,18024.00,-736.00
7296,102.00,158.00,-280.00,2488.00,324.00,18112.00,-768.00
7312,125.00,226.00,-331.00,2508.00,244.00,18048.00,-768.00
7328,171.00,185.00,-245.00,2476.00,84.00,18224.00,-768.00
7345,76.00,70.00,-337.00,2432.00,224.00,18168.00,-768.00
7361,-10.00,-21.00,-588.00,2344.00,372.00,18156.00,-768.00
7377,31.00,-67.00,-528.00,2428.00,448.00,18092.00,-752.00
7394,355.00,249.00,-123.00,2484.00,504.00,17960.00,-784.00
7410,468.00,247.00,67.00,2436.00,184.00,18160.00,-752.00
7427,292.00,69.00,-274.00,2556.00,360.00,18164.00,-752.00
7443,61.00,54.00,-495.00,2584.00,460.00,18124.00,-736.00
7459,40.00,110.00,-360.00,2368.00,528.00,18124.00,-768.00
7476,196.00,136.00,-55.00,2392.00,232.00,18088.00,-768.00
7492,174.00,31.00,-141.00,2432.00,160.00,18200.00,-736.00
7508,51.00,-76.00,-525.00,2476.00,488.00,18176.00,-752.00
7525,189.00,104.00,-493.00,2528.00,416.00,18016.00,-752.00
7541,428.00,215.00,-182.00,2560.00,224.00,18084.00,-752.00
7558,514.00,278.00,-115.00,2596.00,504.00,18016.00,-720.00
7574,305.00,238.00,-232.00,2568.00,516.00,18184.00,-800.00
7590,-95.00,32.00,-309.00,2384.00,408.00,18096.00,-768.00
7607,-182.00,-81.00,-352.00,2536.00,288.00,18056.00,-752.00
7623,114.00,84.00,-260.00,2456.00,504.00,18100.00,-784.00
7640,425.00,233.00,-120.00,2496.00,380.00,17992.00,-752.00
7657,386.00,229.00,-196.00,2496.00,148.00,18152.00,-752.00
7673,-17.00,-25.00,-405.00,2512.00,172.00,18200.00,-768.00
7690,-252.00,-115.00,-588.00,2608.00,308.00,18156.00,-752.00
7706,-227.00,-84.00,-497.00,2540.00,444.00,17956.00,-752.00
7723,43.00,94.00,-248.00,2640.00,472.00,18212.00,-752.00
7739,191.00,112.00,-168.00,2468.00,372.00,18028.00,-768.00
7755,118.00,109.00,-348.00,2516.00,376.00,18144.00,-752.00
7772,11.00,76.00,-412.00,2564.00,352.00,18052.00,-752.00
7788,-6.00,54.00,-330.00,2400.00,460.00,18184.00,-768.00
7804,146.00,-32.00,-251.00,2512.00,344.00,18044.00,-752.00
7821,132.00,59.00,-326.00,2628.00,420.00,18084.00,-752.00
7837,-129.00,66.00,-391.00,2512.00,336.00,18036.00,-752.00
7854,-203.00,6.00,-290.00,2412.00,188.00,18024.00,-784.00
7870,-35.00,-45.00,-222.00,2512.00,196.00,18200.00,-768.00
7886,317.00,41.00,-379.00,2540.00,340.00,18200.00,-768.00
7903,522.00,244.00,-450.00,2656.00,564.00,17696.00,-736.00
7919,241.00,274.00,-286.00,2544.00,568.00,17924.00,-768.00
7936,-216.00,133.00,-209.00,2348.00,412.00,18284.00,-768.00
7952,-416.00,-97.00,-346.00,2484.00,324.00,18320.00,-768.00
7968,-157.00,-128.00,-481.00,2544.00,272.00,18124.00,-736.00
7985,-8.00,51.00,-489.00,2312.00,620.00,18116.00,-752.00
8001,295.00,188.00,-257.00,2404.00,444.00,18024.00,-736.00
8017,431.00,216.00,-40.00,2496.00,396.00,18000.00,-768.00
8034,298.00,144.00,-114.00,2520.00,372.00,18084.00,-768.00
8050,13.00,8.00,-209.00,2628.00,216.00,17996.00,-736.00
8067,-192.00,-84.00,-336.00,2508.00,280.00,18064.00,-720.00
8083,-147.00,-112.00,-311.00,2776.00,224.00,18008.00,-784.00
8099,45.00,44.00,-355.00,2632.00,444.00,18308.00,-768.00
8116,302.00,284.00,-285.00,2668.00,244.00,18008.00,-784.00
8132,406.00,290.00,-266.00,2372.00,332.00,18272.00,-768.00
8148,359.00,236.00,-385.00,2492.00,188.00,18168.00,-768.00
8165,177.00,113.00,-468.00,2460.00,384.00,18184.00,-768.00
8182,44.00,50.00,-484.00,2532.00,344.00,18076.00,-768.00
8199,-28.00,33.00,-337.00,2480.00,356.00,18180.00,-736.00
8215,25.00,9.00,-327.00,2692.00,396.00,17940.00,-752.00
8230,49.00,74.00,-345.00,2520.00,460.00,18072.00,-752.00
8247,290.00,286.00,-293.00,2580.00,324.00,17992.00,-736.00
8264,549.00,412.00,-80.00,2600.00,252.00,18008.00,-784.00
8281,411.00,280.00,-65.00,2524.00,76.00,18344.00,-768.00
8297,5.00,-29.00,-259.00,2704.00,128.00,18280.00,-768.00
8312,-285.00,-73.00,-560.00,2740.00,328.00,18180.00,-784.00
8330,-74.00,61.00,-463.00,2700.00,240.00,18164.00,-752.00
8345,281.00,182.00,-275.00,2580.00,224.00,18120.00,-752.00
8363,406.00,182.00,-268.00,2652.00,260.00,18220.00,-784.00
8379,335.00,115.00,-439.00,2536.00,480.00,18116.00,-784.00
8395,32.00,34.00,-497.00,2592.00,556.00,17996.00,-752.00
8412,-41.00,35.00,-411.00,2432.00,612.00,18188.00,-752.00
8428,149.00,150.00,-260.00,2392.00,660.00,17880.00,-768.00
8444,403.00,241.00,-180.00,2376.00,364.00,18092.00,-752.00
8461,335.00,129.00,-161.00,2632.00,496.00,18084.00,-784.00
8477,6.00,28.00,-321.00,2512.00,580.00,18052.00,-752.00
8494,-278.00,28.00,-365.00,2572.00,392.00,18168.00,-736.00
8510,-198.00,44.00,-202.00,2568.00,96.00,18084.00,-768.00
8526,203.00,84.00,-128.00,2692.00,176.00,18172.00,-752.00
8543,432.00,205.00,-232.00,2708.00,148.00,18152.00,-752.00
8559,309.00,309.00,-439.00,2656.00,400.00,18232.00,-768.00
8576,123.00,259.00,-297.00,2488.00,208.00,18200.00,-736.00
8592,159.00,137.00,-163.00,2440.00,172.00,18344.00,-736.00
8608,280.00,4.00,-357.00,2460.00,308.00,18420.00,-736.00
8625,174.00,-48.00,-547.00,2544.00,524.00,18076.00,-736.00
8641,-83.00,-132.00,-510.00,2516.00,604.00,18040.00,-768.00
8657,-158.00,-66.00,-314.00,2656.00,476.00,18016.00,-800.00
8674,-12.00,30.00,-204.00,2636.00,312.00,17960.00,-768.00
8690,132.00,88.00,-262.00,2664.00,436.00,18124.00,-752.00
8707,49.00,-23.00,-391.00,2540.00,200.00,18356.00,-752.00
8723,-22.00,-72.00,-434.00,2472.00,428.00,17900.00,-768.00
8739,113.00,29.00,-288.00,2512.00,184.00,18000.00,-768.00
8756,295.00,105.00,-200.00,2548.00,156.00,18044.00,-800.00
8772,217.00,43.00,-290.00,2640.00,152.00,17972.00,-768.00
8788,41.00,106.00,-492.00,2544.00,376.00,18168.00,-768.00
8805,-125.00,144.00,-454.00,2600.00,384.00,18212.00,-768.00
8821,66.00,216.00,-246.00,2516.00,288.00,18084.00,-768.00
8838,450.00,315.00,-315.00,2396.00,316.00,18132.00,-736.00
8854,551.00,282.00,-399.00,2396.00,364.00,17968.00,-768.00
8871,285.00,149.00,-443.00,2348.00,544.00,18140.00,-752.00
8888,23.00,139.00,-356.00,2528.00,636.00,18064.00,-752.00
8904,8.00,216.00,-272.00,2456.00,348.00,18188.00,-784.00
8921,329.00,230.00,-105.00,2504.00,216.00,18216.00,-736.00
8937,383.00,114.00,-236.00,2592.00,324.00,18200.00,-752.00
8953,43.00,-17.00,-442.00,2552.00,308.00,18144.00,-752.00
8970,-120.00,-49.00,-454.00,2624.00,480.00,18160.00,-768.00
8986,39.00,80.00,-324.00,2540.00,500.00,18176.00,-768.00
9003,335.00,229.00,-125.00,2644.00,196.00,18284.00,-736.00
9019,447.00,92.00,-223.00,2548.00,44.00,18016.00,-768.00
9035,273.00,32.00,-526.00,2696.00,456.00,17972.00,-752.00
9052,43.00,157.00,-660.00,2512.00,528.00,17948.00,-752.00
9068,2.00,143.00,-434.00,2520.00,452.00,17980.00,-752.00
9084,45.00,82.00,-299.00,2624.00,368.00,18212.00,-768.00
9101,238.00,157.00,-367.00,2416.00,292.00,18112.00,-768.00
9117,339.00,96.00,-503.00,2584.00,464.00,18136.00,-800.00
9134,350.00,170.00,-530.00,2444.00,580.00,18064.00,-736.00
9150,225.00,113.00,-320.00,2488.00,396.00,18120.00,-736.00
9166,-20.00,-45.00,-266.00,2576.00,288.00,18048.00,-768.00
9183,-29.00,-54.00,-394.00,2612.00,352.00,18200.00,-768.00
9199,286.00,144.00,-477.00,2624.00,500.00,17956.00,-752.00
9216,245.00,183.00,-345.00,2540.00,464.00,17880.00,-736.00
9232,-101.00,96.00,-244.00,2608.00,444.00,18244.00,-736.00
9248,-168.00,62.00,-241.00,2560.00,192.00,18236.00,-800.00
9265,171.00,185.00,-288.00,2452.00,184.00,18152.00,-736.00
9281,395.00,227.00,-312.00,2612.00,288.00,18116.00,-768.00
9297,273.00,78.00,-333.00,2664.00,424.00,18172.00,-736.00
9314,37.00,-20.00,-454.00,2592.00,516.00,18200.00,-768.00
9330,162.00,85.00,-405.00,2624.00,580.00,17968.00,-736.00
9347,400.00,264.00,-184.00,2576.00,764.00,17944.00,-768.00
9363,379.00,398.00,-90.00,2608.00,560.00,17948.00,-768.00
9379,57.00,139.00,-125.00,2524.00,168.00,18240.00,-800.00
9396,-192.00,-160.00,-472.00,2636.00,148.00,18216.00,-768.00
9413,-207.00,-122.00,-638.00,2680.00,256.00,18072.00,-800.00
9430,135.00,85.00,-345.00,2768.00,316.00,18112.00,-736.00
9446,288.00,136.00,-132.00,2684.00,596.00,18064.00,-768.00
9462,-76.00,57.00,-429.00,2728.00,576.00,18008.00,-752.00
9479,-362.00,-153.00,-680.00,2676.00,496.00,17936.00,-768.00
9495,-108.00,126.00,-633.00,2856.00,556.00,17764.00,-752.00
9511,435.00,473.00,-285.00,2680.00,416.00,18124.00,-784.00
9528,645.00,426.00,-143.00,2532.00,536.00,18180.00,-752.00
9544,439.00,313.00,-249.00,2520.00,592.00,18220.00,-768.00
9561,95.00,46.00,-397.00,2528.00,432.00,18288.00,-768.00
9577,-72.00,-3.00,-284.00,2556.00,292.00,18152.00,-720.00
9593,208.00,167.00,-190.00,2712.00,232.00,18076.00,-752.00
9610,365.00,294.00,-226.00,2620.00,272.00,18188.00,-752.00
9626,161.00,158.00,-268.00,2516.00,-124.00,18352.00,-752.00
9643,-57.00,-139.00,-442.00,2448.00,68.00,18480.00,-768.00
9659,202.00,-102.00,-590.00,2688.00,300.00,17856.00,-720.00
9675,504.00,196.00,-461.00,2588.00,496.00,17860.00,-736.00
9692,265.00,253.00,-234.00,2500.00,668.00,17888.00,-768.00
9709,-79.00,247.00,-292.00,2440.00,520.00,18164.00,-800.00
9725,-80.00,13.00,-456.00,2212.00,360.00,18476.00,-736.00
9742,123.00,-97.00,-372.00,2372.00,724.00,18332.00,-768.00
9758,326.00,38.00,-293.00,2628.00,716.00,18016.00,-768.00
9775,179.00,-19.00,-63.00,2476.00,596.00,18328.00,-768.00
9791,87.00,72.00,-16.00,2608.00,460.00,17884.00,-752.00
9806,64.00,51.00,-22.00,2624.00,348.00,18128.00,-768.00
9823,80.00,-60.00,-177.00,2556.00,288.00,18176.00,-784.00
9839,66.00,-196.00,-255.00,2616.00,412.00,18040.00,-784.00
9856,15.00,-148.00,-300.00,2808.00,304.00,18000.00,-752.00
9872,84.00,58.00,-286.00,2792.00,552.00,18036.00,-752.00
9888,255.00,174.00,-226.00,2692.00,228.00,17984.00,-736.00
9906,324.00,209.00,-123.00,2484.00,120.00,18192.00,-784.00
9922,220.00,43.00,-238.00,2448.00,388.00,18256.00,-784.00
9938,133.00,-86.00,-329.00,2736.00,316.00,17940.00,-784.00
9955,208.00,89.00,-310.00,2628.00,500.00,17900.00,-752.00
9971,296.00,222.00,-138.00,2656.00,408.00,17908.00,-752.00
9988,286.00,214.00,-182.00,2712.00,268.00,17920.00,-752.00
10004,95.00,143.00,-366.00,2788.00,328.00,17964.00,-784.00
10020,-75.00,53.00,-622.00,2660.00,408.00,18124.00,-736.00
10037,1.00,144.00,-673.00,2624.00,568.00,17960.00,-784.00
10053,286.00,278.00,-370.00,2508.00,460.00,18096.00,-752.00
10070,499.00,391.00,-197.00,2540.00,512.00,18280.00,-736.00
10086,431.00,258.00,-296.00,2464.00,316.00,18120.00,-784.00
10102,65.00,17.00,-478.00,2368.00,424.00,18344.00,-768.00
10119,-9.00,-84.00,-440.00,2596.00,556.00,18016.00,-752.00
10135,314.00,114.00,-144.00,2572.00,712.00,17936.00,-752.00
10151,418.00,158.00,14.00,2712.00,504.00,17924.00,-736.00
10168,93.00,94.00,-234.00,2596.00,464.00,17972.00,-768.00
10184,-174.00,-37.00,-316.00,2760.00,280.00,18024.00,-768.00
10202,62.00,120.00,-259.00,2696.00,388.00,18044.00,-736.00
10218,383.00,265.00,-184.00,2664.00,368.00,18016.00,-768.00
10234,361.00,199.00,-306.00,2572.00,436.00,18060.00,-736.00
10251,36.00,116.00,-414.00,2612.00,648.00,18068.00,-784.00
10267,-178.00,-8.00,-475.00,2420.00,424.00,18052.00,-736.00
10284,-91.00,14.00,-386.00,2528.00,560.00,18192.00,-768.00
10300,193.00,161.00,-237.00,2556.00,540.00,18076.00,-752.00
10316,153.00,239.00,-225.00,2472.00,584.00,18176.00,-736.00
10333,-9.00,89.00,-278.00,2468.00,468.00,18196.00,-752.00
10349,174.00,88.00,-285.00,2628.00,356.00,18120.00,-800.00
10365,281.00,86.00,-246.00,2652.00,404.00,18056.00,-768.00
10382,122.00,2.00,-216.00,2596.00,524.00,17836.00,-752.00
10398,5.00,86.00,-347.00,2788.00,572.00,17908.00,-768.00
10415,132.00,168.00,-292.00,2712.00,412.00,17936.00,-800.00
10431,327.00,210.00,-151.00,2640.00,364.00,18076.00,-752.00
10448,264.00,198.00,-116.00,2624.00,464.00,18256.00,-784.00
10465,26.00,124.00,-307.00,2676.00,304.00,18192.00,-736.00
10481,-190.00,-109.00,-444.00,2556.00,420.00,18376.00,-768.00
10498,9.00,-124.00,-403.00,2716.00,272.00,18096.00,-784.00
10514,182.00,-29.00,-226.00,2772.00,480.00,17932.00,-736.00
10530,183.00,95.00,-250.00,2696.00,500.00,17888.00,-784.00
10547,28.00,41.00,-309.00,2656.00,688.00,17980.00,-752.00
10563,-34.00,-26.00,-489.00,2572.00,504.00,18028.00,-720.00
10579,69.00,33.00,-454.00,2732.00,472.00,17964.00,-768.00
10596,286.00,202.00,-288.00,2528.00,448.00,17968.00,-752.00
10612,316.00,330.00,-188.00,2424.00,516.00,18204.00,-784.00
10629,221.00,167.00,-245.00,2612.00,376.00,18292.00,-768.00
10645,-86.00,-81.00,-549.00,2612.00,524.00,18264.00,-752.00
10661,-26.00,-10.00,-506.00,2640.00,552.00,18124.00,-752.00
10678,143.00,136.00,-210.00,2556.00,444.00,18044.00,-752.00
10695,0.00,45.00,-149.00,2776.00,316.00,18124.00,-784.00
10711,-108.00,-30.00,-408.00,2672.00,340.00,18252.00,-768.00
10728,-141.00,-83.00,-604.00,2552.00,304.00,18252.00,-752.00
10744,21.00,-128.00,-463.00,2544.00,456.00,18084.00,-784.00
10761,183.00,-10.00,-500.00,2444.00,664.00,17932.00,-752.00
10777,287.00,67.00,-469.00,2520.00,876.00,17448.00,-736.00
10793,216.00,260.00,-481.00,2320.00,1072.00,17516.00,-736.00
10810,-41.00,223.00,-118.00,2324.00,716.00,17784.00,-752.00
10826,-505.00,18.00,-114.00,2580.00,760.00,17992.00,-752.00
10843,-552.00,-33.00,-355.00,2600.00,628.00,17976.00,-768.00
10859,-471.00,269.00,-220.00,2548.00,400.00,18408.00,-768.00
10875,-77.00,153.00,221.00,2596.00,-32.00,18492.00,-752.00
10892,467.00,326.00,249.00,2484.00,-16.00,18356.00,-752.00
10908,753.00,412.00,22.00,2296.00,296.00,18548.00,-720.00
10926,714.00,376.00,-161.00,2420.00,448.00,18392.00,-752.00
10942,386.00,5.00,-37.00,2564.00,528.00,18100.00,-768.00
10958,-120.00,-178.00,-40.00,2716.00,528.00,17856.00,-752.00
10975,-356.00,-119.00,-165.00,3016.00,292.00,18152.00,-736.00
10991,-320.00,22.00,-130.00,3008.00,172.00,18164.00,-768.00
11008,60.00,183.00,-108.00,2956.00,72.00,18084.00,-736.00
11024,751.00,647.00,7.00,2948.00,-12.00,18240.00,-736.00
11040,1084.00,715.00,392.00,2888.00,68.00,18232.00,-768.00
11057,821.00,516.00,13.00,2568.00,240.00,18412.00,-768.00
11073,188.00,168.00,-444.00,2444.00,300.00,18108.00,-736.00
11089,-222.00,-120.00,-396.00,2340.00,212.00,18132.00,-752.00
11106,-69.00,-49.00,-127.00,2492.00,384.00,17864.00,-768.00
11122,443.00,202.00,-8.00,2580.00,484.00,17936.00,-768.00
11139,775.00,352.00,-100.00,2788.00,632.00,17788.00,-736.00
11155,304.00,242.00,-330.00,2756.00,632.00,18000.00,-768.00
11172,-390.00,100.00,-437.00,2840.00,348.00,18180.00,-752.00
11189,-566.00,-43.00,-361.00,2656.00,56.00,18204.00,-768.00
11205,-123.00,-18.00,-464.00,2752.00,188.00,18300.00,-768.00
11222,457.00,164.00,-537.00,2812.00,416.00,17932.00,-768.00
11238,484.00,252.00,-406.00,2804.00,592.00,17988.00,-784.00
11254,79.00,139.00,-265.00,2700.00,448.00,18104.00,-784.00
11271,61.00,54.00,-205.00,2820.00,432.00,18212.00,-768.00
11287,203.00,61.00,-488.00,2708.00,332.00,18016.00,-752.00
11303,125.00,-69.00,-660.00,2696.00,160.00,18172.00,-768.00
11320,-122.00,-122.00,-633.00,2668.00,444.00,18036.00,-736.00
11336,-116.00,73.00,-269.00,2856.00,496.00,18100.00,-784.00
11354,145.00,198.00,-124.00,2640.00,248.00,18452.00,-720.00
11370,310.00,260.00,-292.00,2568.00,316.00,18348.00,-768.00
11386,130.00,-26.00,-687.00,2712.00,400.00,18272.00,-736.00
11403,-192.00,-127.00,-873.00,2484.00,552.00,18168.00,-768.00
11419,-206.00,35.00,-753.00,2604.00,720.00,17948.00,-784.00
11436,57.00,282.00,-258.00,2568.00,612.00,18024.00,-768.00
11452,185.00,354.00,-84.00,2432.00,516.00,18300.00,-736.00
11468,-55.00,136.00,-400.00,2408.00,388.00,18352.00,-736.00
11485,-272.00,-107.00,-701.00,2408.00,672.00,18184.00,-784.00
11501,-307.00,-76.00,-615.00,2296.00,776.00,17988.00,-768.00
11517,66.00,281.00,-135.00,2428.00,728.00,17896.00,-768.00
11535,486.00,563.00,353.00,2464.00,172.00,17952.00,-736.00
11551,626.00,555.00,209.00,2600.00,-16.00,18128.00,-736.00
11568,777.00,492.00,-117.00,2700.00,204.00,18072.00,-752.00
11584,840.00,468.00,-203.00,2884.00,396.00,17844.00,-736.00
11600,530.00,706.00,-245.00,2768.00,452.00,17908.00,-768.00
11617,-181.00,525.00,-555.00,2716.00,408.00,18316.00,-752.00
11633,-757.00,286.00,-608.00,2732.00,416.00,18340.00,-768.00
11650,-521.00,537.00,-449.00,2624.00,424.00,18300.00,-768.00
11666,176.00,930.00,-446.00,2336.00,220.00,18404.00,-720.00
11683,558.00,844.00,-413.00,2400.00,320.00,18368.00,-736.00
11700,174.00,496.00,-649.00,2384.00,700.00,18004.00,-736.00
11716,-279.00,422.00,-334.00,2284.00,780.00,17756.00,-752.00
11732,-213.00,561.00,-128.00,2444.00,464.00,17824.00,-768.00
11749,359.00,892.00,-98.00,2548.00,464.00,17720.00,-736.00
11765,872.00,1191.00,-1111.00,2372.00,600.00,17632.00,-784.00
11782,314.00,927.00,-1152.00,2320.00,268.00,18136.00,-736.00
11799,443.00,1071.00,-648.00,2164.00,344.00,18176.00,-784.00
11815,1398.00,1551.00,-453.00,2444.00,148.00,18160.00,-736.00
11832,2205.00,1909.00,-557.00,1944.00,88.00,18548.00,-736.00
11848,2248.00,1463.00,40.00,1808.00,28.00,19096.00,-752.00
11865,779.00,325.00,-297.00,1932.00,584.00,18328.00,-720.00
11881,-152.00,554.00,-265.00,2008.00,860.00,18136.00,-768.00
11898,-1187.00,477.00,-184.00,2316.00,1108.00,17676.00,-752.00
11915,-972.00,134.00,156.00,1564.00,828.00,18172.00,-736.00
11931,-440.00,231.00,135.00,2052.00,832.00,17756.00,-752.00
11948,-370.00,276.00,-78.00,2116.00,1124.00,17532.00,-752.00
11964,-841.00,746.00,-299.00,2048.00,688.00,17680.00,-768.00
11980,-1008.00,748.00,-393.00,1772.00,748.00,17768.00,-752.00
11997,-632.00,1572.00,-377.00,2032.00,612.00,18020.00,-768.00
12014,297.00,2428.00,718.00,1912.00,324.00,17676.00,-752.00
12030,1175.00,2237.00,-990.00,1428.00,332.00,18352.00,-768.00
12047,766.00,1690.00,-1690.00,1664.00,464.00,18260.00,-768.00
12063,-29.00,1474.00,-1343.00,1772.00,660.00,18072.00,-752.00
12080,-191.00,1704.00,-1224.00,1948.00,360.00,17984.00,-768.00
12097,523.00,1374.00,-1482.00,1340.00,504.00,18312.00,-736.00
12113,758.00,1382.00,-1549.00,1904.00,640.00,18068.00,-720.00
12130,665.00,1943.00,-1140.00,1464.00,748.00,18092.00,-752.00
12146,505.00,1906.00,-979.00,1404.00,872.00,18292.00,-768.00
12163,204.00,1759.00,-1029.00,1148.00,812.00,17880.00,-752.00
12180,-97.00,1160.00,-1027.00,836.00,864.00,18528.00,-768.00
12196,-35.00,631.00,-856.00,1388.00,316.00,18492.00,-752.00
12213,84.00,862.00,-961.00,1048.00,300.00,18648.00,-752.00
12229,606.00,1099.00,-756.00,1272.00,296.00,18172.00,-768.00
12246,778.00,913.00,-389.00,1056.00,688.00,18048.00,-784.00
12262,713.00,1114.00,-190.00,1232.00,720.00,18160.00,-752.00
12278,364.00,1855.00,-464.00,1148.00,472.00,18440.00,-768.00
12296,203.00,1610.00,-998.00,984.00,256.00,18504.00,-752.00
12312,-36.00,1183.00,-1351.00,772.00,396.00,18300.00,-736.00
12328,-105.00,436.00,-1063.00,848.00,448.00,18008.00,-752.00
12345,-82.00,431.00,-614.00,852.00,740.00,18060.00,-752.00
12361,207.00,315.00,-235.00,940.00,704.00,18232.00,-720.00
12378,257.00,405.00,-312.00,844.00,760.00,18144.00,-784.00
12394,293.00,520.00,-724.00,932.00,804.00,18016.00,-768.00
12410,132.00,442.00,-1253.00,984.00,628.00,18164.00,-736.00
12427,18.00,243.00,-1385.00,1008.00,720.00,17928.00,-768.00
12443,-191.00,97.00,-1203.00,808.00,584.00,18208.00,-752.00
12461,-443.00,-135.00,-866.00,792.00,388.00,18192.00,-736.00
12477,-358.00,-458.00,-647.00,844.00,360.00,18308.00,-736.00
12493,-188.00,-668.00,-697.00,1140.00,544.00,18456.00,-736.00
12510,-21.00,-304.00,-763.00,976.00,668.00,18244.00,-752.00
12526,274.00,-341.00,-1185.00,996.00,728.00,18264.00,-752.00
12542,418.00,-226.00,-1794.00,996.00,740.00,18172.00,-768.00
12559,542.00,143.00,-2013.00,1052.00,820.00,18108.00,-768.00
12575,825.00,360.00,-1812.00,900.00,716.00,18064.00,-768.00
12592,355.00,626.00,-1465.00,1024.00,896.00,18260.00,-768.00
12609,-364.00,1310.00,-1355.00,724.00,968.00,18264.00,-784.00
12625,-951.00,1239.00,-1237.00,644.00,776.00,18196.00,-768.00
12642,-1392.00,1185.00,-1153.00,960.00,28.00,18508.00,-768.00
12658,-1169.00,795.00,-1024.00,884.00,64.00,18332.00,-784.00
12675,-632.00,344.00,-805.00,1104.00,160.00,18064.00,-768.00
12691,-20.00,-198.00,-406.00,820.00,192.00,18124.00,-736.00
12708,326.00,-682.00,-388.00,744.00,340.00,18268.00,-768.00
12725,280.00,-1006.00,-304.00,940.00,224.00,18384.00,-752.00
12741,153.00,-699.00,-477.00,908.00,280.00,18488.00,-784.00
12758,353.00,-216.00,-666.00,912.00,132.00,18412.00,-784.00
12774,498.00,249.00,-720.00,964.00,384.00,18480.00,-768.00
12790,646.00,557.00,-417.00,960.00,696.00,18156.00,-800.00
12807,384.00,445.00,407.00,908.00,660.00,17864.00,-768.00
12823,256.00,-93.00,571.00,860.00,564.00,18272.00,-784.00
12839,244.00,-181.00,161.00,804.00,420.00,18392.00,-768.00
12856,275.00,412.00,-340.00,868.00,292.00,18200.00,-752.00
12872,456.00,271.00,-332.00,752.00,188.00,18136.00,-720.00
12889,650.00,173.00,-20.00,884.00,504.00,17896.00,-784.00
12905,801.00,29.00,91.00,828.00,816.00,18076.00,-752.00
12921,904.00,419.00,-109.00,960.00,812.00,18084.00,-768.00
12938,881.00,707.00,-526.00,832.00,764.00,18248.00,-752.00
12955,581.00,250.00,-739.00,920.00,568.00,18396.00,-752.00
12972,-75.00,142.00,-655.00,932.00,776.00,18268.00,-752.00
12988,-620.00,48.00,-296.00,860.00,740.00,18128.00,-752.00
13004,-568.00,40.00,240.00,928.00,668.00,18052.00,-784.00
13021,51.00,445.00,227.00,924.00,676.00,18156.00,-800.00
13037,732.00,511.00,-37.00,860.00,568.00,18000.00,-768.00
13053,936.00,215.00,-180.00,800.00,712.00,18276.00,-768.00
13070,581.00,-80.00,-210.00,788.00,652.00,18244.00,-768.00
13086,-58.00,-274.00,36.00,788.00,592.00,18380.00,-768.00
13103,-537.00,-425.00,-93.00,756.00,668.00,18412.00,-752.00
13119,-585.00,-158.00,-402.00,800.00,612.00,18372.00,-752.00
13135,-314.00,655.00,-246.00,1004.00,264.00,18152.00,-752.00
13152,251.00,237.00,-80.00,812.00,272.00,18140.00,-768.00
13168,578.00,53.00,412.00,964.00,460.00,18152.00,-768.00
13185,536.00,-239.00,528.00,888.00,504.00,18200.00,-784.00
13201,456.00,-540.00,456.00,724.00,516.00,18376.00,-800.00
13217,139.00,-518.00,169.00,700.00,756.00,18376.00,-768.00
13234,-78.00,-775.00,-114.00,744.00,520.00,18424.00,-768.00
13250,-383.00,-734.00,-266.00,728.00,348.00,18500.00,-768.00
13266,-271.00,-970.00,-291.00,908.00,-28.00,18376.00,-752.00
13283,-132.00,-1034.00,-328.00,1064.00,132.00,18660.00,-752.00
13300,262.00,-601.00,-393.00,1008.00,524.00,18272.00,-736.00
13317,648.00,-404.00,-128.00,1136.00,660.00,18376.00,-736.00
13333,762.00,-210.00,-23.00,1108.00,988.00,18080.00,-720.00
13349,555.00,-266.00,-172.00,1160.00,1152.00,17836.00,-736.00
13366,256.00,113.00,-201.00,1140.00,1236.00,18180.00,-784.00
13382,-24.00,298.00,-183.00,1040.00,900.00,17996.00,-736.00
13399,-338.00,296.00,-296.00,1080.00,852.00,18092.00,-768.00
13415,-315.00,331.00,-275.00,1112.00,1128.00,17684.00,-752.00
13432,-334.00,209.00,64.00,992.00,668.00,17920.00,-768.00
13449,-402.00,52.00,72.00,1004.00,484.00,17968.00,-736.00
13465,-185.00,-77.00,-122.00,984.00,316.00,18280.00,-752.00
13481,-32.00,-230.00,-354.00,1008.00,260.00,18420.00,-720.00
13498,-44.00,-141.00,-469.00,1056.00,448.00,18392.00,-752.00
13514,-81.00,-43.00,-344.00,1104.00,404.00,18328.00,-768.00
13531,-74.00,-59.00,-83.00,1116.00,424.00,17944.00,-784.00
13547,17.00,-206.00,-203.00,1068.00,436.00,18248.00,-752.00
13563,-20.00,-334.00,-283.00,1160.00,404.00,18384.00,-784.00
13580,-166.00,-525.00,-406.00,1116.00,452.00,18384.00,-752.00
13596,-315.00,-873.00,-303.00,988.00,320.00,18540.00,-736.00
13613,-425.00,-1440.00,-250.00,1464.00,192.00,18788.00,-784.00
13629,-878.00,-794.00,274.00,1760.00,-472.00,18332.00,-736.00
13646,-1085.00,-1556.00,1060.00,1128.00,1152.00,18064.00,-800.00
13663,-1019.00,-2741.00,1600.00,-1088.00,684.00,19076.00,-752.00
13679,-1275.00,-864.00,3174.00,1576.00,240.00,17632.00,-752.00
13696,-1455.00,-2702.00,3691.00,872.00,1040.00,18132.00,-768.00
13713,-1519.00,-2763.00,2392.00,2120.00,740.00,17320.00,-768.00
13729,-1304.00,-2355.00,1164.00,1416.00,188.00,17840.00,-704.00
13746,-811.00,-1625.00,841.00,1700.00,80.00,18308.00,-768.00
13762,72.00,-896.00,85.00,2148.00,88.00,18092.00,-736.00
13778,2139.00,1210.00,1648.00,504.00,-212.00,18900.00,-768.00
13796,2744.00,-117.00,2008.00,2140.00,-952.00,18576.00,-768.00
13812,3151.00,490.00,1070.00,2336.00,-916.00,19124.00,-752.00
13829,2926.00,878.00,-347.00,2312.00,112.00,18500.00,-752.00
13845,2517.00,1131.00,-1098.00,2752.00,908.00,17808.00,-768.00
13861,1486.00,759.00,-1182.00,2092.00,900.00,18040.00,-736.00
13879,-460.00,131.00,-903.00,1984.00,792.00,18024.00,-784.00
13895,-1787.00,-454.00,-650.00,1992.00,264.00,18152.00,-736.00
13912,-1500.00,-494.00,-680.00,1784.00,184.00,18116.00,-784.00
13928,-20.00,143.00,-892.00,1932.00,900.00,17832.00,-736.00
13944,1159.00,557.00,-516.00,1748.00,988.00,17904.00,-768.00
13961,687.00,391.00,-436.00,1680.00,1072.00,18088.00,-768.00
13978,-348.00,204.00,-632.00,1728.00,664.00,17724.00,-752.00
13995,-895.00,123.00,-618.00,1672.00,380.00,18040.00,-752.00
14011,-345.00,135.00,-404.00,1620.00,212.00,18336.00,-768.00
14027,142.00,112.00,-328.00,1620.00,328.00,18264.00,-736.00
14044,59.00,94.00,-520.00,1512.00,544.00,18164.00,-784.00
14060,-401.00,22.00,-512.00,1864.00,468.00,18104.00,-752.00
14076,-342.00,69.00,-331.00,1776.00,104.00,17948.00,-752.00
14093,236.00,195.00,-229.00,1704.00,4.00,18120.00,-768.00
14109,816.00,332.00,-195.00,1892.00,84.00,17864.00,-752.00
14126,533.00,325.00,-358.00,1880.00,304.00,17860.00,-768.00
14142,-449.00,74.00,-660.00,1628.00,556.00,18176.00,-736.00
14159,-834.00,-153.00,-540.00,1820.00,216.00,18108.00,-768.00
14176,-492.00,-52.00,-541.00,1756.00,340.00,18172.00,-752.00
14192,28.00,122.00,-619.00,1840.00,376.00,18028.00,-720.00
14209,580.00,425.00,-331.00,1764.00,192.00,18240.00,-704.00
14225,728.00,323.00,-52.00,1772.00,588.00,18144.00,-768.00
14241,344.00,150.00,-346.00,1756.00,748.00,18316.00,-736.00
14258,-189.00,-21.00,-657.00,1612.00,868.00,18120.00,-752.00
14274,-202.00,120.00,-372.00,1912.00,580.00,18196.00,-784.00
14290,-43.00,251.00,-186.00,1752.00,128.00,18128.00,-736.00
14307,-53.00,405.00,-129.00,1876.00,84.00,18256.00,-768.00
14323,289.00,393.00,-301.00,1596.00,536.00,18332.00,-736.00
14341,749.00,387.00,-207.00,1660.00,96.00,18264.00,-752.00
14357,955.00,403.00,-282.00,1736.00,568.00,18364.00,-752.00
14373,430.00,419.00,-415.00,1688.00,628.00,18044.00,-768.00
14390,-226.00,292.00,-483.00,1680.00,660.00,18420.00,-768.00
14406,-668.00,4.00,-413.00,1576.00,56.00,18508.00,-752.00
14423,-403.00,-300.00,-398.00,1816.00,-112.00,18304.00,-736.00
14439,159.00,56.00,-560.00,1840.00,228.00,17980.00,-752.00
14455,727.00,507.00,-509.00,1844.00,552.00,18080.00,-752.00
14472,680.00,443.00,-312.00,1436.00,576.00,18412.00,-800.00
14488,-52.00,-78.00,-289.00,1404.00,400.00,18352.00,-784.00
14505,-648.00,-621.00,-545.00,1508.00,620.00,18220.00,-752.00
14522,-787.00,-511.00,-656.00,1968.00,472.00,17812.00,-768.00
14538,-506.00,-234.00,-308.00,2004.00,244.00,18056.00,-736.00
14555,322.00,66.00,-31.00,1924.00,136.00,17944.00,-752.00
14571,628.00,187.00,-155.00,1832.00,132.00,18056.00,-768.00
14587,427.00,54.00,-659.00,1832.00,-60.00,18024.00,-752.00
14604,74.00,-36.00,-696.00,1780.00,168.00,17948.00,-752.00
14620,56.00,89.00,-528.00,1616.00,452.00,17888.00,-752.00
14637,287.00,266.00,-370.00,1624.00,640.00,17984.00,-736.00
14653,76.00,269.00,-384.00,1628.00,456.00,18120.00,-736.00
14669,-225.00,116.00,-550.00,1484.00,556.00,18296.00,-768.00
14686,-242.00,106.00,-512.00,1664.00,244.00,18412.00,-752.00
14703,-61.00,35.00,-334.00,1536.00,276.00,18464.00,-752.00
14720,281.00,39.00,-130.00,1620.00,336.00,18300.00,-752.00
14736,82.00,6.00,-213.00,1564.00,280.00,18444.00,-784.00
14752,-108.00,-201.00,-415.00,1720.00,160.00,18516.00,-752.00
14769,46.00,-181.00,-341.00,1792.00,360.00,18240.00,-752.00
14785,339.00,47.00,-260.00,1824.00,416.00,18004.00,-752.00
14801,565.00,301.00,-121.00,1648.00,508.00,17956.00,-768.00
14818,289.00,217.00,20.00,1764.00,284.00,18060.00,-768.00
14834,-136.00,-21.00,-325.00,1772.00,180.00,18192.00,-720.00
14851,-381.00,-167.00,-613.00,1608.00,180.00,18324.00,-768.00
14867,-56.00,-112.00,-507.00,1964.00,288.00,18064.00,-768.00
14883,231.00,52.00,-253.00,1820.00,436.00,18116.00,-768.00
14900,293.00,127.00,-169.00,1836.00,488.00,18240.00,-768.00
14917,349.00,193.00,-127.00,1800.00,476.00,18132.00,-784.00
14934,419.00,179.00,-160.00,1728.00,304.00,18352.00,-736.00
14950,245.00,57.00,-223.00,1644.00,516.00,18248.00,-768.00
14966,66.00,-5.00,-264.00,1788.00,344.00,18124.00,-768.00
14983,-108.00,-69.00,-255.00,1812.00,268.00,18212.00,-768.00
14999,137.00,102.00,-210.00,1920.00,360.00,18152.00,-768.00
15015,314.00,286.00,-95.00,2016.00,244.00,18116.00,-752.00
15032,312.00,248.00,-227.00,1776.00,48.00,18028.00,-752.00
15048,35.00,56.00,-488.00,1852.00,232.00,18284.00,-752.00
15065,91.00,4.00,-620.00,1728.00,364.00,18196.00,-784.00
15081,382.00,143.00,-475.00,1808.00,320.00,18136.00,-784.00
15097,662.00,291.00,-280.00,1840.00,516.00,17980.00,-784.00
15114,435.00,266.00,-265.00,1908.00,468.00,18004.00,-768.00
15131,48.00,60.00,-405.00,1680.00,444.00,18380.00,-752.00
15148,-293.00,-46.00,-558.00,1764.00,388.00,18120.00,-752.00
15164,-235.00,-34.00,-533.00,1776.00,408.00,18212.00,-784.00
15180,105.00,104.00,-336.00,1836.00,132.00,18376.00,-752.00
15197,419.00,95.00,-138.00,1640.00,272.00,18440.00,-736.00
15213,351.00,-6.00,-240.00,1720.00,244.00,18628.00,-736.00
15229,37.00,-218.00,-434.00,1720.00,512.00,18320.00,-768.00
15246,3.00,-70.00,-430.00,1800.00,464.00,18108.00,-736.00
15262,272.00,123.00,-226.00,1940.00,608.00,17768.00,-752.00
15279,372.00,288.00,-59.00,2004.00,204.00,17932.00,-736.00
15295,373.00,278.00,-124.00,1996.00,328.00,18008.00,-768.00
15311,153.00,114.00,-376.00,1844.00,436.00,18196.00,-752.00
15328,2.00,62.00,-568.00,1820.00,296.00,18248.00,-736.00
15344,-45.00,206.00,-520.00,1868.00,360.00,18140.00,-752.00
15361,65.00,272.00,-243.00,1920.00,440.00,18336.00,-784.00
15378,266.00,270.00,-151.00,1856.00,248.00,18156.00,-768.00
15394,255.00,111.00,-434.00,1712.00,212.00,18428.00,-768.00
15411,191.00,103.00,-585.00,1712.00,612.00,18136.00,-752.00
15427,249.00,214.00,-392.00,1808.00,532.00,18128.00,-752.00
15443,283.00,195.00,-116.00,1728.00,572.00,18120.00,-800.00
15460,465.00,185.00,-100.00,1852.00,480.00,18032.00,-736.00
15476,385.00,62.00,-177.00,1816.00,448.00,18192.00,-720.00
15493,264.00,124.00,-352.00,1876.00,516.00,18096.00,-752.00
15509,-222.00,-25.00,-396.00,1988.00,464.00,18124.00,-768.00
15526,-420.00,1.00,-521.00,1852.00,376.00,18332.00,-768.00
15543,-50.00,77.00,-335.00,1888.00,172.00,18056.00,-768.00
15559,388.00,87.00,-257.00,1876.00,240.00,18320.00,-768.00
15576,577.00,264.00,-380.00,2032.00,336.00,18036.00,-768.00
15592,278.00,204.00,-366.00,1836.00,544.00,18076.00,-752.00
15608,-25.00,30.00,-533.00,1796.00,684.00,18208.00,-768.00
15625,52.00,197.00,-546.00,1852.00,516.00,18096.00,-752.00
15641,86.00,111.00,-366.00,1720.00,612.00,18192.00,-736.00
15657,-153.00,-63.00,-497.00,1776.00,452.00,18232.00,-736.00
15674,-35.00,2.00,-478.00,1776.00,212.00,18124.00,-768.00
15690,440.00,125.00,-193.00,1804.00,352.00,18292.00,-736.00
15707,550.00,99.00,-212.00,1732.00,600.00,18548.00,-736.00
15723,281.00,77.00,-530.00,1756.00,592.00,18196.00,-768.00
15739,123.00,27.00,-399.00,1788.00,440.00,18300.00,-736.00
15756,116.00,-38.00,-245.00,1824.00,64.00,18280.00,-784.00
15772,-27.00,-348.00,-448.00,1852.00,364.00,18164.00,-752.00
15790,179.00,-21.00,-718.00,2028.00,648.00,17980.00,-752.00
15806,354.00,246.00,-458.00,1752.00,672.00,17932.00,-768.00
15822,307.00,182.00,-79.00,1644.00,392.00,18060.00,-768.00
15839,38.00,-97.00,-254.00,1932.00,588.00,18016.00,-768.00
15855,-144.00,-84.00,-701.00,1836.00,732.00,17852.00,-736.00
15872,-250.00,-88.00,-682.00,1864.00,400.00,17940.00,-736.00
15888,129.00,207.00,-314.00,1696.00,580.00,18048.00,-752.00
15904,305.00,352.00,-36.00,1864.00,560.00,18024.00,-768.00
15921,167.00,339.00,-252.00,1864.00,440.00,18340.00,-736.00
15937,-80.00,170.00,-312.00,1796.00,248.00,18316.00,-768.00
15953,-65.00,46.00,-349.00,1760.00,0.00,18220.00,-768.00
15970,64.00,-66.00,-446.00,1760.00,92.00,18472.00,-736.00
15986,195.00,-125.00,-604.00,1852.00,516.00,18352.00,-752.00
16003,-45.00,-90.00,-520.00,1836.00,572.00,18036.00,-736.00
16019,-289.00,-65.00,-382.00,1724.00,412.00,18280.00,-768.00
16035,-175.00,-21.00,-181.00,1752.00,488.00,17860.00,-768.00
16053,4.00,-17.00,-315.00,1644.00,400.00,18340.00,-800.00
16069,282.00,-10.00,-428.00,1780.00,572.00,18004.00,-768.00
16086,311.00,153.00,-320.00,1960.00,556.00,17880.00,-736.00
16102,324.00,291.00,-143.00,1952.00,444.00,17816.00,-784.00
16118,259.00,286.00,-105.00,1940.00,336.00,18064.00,-752.00
16135,265.00,199.00,-306.00,1916.00,292.00,18116.00,-768.00
16151,303.00,252.00,-418.00,1960.00,332.00,18256.00,-784.00
16167,275.00,442.00,-323.00,1932.00,408.00,18324.00,-784.00
16184,258.00,399.00,-40.00,1736.00,248.00,18632.00,-768.00
16200,144.00,191.00,-136.00,1720.00,260.00,18520.00,-736.00
16218,-57.00,-117.00,-473.00,1716.00,192.00,18304.00,-752.00
16234,-28.00,-159.00,-582.00,1756.00,436.00,18288.00,-752.00
16250,227.00,52.00,-262.00,1940.00,640.00,18096.00,-768.00
16267,340.00,205.00,-19.00,1868.00,796.00,17984.00,-768.00
16283,135.00,61.00,-94.00,1920.00,636.00,18112.00,-736.00
16300,-214.00,-59.00,-436.00,1960.00,756.00,17824.00,-768.00
16316,-341.00,-91.00,-484.00,2024.00,380.00,17956.00,-768.00
16332,-230.00,-1.00,-359.00,1884.00,420.00,18068.00,-736.00
16349,196.00,182.00,-171.00,2044.00,316.00,18000.00,-736.00
16365,374.00,267.00,-56.00,1848.00,436.00,18364.00,-752.00
16381,185.00,226.00,-151.00,1884.00,264.00,18224.00,-752.00
16398,-229.00,-16.00,-324.00,1920.00,320.00,18396.00,-736.00
16414,-139.00,3.00,-511.00,1796.00,96.00,18300.00,-800.00
16431,95.00,-50.00,-425.00,1972.00,468.00,18096.00,-768.00
16447,419.00,192.00,-330.00,1868.00,732.00,18076.00,-752.00
16464,201.00,247.00,-175.00,1796.00,696.00,18028.00,-736.00
16481,-148.00,219.00,-235.00,1832.00,464.00,18216.00,-704.00
16497,-259.00,141.00,-258.00,1772.00,224.00,18348.00,-752.00
16514,-31.00,-43.00,-358.00,1732.00,236.00,18316.00,-768.00
16530,258.00,65.00,-317.00,1784.00,152.00,18168.00,-768.00
16546,281.00,62.00,-263.00,1924.00,344.00,18360.00,-736.00
16563,39.00,103.00,-492.00,1948.00,404.00,18204.00,-768.00
16579,-203.00,-7.00,-543.00,1816.00,236.00,18140.00,-736.00
16595,-52.00,24.00,-458.00,1780.00,448.00,18232.00,-768.00
16612,222.00,133.00,-227.00,1896.00,320.00,18036.00,-736.00
16628,242.00,83.00,-131.00,1744.00,312.00,18344.00,-720.00
16645,56.00,-63.00,-380.00,1896.00,252.00,18480.00,-752.00
16661,-44.00,-35.00,-460.00,1908.00,272.00,18212.00,-720.00
16677,113.00,-21.00,-325.00,1908.00,320.00,18088.00,-752.00
16694,367.00,23.00,-175.00,2056.00,488.00,17948.00,-752.00
16711,365.00,198.00,-201.00,2048.00,624.00,18028.00,-752.00
16728,277.00,304.00,-204.00,2008.00,400.00,18048.00,-800.00
16744,211.00,366.00,-215.00,1824.00,564.00,18104.00,-784.00
16760,244.00,280.00,-245.00,1808.00,316.00,18172.00,-752.00
16777,57.00,43.00,-251.00,1764.00,252.00,18452.00,-768.00
16793,-133.00,-119.00,-401.00,1748.00,208.00,18504.00,-784.00
16809,-142.00,-74.00,-535.00,1932.00,356.00,18152.00,-768.00
16826,192.00,111.00,-376.00,1848.00,436.00,18024.00,-784.00
16842,423.00,98.00,-101.00,1884.00,376.00,18056.00,-752.00
16859,566.00,43.00,-157.00,1856.00,668.00,17876.00,-752.00
16875,224.00,126.00,-389.00,1940.00,768.00,17756.00,-768.00
16892,-134.00,88.00,-336.00,1896.00,340.00,17976.00,-736.00
16909,-238.00,-58.00,-370.00,1852.00,64.00,18080.00,-800.00
16925,-8.00,-35.00,-551.00,1896.00,336.00,18016.00,-752.00
16942,205.00,208.00,-430.00,1908.00,580.00,18080.00,-736.00
16958,137.00,212.00,-162.00,1692.00,344.00,18704.00,-752.00
16974,147.00,95.00,-127.00,1804.00,164.00,18484.00,-752.00
16991,167.00,43.00,-350.00,1864.00,284.00,18328.00,-784.00
17007,217.00,104.00,-475.00,1848.00,428.00,18292.00,-752.00
17024,304.00,197.00,-197.00,1952.00,412.00,18068.00,-768.00
17040,237.00,93.00,6.00,1892.00,644.00,18184.00,-752.00
17056,297.00,101.00,-124.00,2024.00,504.00,18196.00,-736.00
17073,107.00,-10.00,-254.00,1936.00,324.00,18352.00,-752.00
17089,-9.00,57.00,-358.00,1976.00,496.00,18224.00,-784.00
17105,205.00,76.00,-23.00,1856.00,200.00,18212.00,-752.00
17122,462.00,-13.00,28.00,1928.00,212.00,18204.00,-736.00
17138,389.00,-167.00,-188.00,2012.00,352.00,18072.00,-736.00
17156,149.00,-158.00,-449.00,1972.00,760.00,17804.00,-784.00
17172,-11.00,-37.00,-440.00,2112.00,652.00,17600.00,-768.00
17188,-67.00,143.00,-246.00,1940.00,524.00,17648.00,-768.00
17205,129.00,258.00,-137.00,2024.00,428.00,17908.00,-768.00
17221,399.00,414.00,-143.00,1996.00,424.00,18272.00,-736.00
17238,255.00,386.00,-303.00,1768.00,472.00,18428.00,-752.00
17254,-148.00,33.00,-335.00,1788.00,164.00,18540.00,-768.00
17270,-275.00,-140.00,-402.00,1856.00,340.00,18520.00,-736.00
17287,-68.00,-138.00,-441.00,1940.00,296.00,18388.00,-752.00
17303,298.00,65.00,-325.00,2068.00,332.00,18308.00,-752.00
17319,338.00,75.00,-152.00,2228.00,412.00,18104.00,-768.00
17337,175.00,112.00,-344.00,1920.00,500.00,18140.00,-768.00
17353,6.00,34.00,-355.00,1952.00,416.00,18072.00,-736.00
17370,13.00,-11.00,-450.00,1968.00,568.00,17912.00,-768.00
17386,128.00,147.00,-352.00,1900.00,404.00,18004.00,-736.00
17402,259.00,169.00,-290.00,1864.00,616.00,18064.00,-768.00
17419,345.00,346.00,-336.00,1816.00,424.00,18160.00,-784.00
17435,212.00,234.00,-135.00,1744.00,112.00,18300.00,-720.00
17452,28.00,-5.00,-207.00,1868.00,364.00,18440.00,-768.00
17468,33.00,2.00,-399.00,1996.00,588.00,17908.00,-736.00
17484,156.00,21.00,-319.00,1872.00,356.00,18180.00,-752.00
17501,278.00,194.00,-154.00,1948.00,264.00,18064.00,-752.00
17517,357.00,226.00,-1.00,1872.00,360.00,18184.00,-768.00
17533,85.00,141.00,-204.00,1852.00,388.00,18360.00,-736.00
17550,6.00,66.00,-460.00,1760.00,308.00,18392.00,-704.00
17566,68.00,25.00,-295.00,1924.00,324.00,18272.00,-768.00
17583,262.00,25.00,-216.00,1828.00,320.00,18140.00,-736.00
17599,44.00,19.00,-306.00,2128.00,328.00,17820.00,-768.00
17615,-433.00,-114.00,-491.00,2120.00,492.00,17668.00,-736.00
17633,-781.00,-159.00,-664.00,2152.00,536.00,17704.00,-752.00
17649,-541.00,123.00,-615.00,2204.00,208.00,17804.00,-768.00
17666,363.00,556.00,-133.00,2088.00,236.00,18168.00,-736.00
17682,1024.00,777.00,-6.00,1924.00,416.00,18332.00,-720.00
17698,514.00,587.00,-315.00,1932.00,368.00,18468.00,-752.00
17715,-160.00,129.00,-493.00,1808.00,164.00,18648.00,-768.00
17731,-329.00,-202.00,-431.00,1824.00,212.00,18480.00,-752.00
17747,173.00,-42.00,-383.00,1904.00,452.00,18400.00,-768.00
17764,505.00,141.00,-264.00,1840.00,316.00,18288.00,-768.00
17781,433.00,88.00,-61.00,1716.00,524.00,18088.00,-752.00
17798,317.00,15.00,-86.00,1836.00,472.00,18336.00,-768.00
17814,274.00,1.00,-276.00,2012.00,560.00,17932.00,-752.00
17830,295.00,252.00,-361.00,1880.00,540.00,17864.00,-768.00
17847,422.00,350.00,-158.00,1716.00,476.00,18188.00,-784.00
17863,265.00,194.00,-193.00,1760.00,576.00,18100.00,-768.00
17880,189.00,128.00,-481.00,1688.00,580.00,18060.00,-768.00
17896,14.00,68.00,-475.00,1688.00,512.00,17984.00,-752.00
17912,55.00,139.00,-293.00,1760.00,712.00,18180.00,-752.00
17929,251.00,291.00,-55.00,1884.00,544.00,18324.00,-752.00
17945,427.00,172.00,124.00,1872.00,324.00,18324.00,-752.00
17961,405.00,38.00,-58.00,2056.00,200.00,18332.00,-736.00
17978,225.00,-33.00,-303.00,2184.00,72.00,18188.00,-736.00
17994,39.00,-21.00,-365.00,2032.00,332.00,18164.00,-768.00
18011,-10.00,-18.00,-331.00,2088.00,360.00,18216.00,-768.00
18027,114.00,91.00,-350.00,2180.00,380.00,18128.00,-768.00
18044,326.00,221.00,-278.00,2088.00,300.00,17912.00,-736.00
18061,297.00,221.00,-338.00,1920.00,444.00,18136.00,-784.00
18077,62.00,101.00,-537.00,2000.00,568.00,18340.00,-752.00
18094,-94.00,-14.00,-623.00,1872.00,752.00,18260.00,-768.00
18110,-100.00,76.00,-596.00,1920.00,608.00,18124.00,-736.00
18126,83.00,178.00,-414.00,1932.00,652.00,18020.00,-768.00
18143,273.00,240.00,-229.00,1712.00,632.00,18240.00,-736.00
18159,337.00,223.00,-231.00,1784.00,812.00,18340.00,-752.00
18176,233.00,135.00,-310.00,1908.00,740.00,18260.00,-752.00
18192,-49.00,0.00,-349.00,1752.00,472.00,18396.00,-736.00
18208,-169.00,-32.00,-316.00,1912.00,468.00,18220.00,-768.00
18225,29.00,37.00,-242.00,1976.00,328.00,18196.00,-768.00
18241,317.00,68.00,-252.00,1960.00,404.00,18324.00,-736.00
18258,444.00,83.00,-254.00,1956.00,480.00,18212.00,-768.00
18275,101.00,-26.00,-297.00,2072.00,424.00,18092.00,-752.00
18291,-88.00,-29.00,-282.00,2180.00,388.00,18104.00,-768.00
18308,-46.00,118.00,-271.00,2200.00,352.00,17904.00,-752.00
18324,119.00,133.00,-313.00,1896.00,308.00,18240.00,-752.00
18340,280.00,27.00,-438.00,1936.00,500.00,18120.00,-736.00
18357,316.00,34.00,-543.00,1836.00,636.00,18056.00,-736.00
18373,212.00,116.00,-460.00,2008.00,820.00,18008.00,-768.00
18390,123.00,172.00,-257.00,2040.00,672.00,17896.00,-752.00
18406,132.00,245.00,-169.00,1876.00,648.00,17892.00,-768.00
18422,296.00,253.00,-228.00,2004.00,512.00,18180.00,-736.00
18439,117.00,159.00,-412.00,1908.00,456.00,18180.00,-720.00
18456,-81.00,190.00,-447.00,2064.00,384.00,18184.00,-736.00
18472,-191.00,130.00,-341.00,1960.00,252.00,18568.00,-768.00
18489,99.00,52.00,-307.00,1988.00,-48.00,18496.00,-752.00
18505,423.00,86.00,-466.00,1868.00,536.00,18240.00,-704.00
18522,670.00,236.00,-399.00,1836.00,740.00,18132.00,-768.00
18538,583.00,255.00,-218.00,1936.00,756.00,18252.00,-752.00
18554,338.00,261.00,-307.00,1760.00,884.00,17972.00,-736.00
18571,-78.00,92.00,-277.00,1728.00,344.00,18200.00,-768.00
18587,-293.00,-286.00,-307.00,1736.00,192.00,18384.00,-736.00
18604,143.00,-209.00,-566.00,1856.00,600.00,18168.00,-784.00
18620,464.00,122.00,-440.00,1936.00,588.00,17920.00,-768.00
18637,418.00,277.00,-142.00,1812.00,576.00,18032.00,-752.00
18654,95.00,-6.00,61.00,1820.00,292.00,18140.00,-752.00
18670,-48.00,-189.00,-275.00,1872.00,204.00,18308.00,-736.00
18686,199.00,-148.00,-586.00,2060.00,456.00,17972.00,-784.00
18703,414.00,173.00,-401.00,2088.00,504.00,18052.00,-752.00
18719,287.00,242.00,-106.00,2112.00,464.00,17972.00,-768.00
18736,0.00,173.00,-205.00,1932.00,492.00,18224.00,-736.00
18752,172.00,180.00,-461.00,2016.00,540.00,18044.00,-768.00
18768,325.00,329.00,-478.00,1876.00,672.00,17984.00,-784.00
18785,300.00,367.00,-310.00,1856.00,576.00,17960.00,-768.00
18801,72.00,325.00,-312.00,1816.00,788.00,18236.00,-752.00
18818,-65.00,308.00,-417.00,1716.00,588.00,18224.00,-752.00
18835,-57.00,160.00,-366.00,1780.00,628.00,18312.00,-752.00
18851,24.00,232.00,-387.00,1632.00,588.00,18344.00,-736.00
18868,170.00,264.00,-246.00,1808.00,532.00,18472.00,-736.00
18884,274.00,240.00,-174.00,1792.00,496.00,18356.00,-800.00
18900,351.00,226.00,-254.00,1836.00,484.00,18268.00,-752.00
18917,329.00,198.00,-333.00,2016.00,436.00,18308.00,-736.00
18933,231.00,115.00,-296.00,2028.00,404.00,18052.00,-736.00
18950,136.00,46.00,-319.00,2080.00,624.00,18028.00,-784.00
18966,99.00,184.00,-330.00,1968.00,624.00,18008.00,-768.00
18982,56.00,205.00,-189.00,2060.00,620.00,17980.00,-768.00
18999,40.00,262.00,-225.00,2056.00,468.00,18204.00,-736.00
19016,47.00,127.00,-353.00,1728.00,200.00,18248.00,-768.00
19033,170.00,66.00,-484.00,1820.00,248.00,18128.00,-736.00
19049,315.00,151.00,-441.00,1980.00,580.00,18036.00,-720.00
19065,262.00,197.00,-361.00,1904.00,720.00,18184.00,-784.00
19082,-15.00,79.00,-391.00,1948.00,644.00,17988.00,-768.00
19098,-258.00,-6.00,-416.00,1980.00,400.00,18128.00,-736.00
19115,-164.00,-6.00,-396.00,1836.00,428.00,17984.00,-768.00
19131,192.00,93.00,-503.00,1860.00,576.00,18096.00,-768.00
19147,381.00,277.00,-454.00,1660.00,664.00,18440.00,-768.00
19164,317.00,267.00,-187.00,1736.00,744.00,18428.00,-752.00
19180,314.00,183.00,10.00,1780.00,504.00,18316.00,-736.00
19196,225.00,20.00,-247.00,1732.00,444.00,18372.00,-704.00
19213,137.00,10.00,-525.00,1848.00,472.00,18356.00,-768.00
19230,-9.00,13.00,-370.00,1836.00,532.00,18068.00,-752.00
19246,54.00,72.00,-150.00,1984.00,660.00,18076.00,-768.00
19263,212.00,273.00,-179.00,2032.00,708.00,18020.00,-736.00
19279,181.00,230.00,-269.00,1856.00,320.00,18280.00,-752.00
19296,175.00,133.00,-378.00,2016.00,280.00,18116.00,-768.00
19312,85.00,104.00,-478.00,1788.00,540.00,18232.00,-768.00
19329,-79.00,23.00,-457.00,1884.00,760.00,18260.00,-752.00
19345,-45.00,109.00,-322.00,1928.00,876.00,17912.00,-752.00
19361,40.00,215.00,-189.00,1936.00,536.00,18104.00,-752.00
19378,79.00,187.00,-152.00,1820.00,264.00,18112.00,-752.00
19394,123.00,80.00,-344.00,1900.00,328.00,18052.00,-768.00
19410,-28.00,116.00,-556.00,1700.00,724.00,18124.00,-736.00
19427,-79.00,166.00,-455.00,1820.00,560.00,18324.00,-736.00
19443,-228.00,63.00,-176.00,1940.00,596.00,18044.00,-784.00
19460,-432.00,-34.00,-294.00,1880.00,336.00,18012.00,-752.00
19477,-698.00,89.00,-638.00,1808.00,368.00,18432.00,-736.00
19493,-821.00,106.00,-956.00,1752.00,500.00,18444.00,-768.00
19510,-685.00,-102.00,-967.00,1976.00,776.00,18092.00,-784.00
19526,-157.00,87.00,-568.00,1744.00,832.00,18576.00,-768.00
19543,446.00,199.00,-128.00,1868.00,276.00,18320.00,-768.00
19559,563.00,43.00,-125.00,1852.00,108.00,18104.00,-752.00
19575,430.00,-30.00,-345.00,1840.00,288.00,18208.00,-752.00
19592,305.00,-67.00,-326.00,1684.00,432.00,18404.00,-736.00
19608,431.00,-62.00,5.00,1744.00,388.00,18472.00,-736.00
19624,405.00,-98.00,19.00,1744.00,520.00,18344.00,-768.00
19641,188.00,-200.00,-314.00,1872.00,428.00,17844.00,-752.00
19657,208.00,-90.00,-303.00,1924.00,508.00,17904.00,-768.00
19674,625.00,89.00,-89.00,2008.00,776.00,17600.00,-752.00
19690,851.00,167.00,-90.00,2052.00,972.00,17560.00,-720.00
19707,250.00,343.00,-225.00,1944.00,824.00,17872.00,-784.00
19724,-462.00,245.00,-204.00,1748.00,472.00,18152.00,-736.00
19740,-572.00,104.00,-142.00,1604.00,0.00,18504.00,-736.00
19757,143.00,84.00,-331.00,1824.00,-72.00,18384.00,-736.00
19773,651.00,355.00,-488.00,1904.00,468.00,18268.00,-736.00
19789,518.00,435.00,-442.00,1836.00,668.00,18304.00,-768.00
19806,87.00,332.00,-177.00,1864.00,572.00,18420.00,-768.00
19822,66.00,312.00,-114.00,1856.00,468.00,18584.00,-768.00
19838,426.00,264.00,-79.00,1700.00,308.00,18592.00,-768.00
19855,695.00,291.00,-88.00,1616.00,428.00,18604.00,-784.00
19871,472.00,73.00,49.00,1596.00,396.00,18440.00,-752.00
19888,9.00,-178.00,-101.00,1700.00,636.00,18160.00,-752.00
19904,-181.00,-214.00,-237.00,1800.00,528.00,17804.00,-752.00
19921,237.00,57.00,-229.00,1908.00,600.00,17716.00,-768.00
19938,580.00,166.00,-65.00,1868.00,732.00,17868.00,-768.00
19954,457.00,197.00,17.00,1976.00,964.00,17820.00,-784.00
19971,153.00,330.00,35.00,2168.00,588.00,18020.00,-752.00
19987,29.00,334.00,65.00,2004.00,316.00,18000.00,-752.00
20003,169.00,224.00,-160.00,1836.00,260.00,18320.00,-752.00
20020,229.00,95.00,-420.00,1780.00,432.00,18280.00,-768.00
20036,377.00,167.00,-438.00,1588.00,900.00,18100.00,-768.00
20052,416.00,271.00,-126.00,1724.00,1216.00,17836.00,-784.00
20069,216.00,280.00,203.00,1592.00,776.00,18152.00,-768.00
20085,27.00,-18.00,171.00,1900.00,508.00,18108.00,-784.00
20102,152.00,96.00,-73.00,2064.00,724.00,17832.00,-752.00
20118,107.00,374.00,-80.00,2208.00,404.00,17956.00,-768.00
20135,-122.00,226.00,31.00,2372.00,-80.00,18144.00,-752.00
20152,-110.00,52.00,-290.00,2180.00,-64.00,18300.00,-752.00
20168,32.00,-66.00,-784.00,2148.00,120.00,18300.00,-752.00
20185,270.00,10.00,-936.00,2096.00,572.00,17828.00,-736.00
20201,283.00,256.00,-569.00,2044.00,1136.00,17848.00,-752.00
20217,9.00,309.00,-223.00,1988.00,1036.00,17832.00,-768.00
20234,-152.00,231.00,-401.00,1844.00,836.00,17808.00,-752.00
20250,-277.00,40.00,-785.00,1728.00,616.00,17892.00,-752.00
20267,37.00,-73.00,-979.00,2244.00,640.00,17884.00,-736.00
20283,-16.00,454.00,-618.00,1784.00,368.00,17952.00,-768.00
20299,-325.00,529.00,-188.00,1880.00,428.00,18148.00,-736.00
20316,-843.00,-24.00,-359.00,1724.00,104.00,18728.00,-752.00
20332,-578.00,-239.00,-576.00,1496.00,-12.00,18492.00,-768.00
20349,-249.00,-73.00,-835.00,1812.00,-88.00,18588.00,-736.00
20366,437.00,395.00,-767.00,1436.00,684.00,18560.00,-736.00
20382,703.00,654.00,-229.00,1624.00,760.00,18052.00,-752.00
20399,188.00,404.00,-114.00,1448.00,928.00,18068.00,-720.00
20415,-191.00,354.00,-437.00,1572.00,744.00,18116.00,-736.00
20431,-359.00,258.00,-263.00,1516.00,308.00,18452.00,-752.00
20448,71.00,198.00,42.00,1616.00,548.00,18304.00,-736.00
20464,273.00,205.00,-68.00,1648.00,496.00,18244.00,-736.00
20481,-163.00,-7.00,-362.00,1168.00,240.00,18404.00,-768.00
20497,-491.00,-395.00,1394.00,1532.00,696.00,18400.00,-736.00
20513,21.00,22.00,1567.00,1564.00,472.00,18196.00,-784.00
20531,769.00,356.00,507.00,1768.00,248.00,18064.00,-736.00
20547,802.00,341.00,-460.00,1700.00,436.00,18000.00,-736.00
20563,714.00,161.00,-855.00,1856.00,432.00,18064.00,-752.00
20580,894.00,585.00,-973.00,2092.00,164.00,17852.00,-768.00
20596,1972.00,630.00,-241.00,2108.00,216.00,18400.00,-768.00
20613,2862.00,436.00,-192.00,1844.00,460.00,18508.00,-752.00
20629,2366.00,540.00,-503.00,1816.00,544.00,18392.00,-720.00
20646,1743.00,510.00,-477.00,1948.00,948.00,18420.00,-768.00
20663,1303.00,269.00,-501.00,1680.00,1388.00,18056.00,-752.00
20679,237.00,-187.00,121.00,1620.00,1324.00,17832.00,-736.00
20696,-395.00,-489.00,459.00,1700.00,944.00,17804.00,-768.00
20712,257.00,-297.00,-218.00,1784.00,812.00,17788.00,-768.00
20728,1193.00,175.00,-888.00,1864.00,800.00,17812.00,-752.00
20746,1079.00,329.00,-876.00,1820.00,1020.00,18144.00,-768.00
20762,157.00,25.00,-805.00,1800.00,972.00,18196.00,-736.00
20779,-155.00,27.00,-800.00,1700.00,1228.00,18136.00,-768.00
20795,59.00,234.00,-947.00,1936.00,808.00,17816.00,-752.00
20811,282.00,-62.00,-1018.00,1624.00,228.00,18348.00,-784.00
20828,372.00,38.00,-1486.00,1604.00,504.00,18440.00,-736.00
20844,413.00,110.00,-1827.00,1864.00,984.00,18316.00,-752.00
20860,200.00,470.00,-1784.00,1800.00,1056.00,18096.00,-768.00
20878,-97.00,358.00,-1425.00,1644.00,1168.00,18048.00,-768.00
20894,-173.00,513.00,-1224.00,1580.00,1320.00,18056.00,-784.00
20911,107.00,709.00,-1646.00,1580.00,1104.00,17932.00,-768.00
20927,407.00,445.00,-2208.00,1368.00,612.00,18328.00,-736.00
20943,-102.00,451.00,-2555.00,2956.00,340.00,18460.00,-720.00
20961,731.00,1024.00,-2657.00,1072.00,1108.00,18412.00,-736.00
20977,687.00,914.00,-2525.00,1624.00,1144.00,18216.00,-768.00
20994,224.00,539.00,-2244.00,1612.00,1296.00,18192.00,-768.00
21010,-56.00,538.00,-1956.00,1480.00,1016.00,18196.00,-752.00
21027,-8.00,273.00,-1801.00,1652.00,540.00,18360.00,-768.00
21044,608.00,463.00,-2133.00,1428.00,892.00,18476.00,-752.00
21060,741.00,354.00,-2230.00,1564.00,1148.00,18356.00,-768.00
21076,772.00,307.00,-2432.00,1624.00,1300.00,18268.00,-784.00
21093,553.00,323.00,-2474.00,1544.00,1020.00,18224.00,-720.00
21109,337.00,-47.00,-2306.00,1604.00,1168.00,18300.00,-784.00
21127,9.00,-282.00,-2374.00,1496.00,972.00,18176.00,-704.00
21143,228.00,-4.00,-2295.00,1500.00,1048.00,18028.00,-768.00
21159,593.00,297.00,-1974.00,1472.00,1092.00,17960.00,-752.00
21176,1011.00,443.00,-1850.00,1468.00,1160.00,17836.00,-784.00
21192,1009.00,430.00,-1930.00,1428.00,1244.00,18188.00,-752.00
21210,799.00,352.00,-1981.00,1456.00,1432.00,18132.00,-784.00
21226,413.00,334.00,-1930.00,1372.00,1160.00,18080.00,-768.00
21242,175.00,221.00,-1802.00,1180.00,1144.00,18300.00,-736.00
21259,51.00,-23.00,-2159.00,1180.00,1132.00,18004.00,-784.00
21275,-145.00,-102.00,-2388.00,1212.00,1536.00,17888.00,-736.00
21293,-237.00,59.00,-2416.00,1248.00,1600.00,17792.00,-720.00
21309,-22.00,145.00,-2665.00,1424.00,1420.00,17832.00,-752.00
21325,26.00,53.00,-3017.00,1352.00,1040.00,18280.00,-800.00
21342,13.00,-89.00,-3183.00,1272.00,768.00,18320.00,-736.00
21358,117.00,23.00,-3044.00,1452.00,976.00,18172.00,-736.00
21374,286.00,58.00,-2407.00,1416.00,1052.00,17892.00,-752.00
21391,354.00,17.00,-1671.00,1468.00,1352.00,17816.00,-768.00
21408,457.00,94.00,-1308.00,1460.00,1516.00,17912.00,-736.00
21425,595.00,355.00,-1430.00,1316.00,1508.00,18112.00,-752.00
21441,453.00,267.00,-1286.00,1396.00,1144.00,18092.00,-800.00
21457,-41.00,63.00,-883.00,1312.00,1276.00,18232.00,-768.00
21474,-335.00,210.00,-389.00,1308.00,1420.00,18036.00,-768.00
21490,-249.00,89.00,-344.00,1416.00,1440.00,18048.00,-784.00
21508,-153.00,-17.00,-700.00,1388.00,1200.00,18128.00,-768.00
21524,-157.00,-110.00,-879.00,1248.00,1216.00,18204.00,-720.00
21540,-216.00,-164.00,-805.00,1308.00,1116.00,18168.00,-736.00
21557,-218.00,-44.00,-762.00,1332.00,1252.00,18136.00,-752.00
21573,-135.00,194.00,-913.00,1396.00,1156.00,18108.00,-768.00
21590,-21.00,184.00,-997.00,1456.00,976.00,18364.00,-752.00
21606,-11.00,34.00,-1002.00,1408.00,784.00,18608.00,-752.00
21623,201.00,54.00,-788.00,1388.00,1108.00,18076.00,-736.00
21640,515.00,50.00,-578.00,1480.00,1156.00,17948.00,-768.00
21656,531.00,118.00,-354.00,1300.00,1408.00,18096.00,-720.00
21672,412.00,214.00,-411.00,1304.00,1396.00,18152.00,-736.00
21689,483.00,219.00,-730.00,1448.00,1292.00,18220.00,-720.00
21705,507.00,249.00,-1010.00,1404.00,1288.00,18008.00,-736.00
21722,374.00,162.00,-947.00,1248.00,1240.00,18044.00,-768.00
21739,292.00,43.00,-757.00,1232.00,1312.00,17892.00,-752.00
21755,468.00,115.00,-653.00,1244.00,1384.00,17896.00,-768.00
21772,585.00,119.00,-736.00,1188.00,1392.00,17972.00,-784.00
21788,519.00,316.00,-817.00,1364.00,1472.00,18060.00,-768.00
21805,159.00,180.00,-882.00,1372.00,1304.00,18124.00,-752.00
21821,-3.00,135.00,-883.00,1400.00,1212.00,18176.00,-768.00
21838,-46.00,-37.00,-707.00,1348.00,1344.00,17960.00,-768.00
21855,-6.00,-49.00,-675.00,1408.00,1448.00,17976.00,-784.00
21871,235.00,157.00,-797.00,1300.00,1352.00,18256.00,-784.00
21888,134.00,197.00,-1060.00,1404.00,1324.00,18364.00,-768.00
21904,1.00,150.00,-1314.00,1272.00,1312.00,18204.00,-752.00
21920,-79.00,72.00,-1502.00,1304.00,1332.00,18240.00,-736.00
21937,-45.00,233.00,-1715.00,1448.00,1236.00,18232.00,-752.00
21953,163.00,317.00,-1986.00,1248.00,1064.00,18084.00,-736.00
21970,267.00,275.00,-1880.00,1264.00,1356.00,18320.00,-736.00
21987,-88.00,113.00,-2027.00,1244.00,1316.00,18308.00,-784.00
22003,-438.00,-114.00,-2352.00,1244.00,1380.00,18304.00,-784.00
22020,-577.00,-847.00,-2615.00,740.00,1448.00,18296.00,-768.00
22036,-1004.00,-179.00,-2990.00,1228.00,1448.00,17896.00,-736.00
22053,-829.00,27.00,-3413.00,1372.00,1368.00,17456.00,-768.00
22070,-674.00,267.00,-3789.00,1472.00,1184.00,17784.00,-768.00
22086,-730.00,267.00,-3863.00,1580.00,884.00,18084.00,-768.00
22103,-768.00,561.00,-3999.00,1540.00,840.00,18008.00,-768.00
22120,-625.00,732.00,-4014.00,1480.00,1228.00,17792.00,-784.00
22136,-171.00,699.00,-4271.00,1388.00,1344.00,17516.00,-752.00
22153,-206.00,601.00,-4617.00,892.00,1572.00,18044.00,-768.00
22169,-624.00,815.00,-5218.00,1036.00,928.00,18292.00,-752.00
22185,-435.00,948.00,-6129.00,1128.00,668.00,18428.00,-752.00
22203,208.00,656.00,-6821.00,920.00,500.00,18652.00,-768.00
22219,244.00,-247.00,-7255.00,1436.00,856.00,18848.00,-736.00
22236,-227.00,-300.00,-7666.00,1388.00,1060.00,18224.00,-768.00
22252,-303.00,-399.00,-8005.00,1160.00,1380.00,18124.00,-768.00
22268,-461.00,493.00,-8520.00,984.00,1280.00,18040.00,-752.00
22285,-290.00,585.00,-8581.00,836.00,1272.00,17704.00,-752.00
22302,-371.00,22.00,-8634.00,860.00,1272.00,17968.00,-736.00
22319,-793.00,164.00,-8857.00,936.00,1084.00,18132.00,-736.00
22335,-987.00,-620.00,-9582.00,820.00,852.00,18132.00,-768.00
22351,-1118.00,-444.00,-10404.00,968.00,756.00,18012.00,-752.00
22368,-1361.00,-105.00,-12253.00,972.00,536.00,18308.00,-768.00
22385,-1462.00,76.00,-11485.00,1300.00,824.00,18128.00,-768.00
22402,-1595.00,-505.00,-10921.00,1080.00,680.00,18372.00,-736.00
22418,-1626.00,-864.00,-10966.00,892.00,836.00,18192.00,-736.00
22434,-1400.00,-448.00,-10901.00,812.00,524.00,18320.00,-800.00
22452,-932.00,-598.00,-10582.00,1636.00,440.00,18172.00,-720.00
22468,-614.00,72.00,-10601.00,944.00,624.00,18108.00,-784.00
22484,-36.00,1053.00,-10343.00,1448.00,236.00,17832.00,-768.00
22501,579.00,1033.00,-9518.00,788.00,532.00,17872.00,-752.00
22517,961.00,1424.00,-9220.00,908.00,636.00,18100.00,-752.00
22535,1068.00,2294.00,-9235.00,732.00,672.00,18232.00,-768.00
22551,599.00,2277.00,-9026.00,628.00,824.00,18144.00,-752.00
22567,-96.00,1853.00,-8593.00,628.00,272.00,18200.00,-784.00
22584,-675.00,633.00,-8778.00,744.00,504.00,18108.00,-752.00
22600,-1281.00,455.00,-9313.00,360.00,596.00,18144.00,-768.00
22617,-1566.00,424.00,-8812.00,676.00,172.00,17984.00,-768.00
22634,-1398.00,-182.00,-7695.00,964.00,160.00,18192.00,-752.00
22650,-886.00,406.00,-7364.00,552.00,580.00,18052.00,-736.00
22667,-772.00,1305.00,-6517.00,1052.00,196.00,18168.00,-752.00
22683,-760.00,709.00,-4902.00,680.00,24.00,18648.00,-752.00
22700,-796.00,890.00,-4179.00,352.00,332.00,18320.00,-752.00
22716,-859.00,1288.00,-2706.00,1052.00,144.00,18396.00,-768.00
22733,-750.00,565.00,-1100.00,696.00,28.00,18628.00,-768.00
22750,-605.00,-34.00,272.00,788.00,8.00,18484.00,-768.00
22766,-658.00,-452.00,872.00,416.00,-36.00,18452.00,-752.00
22782,-743.00,-832.00,1564.00,876.00,120.00,18244.00,-752.00
22799,-780.00,-1870.00,3123.00,1332.00,108.00,18096.00,-736.00
22815,-512.00,-2447.00,5379.00,1508.00,-112.00,18212.00,-768.00
22832,-485.00,-1948.00,6514.00,972.00,76.00,18384.00,-784.00
22848,-517.00,-557.00,6637.00,1028.00,-16.00,18236.00,-768.00
22864,217.00,-1467.00,7972.00,1040.00,92.00,18180.00,-752.00
22882,-203.00,-2323.00,9371.00,760.00,-24.00,18252.00,-736.00
22898,-742.00,-2542.00,9619.00,684.00,-88.00,18192.00,-784.00
22915,-756.00,-2304.00,10121.00,1220.00,48.00,18028.00,-800.00
22931,-525.00,-1876.00,11454.00,1348.00,-128.00,17916.00,-736.00
22947,-17.00,-1886.00,12801.00,1352.00,144.00,18100.00,-800.00
22965,306.00,-1875.00,13648.00,960.00,84.00,18132.00,-752.00
22981,728.00,-1437.00,13400.00,1104.00,148.00,18032.00,-800.00
22998,1576.00,-1343.00,13563.00,1196.00,76.00,18152.00,-768.00
23014,1336.00,-1040.00,12960.00,956.00,-36.00,18500.00,-768.00
23031,1020.00,-859.00,12997.00,1476.00,40.00,18296.00,-768.00
23048,1023.00,-918.00,13449.00,1168.00,28.00,18076.00,-784.00
23064,957.00,-1325.00,13572.00,1232.00,284.00,17804.00,-752.00
23080,1545.00,-1095.00,13608.00,1664.00,236.00,17540.00,-784.00
23098,2007.00,-1068.00,14182.00,1448.00,72.00,17752.00,-752.00
23114,1814.00,-329.00,14848.00,1744.00,360.00,18132.00,-784.00
23131,1708.00,35.00,14975.00,1264.00,520.00,17968.00,-784.00
23147,1780.00,94.00,14268.00,1564.00,852.00,17668.00,-800.00
23164,1780.00,179.00,14026.00,1188.00,376.00,17908.00,-768.00
23181,2029.00,622.00,13432.00,1144.00,268.00,18036.00,-768.00
23197,1724.00,598.00,12975.00,1236.00,748.00,18244.00,-736.00
23214,1230.00,360.00,12483.00,1508.00,408.00,18412.00,-768.00
23231,674.00,-77.00,12295.00,1268.00,272.00,18468.00,-784.00
23247,398.00,-392.00,11810.00,1344.00,-204.00,18016.00,-784.00
23264,771.00,-1231.00,11867.00,1632.00,292.00,17876.00,-768.00
23280,868.00,-849.00,11609.00,1716.00,676.00,17888.00,-768.00
23297,694.00,-388.00,10835.00,1580.00,168.00,18136.00,-768.00
23314,394.00,-1194.00,10335.00,1332.00,488.00,18500.00,-784.00
23330,356.00,-1424.00,9776.00,1648.00,416.00,18032.00,-752.00
23347,567.00,-1165.00,9510.00,1788.00,436.00,18028.00,-752.00
23363,1107.00,-803.00,8938.00,1756.00,276.00,17828.00,-768.00
23380,1267.00,-687.00,8845.00,1964.00,196.00,18012.00,-800.00
23397,968.00,-134.00,9031.00,1832.00,-48.00,18120.00,-784.00
23413,362.00,-460.00,9595.00,1848.00,388.00,18204.00,-768.00
23430,-193.00,-1227.00,10018.00,2160.00,748.00,18484.00,-752.00
23446,-268.00,-827.00,10051.00,2328.00,360.00,18036.00,-752.00
23463,-121.00,-496.00,9878.00,1892.00,344.00,18192.00,-784.00
23480,-29.00,-502.00,9805.00,2012.00,192.00,18328.00,-736.00
23496,-253.00,-221.00,9643.00,1844.00,416.00,18300.00,-784.00
23513,-284.00,-79.00,9603.00,1912.00,428.00,18012.00,-736.00
23529,-192.00,14.00,9964.00,2076.00,-144.00,17916.00,-768.00
23545,-169.00,-289.00,9964.00,2184.00,-16.00,18716.00,-736.00
23563,-235.00,-522.00,9473.00,1832.00,-324.00,18076.00,-768.00
23579,7.00,-1319.00,9314.00,1896.00,-724.00,17756.00,-800.00
23596,317.00,-1135.00,8934.00,2588.00,0.00,18016.00,-768.00
23612,874.00,-391.00,8472.00,2484.00,292.00,18016.00,-784.00
23628,1105.00,-129.00,7851.00,2456.00,484.00,17612.00,-736.00
23645,825.00,-162.00,7489.00,2300.00,364.00,17752.00,-768.00
23662,360.00,-144.00,6697.00,2160.00,232.00,18088.00,-736.00
23678,198.00,679.00,4931.00,2088.00,84.00,18348.00,-736.00
23695,-7.00,595.00,2679.00,1940.00,-112.00,18292.00,-768.00
23711,-634.00,559.00,122.00,1640.00,-148.00,18404.00,-752.00
23728,-1059.00,-215.00,-1946.00,2120.00,-168.00,18232.00,-768.00
23744,-1140.00,-35.00,-3910.00,2352.00,-128.00,18076.00,-752.00
23760,-774.00,569.00,-5318.00,2616.00,-308.00,17552.00,-784.00
23778,-50.00,1166.00,-6275.00,2692.00,-340.00,17600.00,-768.00
23794,564.00,1569.00,-7079.00,2196.00,-592.00,17948.00,-752.00
23811,1027.00,1251.00,-8500.00,1900.00,-432.00,18216.00,-752.00
23827,766.00,998.00,-10143.00,1908.00,332.00,18300.00,-752.00
23844,20.00,942.00,-11299.00,2252.00,140.00,18220.00,-768.00
23861,-425.00,1092.00,-12405.00,2128.00,232.00,18252.00,-752.00
23877,-534.00,2354.00,-13681.00,2132.00,448.00,18264.00,-752.00
23894,-404.00,1866.00,-14850.00,1648.00,444.00,17568.00,-752.00
23911,-217.00,1732.00,-15624.00,1888.00,252.00,17644.00,-784.00
23927,-141.00,2724.00,-15256.00,1988.00,172.00,17904.00,-784.00
23944,-1047.00,1940.00,-14731.00,1408.00,720.00,18288.00,-752.00
23960,-1033.00,1550.00,-13959.00,2040.00,-880.00,18064.00,-752.00
23977,-835.00,1088.00,-13168.00,1640.00,-300.00,18416.00,-736.00
23994,-321.00,1046.00,-13514.00,1640.00,-424.00,18284.00,-768.00
24010,120.00,1318.00,-13193.00,1520.00,92.00,17648.00,-768.00
24028,540.00,1250.00,-12769.00,1720.00,384.00,17796.00,-784.00
24044,672.00,1297.00,-12642.00,1384.00,328.00,18404.00,-752.00
24060,135.00,1295.00,-12967.00,1348.00,-108.00,18724.00,-752.00
24077,-530.00,1402.00,-13227.00,948.00,104.00,18280.00,-784.00
24094,-921.00,1165.00,-13306.00,1084.00,704.00,17924.00,-736.00
24111,-1182.00,1092.00,-13122.00,1396.00,828.00,18144.00,-768.00
24127,-1528.00,1080.00,-13346.00,1332.00,520.00,17840.00,-752.00
24143,-1237.00,1047.00,-13509.00,1440.00,92.00,17796.00,-752.00
24161,-1321.00,488.00,-13352.00,1276.00,-392.00,17824.00,-752.00
24177,-1838.00,480.00,-13665.00,1028.00,-24.00,18016.00,-752.00
24194,-1922.00,466.00,-13527.00,1108.00,-32.00,17876.00,-752.00
24211,-1376.00,939.00,-13690.00,920.00,16.00,17776.00,-768.00
24227,-547.00,67.00,-13858.00,588.00,-476.00,18264.00,-784.00
24244,-430.00,260.00,-14257.00,1328.00,-716.00,18204.00,-736.00
24260,-208.00,253.00,-14290.00,1332.00,-680.00,18448.00,-768.00
24276,98.00,895.00,-13762.00,1140.00,-452.00,18592.00,-784.00
24293,337.00,1045.00,-13078.00,1468.00,-332.00,18336.00,-736.00
24310,558.00,542.00,-13122.00,1688.00,-364.00,18428.00,-768.00
24327,329.00,551.00,-12764.00,1976.00,-184.00,18456.00,-768.00
24343,20.00,73.00,-11796.00,1200.00,-148.00,18456.00,-768.00
24359,-312.00,599.00,-11589.00,1260.00,-44.00,18152.00,-736.00
24377,90.00,775.00,-12244.00,656.00,112.00,18172.00,-736.00
24393,602.00,-488.00,-13639.00,684.00,60.00,17984.00,-768.00
24410,621.00,633.00,-13124.00,1928.00,-380.00,17752.00,-784.00
24426,695.00,778.00,-11961.00,1332.00,-428.00,18280.00,-768.00
24442,751.00,1536.00,-11560.00,1180.00,-252.00,18352.00,-736.00
24459,593.00,1456.00,-11007.00,764.00,-172.00,18160.00,-768.00
24476,590.00,1016.00,-9929.00,1280.00,72.00,17980.00,-768.00
24493,591.00,-78.00,-8929.00,1444.00,136.00,17896.00,-752.00
24509,1069.00,68.00,-7799.00,1876.00,-48.00,17932.00,-768.00
24525,1345.00,73.00,-5763.00,2168.00,-368.00,18396.00,-768.00
24542,1368.00,158.00,-3173.00,2096.00,-552.00,18780.00,-768.00
24559,1081.00,-404.00,364.00,2024.00,-232.00,18320.00,-736.00
24576,952.00,-926.00,2962.00,1480.00,84.00,18416.00,-768.00
24592,713.00,-1122.00,5158.00,1468.00,124.00,18596.00,-784.00
24608,388.00,-736.00,6955.00,1528.00,0.00,19024.00,-752.00
24625,264.00,-371.00,7754.00,1876.00,-220.00,18708.00,-784.00
24641,162.00,-77.00,9098.00,1824.00,-264.00,18576.00,-768.00
24657,130.00,-471.00,10465.00,1420.00,-124.00,18268.00,-784.00
24675,18.00,-1288.00,11653.00,1016.00,328.00,18260.00,-752.00
24691,173.00,-1415.00,12783.00,1044.00,576.00,18064.00,-768.00
24708,96.00,-1522.00,13987.00,2096.00,420.00,17772.00,-800.00
24724,86.00,24.00,14444.00,968.00,208.00,18104.00,-800.00
24740,129.00,860.00,14319.00,1176.00,332.00,18180.00,-800.00
24758,13.00,-274.00,13614.00,1528.00,352.00,17868.00,-784.00
24774,290.00,33.00,14053.00,1388.00,164.00,18180.00,-768.00
24791,354.00,-24.00,14902.00,1360.00,336.00,17844.00,-752.00
24807,260.00,-13.00,15378.00,1428.00,200.00,18148.00,-800.00
24823,185.00,-642.00,15393.00,1432.00,-312.00,18220.00,-768.00
24841,647.00,-892.00,15257.00,1604.00,-260.00,18124.00,-752.00
24857,1395.00,-672.00,15365.00,1652.00,-296.00,17728.00,-768.00
24873,1921.00,-1139.00,15608.00,1560.00,-232.00,18216.00,-784.00
24890,2268.00,-1176.00,14980.00,1224.00,392.00,18008.00,-784.00
24907,2422.00,-949.00,14777.00,1444.00,840.00,17784.00,-736.00
24924,2073.00,-604.00,14985.00,1184.00,1136.00,18040.00,-752.00
24940,2093.00,-86.00,14500.00,1596.00,1012.00,17800.00,-768.00
24957,2427.00,301.00,14230.00,2052.00,616.00,17760.00,-768.00
24974,2467.00,260.00,14200.00,1360.00,524.00,18108.00,-800.00
24990,2181.00,76.00,13983.00,1540.00,440.00,17844.00,-752.00
25007,1641.00,-749.00,14438.00,1328.00,272.00,18020.00,-752.00
25024,1696.00,-290.00,13676.00,1744.00,1184.00,18240.00,-784.00
25040,1338.00,106.00,12777.00,1712.00,800.00,18000.00,-784.00
25057,1292.00,495.00,11795.00,1984.00,684.00,17992.00,-784.00
25073,1426.00,571.00,11346.00,1976.00,664.00,18092.00,-752.00
25091,1127.00,718.00,10823.00,1548.00,612.00,18240.00,-784.00
25107,926.00,190.00,10600.00,1820.00,648.00,18328.00,-752.00
25123,788.00,312.00,9833.00,1624.00,496.00,18084.00,-736.00
25140,960.00,227.00,8767.00,1836.00,400.00,18168.00,-752.00
25156,1027.00,795.00,7674.00,1972.00,608.00,18188.00,-768.00
25174,960.00,1142.00,6945.00,1892.00,784.00,17924.00,-768.00
25190,1005.00,1305.00,6510.00,1904.00,804.00,17752.00,-752.00
25206,1109.00,1282.00,6273.00,1580.00,540.00,17940.00,-752.00
25223,636.00,212.00,6777.00,308.00,144.00,18072.00,-752.00
25240,868.00,391.00,5641.00,1556.00,452.00,18404.00,-800.00
25256,695.00,489.00,4731.00,1868.00,596.00,18416.00,-816.00
25273,803.00,683.00,3690.00,1972.00,852.00,18104.00,-768.00
25289,1042.00,840.00,3204.00,1996.00,984.00,17832.00,-784.00
25306,1198.00,447.00,3048.00,1584.00,776.00,17832.00,-736.00
25323,876.00,-251.00,2436.00,1320.00,452.00,18580.00,-768.00
25339,251.00,-165.00,1441.00,1404.00,556.00,18760.00,-784.00
25356,15.00,-148.00,418.00,1512.00,716.00,18320.00,-768.00
25372,-52.00,-145.00,-440.00,1688.00,1184.00,18096.00,-736.00
25389,-90.00,-114.00,-1313.00,1776.00,988.00,18220.00,-784.00
25405,-145.00,-237.00,-2310.00,1432.00,776.00,18444.00,-800.00
25421,-290.00,-570.00,-3442.00,1368.00,784.00,18172.00,-784.00
25439,-284.00,-757.00,-3989.00,1796.00,816.00,17768.00,-784.00
25455,-336.00,-284.00,-4423.00,1900.00,768.00,17684.00,-768.00
25472,-157.00,-77.00,-4820.00,1764.00,764.00,17960.00,-752.00
25488,-154.00,-1.00,-5651.00,1684.00,788.00,18108.00,-768.00
25504,-456.00,467.00,-6884.00,1632.00,1124.00,18236.00,-736.00
25521,-705.00,458.00,-8009.00,1512.00,804.00,18208.00,-768.00
25538,-960.00,-145.00,-9118.00,1268.00,992.00,18220.00,-752.00
25554,-1211.00,-560.00,-10436.00,1692.00,1232.00,17960.00,-736.00
25571,-1323.00,-618.00,-11943.00,1800.00,1288.00,18168.00,-720.00
25587,-1451.00,-198.00,-12973.00,1864.00,1072.00,17832.00,-752.00
25605,-1199.00,138.00,-13173.00,1856.00,1140.00,17672.00,-768.00
25621,-956.00,285.00,-13080.00,1756.00,1088.00,18068.00,-736.00
25637,-1020.00,122.00,-12738.00,1680.00,28.00,18348.00,-736.00
25655,-868.00,-116.00,-12092.00,1672.00,4.00,18228.00,-736.00
25671,-220.00,208.00,-11511.00,1836.00,504.00,18012.00,-768.00
25688,225.00,466.00,-10932.00,1976.00,532.00,18520.00,-768.00
25704,-9.00,846.00,-10085.00,1768.00,448.00,18424.00,-752.00
25720,52.00,1000.00,-9191.00,1836.00,520.00,18308.00,-768.00
25737,23.00,947.00,-8081.00,1656.00,308.00,18228.00,-752.00
25754,40.00,751.00,-7405.00,1428.00,460.00,18220.00,-768.00
25771,35.00,773.00,-7044.00,1592.00,688.00,18144.00,-784.00
25787,28.00,1229.00,-7067.00,1540.00,1008.00,18336.00,-784.00
25803,-159.00,1541.00,-6981.00,1584.00,780.00,18120.00,-768.00
25820,-8.00,1339.00,-6896.00,1380.00,688.00,18132.00,-736.00
25836,361.00,1393.00,-7272.00,1344.00,728.00,18132.00,-752.00
25853,777.00,1654.00,-8365.00,1148.00,584.00,18192.00,-768.00
25870,923.00,1808.00,-8901.00,808.00,524.00,18620.00,-768.00
25886,794.00,1134.00,-9566.00,1004.00,992.00,18316.00,-784.00
25903,1043.00,1454.00,-10545.00,796.00,1020.00,18064.00,-752.00
25920,1013.00,990.00,-10583.00,804.00,1004.00,17976.00,-768.00
25936,732.00,793.00,-10468.00,644.00,1136.00,18016.00,-752.00
25953,684.00,754.00,-10382.00,784.00,712.00,18320.00,-752.00
25969,731.00,560.00,-10602.00,584.00,664.00,18316.00,-768.00
25986,831.00,179.00,-11073.00,736.00,1152.00,18044.00,-752.00
26003,710.00,286.00,-11021.00,640.00,908.00,18140.00,-784.00
26019,380.00,47.00,-10567.00,664.00,920.00,18052.00,-768.00
26036,25.00,-422.00,-10382.00,344.00,1112.00,18224.00,-816.00
26052,-76.00,-484.00,-10745.00,904.00,948.00,18308.00,-768.00
26068,-250.00,-1335.00,-10769.00,944.00,888.00,17912.00,-784.00
26085,-127.00,-911.00,-10994.00,908.00,964.00,18176.00,-784.00
26102,-131.00,-1067.00,-11444.00,796.00,1048.00,18108.00,-768.00
26119,-117.00,-1001.00,-11161.00,1144.00,968.00,18180.00,-768.00
26135,-282.00,-1098.00,-10478.00,1008.00,932.00,18420.00,-768.00
26151,-259.00,225.00,-11164.00,1052.00,1112.00,18120.00,-768.00
26169,-27.00,674.00,-11246.00,996.00,1124.00,17804.00,-768.00
26185,311.00,262.00,-10675.00,776.00,956.00,17780.00,-752.00
26202,-173.00,7.00,-9390.00,1192.00,640.00,18100.00,-768.00
26218,-385.00,-602.00,-8236.00,936.00,760.00,18244.00,-768.00
26234,-346.00,-578.00,-7140.00,1208.00,884.00,18140.00,-752.00
26251,271.00,-220.00,-6235.00,1312.00,736.00,17908.00,-784.00
26268,595.00,-420.00,-4772.00,1496.00,560.00,18284.00,-768.00
26285,366.00,-846.00,-2448.00,1664.00,244.00,18692.00,-816.00
26301,85.00,-582.00,-99.00,1704.00,472.00,18464.00,-800.00
26317,68.00,-46.00,2231.00,1532.00,796.00,18520.00,-768.00
26334,-106.00,-348.00,4748.00,1208.00,788.00,18328.00,-768.00
26350,-352.00,-656.00,7067.00,1068.00,760.00,18440.00,-768.00
26366,-385.00,-1204.00,9134.00,1428.00,680.00,18148.00,-784.00
26384,2.00,-1296.00,10872.00,1636.00,576.00,17676.00,-736.00
26400,771.00,-596.00,11831.00,1444.00,664.00,17952.00,-752.00
26417,1198.00,-149.00,12150.00,1112.00,548.00,18412.00,-752.00
26433,990.00,-369.00,12650.00,920.00,1136.00,18576.00,-784.00
26450,281.00,-767.00,13008.00,392.00,1444.00,18496.00,-768.00
26467,-91.00,-1178.00,13543.00,1084.00,1088.00,17844.00,-736.00
26483,139.00,-1786.00,13920.00,816.00,856.00,17896.00,-768.00
26500,571.00,-1168.00,13678.00,1080.00,960.00,17996.00,-784.00
26517,779.00,-383.00,13534.00,1516.00,620.00,18072.00,-752.00
26533,1035.00,-248.00,13825.00,1336.00,512.00,18008.00,-752.00
26550,1332.00,566.00,14023.00,1684.00,1124.00,18060.00,-752.00
26566,1552.00,488.00,14434.00,1824.00,908.00,17748.00,-752.00
26584,1925.00,276.00,14701.00,1800.00,888.00,17764.00,-752.00
26600,2128.00,713.00,14615.00,1360.00,1284.00,18040.00,-752.00
26616,2012.00,914.00,14263.00,1136.00,1064.00,18212.00,-752.00
26633,1905.00,860.00,13785.00,1408.00,1148.00,18180.00,-752.00
26650,1614.00,929.00,13256.00,1264.00,1948.00,18224.00,-768.00
26667,1182.00,897.00,13013.00,1604.00,1600.00,17880.00,-768.00
26683,891.00,797.00,12775.00,1488.00,1440.00,18088.00,-768.00
26700,468.00,443.00,12560.00,1372.00,1128.00,18188.00,-768.00
26717,222.00,106.00,12401.00,1536.00,1056.00,18020.00,-768.00
26733,530.00,220.00,11691.00,1832.00,1016.00,17852.00,-768.00
26749,908.00,602.00,11775.00,2024.00,1280.00,17956.00,-768.00
26767,1292.00,1299.00,11822.00,2416.00,828.00,17536.00,-768.00
26783,1482.00,1499.00,12300.00,1952.00,1008.00,17932.00,-768.00
26800,1279.00,1750.00,12521.00,1688.00,1484.00,18264.00,-784.00
26817,1058.00,1531.00,12443.00,1328.00,1172.00,18164.00,-784.00
26833,992.00,1025.00,12305.00,1452.00,1008.00,18172.00,-768.00
26850,1080.00,762.00,12118.00,1284.00,1036.00,18248.00,-768.00
26867,1131.00,1087.00,11322.00,1568.00,1448.00,18276.00,-736.00
26884,874.00,1537.00,10167.00,1376.00,1340.00,18464.00,-784.00
26900,687.00,1591.00,9384.00,1416.00,1052.00,18180.00,-800.00
26917,631.00,1594.00,9257.00,1672.00,1068.00,17952.00,-752.00
26934,721.00,1638.00,9427.00,1732.00,1304.00,18028.00,-752.00
26950,462.00,1575.00,9483.00,1288.00,1188.00,18152.00,-784.00
26967,444.00,1441.00,8699.00,1036.00,892.00,18680.00,-752.00
26984,584.00,912.00,7972.00,1196.00,912.00,17968.00,-752.00
27000,642.00,811.00,7256.00,1192.00,1408.00,18304.00,-736.00
27017,540.00,678.00,7032.00,1404.00,1736.00,18076.00,-752.00
27033,-168.00,603.00,6903.00,1344.00,1848.00,17960.00,-784.00
27051,-718.00,64.00,6370.00,1388.00,1336.00,18088.00,-800.00
27067,-1300.00,-159.00,5469.00,1084.00,984.00,17920.00,-784.00
27083,-1052.00,-307.00,3282.00,1680.00,1028.00,18132.00,-784.00
27100,-974.00,-222.00,2113.00,1496.00,896.00,18032.00,-736.00
27116,-669.00,-196.00,1519.00,1604.00,900.00,17968.00,-768.00
27133,-748.00,-393.00,883.00,1064.00,1052.00,18424.00,-752.00
27150,-1072.00,-775.00,-820.00,960.00,604.00,18880.00,-800.00
27166,-1188.00,-1483.00,-2941.00,1024.00,676.00,18640.00,-784.00
27183,-1104.00,-1735.00,-4912.00,1408.00,932.00,18580.00,-752.00
27199,-1000.00,-1492.00,-6238.00,1872.00,1068.00,18152.00,-752.00
27216,-861.00,-960.00,-7013.00,2256.00,1264.00,17816.00,-768.00
27233,-793.00,-350.00,-7727.00,2064.00,1216.00,17816.00,-784.00
27249,-585.00,8.00,-8425.00,1940.00,724.00,17888.00,-752.00
27266,-436.00,-64.00,-9421.00,1656.00,456.00,18180.00,-736.00
27282,-338.00,-152.00,-10624.00,1696.00,796.00,18228.00,-736.00
27299,-12.00,-314.00,-11540.00,2008.00,936.00,17792.00,-768.00
27316,204.00,304.00,-12077.00,1884.00,1252.00,17728.00,-752.00
27332,312.00,862.00,-12376.00,1820.00,1208.00,17960.00,-784.00
27348,319.00,763.00,-12453.00,1524.00,820.00,18268.00,-752.00
27366,0.00,913.00,-12623.00,1668.00,980.00,18028.00,-736.00
27382,-14.00,1349.00,-12247.00,1608.00,604.00,18264.00,-752.00
27399,149.00,1180.00,-11942.00,1456.00,944.00,18336.00,-752.00
27415,-154.00,1078.00,-11654.00,1604.00,1192.00,17988.00,-768.00
27432,-634.00,714.00,-11389.00,1348.00,1108.00,18332.00,-752.00
27449,-1236.00,143.00,-11423.00,760.00,924.00,18432.00,-752.00
27465,-1521.00,-52.00,-11717.00,928.00,908.00,18224.00,-752.00
27482,-1351.00,184.00,-11725.00,1468.00,912.00,17812.00,-800.00
27499,-803.00,426.00,-11600.00,1300.00,908.00,17936.00,-768.00
27515,-231.00,804.00,-11780.00,1148.00,1096.00,17980.00,-752.00
27532,-58.00,1426.00,-12145.00,1088.00,876.00,18384.00,-752.00
27548,-286.00,1408.00,-12887.00,980.00,668.00,18364.00,-784.00
27565,-192.00,1054.00,-13385.00,1148.00,148.00,18336.00,-784.00
27582,185.00,1502.00,-13545.00,928.00,480.00,18136.00,-784.00
27598,716.00,1043.00,-13699.00,1124.00,1196.00,17872.00,-768.00
27615,1452.00,1914.00,-13813.00,1416.00,1116.00,17916.00,-768.00
27632,1667.00,1699.00,-13769.00,716.00,1292.00,18276.00,-752.00
27649,1313.00,1461.00,-13883.00,756.00,1408.00,18512.00,-752.00
27665,751.00,606.00,-13217.00,872.00,612.00,18196.00,-736.00
27681,472.00,-200.00,-11863.00,916.00,724.00,18364.00,-784.00
27699,180.00,-496.00,-10951.00,816.00,756.00,18388.00,-768.00
27715,150.00,-530.00,-10265.00,944.00,704.00,18216.00,-784.00
27731,14.00,-874.00,-9611.00,604.00,800.00,18564.00,-768.00
27748,-334.00,-619.00,-9471.00,540.00,1264.00,18300.00,-752.00
27764,-400.00,-566.00,-8876.00,1120.00,956.00,17824.00,-736.00
27781,-255.00,-610.00,-7897.00,1116.00,840.00,17896.00,-784.00
27798,-294.00,-482.00,-7391.00,548.00,968.00,18156.00,-768.00
27814,-174.00,-199.00,-7612.00,956.00,1012.00,18244.00,-752.00
27831,90.00,-78.00,-8474.00,888.00,776.00,18296.00,-768.00
27847,184.00,-261.00,-9309.00,708.00,756.00,18544.00,-768.00
27864,-323.00,-597.00,-9469.00,612.00,772.00,18484.00,-784.00
27880,-788.00,-479.00,-8641.00,516.00,804.00,17836.00,-800.00
27896,-531.00,-61.00,-8234.00,652.00,768.00,17448.00,-784.00
27913,228.00,340.00,-7824.00,872.00,500.00,17672.00,-768.00
27930,623.00,260.00,-6949.00,836.00,496.00,17816.00,-768.00
27947,592.00,-98.00,-5882.00,636.00,664.00,18064.00,-784.00
27963,641.00,-32.00,-4968.00,1012.00,620.00,18092.00,-752.00
27979,642.00,195.00,-3476.00,1000.00,708.00,18160.00,-736.00
27996,266.00,-350.00,-1059.00,1116.00,380.00,18104.00,-784.00
28012,-4.00,-1205.00,1831.00,1060.00,352.00,18268.00,-768.00
28028,-234.00,-1171.00,4516.00,780.00,472.00,18172.00,-720.00
28046,65.00,-890.00,6148.00,900.00,844.00,18128.00,-784.00
28062,806.00,-702.00,7067.00,1088.00,732.00,18232.00,-784.00
28079,917.00,-587.00,8022.00,828.00,704.00,18612.00,-768.00
28095,783.00,-717.00,9233.00,1084.00,1040.00,18252.00,-768.00
28111,873.00,-499.00,10058.00,396.00,1424.00,18340.00,-768.00
28128,776.00,-365.00,10442.00,896.00,1280.00,18112.00,-736.00
28145,629.00,-737.00,11192.00,1044.00,1028.00,18344.00,-784.00
28162,469.00,-1112.00,11487.00,928.00,564.00,18452.00,-752.00
28178,642.00,-1492.00,11829.00,1136.00,516.00,18236.00,-784.00
28194,767.00,-1532.00,11829.00,756.00,1372.00,18320.00,-752.00
28212,661.00,-1328.00,11858.00,840.00,1812.00,18120.00,-736.00
28228,515.00,-777.00,11875.00,1220.00,1684.00,17788.00,-720.00
28244,678.00,-466.00,12175.00,1572.00,1268.00,17692.00,-752.00
28261,778.00,-12.00,12412.00,1564.00,768.00,18120.00,-752.00
28278,870.00,-13.00,12942.00,1872.00,220.00,18048.00,-768.00
28295,1066.00,-59.00,13282.00,1224.00,720.00,17820.00,-752.00
28311,1500.00,-24.00,13038.00,1424.00,1368.00,17636.00,-752.00
28327,1946.00,316.00,12889.00,1588.00,1588.00,17840.00,-736.00
28345,1871.00,737.00,12717.00,1488.00,1516.00,18144.00,-752.00
28361,1569.00,1064.00,12996.00,1776.00,1168.00,18076.00,-752.00
28378,1476.00,1017.00,13407.00,1656.00,968.00,18196.00,-736.00
28395,1239.00,1344.00,13207.00,1124.00,840.00,18468.00,-768.00
28411,1030.00,958.00,11957.00,1200.00,1144.00,18388.00,-800.00
28428,993.00,647.00,11596.00,1708.00,1520.00,18076.00,-752.00
28444,774.00,1151.00,11079.00,1500.00,1656.00,18080.00,-784.00
28462,602.00,1061.00,10761.00,1664.00,1152.00,17876.00,-720.00
28478,581.00,1269.00,10665.00,1716.00,1100.00,17928.00,-784.00
28494,575.00,1117.00,10300.00,1564.00,1088.00,18064.00,-768.00
28512,659.00,804.00,9886.00,1760.00,1208.00,18080.00,-768.00
28528,712.00,885.00,9277.00,1772.00,1332.00,18020.00,-768.00
28545,585.00,1027.00,9121.00,1620.00,1488.00,18140.00,-752.00
28561,435.00,776.00,9180.00,1652.00,1360.00,17892.00,-752.00
28578,476.00,575.00,9491.00,1588.00,948.00,18164.00,-752.00
28595,686.00,617.00,9385.00,1540.00,956.00,18104.00,-768.00
28611,690.00,758.00,8702.00,1520.00,1040.00,18560.00,-784.00
28627,562.00,692.00,7722.00,1340.00,1288.00,18196.00,-768.00
28644,488.00,342.00,7227.00,1448.00,1744.00,18156.00,-800.00
28661,297.00,236.00,6988.00,1596.00,1584.00,18176.00,-768.00
28678,354.00,660.00,6563.00,1384.00,1212.00,18384.00,-784.00
28694,1072.00,817.00,6017.00,1372.00,816.00,18008.00,-752.00
28710,1673.00,993.00,5450.00,1588.00,1144.00,18584.00,-736.00
28728,1667.00,856.00,4989.00,1360.00,1336.00,18296.00,-736.00
28744,1058.00,919.00,4512.00,1636.00,1380.00,18280.00,-768.00
28761,721.00,711.00,3467.00,1472.00,1624.00,18256.00,-736.00
28777,433.00,280.00,1902.00,1236.00,1536.00,18280.00,-736.00
28794,282.00,-34.00,-58.00,1316.00,1380.00,18400.00,-784.00
28811,180.00,-320.00,-1630.00,1264.00,1388.00,18224.00,-752.00
28827,-118.00,-503.00,-2713.00,1388.00,1344.00,17988.00,-784.00
28844,-326.00,-566.00,-3552.00,1560.00,1692.00,17692.00,-784.00
28860,-568.00,-623.00,-4251.00,1552.00,1660.00,17796.00,-768.00
28877,-1110.00,-416.00,-5131.00,1596.00,1516.00,18116.00,-768.00
28894,-1346.00,-314.00,-5712.00,1868.00,1160.00,17940.00,-736.00
28910,-1200.00,18.00,-6161.00,1804.00,1052.00,17792.00,-768.00
28926,-771.00,-72.00,-6953.00,1540.00,1108.00,17780.00,-768.00
28944,-497.00,-183.00,-8116.00,1732.00,1628.00,17852.00,-752.00
28960,-602.00,294.00,-8968.00,1556.00,1544.00,17768.00,-784.00
28977,-774.00,307.00,-9400.00,1796.00,1792.00,17852.00,-752.00
28993,-876.00,-11.00,-9892.00,1848.00,1708.00,17780.00,-736.00
29009,-849.00,-97.00,-10597.00,1792.00,1148.00,17912.00,-736.00
29027,-692.00,-77.00,-11132.00,1400.00,900.00,18348.00,-784.00
29043,-615.00,-187.00,-11926.00,1040.00,580.00,18428.00,-768.00
29060,-252.00,-472.00,-12484.00,1472.00,928.00,18244.00,-800.00
29076,85.00,-120.00,-12444.00,1812.00,1092.00,17940.00,-768.00
29092,216.00,6.00,-11675.00,1812.00,1144.00,18104.00,-800.00
29110,112.00,114.00,-10520.00,1596.00,1196.00,18092.00,-752.00
29126,191.00,53.00,-9754.00,1284.00,1244.00,18340.00,-784.00
29143,434.00,30.00,-9115.00,1420.00,956.00,18000.00,-768.00
29159,598.00,-114.00,-8773.00,1236.00,1092.00,18452.00,-784.00
29175,465.00,313.00,-9079.00,1248.00,1292.00,18404.00,-736.00
29193,153.00,579.00,-9288.00,1104.00,1472.00,18256.00,-768.00
29209,-69.00,635.00,-8843.00,1120.00,1616.00,18192.00,-784.00
29225,-398.00,890.00,-8507.00,980.00,1180.00,18216.00,-784.00
29242,-681.00,301.00,-8082.00,1272.00,1044.00,18240.00,-736.00
29258,-602.00,321.00,-8365.00,1188.00,1208.00,18164.00,-768.00
29276,-228.00,193.00,-8970.00,1192.00,1112.00,18096.00,-784.00
29292,77.00,467.00,-9534.00,1264.00,1148.00,18072.00,-752.00
29308,226.00,523.00,-9393.00,892.00,1164.00,18196.00,-768.00
29325,204.00,721.00,-9672.00,960.00,1460.00,18108.00,-752.00
29341,-194.00,662.00,-9874.00,892.00,1408.00,17908.00,-768.00
29359,-315.00,363.00,-10111.00,740.00,1524.00,17868.00,-768.00
29375,-137.00,-149.00,-10767.00,684.00,1376.00,18084.00,-752.00
29391,58.00,-303.00,-11085.00,772.00,1244.00,17984.00,-752.00
29408,-408.00,1332.00,-11367.00,1144.00,1108.00,18152.00,-768.00
29425,-513.00,1381.00,-11185.00,368.00,1048.00,18148.00,-752.00
29442,-358.00,347.00,-10479.00,580.00,976.00,18256.00,-752.00
29458,-248.00,97.00,-9697.00,900.00,776.00,18344.00,-800.00
29474,-324.00,46.00,-9366.00,600.00,920.00,18328.00,-768.00
29491,-303.00,63.00,-9216.00,656.00,1072.00,18052.00,-752.00
29507,153.00,295.00,-9700.00,952.00,1080.00,18172.00,-752.00
29524,237.00,611.00,-9947.00,900.00,868.00,18316.00,-752.00
29541,-205.00,1680.00,-10378.00,1012.00,1044.00,18184.00,-752.00
29557,-135.00,1312.00,-10322.00,388.00,1276.00,17908.00,-768.00
29574,-331.00,568.00,-9795.00,500.00,1072.00,17988.00,-800.00
29590,-654.00,198.00,-8820.00,480.00,916.00,18164.00,-752.00
29607,-887.00,20.00,-8072.00,720.00,676.00,18116.00,-768.00
29624,-691.00,-84.00,-7227.00,688.00,864.00,17948.00,-736.00
29640,-16.00,15.00,-5626.00,408.00,764.00,17924.00,-736.00
29657,386.00,-509.00,-3206.00,768.00,604.00,18132.00,-752.00
29673,350.00,-565.00,-1214.00,920.00,504.00,18324.00,-752.00
29689,350.00,-686.00,348.00,988.00,568.00,18364.00,-768.00
29706,499.00,-354.00,1971.00,952.00,628.00,18180.00,-752.00
29722,668.00,-342.00,3383.00,928.00,772.00,18180.00,-768.00
29739,640.00,-308.00,5018.00,1156.00,816.00,18108.00,-736.00
29756,755.00,-741.00,6962.00,980.00,1000.00,18260.00,-768.00
29772,1072.00,-608.00,8297.00,684.00,964.00,18140.00,-784.00
29789,1345.00,-354.00,9210.00,720.00,948.00,18244.00,-736.00
29805,1459.00,-165.00,9888.00,696.00,1276.00,18460.00,-752.00
29821,1342.00,368.00,9623.00,264.00,1380.00,18564.00,-752.00
29838,1157.00,650.00,9643.00,300.00,1572.00,18200.00,-768.00
29855,748.00,310.00,10009.00,488.00,1152.00,18472.00,-768.00
29872,218.00,-53.00,10652.00,716.00,952.00,18748.00,-720.00
29888,105.00,489.00,10806.00,748.00,892.00,18220.00,-768.00
29904,725.00,553.00,10867.00,1016.00,1036.00,17804.00,-752.00
29921,1117.00,518.00,11296.00,1012.00,1472.00,17712.00,-752.00
29938,1000.00,550.00,11207.00,504.00,1540.00,17724.00,-752.00
29955,815.00,-85.00,11584.00,824.00,1520.00,17560.00,-752.00
29971,768.00,-1048.00,11893.00,964.00,1640.00,17516.00,-736.00
29988,1010.00,-1737.00,12296.00,848.00,1760.00,17524.00,-784.00
30005,1752.00,-353.00,12235.00,1388.00,1440.00,17736.00,-752.00
30021,2657.00,2326.00,11639.00,1448.00,1492.00,17572.00,-752.00
30039,2356.00,5830.00,10338.00,616.00,1588.00,17964.00,-768.00
30055,3104.00,4021.00,10356.00,448.00,1892.00,17840.00,-736.00
30071,2777.00,3705.00,10696.00,420.00,2112.00,18344.00,-752.00
30088,1821.00,3030.00,10883.00,-72.00,2364.00,18588.00,-752.00
30105,553.00,1757.00,10908.00,284.00,2144.00,18216.00,-752.00
30121,-8.00,898.00,10623.00,540.00,2216.00,18272.00,-752.00
30138,-48.00,891.00,10271.00,520.00,1988.00,18132.00,-768.00
30154,-96.00,1005.00,9808.00,768.00,1596.00,18132.00,-752.00
30171,-224.00,663.00,9501.00,412.00,1728.00,18280.00,-768.00
30188,-599.00,221.00,9154.00,552.00,1676.00,18416.00,-752.00
30204,-774.00,104.00,8448.00,648.00,1796.00,18224.00,-736.00
30221,-704.00,110.00,7606.00,604.00,2212.00,18048.00,-768.00
30237,-255.00,225.00,6994.00,900.00,2204.00,17848.00,-752.00
30254,216.00,582.00,6555.00,952.00,1852.00,17608.00,-768.00
30270,586.00,693.00,6420.00,752.00,1928.00,18136.00,-752.00
30287,559.00,733.00,6096.00,532.00,1848.00,18156.00,-768.00
30304,264.00,419.00,5800.00,620.00,2144.00,17884.00,-752.00
30320,-206.00,-98.00,5274.00,744.00,2516.00,18164.00,-768.00
30337,-861.00,281.00,4740.00,2016.00,820.00,18688.00,-752.00
30353,-1316.00,-1317.00,4470.00,116.00,2332.00,18316.00,-768.00
30370,-912.00,-921.00,3620.00,1336.00,1412.00,17792.00,-752.00
30387,-82.00,-446.00,4045.00,1176.00,1368.00,17620.00,-736.00
30403,525.00,-859.00,4729.00,1500.00,1204.00,17572.00,-768.00
30419,1126.00,-385.00,5586.00,1300.00,1264.00,17968.00,-784.00
30436,1338.00,-30.00,6068.00,1244.00,1316.00,18348.00,-752.00
30453,910.00,58.00,5931.00,656.00,1552.00,18816.00,-752.00
30470,506.00,-624.00,5692.00,664.00,1504.00,18420.00,-784.00
30486,393.00,-1470.00,5532.00,1272.00,1756.00,18220.00,-752.00
30502,131.00,128.00,5636.00,1648.00,1988.00,18068.00,-752.00
30519,11.00,514.00,4714.00,1188.00,2128.00,18176.00,-768.00
30536,-404.00,718.00,3270.00,1180.00,2152.00,18080.00,-784.00
30553,-1019.00,91.00,1727.00,952.00,2068.00,18164.00,-752.00
30569,-1667.00,-1021.00,3.00,928.00,2004.00,18304.00,-768.00
30585,-2176.00,-1937.00,-1882.00,920.00,2060.00,17944.00,-752.00
30602,-2286.00,-2342.00,-3803.00,1508.00,2260.00,17932.00,-752.00
30619,-2615.00,-1872.00,-5418.00,1556.00,2160.00,17960.00,-736.00
30636,-2915.00,-2026.00,-7404.00,1492.00,1760.00,18156.00,-736.00
30652,-2871.00,-1760.00,-8967.00,1704.00,1388.00,18008.00,-752.00
30669,-2913.00,-1688.00,-9707.00,1728.00,1360.00,17876.00,-720.00
30686,-2762.00,-1501.00,-10045.00,2176.00,1160.00,17920.00,-768.00
30703,-2414.00,-615.00,-10090.00,2156.00,976.00,17780.00,-752.00
30720,-1609.00,-630.00,-10301.00,2044.00,684.00,17604.00,-768.00
30736,-460.00,-752.00,-10671.00,2012.00,936.00,17900.00,-752.00
30752,-42.00,-615.00,-11304.00,2016.00,904.00,18228.00,-752.00
30769,213.00,-459.00,-11899.00,1940.00,1104.00,18004.00,-768.00
30786,151.00,-166.00,-12315.00,1816.00,1364.00,18264.00,-736.00
30802,-102.00,-209.00,-12425.00,1828.00,1208.00,18348.00,-736.00
30819,-401.00,-55.00,-12758.00,1588.00,1552.00,18772.00,-768.00
30836,-756.00,509.00,-13471.00,1632.00,1220.00,18680.00,-768.00
30853,-351.00,406.00,-13407.00,1952.00,980.00,17880.00,-768.00
30869,51.00,1202.00,-12989.00,1868.00,1096.00,17960.00,-784.00
30885,85.00,1487.00,-12848.00,1688.00,1128.00,18056.00,-784.00
30903,-178.00,1056.00,-12406.00,1824.00,972.00,18036.00,-752.00
30919,-299.00,1016.00,-11653.00,1632.00,1184.00,18096.00,-752.00
30936,-492.00,509.00,-11046.00,1244.00,668.00,18040.00,-736.00
30952,-550.00,111.00,-10884.00,1136.00,944.00,18248.00,-752.00
30969,-832.00,73.00,-11089.00,1096.00,1140.00,18068.00,-720.00
30986,-968.00,-534.00,-10992.00,1448.00,796.00,17980.00,-752.00
31002,-786.00,-1037.00,-10267.00,1324.00,836.00,18036.00,-768.00
31019,-382.00,-1134.00,-9603.00,1368.00,816.00,18076.00,-768.00
31036,-60.00,-516.00,-9249.00,1588.00,1168.00,17976.00,-736.00
31052,394.00,136.00,-9374.00,1496.00,1204.00,17980.00,-752.00
31069,284.00,464.00,-9514.00,1236.00,1220.00,18308.00,-752.00
31085,93.00,199.00,-9274.00,1440.00,876.00,18428.00,-768.00
31101,-313.00,-532.00,-9064.00,1376.00,912.00,18492.00,-768.00
31119,-427.00,-623.00,-9045.00,1324.00,1148.00,18108.00,-752.00
31135,-279.00,-389.00,-9207.00,1184.00,1312.00,17972.00,-768.00
31152,-335.00,210.00,-9426.00,1436.00,1152.00,18036.00,-736.00
31168,-519.00,927.00,-9884.00,1256.00,1072.00,18192.00,-768.00
31185,-376.00,1014.00,-10246.00,1276.00,832.00,18116.00,-768.00
31202,-251.00,792.00,-10281.00,1196.00,928.00,18048.00,-736.00
31218,-173.00,1158.00,-10085.00,1148.00,876.00,18096.00,-752.00
31235,-41.00,1386.00,-9797.00,1248.00,808.00,18204.00,-752.00
31251,140.00,1282.00,-9521.00,844.00,960.00,18300.00,-736.00
31268,25.00,1466.00,-9526.00,684.00,1200.00,18020.00,-768.00
31285,-50.00,1401.00,-9310.00,980.00,816.00,18048.00,-752.00
31301,-131.00,385.00,-7694.00,1284.00,560.00,18316.00,-800.00
31318,-440.00,-300.00,-5912.00,1144.00,632.00,18340.00,-752.00
31334,-529.00,-788.00,-3439.00,1728.00,440.00,17876.00,-736.00
31350,-224.00,-958.00,-352.00,1680.00,628.00,17824.00,-752.00
31368,282.00,-750.00,2358.00,1908.00,1172.00,17580.00,-768.00
31384,881.00,-29.00,4547.00,1348.00,964.00,17860.00,-768.00
31400,1368.00,595.00,6117.00,1300.00,1064.00,18040.00,-784.00
31417,1455.00,585.00,7566.00,1236.00,792.00,18564.00,-752.00
31433,1346.00,261.00,8994.00,1148.00,892.00,18708.00,-736.00
31451,1044.00,64.00,9497.00,924.00,868.00,18844.00,-736.00
31467,1179.00,337.00,9919.00,928.00,1292.00,18380.00,-768.00
31483,1037.00,639.00,10155.00,392.00,1696.00,18364.00,-768.00
31500,685.00,766.00,10161.00,480.00,1624.00,18364.00,-768.00
31516,288.00,732.00,10344.00,436.00,1748.00,18012.00,-784.00
31534,43.00,363.00,10738.00,792.00,1636.00,17788.00,-752.00
31550,206.00,-352.00,10890.00,992.00,1096.00,17784.00,-736.00
31566,507.00,-452.00,11015.00,1000.00,1048.00,17880.00,-768.00
31583,1081.00,-459.00,11254.00,1308.00,1108.00,17784.00,-736.00
31600,1501.00,185.00,10998.00,1128.00,1200.00,18408.00,-736.00
31617,1701.00,636.00,11042.00,1088.00,1132.00,18252.00,-768.00
31633,1335.00,427.00,11551.00,1036.00,1220.00,18352.00,-752.00
31650,873.00,436.00,11907.00,1084.00,1636.00,18084.00,-784.00
31667,770.00,548.00,11864.00,1260.00,1792.00,17540.00,-752.00
31683,1102.00,758.00,11855.00,1232.00,2172.00,17636.00,-736.00
31699,1182.00,966.00,11805.00,1020.00,2196.00,17688.00,-784.00
31717,1090.00,1174.00,11282.00,996.00,1892.00,17960.00,-752.00
31733,801.00,1189.00,10745.00,1128.00,1780.00,18124.00,-768.00
31750,542.00,1068.00,10404.00,1144.00,1548.00,18056.00,-768.00
31767,569.00,1141.00,10049.00,1136.00,1308.00,18176.00,-768.00
31783,734.00,816.00,9545.00,772.00,1264.00,18216.00,-768.00
31800,646.00,557.00,9013.00,1040.00,1580.00,18420.00,-768.00
31816,203.00,561.00,8413.00,1128.00,1520.00,18344.00,-752.00
31834,-261.00,760.00,7764.00,1024.00,1264.00,18552.00,-784.00
31850,-219.00,752.00,7032.00,1016.00,868.00,18524.00,-768.00
31866,-28.00,473.00,6934.00,1304.00,740.00,18012.00,-784.00
31883,324.00,241.00,7409.00,1436.00,1132.00,17780.00,-768.00
31899,373.00,516.00,7845.00,1448.00,1716.00,17824.00,-784.00
31917,93.00,606.00,8041.00,1328.00,1880.00,17920.00,-752.00
31933,-297.00,536.00,8087.00,1528.00,1692.00,17800.00,-768.00
31949,-367.00,457.00,8217.00,1528.00,1488.00,17660.00,-800.00
31966,-245.00,762.00,8499.00,1532.00,1412.00,17880.00,-784.00
31982,151.00,1419.00,8281.00,1408.00,968.00,18272.00,-752.00
32000,737.00,1609.00,7534.00,1076.00,652.00,18388.00,-800.00
32016,1526.00,1523.00,6673.00,1008.00,1008.00,18432.00,-768.00
32032,1581.00,1302.00,5876.00,1168.00,1568.00,18460.00,-768.00
32049,1121.00,1039.00,4976.00,996.00,1756.00,18388.00,-768.00
32066,652.00,522.00,4233.00,1056.00,1660.00,18248.00,-736.00
32082,601.00,408.00,3678.00,1344.00,1692.00,18004.00,-768.00
32099,941.00,184.00,2813.00,1436.00,1724.00,17728.00,-752.00
32115,1163.00,285.00,1481.00,1280.00,1744.00,18140.00,-784.00
32133,1002.00,178.00,-175.00,1072.00,1892.00,18352.00,-736.00
32149,329.00,-349.00,-1717.00,896.00,1948.00,18352.00,-768.00
32165,-451.00,-912.00,-2981.00,1032.00,2004.00,18044.00,-752.00
32182,-939.00,-1101.00,-3940.00,1104.00,1800.00,18180.00,-784.00
32199,-1352.00,-1178.00,-5030.00,1084.00,1432.00,18376.00,-736.00
32216,-1566.00,-1276.00,-6177.00,1260.00,1340.00,18384.00,-784.00
32232,-1563.00,-1182.00,-6854.00,1304.00,1168.00,18152.00,-768.00
