time,seconds_elapsed,z,y,x
1751223251305253600,0.233253662109375,-0.00000286102294921875,-0.0071641504764556885,-0.0035562515258789062
1751223251324080000,0.252080078125,-0.007985115051269531,0.017524302005767822,-0.006292164325714111
1751223251342906400,0.27090625,0.0006036758422851562,-0.013729631900787354,0.01730293035507202
1751223251371146000,0.29914599609375,0.00001430511474609375,-0.0072224438190460205,0.009472787380218506
1751223251399385900,0.3273857421875,0.008214950561523438,-0.0014910101890563965,0.007454633712768555
1751223251418212000,0.346212158203125,0.0030145645141601562,0.007132023572921753,0.007298529148101807
1751223251437038600,0.36503857421875,0.0032253265380859375,-0.006635695695877075,0.02018684148788452
1751223251455864800,0.38386474609375,-0.006415367126464844,0.0024555623531341553,0.010144650936126709
1751223251474691300,0.40269140625,-0.0014781951904296875,-0.006850689649581909,-0.017771244049072266
1751223251493517800,0.421517822265625,-0.0065250396728515625,-0.0016297399997711182,-0.008041203022003174
1751223251512344000,0.440343994140625,-0.0016126632690429688,0.012548506259918213,-0.0034703612327575684
1751223251531170600,0.459170654296875,-0.007122993469238281,-0.010512828826904297,0.0009203553199768066
1751223251549997000,0.4779970703125,0.011870384216308594,-0.0009840130805969238,-0.008364319801330566
1751223251568823600,0.496823486328125,-0.006962776184082031,-0.00026988983154296875,-0.012648522853851318
1751223251587649800,0.51564990234375,0.006962776184082031,-0.005125850439071655,-0.016996443271636963
1751223251606476300,0.534476318359375,0.011098861694335938,0.004519075155258179,-0.02099543809890747
1751223251625302800,0.553302734375,0.0013360977172851562,-0.00913923978805542,0.01662546396255493
1751223251644129000,0.57212890625,0.010616302490234375,0.00513148307800293,0.002501368522644043
1751223251662955500,0.59095556640625,0.010011672973632812,-0.00906267762184143,-0.011990249156951904
1751223251681782000,0.609781982421875,0.005209922790527344,0.0007789134979248047,-0.011461079120635986
1751223251700608300,0.628608154296875,-0.004261016845703125,-0.008458882570266724,0.0025330185890197754
1751223251719434800,0.647434814453125,-0.004168510437011719,-0.01282644271850586,0.006983339786529541
1751223251738261200,0.66626123046875,0.024140357971191406,0.015690237283706665,-0.012176096439361572
1751223251757087500,0.68508740234375,0.005096435546875,0.001153498888015747,-0.002730131149291992
1751223251775914000,0.7039140625,0.00013637542724609375,0.006129235029220581,0.0016685128211975098
1751223251794740500,0.722740478515625,0.009461402893066406,-0.003434419631958008,-0.0030540823936462402
1751223251813567000,0.74156689453125,0.0045299530029296875,0.001370847225189209,0.015485525131225586
1751223251832393200,0.760393310546875,0.00446319580078125,0.010723382234573364,0.005695700645446777
1751223251851219700,0.7792197265625,0.004319190979003906,0.0011697709560394287,-0.008711397647857666
1751223251870046200,0.798046142578125,-0.009936332702636719,0.005971133708953857,0.00543445348739624
1751223251888872400,0.81687255859375,-0.0006513595581054688,0.0012125968933105469,-0.008836865425109863
1751223251907699000,0.835698974609375,-0.0007038116455078125,0.010718435049057007,-0.008726179599761963
1751223251926525400,0.854525390625,0.008656501770019531,-0.013098984956741333,0.010366320610046387
1751223251945351700,0.8733515625,0.013080596923828125,0.006213247776031494,-0.003961682319641113
1751223251964178200,0.89217822265625,0.003330230712890625,-0.007975608110427856,0.005368590354919434
1751223251983004700,0.911004638671875,0.0077724456787109375,0.0016874969005584717,-0.008632361888885498
1751223252001831200,0.9298310546875,-0.0017242431640625,-0.02192041277885437,0.0006170272827148438
1751223252020657400,0.948657470703125,-0.001667022705078125,-0.0024260282516479492,0.005279898643493652
1751223252039484000,0.96748388671875,0.0028734207153320312,0.002426356077194214,-0.004202008247375488
1751223252058310400,0.986310302734375,0.007576942443847656,0.0025693178176879883,0.0005118846893310547
1751223252077136600,1.00513671875,0.012125968933105469,0.0023257434368133545,-0.00426030158996582
1751223252095963100,1.023963134765625,-0.0022983551025390625,-0.0021660029888153076,0.004922986030578613
1751223252114789600,1.04278955078125,0.0068798065185546875,-0.0021170973777770996,0.004970967769622803
1751223252133615900,1.061615966796875,0.006824493408203125,-0.002127319574356079,0.00012987852096557617
1751223252152442400,1.0804423828125,0.0018854141235351562,-0.00199088454246521,0.00013709068298339844
1751223252171268900,1.099268798828125,0.011013984680175781,0.012258678674697876,0.009413480758666992
1751223252190095000,1.11809521484375,-0.0032291412353515625,0.007438600063323975,0.004373729228973389
1751223252208921600,1.136921630859375,-0.0031194686889648438,-0.007026076316833496,-0.00026595592498779297
1751223252227748000,1.155748046875,0.0015478134155273438,-0.016296327114105225,-0.0003096461296081543
1751223252246574600,1.17457470703125,0.010911941528320312,0.007670670747756958,0.0043839216232299805
1751223252265400800,1.19340087890625,-0.0081787109375,-0.006331056356430054,-0.005228221416473389
1751223252284227300,1.212227294921875,0.015154838562011719,0.012611210346221924,0.018374323844909668
1751223252303053800,1.2310537109375,0.0006961822509765625,0.0030057430267333984,-0.005389809608459473
1751223252321880000,1.249880126953125,0.0005207061767578125,0.01260918378829956,-0.010255694389343262
1751223252340706600,1.26870654296875,0.009930610656738281,-0.006496995687484741,0.008694589138031006
1751223252359533000,1.287532958984375,0.009538650512695312,0.012675493955612183,-0.005687594413757324
1751223252378359600,1.306359619140625,0.004689216613769531,-0.010971516370773315,0.008408844470977783
1751223252397185800,1.325185791015625,-0.009608268737792969,0.013098269701004028,-0.015085697174072266
1751223252416012300,1.34401220703125,0.02866077423095703,-0.005980461835861206,0.015156090259552002
1751223252434838800,1.3628388671875,0.017179489135742188,0.007795572280883789,-0.03381377458572388
1751223252453665000,1.3816650390625,-0.04763317108154297,0.003955721855163574,0.0319024920463562
1751223252472491500,1.400491455078125,0.03232765197753906,-0.019652962684631348,-0.0006241202354431152
1751223252491318000,1.419318115234375,-0.019751548767089844,0.02276107668876648,-0.01417851448059082
1751223252510144300,1.438144287109375,0.0088348388671875,-0.005253642797470093,-0.0059413909912109375
1751223252528970800,1.456970703125,-0.0005207061767578125,-0.0006092190742492676,0.01295560598373413
1751223252547797200,1.47579736328125,0.013713836669921875,-0.005648165941238403,-0.01016324758529663
1751223252566623500,1.49462353515625,-0.005330085754394531,-0.010160982608795166,0.0038414597511291504
1751223252585450000,1.513449951171875,0.014025688171386719,0.019015610218048096,-0.039808034896850586
1751223252604276500,1.5322763671875,-0.033695220947265625,-0.00020948052406311035,0.013668656349182129
1751223252623103000,1.55110302734375,0.04614067077636719,0.0280551016330719,-0.05415624380111694
1751223252641929200,1.56992919921875,-0.07569599151611328,-0.013411909341812134,0.04344385862350464
1751223252660755700,1.588755615234375,0.02882862091064453,0.005985438823699951,0.01578378677368164
1751223252679582200,1.607582275390625,0.00006008148193359375,0.03932711482048035,-0.037566959857940674
1751223252698408400,1.626408447265625,0.0048274993896484375,-0.016884684562683105,0.03100830316543579
1751223252717235000,1.64523486328125,-0.03751945495605469,-0.02680489420890808,0.06167834997177124
1751223252736061400,1.6640615234375,-0.051156044006347656,-0.01441463828086853,0.04643946886062622
1751223252754887700,1.6828876953125,0.10362720489501953,0.006655305624008179,-0.030501067638397217
1751223252773714200,1.701714111328125,0.04845905303955078,0.02778342366218567,-0.04095804691314697
1751223252792540700,1.720540771484375,0.00024127960205078125,0.01805153489112854,-0.05016183853149414
1751223252811367000,1.739366943359375,-0.049323081970214844,-0.01676824688911438,0.05467003583908081
1751223252830193400,1.758193359375,0.04526329040527344,-0.02980056405067444,0.05664032697677612
1751223252849020000,1.77702001953125,-0.06717586517333984,0.032594770193099976,-0.010007858276367188
1751223252867846400,1.795846435546875,0.010462760925292969,-0.017886877059936523,-0.027844130992889404
1751223252886672600,1.814672607421875,0.00046253204345703125,0.010748296976089478,-0.043663859367370605
1751223252905499100,1.8334990234375,-0.022622108459472656,0.039154380559921265,-0.04359090328216553
1751223252924325600,1.85232568359375,0.0013074874877929688,-0.012381315231323242,0.025998830795288086
1751223252943151900,1.87115185546875,0.0247039794921875,0.003004401922225952,0.027460098266601562
1751223252961978400,1.889978271484375,0.010153770446777344,0.003872096538543701,-0.0040621161460876465
1751223252980804900,1.908804931640625,-0.008724212646484375,-0.038811296224594116,0.051671504974365234
1751223252999631400,1.92763134765625,-0.023026466369628906,-0.015304028987884521,0.0747368335723877
1751223253018457600,1.94645751953125,-0.045119285583496094,0.02807214856147766,-0.04994678497314453
1751223253037284000,1.9652841796875,-0.0026140213012695312,0.017953723669052124,-0.041918396949768066
1751223253056110600,1.984110595703125,0.0017290115356445312,-0.001569896936416626,0.013742387294769287
1751223253074936800,2.002936767578125,0.06636619567871094,0.017583787441253662,-0.030347704887390137
1751223253093763300,2.021763427734375,0.05022430419921875,0.003095269203186035,-0.007285714149475098
1751223253112589800,2.04058984375,-0.026287078857421875,0.0027565062046051025,-0.0032738447189331055
1751223253131416000,2.059416015625,-0.034687042236328125,0.006702631711959839,0.007306218147277832
1751223253150242600,2.07824267578125,-0.019823074340820312,-0.0031585693359375,0.0004652738571166992
1751223253169069000,2.097069091796875,0.008095741271972656,-0.0037278831005096436,-0.0024209022521972656
1751223253187895300,2.115895263671875,-0.0435028076171875,0.010747730731964111,-0.0007883310317993164
1751223253206721800,2.1347216796875,-0.0098724365234375,-0.007734239101409912,0.01082521677017212
1751223253225548300,2.15354833984375,0.013875007629394531,-0.04989752173423767,0.03723388910293579
1751223253244374500,2.17237451171875,0.0271759033203125,-0.03941497206687927,0.08573615550994873
1751223253263201000,2.191200927734375,0.02141284942626953,-0.02948901057243347,0.041390419006347656
1751223253282027500,2.210027587890625,0.01646709442138672,-0.0005245208740234375,0.020019233226776123
1751223253300854000,2.22885400390625,-0.011447906494140625,-0.013572394847869873,0.10227859020233154
1751223253329093600,2.25709375,-0.057262420654296875,-0.043754130601882935,0.06578785181045532
1751223253347920000,2.275919921875,-0.009458541870117188,-0.013702809810638428,0.04388737678527832
1751223253366746400,2.294746337890625,0.07375431060791016,-0.010632932186126709,-0.02593308687210083
1751223253385572900,2.31357275390625,-0.031020164489746094,0.017843574285507202,0.00020062923431396484
1751223253404399000,2.332399169921875,0.049510955810546875,0.018034309148788452,0.019229590892791748
1751223253423225600,2.3512255859375,-0.0031566619873046875,-0.01969391107559204,0.12205982208251953
1751223253442052000,2.370052001953125,-0.06854248046875,-0.06471508741378784,0.14119744300842285
1751223253460878600,2.388878662109375,-0.057616233825683594,-0.060986846685409546,0.13974475860595703
1751223253489118200,2.4171181640625,-0.0054759979248046875,-0.014202773571014404,-0.053456008434295654
1751223253507944400,2.4359443359375,0.01799488067626953,0.02874690294265747,-0.17282700538635254
1751223253526771000,2.45477099609375,0.041233062744140625,0.07518815994262695,-0.22687017917633057
1751223253545597400,2.473597412109375,0.04879474639892578,0.09624072909355164,-0.18744421005249023
1751223253564423700,2.492423583984375,0.024214744567871094,0.10775971412658691,-0.18728482723236084
1751223253592663300,2.520663330078125,0.01847362518310547,0.09499950706958771,-0.1743985414505005
1751223253611489800,2.53948974609375,-0.005625724792480469,0.08748018741607666,-0.16198092699050903
1751223253630316300,2.55831640625,-0.005705833435058594,-0.01860615611076355,0.006128907203674316
1751223253649142500,2.577142578125,0.022510528564453125,0.014573663473129272,-0.004712164402008057
1751223253667969000,2.595968994140625,0.08694934844970703,-0.00020554661750793457,-0.0050345659255981445
1751223253686795500,2.61479541015625,0.005171775817871094,0.032499462366104126,0.005028486251831055
1751223253705621800,2.633621826171875,-0.04135704040527344,0.004938632249832153,0.0508882999420166
1751223253724448300,2.6524482421875,-0.021120071411132812,-0.06972432136535645,0.17780447006225586
1751223253743274800,2.671274658203125,-0.07201099395751953,-0.07668444514274597,0.2136813998222351
1751223253762101200,2.690101318359375,0.0011987686157226562,0.011887550354003906,0.02824699878692627
1751223253780927500,2.708927490234375,0.05790996551513672,0.04695078730583191,-0.13903731107711792
1751223253799754000,2.72775390625,0.00006580352783203125,0.11720588803291321,-0.1796395182609558
1751223253818580500,2.74658056640625,-0.008565902709960938,0.0590633749961853,-0.10605877637863159
1751223253837406700,2.76540673828125,-0.01816558837890625,0.02023029327392578,0.0036876797676086426
1751223253856233200,2.784233154296875,0.0198822021484375,0.0479508638381958,-0.0011726021766662598
1751223253875059700,2.803059814453125,0.0144195556640625,0.009473025798797607,-0.025754570960998535
1751223253893886000,2.821885986328125,0.009464263916015625,0.018586724996566772,-0.030801594257354736
1751223253912712400,2.84071240234375,-0.023301124572753906,-0.009800493717193604,0.0008014440536499023
1751223253931539000,2.8595390625,-0.013024330139160156,-0.009319156408309937,0.004161179065704346
1751223253950365200,2.878365234375,-0.012659072875976562,0.02375924587249756,-0.019296348094940186
1751223253969191700,2.897191650390625,-0.002719879150390625,0.009651392698287964,0.02270740270614624
1751223253988018200,2.91601806640625,0.00623321533203125,-0.00013527274131774902,0.026798784732818604
1751223254006844400,2.934844482421875,-0.00814056396484375,0.004382789134979248,0.0030233263969421387
1751223254025671000,2.9536708984375,-0.0264739990234375,0.0041925907135009766,0.0042397379875183105
1751223254044497400,2.972497314453125,0.011162757873535156,-0.005322575569152832,0.0014839768409729004
1751223254063323600,2.99132373046875,-0.0083160400390625,0.018355458974838257,-0.006595313549041748
1751223254082150100,3.010150146484375,0.029425621032714844,-0.010085999965667725,0.007891476154327393
1751223254100976600,3.0289765625,-0.023250579833984375,0.013396769762039185,0.008690297603607178
1751223254119803000,3.047802978515625,0.010098457336425781,-0.0015091001987457275,0.009943187236785889
1751223254138629400,3.06662939453125,0.02386951446533203,0.00755155086517334,0.002113044261932373
1751223254157456000,3.085455810546875,0.008944511413574219,-0.01135513186454773,-0.02042233943939209
1751223254176282400,3.104282470703125,-0.0005950927734375,-0.006496518850326538,-0.00949251651763916
1751223254195108600,3.123108642578125,-0.0288238525390625,-0.0070393383502960205,-0.01135319471359253
1751223254213935000,3.14193505859375,-0.056214332580566406,0.01693013310432434,0.006612122058868408
1751223254232761300,3.16076123046875,0.06201457977294922,0.03164401650428772,-0.08527189493179321
1751223254251587800,3.179587890625,0.07907485961914062,0.0730912983417511,-0.14544200897216797
1751223254270414300,3.198414306640625,-0.017436981201171875,0.013645291328430176,-0.027101218700408936
1751223254289240600,3.217240478515625,-0.016572952270507812,0.00351029634475708,-0.019561350345611572
1751223254308067000,3.236067138671875,0.03022003173828125,0.04504084587097168,-0.1349608302116394
1751223254326893600,3.2548935546875,0.05748939514160156,0.12246212363243103,-0.294015109539032
1751223254345720000,3.273719970703125,0.05596923828125,0.11705121397972107,-0.3132736086845398
1751223254364546300,3.29254638671875,0.016882896423339844,0.09744700789451599,-0.22676748037338257
1751223254383372800,3.311372802734375,-0.006812095642089844,0.0610586553812027,-0.17511868476867676
1751223254411612400,3.3396123046875,0.015513420104980469,0.09643138945102692,-0.29644298553466797
1751223254430438700,3.358438720703125,-0.036385536193847656,0.010687828063964844,-0.08252733945846558
1751223254449265200,3.37726513671875,-0.05822944641113281,-0.20199313759803772,0.3217698931694031
1751223254468091600,3.396091552734375,-0.056610107421875,-0.23889228701591492,0.5540965795516968
1751223254486918100,3.414918212890625,-0.02617931365966797,-0.17499366402626038,0.35787051916122437
1751223254505744400,3.433744384765625,0.01664447784423828,-0.16060024499893188,0.2938803434371948
1751223254524571000,3.45257080078125,-0.06790542602539062,-0.17049437761306763,0.38647884130477905
1751223254543397000,3.471397216796875,-0.06068992614746094,-0.268108069896698,0.6083005666732788
1751223254562223600,3.4902236328125,0.034244537353515625,0.08377528190612793,-0.15315192937850952
1751223254581050000,3.509050048828125,0.0296783447265625,0.007617473602294922,-0.042743980884552
1751223254609289700,3.537289794921875,-0.026981353759765625,-0.017129361629486084,0.03837066888809204
1751223254628116200,3.5561162109375,0.0020294189453125,-0.04552781581878662,0.07602095603942871
1751223254646942500,3.5749423828125,-0.012320518493652344,0.03084626793861389,-0.08079558610916138
1751223254665769000,3.59376904296875,0.05338573455810547,-0.007986575365066528,-0.06405681371688843
1751223254684595200,3.61259521484375,-0.00008392333984375,0.00948384404182434,-0.01066964864730835
1751223254703421700,3.631421630859375,0.005501747131347656,-0.03221637010574341,0.06794089078903198
1751223254722248200,3.650248291015625,-0.0032749176025390625,-0.044836193323135376,0.1272871494293213
1751223254741074400,3.669074462890625,-0.04098033905029297,-0.005540579557418823,0.05065947771072388
1751223254759901000,3.68790087890625,0.03499889373779297,-0.027804195880889893,0.0543140172958374
1751223254778727400,3.7067275390625,0.02020549774169922,0.006667971611022949,-0.01762312650680542
1751223254797553700,3.7255537109375,0.005869865417480469,0.01659253239631653,-0.049662649631500244
1751223254816380200,3.744380126953125,0.005547523498535156,-0.00686335563659668,0.023337364196777344
1751223254835206700,3.76320654296875,-0.008938789367675781,-0.07206317782402039,0.13657206296920776
1751223254854033000,3.782032958984375,0.00528717041015625,-0.10197889804840088,0.21507632732391357
1751223254872859400,3.800859375,-0.027237892150878906,-0.03652840852737427,0.1302970051765442
1751223254891686000,3.819685791015625,-0.04032707214355469,-0.01982063055038452,0.0036908388137817383
1751223254910512000,3.83851220703125,0.012068748474121094,-0.0009827613830566406,-0.11663073301315308
1751223254929338600,3.857338623046875,0.006763458251953125,0.03635522723197937,-0.07953882217407227
1751223254948165000,3.8761650390625,0.0067539215087890625,0.04148438572883606,0.0004979968070983887
1751223254966991400,3.894991455078125,0.030837059020996094,0.04808574914932251,-0.13987714052200317
1751223254985817900,3.91381787109375,0.03534507751464844,0.07213360071182251,-0.21532881259918213
1751223255004644400,3.932644287109375,0.011444091796875,0.04844221472740173,-0.18370699882507324
1751223255023470600,3.951470703125,0.03880786895751953,0.037537842988967896,-0.14714199304580688
1751223255042297000,3.970297119140625,-0.02709197998046875,0.01831960678100586,-0.02778315544128418
1751223255061123300,3.989123291015625,0.0018768310546875,-0.014523833990097046,0.017993450164794922
1751223255079949800,4.00794970703125,-0.02596569061279297,-0.004021048545837402,0.04423397779464722
1751223255098776300,4.0267763671875,-0.0063304901123046875,-0.036709487438201904,0.07613348960876465
1751223255117602600,4.0456025390625,0.05435466766357422,-0.05993533134460449,0.08360868692398071
1751223255136429000,4.064428955078125,-0.059299468994140625,-0.06279042363166809,0.13003236055374146
1751223255155255600,4.083255615234375,0.0031986236572265625,-0.10668951272964478,0.16912657022476196
1751223255174081800,4.102081787109375,-0.043053627014160156,-0.08259391784667969,0.1631731390953064
1751223255192908300,4.120908203125,-0.022245407104492188,-0.03142467141151428,0.029595375061035156
1751223255211734800,4.13973486328125,0.011380195617675781,0.027375727891921997,-0.08005362749099731
1751223255230561000,4.15856103515625,0.039338111877441406,0.01354438066482544,-0.04032808542251587
1751223255249387500,4.177387451171875,-0.022489547729492188,0.009710431098937988,-0.06955820322036743
1751223255268214000,4.196214111328125,-0.02161693572998047,0.0250413715839386,-0.01914280652999878
1751223255287040300,4.215040283203125,0.026205062866210938,0.012503892183303833,-0.06273549795150757
1751223255305866800,4.23386669921875,-0.02151966094970703,0.012830346822738647,-0.07041442394256592
1751223255324693200,4.252693359375,0.016359329223632812,0.02670988440513611,-0.13230836391448975
1751223255343519500,4.27151953125,0.11461734771728516,0.14264768362045288,-0.22160011529922485
1751223255362346000,4.290345947265625,0.0049800872802734375,0.10680636763572693,-0.13679951429367065
1751223255381172200,4.309172119140625,-0.023474693298339844,0.0021788179874420166,0.015355587005615234
1751223255399998700,4.327998779296875,-0.013570785522460938,-0.01624518632888794,0.053961992263793945
1751223255418825200,4.3468251953125,-0.03247833251953125,-0.006475299596786499,0.007888197898864746
1751223255437651500,4.3656513671875,0.02476024627685547,0.022793620824813843,-0.023968100547790527
1751223255456478000,4.38447802734375,0.08041667938232422,0.02338317036628723,-0.03801470994949341
1751223255475304400,4.403304443359375,0.007842063903808594,0.055787086486816406,-0.11835730075836182
1751223255494130700,4.422130615234375,0.013055801391601562,-0.0010403096675872803,0.05177944898605347
1751223255512957200,4.440957275390625,-0.010313034057617188,-0.04741373658180237,0.12866628170013428
1751223255531783700,4.45978369140625,-0.05676841735839844,-0.031285494565963745,0.052374839782714844
1751223255550610000,4.47860986328125,-0.012810707092285156,-0.0002892017364501953,0.05524253845214844
1751223255569436400,4.4974365234375,-0.026601791381835938,-0.017964422702789307,0.007480263710021973
1751223255588262700,4.5162626953125,-0.034915924072265625,-0.09983828663825989,0.07358115911483765
1751223255607089200,4.535089111328125,0.027617454528808594,-0.011387407779693604,0.036808907985687256
1751223255625915600,4.55391552734375,-0.019295692443847656,0.0042563676834106445,0.0010554194450378418
1751223255644742000,4.572741943359375,0.009121894836425781,0.1039862334728241,-0.03899788856506348
1751223255663568400,4.591568359375,-0.02772808074951172,-0.012179344892501831,0.03382211923599243
1751223255682395000,4.610394775390625,-0.009095191955566406,-0.030436277389526367,0.009520232677459717
1751223255701221000,4.62922119140625,0.005181312561035156,0.0651099681854248,-0.06955695152282715
1751223255720047600,4.648047607421875,-0.0039825439453125,0.027222007513046265,-0.09429210424423218
1751223255738874000,4.6668740234375,0.060764312744140625,0.10094863176345825,-0.1229754090309143
1751223255757700400,4.685700439453125,0.0692300796508789,0.13666988909244537,-0.17982357740402222
1751223255776526800,4.70452685546875,-0.030449867248535156,0.06897890567779541,-0.006499350070953369
1751223255795353000,4.72335302734375,-0.05802440643310547,-0.048959434032440186,0.1667187213897705
1751223255814179600,4.7421796875,0.0007238388061523438,-0.06800174713134766,0.18854349851608276
1751223255833006000,4.761006103515625,0.02420330047607422,-0.05456608533859253,0.1711195707321167
1751223255851832300,4.779832275390625,0.0055179595947265625,-0.07381528615951538,0.09161090850830078
1751223255870658800,4.798658935546875,0.0006237030029296875,-0.04732227325439453,-0.06906980276107788
1751223255889485300,4.8174853515625,-0.017572402954101562,0.08574074506759644,-0.19120675325393677
1751223255908311600,4.8363115234375,0.03498649597167969,0.1561127007007599,-0.2719905376434326
1751223255927138000,4.855137939453125,0.04335975646972656,0.22364531457424164,-0.3852459788322449
1751223255945964300,4.87396435546875,0.041945457458496094,0.18996740877628326,-0.3628167510032654
1751223255964790800,4.892790771484375,0.054299354553222656,0.1553816795349121,-0.3162868618965149
1751223255983617300,4.9116171875,0.024517059326171875,0.10764193534851074,-0.12432223558425903
1751223256002443500,4.930443603515625,0.0047664642333984375,0.056934207677841187,-0.06457263231277466
1751223256021270000,4.94927001953125,0.0045757293701171875,0.05532070994377136,-0.02607572078704834
1751223256040096500,4.968096435546875,-0.0004444122314453125,0.09228914976119995,-0.03664100170135498
1751223256058922800,4.9869228515625,0.06013011932373047,0.048129916191101074,-0.04748576879501343
1751223256077749200,5.005749267578125,-0.02108287811279297,0.027409255504608154,-0.02981698513031006
1751223256096575500,5.024575439453125,-0.030002593994140625,0.025910645723342896,-0.012365639209747314
1751223256115402000,5.043402099609375,0.007857322692871094,0.01106637716293335,0.07461023330688477
1751223256134228500,5.062228515625,0.021219253540039062,0.025124341249465942,0.022958099842071533
1751223256153054700,5.0810546875,0.020262718200683594,0.04802462458610535,-0.02885878086090088
1751223256171881200,5.099881103515625,0.0012464523315429688,0.03744867444038391,-0.029097378253936768
1751223256190707700,5.118707763671875,0.005618095397949219,0.008459508419036865,0.03553372621536255
1751223256209534000,5.137533935546875,-0.022420883178710938,0.008283764123916626,0.03763467073440552
1751223256228360400,5.1563603515625,-0.012361526489257812,-0.01952686905860901,0.007626771926879883
1751223256247186700,5.175186767578125,0.0063343048095703125,-0.004884153604507446,0.03482472896575928
1751223256266013200,5.19401318359375,-0.04050445556640625,0.03367391228675842,0.04676318168640137
1751223256284839700,5.212839599609375,0.0027284622192382812,-0.03224793076515198,0.08823096752166748
1751223256303666000,5.231666015625,-0.011905670166015625,-0.03685101866722107,0.06857031583786011
1751223256322492400,5.250492431640625,-0.006987571716308594,0.0862707793712616,-0.022156834602355957
1751223256341318700,5.269318603515625,0.02625560760498047,0.07129287719726562,-0.09086501598358154
1751223256360145200,5.288145263671875,0.020435333251953125,0.09313514828681946,-0.09679406881332397
1751223256378971600,5.3069716796875,-0.00775909423828125,0.054244041442871094,-0.07990628480911255
1751223256397798000,5.3257978515625,0.03424072265625,0.05256223678588867,-0.07708239555358887
1751223256416624400,5.344624267578125,0.024007797241210938,0.06515154242515564,-0.09297430515289307
1751223256435451000,5.363450927734375,0.03724861145019531,0.06804180145263672,-0.06704062223434448
1751223256454277000,5.382277099609375,-0.01517486572265625,0.06584286689758301,-0.04724949598312378
1751223256473103600,5.401103515625,-0.019501686096191406,0.021569371223449707,-0.02214270830154419
1751223256491929900,5.419929931640625,-0.04237174987792969,0.03502148389816284,0.016803085803985596
1751223256510756400,5.43875634765625,0.010183334350585938,0.0009372234344482422,0.00012421607971191406
1751223256529582800,5.457582763671875,0.0092315673828125,0.018601655960083008,0.0022222399711608887
1751223256548409000,5.4764091796875,-0.00980377197265625,-0.019953906536102295,0.059541404247283936
1751223256567235600,5.495235595703125,-0.00031566619873046875,-0.04316142201423645,0.1612229347229004
1751223256586061800,5.514061767578125,-0.05629253387451172,-0.0926196277141571,0.2664387822151184
1751223256604888300,5.532888427734375,-0.021648406982421875,-0.060216665267944336,0.18520694971084595
1751223256623714800,5.55171484375,-0.007038116455078125,-0.03349959850311279,0.09261047840118408
1751223256642541000,5.570541015625,-0.011286735534667969,0.0346699059009552,-0.006423294544219971
1751223256661367600,5.589367431640625,-0.0012998580932617188,0.025310993194580078,-0.040140390396118164
1751223256680193800,5.60819384765625,-0.015501976013183594,0.015374451875686646,-0.03455781936645508
1751223256699020300,5.627020263671875,0.0034847259521484375,0.06278204917907715,-0.0996367335319519
1751223256717846800,5.6458466796875,0.012952804565429688,0.04296475648880005,-0.044904887676239014
1751223256736673000,5.664673095703125,-0.0016164779663085938,0.00939890742301941,-0.015398502349853516
1751223256755499500,5.68349951171875,0.00342559814453125,-0.004928886890411377,0.00800710916519165
1751223256774326000,5.702325927734375,-0.0337982177734375,-0.013088077306747437,0.05366158485412598
1751223256793152300,5.72115234375,0.00030994415283203125,0.02151903510093689,-0.013334989547729492
1751223256811978800,5.739978759765625,0.04222679138183594,0.03465932607650757,-0.06737303733825684
1751223256830805000,5.758804931640625,0.027164459228515625,0.024212539196014404,-0.05456310510635376
1751223256849631500,5.777631591796875,0.007456779479980469,0.056330740451812744,-0.010091245174407959
1751223256868458000,5.7964580078125,-0.0022459030151367188,0.013470113277435303,0.04086071252822876
1751223256887284200,5.8152841796875,-0.011252403259277344,-0.018739372491836548,0.10758388042449951
1751223256906110700,5.83411083984375,0.0032587051391601562,-0.026891887187957764,0.04171723127365112
1751223256924937000,5.85293701171875,-0.005616188049316406,0.008371412754058838,0.014511048793792725
1751223256943763500,5.871763427734375,-0.004863739013671875,0.014889627695083618,-0.06710946559906006
1751223256962590000,5.89058984375,0.009083747863769531,0.03876581788063049,-0.009418487548828125
1751223256981416200,5.909416259765625,-0.009784698486328125,0.024761825799942017,-0.022452175617218018
1751223257000242700,5.92824267578125,0.03205585479736328,0.01970246434211731,0.0024406909942626953
1751223257019069000,5.94706884765625,-0.0015954971313476562,0.04750135540962219,-0.0541539192199707
1751223257037895400,5.9658955078125,0.0031213760375976562,0.05113762617111206,-0.1037335991859436
1751223257056722000,5.984721923828125,-0.015613555908203125,0.007401257753372192,-0.08602571487426758
1751223257075548200,6.003548095703125,-0.0061397552490234375,0.09135311841964722,-0.10913622379302979
1751223257094374700,6.022374755859375,0.016841888427734375,0.060126692056655884,-0.0750657320022583
1751223257113201000,6.041200927734375,0.04891777038574219,0.03544074296951294,-0.025098562240600586
1751223257132027400,6.06002734375,0.019443511962890625,-0.0216275155544281,0.07289236783981323
1751223257150853600,6.078853515625,-0.041771888732910156,-0.021031469106674194,0.11291581392288208
1751223257169680100,6.09768017578125,-0.049957275390625,-0.052823394536972046,0.10536336898803711
1751223257188506600,6.116506591796875,0.012592315673828125,0.020581752061843872,0.01361238956451416
1751223257207332900,6.135332763671875,0.08219051361083984,0.03977048397064209,-0.029652297496795654
1751223257226159400,6.154159423828125,0.0049228668212890625,0.06612402200698853,-0.08248239755630493
1751223257244985900,6.17298583984375,-0.023339271545410156,0.03156349062919617,0.030394017696380615
1751223257263812000,6.19181201171875,-0.04112529754638672,-0.04924735426902771,0.0994570255279541
1751223257282638600,6.210638671875,-0.044539451599121094,-0.02900293469429016,0.08025515079498291
1751223257301464800,6.22946484375,0.008263587951660156,-0.0325828492641449,0.1060289740562439
1751223257320291300,6.248291259765625,0.02628612518310547,-0.04581421613693237,0.15027916431427002
1751223257339117600,6.26711767578125,-0.040297508239746094,0.00206950306892395,0.05641281604766846
1751223257357944000,6.285944091796875,0.0027418136596679688,0.021775096654891968,0.029687702655792236
1751223257376770600,6.3047705078125,0.012434005737304688,0.00032889842987060547,0.03812229633331299
1751223257395596800,6.3235966796875,-0.002025604248046875,-0.03970816731452942,0.1394519805908203
1751223257414423300,6.34242333984375,-0.04895210266113281,-0.06489232182502747,0.132889986038208
1751223257433249500,6.36124951171875,-0.06668472290039062,-0.02939516305923462,0.06881308555603027
1751223257452076000,6.380075927734375,-0.013150215148925781,0.007062345743179321,0.015143871307373047
1751223257470902500,6.398902587890625,0.1039266586303711,0.06155306100845337,-0.03468978404998779
1751223257489728800,6.417728759765625,0.04482841491699219,0.03930091857910156,-0.011974573135375977
1751223257508555300,6.43655517578125,-0.007030487060546875,0.02258172631263733,-0.04712313413619995
1751223257527381500,6.455381591796875,0.01267242431640625,0.04251542687416077,-0.16923171281814575
1751223257546208000,6.4742080078125,-0.010656356811523438,0.0902525782585144,-0.2665750980377197
1751223257565034500,6.493034423828125,0.08744144439697266,0.10620197653770447,-0.3492845892906189
1751223257583860700,6.51186083984375,0.014060020446777344,0.11078676581382751,-0.28865742683410645
1751223257602687200,6.530687255859375,0.012844085693359375,0.15811152756214142,-0.3336043953895569
1751223257621513500,6.549513427734375,0.05458354949951172,0.17691001296043396,-0.30681681632995605
1751223257640340000,6.568340087890625,0.06207561492919922,0.10957986116409302,-0.21042507886886597
1751223257659166200,6.587166259765625,0.008477210998535156,0.03101968765258789,0.0381321907043457
1751223257677992700,6.60599267578125,0.008053779602050781,0.01951545476913452,0.0187608003616333
1751223257696819200,6.624819091796875,-0.015409469604492188,0.027326762676239014,0.03355133533477783
1751223257715645400,6.6436455078125,-0.0061168670654296875,-0.007959812879562378,0.037042438983917236
1751223257734472000,6.662471923828125,-0.0066547393798828125,-0.010305315256118774,0.027934908866882324
1751223257753298200,6.681298095703125,-0.011426925659179688,0.006665527820587158,0.038246095180511475
1751223257772124700,6.700124755859375,0.03003215789794922,-0.010439574718475342,0.11454111337661743
1751223257790951200,6.718951171875,-0.03230094909667969,-0.040214598178863525,0.19087600708007812
1751223257809777400,6.73777734375,-0.008008003234863281,-0.01067402958869934,0.10592740774154663
1751223257828604000,6.75660400390625,0.006041526794433594,-0.05097588896751404,0.16819912195205688
1751223257847430100,6.77543017578125,-0.008011817932128906,-0.024726420640945435,0.11010366678237915
1751223257866256600,6.794256591796875,-0.08218002319335938,-0.012330353260040283,0.04935687780380249
1751223257885083000,6.813082763671875,-0.00026988983154296875,0.022120177745819092,-0.08058416843414307
1751223257903909400,6.831909423828125,0.051497459411621094,0.07395502924919128,-0.11245596408843994
1751223257922735600,6.850735595703125,0.017556190490722656,0.12001071870326996,-0.19071608781814575
1751223257941562000,6.86956201171875,0.031341552734375,0.08889567852020264,-0.14284110069274902
1751223257960388600,6.888388671875,0.011182785034179688,0.09529590606689453,-0.12374919652938843
1751223257979214800,6.90721484375,-0.017230987548828125,0.044918596744537354,-0.03353077173233032
1751223257998041300,6.926041259765625,0.024770736694335938,0.014806479215621948,0.007014751434326172
1751223258016867600,6.94486767578125,0.000385284423828125,0.004686683416366577,0.012742578983306885
1751223258035694000,6.963694091796875,-0.009002685546875,-0.028883516788482666,0.07901942729949951
1751223258054520600,6.9825205078125,-0.05594635009765625,-0.014407634735107422,0.1047818660736084
1751223258073346800,7.001346923828125,-0.05900001525878906,-0.050378650426864624,0.12479287385940552
1751223258092173300,7.02017333984375,0.02698993682861328,-0.06647822260856628,0.15226870775222778
1751223258110999600,7.03899951171875,0.021808624267578125,-0.0875542163848877,0.1267232894897461
1751223258129826000,7.057825927734375,0.011823654174804688,-0.028895586729049683,0.045089662075042725
1751223258148652300,7.07665234375,-0.006438255310058594,0.043105512857437134,-0.0019161701202392578
1751223258167478800,7.095478759765625,-0.005692481994628906,0.06772437691688538,-0.0854225754737854
1751223258186305300,7.11430517578125,0.004268646240234375,0.05376076698303223,-0.08580881357192993
1751223258205131500,7.133131591796875,0.03254222869873047,0.05248904228210449,-0.054968059062957764
1751223258223958000,7.1519580078125,-0.020196914672851562,0.003840506076812744,-0.010254144668579102
1751223258242784300,7.1707841796875,-0.019866943359375,0.04571878910064697,-0.055909931659698486
1751223258261610800,7.18961083984375,-0.014980316162109375,0.021195054054260254,-0.06314218044281006
1751223258280437000,7.20843701171875,-0.01543426513671875,0.015499472618103027,-0.05523538589477539
1751223258299263500,7.227263427734375,-0.011241912841796875,0.07099366188049316,-0.0695909857749939
1751223258318089700,7.24608984375,0.050049781799316406,0.04476019740104675,-0.07767301797866821
1751223258336916200,7.264916259765625,-0.013058662414550781,0.014313727617263794,0.03443777561187744
1751223258355742700,7.28374267578125,-0.01716327667236328,-0.00041618943214416504,0.06823742389678955
1751223258374569000,7.30256884765625,0.030315399169921875,-0.018196552991867065,0.112479567527771
1751223258393395500,7.3213955078125,0.025369644165039062,-0.001871258020401001,0.021118998527526855
1751223258412221700,7.3402216796875,0.001789093017578125,0.014438599348068237,0.042824745178222656
1751223258431048200,7.359048095703125,0.020885467529296875,0.0110207200050354,0.01701521873474121
1751223258449874400,7.37787451171875,-0.0165252685546875,0.016132503747940063,0.0024322867393493652
1751223258468701000,7.396700927734375,-0.03894233703613281,0.022093206644058228,-0.03129541873931885
1751223258487527400,7.41552734375,-0.02803325653076172,0.01338893175125122,0.015005886554718018
1751223258506353700,7.434353759765625,0.029335975646972656,0.060204893350601196,-0.10951042175292969
1751223258525180200,7.45318017578125,-0.009390830993652344,0.03400081396102905,-0.11574804782867432
1751223258544006400,7.47200634765625,0.05084705352783203,0.06972682476043701,-0.11427533626556396
1751223258562833000,7.4908330078125,0.006802558898925781,0.06208732724189758,-0.04213589429855347
1751223258581659100,7.5096591796875,0.0015821456909179688,0.04072272777557373,-0.038450777530670166
1751223258600485600,7.528485595703125,-0.01712322235107422,0.020753204822540283,0.0022086501121520996
1751223258619311900,7.547311767578125,-0.0026159286499023438,0.006291747093200684,0.018363356590270996
1751223258638138400,7.566138427734375,0.02051067352294922,-0.022479534149169922,0.07096254825592041
1751223258656964900,7.58496484375,-0.012624740600585938,-0.035450875759124756,0.12017154693603516
1751223258675791000,7.603791015625,0.02102947235107422,-0.08904051780700684,0.18785762786865234
1751223258694617600,7.62261767578125,-0.01684093475341797,-0.05299702286720276,0.11206531524658203
1751223258713443800,7.64144384765625,-0.0064849853515625,-0.017899751663208008,0.04310649633407593
1751223258732270300,7.660270263671875,-0.033939361572265625,-0.01620703935623169,0.019211113452911377
1751223258751096600,7.6790966796875,-0.0182342529296875,0.0697329044342041,-0.09458595514297485
1751223258769923000,7.697923095703125,0.019525527954101562,0.07289016246795654,-0.16583847999572754
1751223258788749300,7.716749267578125,-0.0001850128173828125,0.05269324779510498,-0.029646635055541992
1751223258807575800,7.735575927734375,0.02332019805908203,0.04277580976486206,-0.05703377723693848
1751223258826402300,7.75440234375,0.013081550598144531,0.01354372501373291,-0.012630343437194824
1751223258845228500,7.773228515625,-0.011199951171875,0.0027824044227600098,0.01714104413986206
1751223258864055000,7.792054931640625,-0.033850669860839844,-0.0020842254161834717,0.01715409755706787
1751223258882881300,7.81088134765625,0.02315998077392578,0.013241857290267944,-0.02581387758255005
1751223258901707800,7.829707763671875,0.0318756103515625,0.03244951367378235,-0.06369239091873169
1751223258920534000,7.848533935546875,0.0030736923217773438,-0.00023812055587768555,0.007355153560638428
1751223258939360500,7.867360595703125,0.0029802322387695312,0.008679598569869995,-0.045053839683532715
1751223258958186800,7.886186767578125,-0.02996349334716797,0.03209733963012695,0.0015367865562438965
1751223258977013200,7.90501318359375,0.022507667541503906,0.03170090913772583,-0.02699071168899536
1751223258995839500,7.923839599609375,0.01267242431640625,0.01232638955116272,0.053362131118774414
1751223259014666000,7.942666015625,-0.025203704833984375,0.0027459561824798584,-0.009766161441802979
1751223259033492200,7.9614921875,-0.019641876220703125,0.030830085277557373,-0.019084453582763672
1751223259052318700,7.980318603515625,0.01801586151123047,0.01163172721862793,0.03920471668243408
1751223259071145200,7.999145263671875,0.017516136169433594,0.001639634370803833,0.002037525177001953
1751223259089971500,8.017971435546874,-0.010706901550292969,-0.04466205835342407,0.14630651473999023
1751223259108798000,8.0367978515625,-0.005527496337890625,-0.05632498860359192,0.10737401247024536
1751223259127624200,8.055624267578125,-0.051944732666015625,0.03929966688156128,-0.050672948360443115
1751223259146450700,8.07445068359375,0.0010995864868164062,0.04816409945487976,-0.0241086483001709
1751223259165277000,8.09327685546875,0.023621559143066406,-0.004828393459320068,-0.030292749404907227
1751223259184103400,8.112103515625,0.013644218444824219,0.00905519723892212,0.05120289325714111
1751223259202929700,8.1309296875,-0.014501571655273438,-0.032580792903900146,0.07178813219070435
1751223259221756200,8.149756103515625,-0.01390838623046875,-0.01720014214515686,0.04490470886230469
1751223259240582400,8.16858251953125,-0.008748054504394531,0.03973683714866638,-0.022081077098846436
1751223259259409000,8.187408935546875,-0.013060569763183594,0.03978678584098816,-0.10051816701889038
1751223259278235400,8.2062353515625,0.04361438751220703,0.0757291316986084,-0.1841806173324585
1751223259297061600,8.2250615234375,0.04238319396972656,0.064120352268219,-0.1354602575302124
1751223259315888000,8.24388818359375,0.008001327514648438,0.038934409618377686,-0.033706068992614746
1751223259334714400,8.26271435546875,0.0034208297729492188,0.019782274961471558,0.027191638946533203
1751223259353540900,8.281540771484375,-0.0009469985961914062,0.005344420671463013,0.0791177749633789
1751223259372367000,8.3003671875,-0.024923324584960938,-0.0569557249546051,0.12357479333877563
1751223259391193600,8.319193603515625,-0.06190013885498047,-0.11310476064682007,0.23519307374954224
1751223259410019800,8.338019775390626,-0.009415626525878906,-0.04060623049736023,0.07595115900039673
1751223259428846300,8.356846435546874,0.018411636352539062,-0.026041507720947266,0.05100005865097046
1751223259447672600,8.375672607421874,0.01765918731689453,-0.06800100207328796,0.06725603342056274
1751223259466499000,8.3944990234375,-0.015575408935546875,0.02275785803794861,0.04634934663772583
1751223259485325300,8.4133251953125,0.03692913055419922,0.03406265377998352,-0.012817800045013428
1751223259504151800,8.43215185546875,-0.005845069885253906,-0.04446208477020264,0.06999051570892334
1751223259522978000,8.45097802734375,-0.015115737915039062,0.01335802674293518,-0.05964064598083496
1751223259541804500,8.469804443359376,0.023166656494140625,0.032625406980514526,-0.11034631729125977
1751223259560630800,8.488630859375,0.0034589767456054688,0.055777549743652344,-0.13701790571212769
1751223259579457300,8.507457275390625,0.0084686279296875,0.06844359636306763,-0.13327306509017944
1751223259598283800,8.52628369140625,0.05546855926513672,0.057832419872283936,-0.060224294662475586
1751223259617110000,8.545110107421875,-0.01107025146484375,-0.004001826047897339,0.052067697048187256
1751223259635936500,8.5639365234375,-0.015219688415527344,-0.0026150941848754883,0.05314582586288452
1751223259654762800,8.5827626953125,-0.0008249282836914062,-0.03884425759315491,0.09019547700881958
1751223259673589200,8.60158935546875,-0.010096549987792969,0.01021885871887207,-0.04283308982849121
1751223259692415500,8.62041552734375,-0.009897232055664062,0.07707580924034119,-0.10232484340667725
1751223259711242000,8.639241943359375,0.009694099426269531,0.04738137125968933,-0.08182930946350098
1751223259730068200,8.658068115234375,-0.04679107666015625,0.004648953676223755,0.03125739097595215
1751223259748894700,8.676894775390625,-0.0027980804443359375,0.029287397861480713,0.00554656982421875
1751223259767721000,8.695720947265626,0.044310569763183594,0.04429900646209717,-0.05248916149139404
1751223259786547500,8.71454736328125,0.03348541259765625,0.10956084728240967,-0.1307794451713562
1751223259805373700,8.733373779296874,0.06081104278564453,0.04969540238380432,-0.0527535080909729
1751223259824200200,8.7522001953125,-0.043175697326660156,0.016822218894958496,-0.0021274685859680176
1751223259843026400,8.7710263671875,0.0004138946533203125,0.04115152359008789,-0.012702882289886475
1751223259861853000,8.78985302734375,-0.013733863830566406,0.035440266132354736,-0.020856261253356934
1751223259880679200,8.80867919921875,0.00004673004150390625,0.019504547119140625,-0.03159630298614502
1751223259899505700,8.827505615234376,0.01830768585205078,0.028211265802383423,-0.02549988031387329
1751223259918332000,8.846331787109374,0.0133209228515625,-0.0006198585033416748,0.04100322723388672
1751223259937158400,8.865158447265625,-0.024501800537109375,-0.00995093584060669,0.08279991149902344
1751223259955984600,8.883984619140625,-0.028062820434570312,-0.013618260622024536,0.0957217812538147
1751223259974811100,8.90281103515625,-0.02264881134033203,-0.03615283966064453,0.08605122566223145
1751223259993637600,8.9216376953125,0.001033782958984375,-0.030076801776885986,0.11821472644805908
1751223260012463900,8.9404638671875,-0.017793655395507812,-0.0057637691497802734,0.06982439756393433
1751223260031290000,8.9592900390625,0.03446674346923828,-0.03221827745437622,0.030138075351715088
1751223260050116600,8.97811669921875,-0.013599395751953125,0.0015635192394256592,0.048335492610931396
1751223260068942800,8.99694287109375,-0.013078689575195312,-0.0070111751556396484,0.01892852783203125
1751223260087769300,9.015769287109375,-0.012908935546875,-0.020505160093307495,0.0188332200050354
1751223260106595800,9.034595947265625,-0.02685546875,0.003898710012435913,-0.041282594203948975
1751223260125422000,9.053422119140626,-0.031418800354003906,0.027376264333724976,-0.02724277973175049
1751223260144248300,9.072248291015624,-0.007910728454589844,0.012634843587875366,-0.06999307870864868
1751223260163074800,9.09107470703125,0.025191307067871094,0.045473068952560425,-0.08739805221557617
1751223260181901300,9.1099013671875,0.04292011260986328,0.06796962022781372,-0.07724922895431519
1751223260200727600,9.1287275390625,0.02786731719970703,0.04220813512802124,-0.052239179611206055
1751223260219554000,9.147553955078125,0.008086204528808594,0.0409085750579834,-0.08945000171661377
1751223260247793400,9.17579345703125,0.030920982360839844,-0.009037315845489502,0.018942534923553467
1751223260266620000,9.194619873046875,-0.04108428955078125,-0.027716606855392456,0.1242944598197937
1751223260285446100,9.213446044921875,-0.0069637298583984375,0.0012616217136383057,0.025657832622528076
1751223260304272600,9.232272705078126,0.006747245788574219,0.024890214204788208,-0.08569824695587158
1751223260323099000,9.251098876953124,0.043994903564453125,0.05286628007888794,-0.10756909847259521
1751223260341925400,9.26992529296875,0.019681930541992188,0.05801776051521301,-0.0888146162033081
1751223260360751600,9.288751708984375,-0.022966384887695312,0.04317548871040344,-0.06532269716262817
1751223260379578000,9.307578125,0.015599250793457031,0.0197756290435791,0.03731203079223633
1751223260398404400,9.326404296875,-0.012949943542480469,-0.006819784641265869,0.06516999006271362
1751223260417230800,9.34523095703125,0.03905963897705078,-0.009450942277908325,0.0077089667320251465
1751223260436057000,9.36405712890625,-0.018326759338378906,0.0007201135158538818,-0.042682766914367676
1751223260454883600,9.382883544921874,-0.03651618957519531,-0.017867058515548706,-0.006509840488433838
1751223260473709800,9.401709716796875,-0.016683578491210938,0.02082839608192444,0.00521087646484375
1751223260492536300,9.420536376953125,-0.029689788818359375,0.021869003772735596,0.055845439434051514
1751223260511362600,9.439362548828125,0.017591476440429688,0.03600612282752991,-0.05717724561691284
1751223260530189000,9.45818896484375,0.016767501831054688,0.02575024962425232,-0.031060516834259033
1751223260549015300,9.477015380859376,0.02090740203857422,0.03970992565155029,0.003362298011779785
1751223260567841800,9.495841796875,-0.016963958740234375,0.0019384324550628662,0.045382916927337646
1751223260586668000,9.51466796875,-0.02602672576904297,-0.010450392961502075,0.07072383165359497
1751223260605494500,9.53349462890625,-0.020740509033203125,0.000704646110534668,0.04815894365310669
1751223260624320800,9.55232080078125,0.0075244903564453125,0.0018673539161682129,-0.010967612266540527
1751223260643147300,9.571147216796875,0.012254714965820312,0.0023734569549560547,-0.03015226125717163
1751223260661973500,9.589973388671876,-0.04472637176513672,0.030998945236206055,-0.1226688027381897
1751223260680800000,9.608800048828124,0.017251014709472656,0.12402908504009247,-0.2291470170021057
1751223260699626200,9.627626220703124,0.0065708160400390625,0.1292373538017273,-0.2450745701789856
1751223260718452700,9.64645263671875,0.05227184295654297,0.020531535148620605,0.0028990507125854492
1751223260737279000,9.665279052734375,-0.001636505126953125,-0.01451420783996582,0.07838553190231323
1751223260756105500,9.68410546875,-0.03936481475830078,-0.038045138120651245,0.15423548221588135
1751223260774931700,9.702931640625,-0.005401611328125,-0.05937063694000244,0.19712060689926147
1751223260793758200,9.72175830078125,0.0044460296630859375,-0.03207936882972717,0.0809776782989502
1751223260812584400,9.74058447265625,0.02825164794921875,-0.034520864486694336,0.08665037155151367
1751223260831411000,9.759410888671875,-0.04318523406982422,-0.02311253547668457,0.07708269357681274
1751223260850237200,9.7782373046875,-0.01746368408203125,0.003841310739517212,0.04881840944290161
1751223260869063700,9.797063720703125,0.02960491180419922,0.0004551112651824951,-0.04574549198150635
1751223260887890000,9.815889892578125,-0.013397216796875,0.10961252450942993,-0.15731972455978394
1751223260906716400,9.83471630859375,0.052643775939941406,0.07129970192909241,-0.14928960800170898
1751223260925542700,9.853542724609374,-0.00061798095703125,0.131243497133255,-0.19232332706451416
1751223260944369200,9.872369140625,0.022858619689941406,0.06708410382270813,-0.11547553539276123
1751223260963195400,9.8911953125,0.007813453674316406,0.037500590085983276,-0.0004776120185852051
1751223260982022000,9.91002197265625,-0.006275177001953125,0.018869847059249878,0.06390857696533203
1751223261000848100,9.92884814453125,-0.02901935577392578,-0.012658745050430298,0.0742340087890625
1751223261019674600,9.947674560546876,0.009630203247070312,-0.05807730555534363,0.08143538236618042
1751223261038500900,9.9665009765625,-0.027869224548339844,-0.022467732429504395,0.07794100046157837
1751223261057327400,9.985327392578125,0.015607833862304688,-0.010843336582183838,-0.005397379398345947
1751223261076153600,10.004153564453125,-0.017648696899414062,0.06096327304840088,-0.04952287673950195
1751223261094980000,10.02297998046875,0.02961444854736328,0.03685656189918518,-0.06678295135498047
1751223261113806300,10.041806396484375,0.0006589889526367188,0.03994864225387573,-0.07104915380477905
1751223261132632800,10.0606328125,0.014632225036621094,0.06236672401428223,-0.09491056203842163
1751223261151459000,10.079458984375,0.0006780624389648438,0.10948529839515686,-0.18649601936340332
1751223261170285600,10.09828564453125,0.07135009765625,0.06537193059921265,-0.059621572494506836
1751223261189111800,10.11711181640625,0.007988929748535156,0.002441197633743286,0.007209181785583496
1751223261207938300,10.135938232421875,-0.029022216796875,-0.034550875425338745,0.15570664405822754
1751223261226764500,10.1547646484375,-0.03732872009277344,-0.041120439767837524,0.14990121126174927
1751223261245590800,10.1735908203125,-0.021940231323242188,-0.024149596691131592,0.07489550113677979
1751223261264417300,10.192417236328126,0.03520393371582031,-0.003746718168258667,-0.01564812660217285
1751223261283243800,10.211243896484374,0.006308555603027344,0.048801422119140625,0.01312410831451416
1751223261302070000,10.230070068359375,0.02505779266357422,0.006636917591094971,0.05853956937789917
1751223261320896300,10.248896240234375,-0.03122997283935547,-0.01994025707244873,0.04513192176818848
1751223261339722800,10.26772265625,0.016539573669433594,0.005889534950256348,0.035964906215667725
1751223261358549000,10.286549072265625,-0.016574859619140625,0.02186521887779236,-0.05368894338607788
1751223261377375500,10.30537548828125,0.022052764892578125,0.0788830816745758,-0.09692496061325073
1751223261396201700,10.32420166015625,0.021925926208496094,0.049171656370162964,-0.05787372589111328
1751223261415028200,10.3430283203125,-0.034087181091308594,0.012739568948745728,-0.008343160152435303
1751223261433854500,10.3618544921875,-0.018907546997070312,0.03767096996307373,-0.04294764995574951
1751223261452681000,10.380680908203125,0.0233306884765625,0.08021268248558044,-0.1132054328918457
1751223261471507200,10.399507080078125,0.017946243286132812,0.058422088623046875,-0.1216576099395752
1751223261490333700,10.418333740234376,-0.03980541229248047,0.02241039276123047,-0.0354689359664917
1751223261509160000,10.437159912109376,0.022805213928222656,0.02218577265739441,-0.0002390742301940918
1751223261527986400,10.455986328125,-0.019959449768066406,0.008627831935882568,0.005196750164031982
1751223261546812700,10.474812744140625,-0.0009088516235351562,0.032939136028289795,-0.03678131103515625
1751223261565639200,10.49363916015625,0.007473945617675781,0.041569411754608154,-0.10493695735931396
1751223261584465400,10.51246533203125,0.020689010620117188,0.06260278820991516,-0.08008939027786255
1751223261603292000,10.5312919921875,-0.022187232971191406,0.0413835346698761,-0.05283576250076294
1751223261622118100,10.5501181640625,0.0017805099487304688,-0.011226803064346313,0.04470103979110718
1751223261640944400,10.5689443359375,0.010477066040039062,0.026535391807556152,-0.01944732666015625
1751223261659771000,10.58777099609375,-0.017897605895996094,0.06316530704498291,-0.05141395330429077
1751223261678597000,10.60659716796875,0.07056236267089844,-0.001554340124130249,0.017804384231567383
1751223261697423600,10.625423583984375,-0.0626068115234375,-0.0028383731842041016,0.09185469150543213
1751223261716249900,10.644249755859375,0.009435653686523438,-0.0768720805644989,0.16909879446029663
1751223261735076400,10.663076416015626,-0.009939193725585938,-0.0654195249080658,0.16445273160934448
1751223261753902600,10.681902587890624,-0.05643653869628906,-0.029797136783599854,0.05660712718963623
1751223261772729000,10.70072900390625,-0.007817268371582031,0.01939713954925537,-0.0484011173248291
1751223261791555300,10.719555419921875,0.029442787170410156,-0.01804906129837036,-0.047838687896728516
1751223261810381800,10.7383818359375,0.00035190582275390625,0.04781433939933777,-0.08962994813919067
1751223261829208000,10.7572080078125,0.01456451416015625,0.02484309673309326,0.026613354682922363
1751223261848034600,10.77603466796875,0.024065017700195312,0.017601191997528076,0.06843739748001099
1751223261866860800,10.79486083984375,-0.008848190307617188,-0.005336374044418335,0.055044710636138916
1751223261885687300,10.813687255859374,0.0009565353393554688,0.03393331170082092,-0.0143660306930542
1751223261904513500,10.832513427734375,0.029840469360351562,0.01075252890586853,-0.016196370124816895
1751223261923339800,10.85133984375,-0.021933555603027344,-0.011011898517608643,0.017479658126831055
1751223261942166300,10.870166259765625,-0.011993408203125,-0.01855131983757019,0.027526259422302246
1751223261960992500,10.888992431640625,-0.0066738128662109375,-0.012230485677719116,-0.0024695396423339844
1751223261979819000,10.907819091796876,-0.020821571350097656,0.021026521921157837,-0.08067464828491211
1751223261998645200,10.926645263671874,0.03535652160644531,0.05779844522476196,-0.034545183181762695
1751223262017471700,10.9454716796875,0.007040977478027344,0.03016984462738037,0.02630627155303955
1751223262036298000,10.964298095703125,0.016740798950195312,0.002604961395263672,-0.04030442237854004
1751223262055124500,10.98312451171875,0.0071353912353515625,0.08313202857971191,-0.0720016360282898
1751223262073950700,11.00195068359375,0.03036022186279297,0.011890053749084473,-0.009080827236175537
1751223262092777200,11.020777099609376,-0.026865005493164062,-0.0023669302463531494,0.015584468841552734
1751223262111603500,11.039603515625,-0.011503219604492188,0.045369893312454224,-0.0434417724609375
1751223262130430000,11.058429931640624,0.03503131866455078,0.025240808725357056,-0.0374220609664917
1751223262149256200,11.077256103515625,0.03326129913330078,0.009325474500656128,0.0787859559059143
1751223262168082400,11.09608251953125,-0.01823711395263672,-0.01163223385810852,0.07340484857559204
1751223262186909000,11.114908935546875,-0.008661270141601562,-0.05211171507835388,0.043711304664611816
1751223262205735200,11.133735107421876,-0.03659534454345703,0.043557196855545044,-0.05251568555831909
1751223262224561700,11.152561767578124,0.021127700805664062,0.02521577477455139,-0.08540421724319458
1751223262243388000,11.171387939453124,0.02006816864013672,0.01599326729774475,-0.03339242935180664
1751223262262214400,11.19021435546875,-0.02709484100341797,0.035548120737075806,-0.051643967628479004
1751223262281040600,11.20904052734375,0.006591796875,0.0400967001914978,-0.09548354148864746
1751223262299867100,11.2278671875,0.0017719268798828125,0.0951051414012909,-0.11188310384750366
1751223262328106500,11.2561064453125,-0.013474464416503906,0.04480275511741638,-0.10823875665664673
1751223262346933000,11.27493310546875,0.02303028106689453,0.017607957124710083,-0.008085250854492188
1751223262365759200,11.29375927734375,-0.0712728500366211,-0.0019003450870513916,0.0828503966331482
1751223262384585700,11.312585693359376,0.04709625244140625,-0.015725761651992798,0.05170565843582153
1751223262403412000,11.331411865234376,0.012698173522949219,0.060296833515167236,-0.09901583194732666
1751223262422238500,11.350238525390624,0.02248096466064453,0.02266642451286316,-0.05116373300552368
1751223262441064700,11.369064697265625,0.058960914611816406,0.0022296011447906494,0.027129411697387695
1751223262459891200,11.38789111328125,-0.09144973754882812,0.008323222398757935,0.11617511510848999
1751223262478717400,11.406717529296875,-0.018482208251953125,-0.03236031532287598,0.07744991779327393
1751223262497544000,11.4255439453125,0.005818367004394531,0.006832629442214966,0.04767841100692749
1751223262516370200,11.4443701171875,-0.0039348602294921875,-0.026076167821884155,0.056679368019104004
1751223262535196700,11.46319677734375,0.01997852325439453,0.012479126453399658,0.00979393720626831
1751223262554023000,11.48202294921875,-0.0278778076171875,0.0019578933715820312,0.0032196044921875
1751223262572849200,11.50084912109375,-0.031375885009765625,0.058566540479660034,-0.029588818550109863
1751223262591675600,11.519675537109375,0.03908729553222656,-0.018620669841766357,-0.013487279415130615
1751223262610502000,11.538501953125,-0.0001621246337890625,0.027408182621002197,0.0019406676292419434
1751223262629328400,11.557328369140626,0.041892051696777344,0.05446317791938782,-0.12087500095367432
1751223262648154600,11.576154541015624,0.0037755966186523438,0.03987279534339905,-0.03854048252105713
1751223262666981000,11.594981201171874,-0.0058498382568359375,0.021831005811691284,-0.041070520877838135
1751223262685807400,11.613807373046875,0.023265838623046875,-0.005533069372177124,0.04185521602630615
1751223262704633900,11.6326337890625,-0.024529457092285156,-0.03822287917137146,0.07210737466812134
1751223262723460000,11.651460205078125,0.0054340362548828125,0.001848757266998291,0.09776812791824341
1751223262742286600,11.67028662109375,0.004790306091308594,-0.07255786657333374,0.17841380834579468
1751223262761112800,11.68911279296875,-0.018027305603027344,-0.008067578077316284,0.057853639125823975
1751223262779939000,11.70793896484375,-0.0032444000244140625,-0.0015367865562438965,0.0020987391471862793
1751223262798765600,11.726765625,0.024383544921875,0.027408063411712646,-0.08518815040588379
1751223262817591800,11.745591796875,0.01611804962158203,0.08118388056755066,-0.1248515248298645
1751223262836418300,11.764418212890625,0.010980606079101562,0.07630693912506104,-0.11083966493606567
1751223262855244500,11.78324462890625,0.010599136352539062,0.11723622679710388,-0.1841990351676941
1751223262874071000,11.802071044921876,0.009935379028320312,0.030232220888137817,-0.05226600170135498
1751223262892897300,11.820897216796874,-0.018232345581054688,0.00982522964477539,-0.014952003955841064
1751223262911723800,11.839723876953125,-0.013293266296386719,-0.00022342801094055176,0.02713644504547119
1751223262930550000,11.858550048828125,0.019560813903808594,0.008280277252197266,0.022174954414367676
1751223262949376500,11.87737646484375,0.0797281265258789,0.025914639234542847,-0.036416828632354736
1751223262968202800,11.89620263671875,0.025735855102539062,0.03328463435173035,-0.06782662868499756
1751223262987029200,11.915029296875,0.12364768981933594,0.029962539672851562,-0.12083452939987183
1751223263005855500,11.93385546875,-0.08087921142578125,0.027261465787887573,0.04371768236160278
1751223263024681700,11.952681640625,-0.04604053497314453,-0.02326178550720215,0.07744580507278442
1751223263043508200,11.97150830078125,-0.12114715576171875,-0.11591336131095886,-0.08671343326568604
1751223263062334500,11.99033447265625,0.11391925811767578,-0.12010473012924194,0.20291823148727417
1751223263081161000,12.009160888671875,-0.19690513610839844,-0.09228634834289551,0.18559163808822632
1751223263099987200,12.0279873046875,0.15773296356201172,0.07041186094284058,-0.15048068761825562
1751223263118813700,12.046813720703126,-0.09342002868652344,0.07216498255729675,-0.01856410503387451
1751223263137640000,12.065639892578124,0.05451679229736328,-0.04632711410522461,0.07088363170623779
1751223263156466400,12.084466552734375,-0.013513565063476562,0.036697834730148315,-0.040323078632354736
1751223263175292700,12.103292724609375,-0.007491111755371094,0.03298664093017578,-0.018540620803833008
1751223263194119000,12.122118896484375,0.030059814453125,-0.014202266931533813,0.0643957257270813
1751223263212945400,12.1409453125,-0.03147697448730469,-0.005714684724807739,0.008486151695251465
1751223263231771600,12.159771728515626,0.025750160217285156,0.018194109201431274,-0.015715479850769043
1751223263250598100,12.17859814453125,0.006310462951660156,-0.0005925297737121582,0.002373814582824707
1751223263269424400,12.19742431640625,0.00615692138671875,0.013088732957839966,0.007929623126983643
1751223263288251000,12.2162509765625,-0.0035524368286132812,0.012921899557113647,-0.020625054836273193
1751223263307077000,12.2350771484375,-0.007992744445800781,0.0082722008228302,0.021183431148529053
1751223263325903600,12.253903564453125,0.010667800903320312,-0.001436471939086914,0.02087712287902832
1751223263344729900,12.272729736328126,-0.008187294006347656,-0.005909323692321777,0.0013462305068969727
1751223263363556000,12.29155615234375,0.0013647079467773438,-0.010402292013168335,0.0007477402687072754
1751223263382382600,12.310382568359374,-0.012830734252929688,0.008461028337478638,0.0009601116180419922
1751223263401208800,12.329208740234375,0.010827064514160156,0.003817915916442871,-0.008220076560974121
1751223263420035300,12.348035400390625,0.0007886886596679688,-0.005536377429962158,0.010417401790618896
1751223263438861600,12.366861572265625,-0.008646011352539062,0.008524566888809204,0.014998793601989746
1751223263457688000,12.38568798828125,-0.0037975311279296875,-0.01050671935081482,0.019238829612731934
1751223263476514300,12.404514404296876,0.00106048583984375,-0.0007300674915313721,0.013813614845275879
1751223263495340800,12.4233408203125,0.0055637359619140625,-0.000752568244934082,0.008898735046386719
1751223263514167000,12.4421669921875,0.0006847381591796875,0.022687673568725586,-0.014894962310791016
1751223263532993300,12.4609931640625,0.005379676818847656,0.003179103136062622,-0.0148468017578125
1751223263551819800,12.47981982421875,0.0007457733154296875,0.002903491258621216,-0.00044739246368408203
1751223263570646000,12.49864599609375,0.0008907318115234375,0.007508993148803711,0.013636469841003418
1751223263589472500,12.517472412109376,0.0011091232299804688,0.0025505125522613525,0.012980341911315918
1751223263608298800,12.536298828125,-0.008101463317871094,-0.0018610358238220215,0.01261073350906372
1751223263627125200,12.555125244140624,-0.007917404174804688,0.0076863765716552734,0.0031901001930236816
1751223263645951500,12.573951416015625,-0.0028676986694335938,0.012193828821182251,0.00306016206741333
1751223263664778000,12.592778076171875,-0.0029954910278320312,-0.002262115478515625,-0.0016421079635620117
1751223263683604200,12.611604248046875,0.0015096664428710938,-0.0022701025009155273,0.0026773810386657715
1751223263702430500,12.630430419921876,-0.0031557083129882812,-0.0119248628616333,-0.006871342658996582
1751223263721257000,12.649257080078126,-0.007747650146484375,-0.006948113441467285,-0.0023041963577270508
1751223263740083200,12.668083251953124,-0.0076446533203125,0.007385730743408203,-0.011972546577453613
1751223263758909700,12.68690966796875,0.011426925659179688,0.007284820079803467,-0.007015526294708252
1751223263777736000,12.70573583984375,0.0016508102416992188,-0.00699952244758606,-0.002361476421356201
1751223263796562400,12.7245625,0.0015306472778320312,0.007492721080780029,0.011311471462249756
1751223263815388700,12.743388671875,-0.04106903076171875,-0.01724943518638611,0.00828254222869873
1751223263834215200,12.762215087890626,0.039012908935546875,-0.007620394229888916,0.0746954083442688
1751223263853041400,12.78104150390625,-0.015092849731445312,-0.010130733251571655,0.04126477241516113
1751223263871867600,12.79986767578125,-0.15787315368652344,-0.010391861200332642,0.09055602550506592
1751223263890694100,12.818694091796875,0.0645904541015625,0.12856169044971466,-0.22627019882202148
1751223263909520400,12.837520263671875,0.07716655731201172,-0.12800925970077515,0.22231781482696533
1751223263928347000,12.856346923828125,0.0682992935180664,-0.02928134799003601,-0.04276353120803833
1751223263947173000,12.875173095703126,0.0012464523315429688,-0.11697074770927429,0.1716827154159546
1751223263965999600,12.89399951171875,-0.1071767807006836,0.029101938009262085,0.08709073066711426
1751223263984825900,12.912825927734374,-0.04676055908203125,0.1270248144865036,-0.036215364933013916
1751223264003652400,12.93165234375,0.061272621154785156,-0.1599808633327484,0.23100239038467407
1751223264022478600,12.950478515625,-0.04749298095703125,-0.2744823694229126,0.4478490948677063
1751223264041304800,12.969304931640625,-0.07813167572021484,-0.19194382429122925,0.4644792079925537
1751223264060131300,12.98813134765625,0.04735851287841797,-0.06885027885437012,0.2001018524169922
1751223264078957600,13.00695751953125,-0.028639793395996094,0.002035290002822876,-0.05927538871765137
1751223264097784000,13.0257841796875,0.0017004013061523438,0.06806352734565735,-0.28294241428375244
1751223264116610300,13.0446103515625,0.039340972900390625,0.10187140107154846,-0.3106499910354614
1751223264135436800,13.063436767578125,0.057051658630371094,0.1912144422531128,-0.3848941922187805
1751223264154263000,13.082262939453125,0.02338409423828125,0.19689439237117767,-0.38074713945388794
1751223264173089300,13.10108935546875,-0.033562660217285156,0.0967969298362732,-0.10730105638504028
1751223264191915800,13.119915771484376,0.023820877075195312,-0.08965462446212769,0.24925798177719116
1751223264210742000,13.138741943359374,0.03643226623535156,-0.09961575269699097,0.12300753593444824
1751223264229568500,13.157568603515625,-0.06622028350830078,-0.015230387449264526,0.00993424654006958
1751223264248394800,13.176394775390625,0.010869026184082031,0.039697229862213135,0.07739144563674927
1751223264267221200,13.19522119140625,-0.025165557861328125,-0.0827263593673706,0.26696479320526123
1751223264286047500,13.214047607421875,-0.01958751678466797,-0.19354304671287537,0.380079984664917
1751223264304874000,13.2328740234375,-0.01848125457763672,-0.08218875527381897,0.14181029796600342
1751223264323700200,13.2517001953125,0.005381584167480469,0.043993741273880005,-0.15298938751220703
1751223264342526500,13.2705263671875,0.056954383850097656,0.07826048135757446,-0.3095358610153198
1751223264361353000,13.28935302734375,0.02735137939453125,0.1570160686969757,-0.35365188121795654
1751223264380179200,13.30817919921875,-0.0057582855224609375,0.1681917905807495,-0.277551531791687
1751223264399005700,13.327005615234375,0.0028772354125976562,0.05680212378501892,-0.13834863901138306
1751223264417832000,13.34583203125,0.02663707733154297,0.05600297451019287,-0.10140961408615112
1751223264436658200,13.364658203125,0.016191482543945312,0.06974324584007263,-0.08092653751373291
1751223264455484700,13.383484619140624,0.0022764205932617188,0.03197053074836731,-0.04730534553527832
1751223264474311000,13.402310791015625,0.0308380126953125,0.08385664224624634,-0.08339595794677734
1751223264493137400,13.421137451171875,0.021142959594726562,0.059099167585372925,-0.10362672805786133
1751223264511963600,13.439963623046875,0.0016736984252929688,0.08552965521812439,-0.1419295072555542
1751223264530790100,13.4587900390625,-0.007826805114746094,0.09271377325057983,-0.1369975209236145
1751223264549616400,13.477616455078126,0.02498340606689453,0.07176372408866882,-0.02824532985687256
1751223264568443000,13.49644287109375,0.00079345703125,0.03217741847038269,0.01687222719192505
1751223264587269000,13.51526904296875,0.019298553466796875,0.03626003861427307,0.022702455520629883
1751223264606095400,13.534095458984375,-0.013415336608886719,0.020307719707489014,-0.006259500980377197
1751223264624921900,13.552921875,0.03769207000732422,-0.024202793836593628,0.03539818525314331
1751223264643748000,13.571748046875,-0.02460479736328125,0.05467769503593445,-0.004001617431640625
1751223264662574600,13.59057470703125,0.013917922973632812,0.020231276750564575,0.07484555244445801
1751223264681400800,13.60940087890625,-0.005967140197753906,-0.01893705129623413,0.010752201080322266
1751223264700227000,13.62822705078125,-0.006422996520996094,0.0309465229511261,-0.012703955173492432
1751223264719053600,13.647053466796875,0.02144622802734375,0.047462642192840576,-0.04561126232147217
1751223264737879800,13.6658798828125,0.0066890716552734375,0.007626980543136597,-0.017334163188934326
1751223264756706300,13.684706298828125,-0.017226219177246094,-0.022287458181381226,0.027746200561523438
1751223264775532500,13.703532470703125,0.04420948028564453,0.03811320662498474,0.03792208433151245
1751223264794359000,13.722359130859376,0.015191078186035156,0.008595645427703857,0.09024441242218018
1751223264813185300,13.741185302734374,-0.03731060028076172,-0.000944972038269043,0.10787832736968994
1751223264832011500,13.760011474609374,-0.0028705596923828125,0.023666858673095703,0.04055553674697876
1751223264850838000,13.778838134765625,0.015160560607910156,0.03805887699127197,-0.08676296472549438
1751223264869664300,13.797664306640625,-0.02728271484375,0.0381351113319397,-0.010730743408203125
1751223264888490800,13.81649072265625,0.039272308349609375,-0.007574498653411865,-0.004258513450622559
1751223264907317000,13.83531689453125,-0.01742267608642578,0.018157780170440674,0.06791114807128906
1751223264926143500,13.8541435546875,0.030561447143554688,-0.04625394940376282,0.10212475061416626
1751223264944969700,13.8729697265625,-0.026526451110839844,-0.11834403872489929,0.1908092498779297
1751223264963796000,13.8917958984375,-0.025382041931152344,-0.13322243094444275,0.16528546810150146
1751223264982622500,13.91062255859375,0.012825965881347656,0.03560537099838257,0.0007575750350952148
1751223265001448700,13.92944873046875,0.04615592956542969,0.14445337653160095,-0.16869300603866577
1751223265020275200,13.948275146484375,0.045165061950683594,0.09144452214241028,-0.19937145709991455
1751223265039101400,13.967101318359376,0.02513599395751953,0.08654439449310303,-0.14576536417007446
1751223265057928000,13.985927978515624,-0.008508682250976562,0.024663329124450684,-0.07912260293960571
1751223265076754200,14.004754150390625,-0.022180557250976562,-0.02591875195503235,0.06515800952911377
1751223265095580400,14.023580322265625,-0.017284393310546875,-0.00041034817695617676,0.06641507148742676
1751223265114407000,14.042406982421875,-0.02610015869140625,0.019682973623275757,0.044625818729400635
1751223265133233200,14.061233154296875,0.007252693176269531,0.09514322876930237,-0.058106184005737305
1751223265152059600,14.0800595703125,0.02515888214111328,0.10685208439826965,-0.197973370552063
1751223265170886000,14.098885986328124,0.024259567260742188,0.07980546355247498,-0.14076870679855347
1751223265189712100,14.117712158203124,0.02310466766357422,0.015610069036483765,-0.025002121925354004
1751223265208538600,14.13653857421875,-0.011333465576171875,0.022895395755767822,-0.011754095554351807
1751223265227364900,14.15536474609375,-0.005663871765136719,0.0639420747756958,-0.10670548677444458
1751223265246191400,14.17419140625,0.0072460174560546875,0.07561430335044861,-0.11000138521194458
1751223265265017600,14.193017578125,-0.0025119781494140625,0.06352794170379639,-0.07565701007843018
1751223265283843800,14.21184375,0.034560203552246094,0.028630971908569336,-0.029863595962524414
1751223265302670300,14.23067041015625,-0.013373374938964844,0.008902966976165771,-0.03771233558654785
1751223265321496600,14.24949658203125,-0.05037498474121094,-0.0011629462242126465,0.016114354133605957
1751223265340323000,14.268322998046875,0.039565086364746094,-0.015294820070266724,0.12844336032867432
1751223265359149300,14.2871494140625,-0.008126258850097656,0.0039976537227630615,0.07779496908187866
1751223265377975800,14.305975830078125,0.006218910217285156,0.03751906752586365,-0.009517908096313477
1751223265396802000,14.324802001953126,-0.03114795684814453,0.004460453987121582,0.0182112455368042
1751223265415628300,14.343628173828124,-0.029992103576660156,-0.017513781785964966,0.08176136016845703
1751223265434454800,14.362454833984375,-0.03868865966796875,-0.07131409645080566,0.12256187200546265
1751223265453281000,14.381281005859375,-0.004191398620605469,-0.03440788388252258,0.09614700078964233
1751223265472107500,14.400107421875,0.024207115173339844,-0.02237948775291443,0.10569638013839722
1751223265490933800,14.418933837890625,0.0002765655517578125,-0.011884957551956177,0.11148828268051147
1751223265509760000,14.437760009765626,-0.04228401184082031,-0.02981993556022644,0.10839986801147461
1751223265528586500,14.45658642578125,-0.03579902648925781,0.023578792810440063,0.04224115610122681
1751223265547412700,14.475412841796874,-0.00707244873046875,0.06112942099571228,-0.04599422216415405
1751223265566239200,14.4942392578125,0.03096771240234375,0.10337665677070618,-0.1875619888305664
1751223265585065500,14.5130654296875,0.03888702392578125,0.12358710169792175,-0.28825104236602783
1751223265603892000,14.53189208984375,0.03787803649902344,0.16243121027946472,-0.3167189359664917
1751223265622718200,14.55071826171875,0.05083656311035156,0.09740376472473145,-0.13851237297058105
1751223265641544400,14.56954443359375,0.007373809814453125,-0.017154842615127563,0.07568508386611938
1751223265660371000,14.588370849609374,-0.03055858612060547,-0.04486486315727234,0.13453340530395508
1751223265679197200,14.607197265625,-0.043374061584472656,0.01288941502571106,0.03810238838195801
1751223265698023700,14.626023681640625,0.00908660888671875,0.02296048402786255,-0.013426780700683594
1751223265716850000,14.644849853515625,-0.000438690185546875,0.06953749060630798,-0.05774611234664917
1751223265735676200,14.66367626953125,0.05080223083496094,0.04370921850204468,-0.0102311372756958
1751223265754502700,14.682502685546876,-0.0028886795043945312,-0.015107303857803345,0.09307289123535156
1751223265773329000,14.701328857421874,-0.049835205078125,-0.11828434467315674,0.28113818168640137
1751223265792155400,14.7201552734375,-0.05350685119628906,-0.14388608932495117,0.31309545040130615
1751223265810981600,14.738981689453125,-0.04286384582519531,-0.023543626070022583,0.07277417182922363
1751223265829807900,14.757807861328125,0.027955055236816406,0.1594196856021881,-0.23586642742156982
1751223265848634400,14.77663427734375,0.06933784484863281,0.16380073130130768,-0.33752089738845825
1751223265867460600,14.795460693359376,0.020093917846679688,0.11555740237236023,-0.2481018304824829
1751223265886287000,14.814287109375,0.02357196807861328,0.045295536518096924,-0.15353238582611084
1751223265905113300,14.83311328125,0.0038042068481445312,0.057162076234817505,-0.10182726383209229
1751223265923939600,14.851939697265625,-0.02846240997314453,0.0888911783695221,-0.11731046438217163
1751223265942766000,14.87076611328125,0.01898956298828125,0.011772304773330688,0.0136680006980896
1751223265961592300,14.88959228515625,0.013416290283203125,0.01131400465965271,0.022887349128723145
1751223265980418800,14.908418701171875,0.0032978057861328125,0.0011348128318786621,0.06048762798309326
1751223265999245000,14.9272451171875,-0.048412322998046875,-0.017598986625671387,0.07842302322387695
1751223266018071300,14.9460712890625,-0.028057098388671875,-0.0815344750881195,0.20234906673431396
1751223266036897800,14.964897705078124,-0.0038127899169921875,-0.10119950771331787,0.27868717908859253
1751223266055724000,14.98372412109375,-0.012888908386230469,-0.12451866269111633,0.3109658360481262
1751223266074550500,15.002550537109375,-0.026480674743652344,-0.07337293028831482,0.19409549236297607
1751223266093376800,15.021376708984375,0.007015228271484375,0.018328160047531128,0.08139705657958984
1751223266112203000,15.040203125,-0.0024938583374023438,0.00043451786041259766,-0.01944953203201294
1751223266131029500,15.059029541015626,-0.03498554229736328,0.05802401900291443,-0.15140891075134277
1751223266149855700,15.077855712890624,0.008199691772460938,0.07310310006141663,-0.1962897777557373
1751223266168682200,15.09668212890625,-0.00597381591796875,0.0025692880153656006,-0.14526861906051636
1751223266187508500,15.115508544921875,0.027017593383789062,0.05088511109352112,-0.096294105052948
1751223266206335000,15.1343349609375,0.035696983337402344,-0.0009162425994873047,-0.019459068775177002
1751223266225161200,15.1531611328125,-0.012752532958984375,0.07437989115715027,-0.03721439838409424
1751223266243987500,15.171987548828126,0.04864215850830078,0.053770214319229126,-0.0016668438911437988
1751223266262814000,15.19081396484375,-0.02752208709716797,0.015986979007720947,0.032531797885894775
1751223266281640200,15.20964013671875,-0.04543495178222656,-0.0443267822265625,0.061324119567871094
1751223266300466700,15.228466796875,0.0065975189208984375,-0.005559295415878296,0.028110504150390625
1751223266319293000,15.24729296875,0.011671066284179688,0.033019185066223145,-0.07009327411651611
1751223266338119200,15.266119140625,0.030002593994140625,0.1683567315340042,-0.24578481912612915
1751223266356945700,15.284945556640626,0.00545501708984375,0.09475886821746826,-0.17912447452545166
1751223266375772000,15.30377197265625,0.015193939208984375,0.06037452816963196,-0.11477071046829224
1751223266394598400,15.322598388671874,0.03345489501953125,0.05454981327056885,-0.06069958209991455
1751223266413424600,15.341424560546875,0.018532752990722656,0.07211104035377502,-0.10157334804534912
1751223266432251000,15.3602509765625,0.004421234130859375,0.046712279319763184,-0.061384618282318115
1751223266451077400,15.379077392578125,-0.00481414794921875,0.03142222762107849,0.0008209347724914551
1751223266469903600,15.397903564453125,0.004492759704589844,-0.001677781343460083,0.03726166486740112
1751223266488730000,15.416730224609376,0.014023780822753906,-0.028895020484924316,0.11049801111221313
1751223266507556400,15.435556396484374,-0.009736061096191406,-0.042485058307647705,0.08954465389251709
1751223266526382600,15.454382568359375,-0.014132499694824219,-0.004395037889480591,0.06042701005935669
1751223266545209000,15.473208984375,0.009600639343261719,0.009593576192855835,0.013472259044647217
1751223266564035300,15.492035400390625,-0.004487037658691406,0.042758047580718994,-0.028545260429382324
1751223266582861800,15.51086181640625,0.009648323059082031,0.00016099214553833008,0.00419461727142334
1751223266601688000,15.52968798828125,0.03696155548095703,-0.037630319595336914,0.04537773132324219
1751223266620514300,15.548514404296874,-0.043524742126464844,-0.008722752332687378,0.019817650318145752
1751223266639340800,15.5673408203125,-0.01887989044189453,0.053045839071273804,-0.08283168077468872
1751223266658167000,15.5861669921875,-0.009289741516113281,0.089680016040802,-0.04145163297653198
1751223266676993300,15.6049931640625,0.018863677978515625,0.022452324628829956,0.00433582067489624
1751223266695819800,15.62381982421875,-0.014951705932617188,-0.03980499505996704,0.12515634298324585
1751223266714646000,15.64264599609375,0.018056869506835938,-0.06784972548484802,0.16803866624832153
1751223266733472500,15.661472412109376,-0.01999950408935547,-0.015020191669464111,0.13884401321411133
1751223266752298800,15.680298828125,0.013077735900878906,-0.0003465116024017334,0.04838967323303223
1751223266771125000,15.699125,-0.0014972686767578125,-0.009951919317245483,0.054108500480651855
1751223266789951500,15.717951416015625,-0.015108108520507812,-0.061629146337509155,0.05051827430725098
1751223266808777700,15.73677783203125,-0.01963329315185547,0.019403934478759766,0.03161799907684326
1751223266827604200,15.755604248046875,0.00010585784912109375,0.04837176203727722,-0.04882347583770752
1751223266846430500,15.774430419921876,0.037489891052246094,0.056214839220047,-0.0791008472442627
1751223266865256700,15.793256591796874,0.0413818359375,0.12088742852210999,-0.20186251401901245
1751223266884083200,15.812083251953124,0.049454689025878906,0.05705556273460388,-0.1258997917175293
1751223266902909400,15.830909423828125,-0.031463623046875,0.022319287061691284,-0.08465802669525146
1751223266921736000,15.84973583984375,0.011808395385742188,0.059826433658599854,-0.0732036828994751
1751223266940562200,15.868562255859375,0.0025539398193359375,0.050164997577667236,-0.021218836307525635
1751223266959388400,15.887388427734376,0.03988456726074219,0.02635669708251953,-0.007308006286621094
1751223266978215000,15.90621484375,0.001056671142578125,0.011265814304351807,0.016292035579681396
1751223266997041200,15.925041259765624,-0.013051033020019531,-0.012653201818466187,0.07709085941314697
1751223267015867600,15.94386767578125,-0.016877174377441406,-0.026169925928115845,0.06618082523345947
1751223267034694000,15.96269384765625,-0.0112762451171875,-0.024405092000961304,0.0687110424041748
1751223267053520100,15.98152001953125,-0.0013914108276367188,-0.012935400009155273,0.051627397537231445
1751223267072346600,16.0003466796875,0.045632362365722656,-0.016251295804977417,0.048528313636779785
1751223267091172900,16.0191728515625,-0.016518592834472656,-0.006397545337677002,0.04592287540435791
1751223267109999000,16.0379990234375,0.006609916687011719,-0.006380319595336914,0.04403388500213623
1751223267128825600,16.05682568359375,-0.011659622192382812,0.012653082609176636,-0.013239264488220215
1751223267147651800,16.07565185546875,-0.02099132537841797,0.008429765701293945,-0.046481549739837646
1751223267175891500,16.103891357421876,0.021572113037109375,0.023160934448242188,-0.045766234397888184
1751223267194717700,16.1227177734375,0.007092475891113281,0.017821669578552246,-0.002295970916748047
1751223267213544200,16.141544189453125,0.020715713500976562,-0.02511236071586609,0.03631550073623657
1751223267232370400,16.160370361328123,-0.022369384765625,0.03536182641983032,-0.03177976608276367
1751223267251196700,16.17919677734375,-0.007719993591308594,0.04312705993652344,-0.07885253429412842
1751223267270023200,16.198023193359376,0.01598834991455078,0.08375665545463562,-0.11557126045227051
1751223267288849400,16.216849365234374,0.001422882080078125,0.03934308886528015,-0.07727700471878052
1751223267307676000,16.235676025390624,0.010256767272949219,-0.009071290493011475,0.048958778381347656
1751223267326502100,16.254502197265627,0.00000476837158203125,-0.04219672083854675,0.08748209476470947
1751223267345328400,16.273328369140625,-0.023224830627441406,-0.002873539924621582,0.07606226205825806
1751223267364155000,16.29215478515625,-0.02265644073486328,0.03082108497619629,-0.037311017513275146
1751223267382981000,16.310981201171874,0.033738136291503906,0.025765448808670044,-0.03015148639678955
1751223267401807400,16.329807373046876,0.009469032287597656,0.0021857023239135742,0.03811633586883545
1751223267420633900,16.3486337890625,-0.0006885528564453125,-0.05409783124923706,0.1502407193183899
1751223267439460000,16.367460205078125,-0.02853107452392578,-0.02829897403717041,0.14196574687957764
1751223267458286600,16.38628662109375,-0.02251911163330078,0.011838823556900024,0.06276136636734009
1751223267477112800,16.40511279296875,-0.012341499328613281,-0.000483781099319458,0.04028809070587158
1751223267495939000,16.42393896484375,0.0021924972534179688,0.024474024772644043,-0.0808706283569336
1751223267514765600,16.442765625,0.006957054138183594,0.025444388389587402,-0.04327499866485596
1751223267533591800,16.461591796875,0.03978919982910156,0.017421483993530273,-0.0635177493095398
1751223267552418300,16.480418212890626,-0.017076492309570312,0.03765743970870972,-0.10853064060211182
1751223267571244500,16.49924462890625,-0.0021104812622070312,0.0865071713924408,-0.13031607866287231
1751223267590070800,16.51807080078125,0.0030059814453125,0.08675792813301086,-0.11811387538909912
1751223267608897300,16.536897216796874,0.06417179107666016,0.021249473094940186,-0.05803799629211426
1751223267627723500,16.5557236328125,0.0060253143310546875,0.010418981313705444,-0.018896937370300293
1751223267646549800,16.5745498046875,-0.021988868713378906,0.03264942765235901,-0.05348682403564453
1751223267665376300,16.593376220703124,-0.040259361267089844,0.0401381254196167,-0.0713762640953064
1751223267684202500,16.612202392578126,0.026082992553710938,0.06721395254135132,-0.0517423152923584
1751223267712442000,16.640442138671876,0.0010433197021484375,-0.029052793979644775,0.07679909467697144
1751223267731268400,16.659268310546874,-0.02732563018798828,-0.033273398876190186,0.08680945634841919
1751223267750094800,16.6780947265625,-0.0033521652221679688,-0.037042200565338135,0.039615631103515625
1751223267768921000,16.696921142578127,-0.008568763732910156,-0.02649042010307312,0.10064446926116943
1751223267787747300,16.715747314453125,-0.008223533630371094,-0.06335824728012085,0.19280725717544556
1751223267806573800,16.73457373046875,-0.04552936553955078,-0.05689340829849243,0.1661754846572876
1751223267825400000,16.753400146484374,-0.02581501007080078,-0.009075760841369629,0.08626055717468262
1751223267844226300,16.772226318359376,0.03493309020996094,-0.024248123168945312,0.06170719861984253
1751223267863052800,16.791052734375,0.0053577423095703125,0.01619821786880493,0.029935777187347412
1751223267881879000,16.809879150390625,-0.03771209716796875,0.03790643811225891,-0.039752840995788574
1751223267900705500,16.82870556640625,-0.0130767822265625,0.03720781207084656,-0.044394493103027344
1751223267919531800,16.84753173828125,0.015233993530273438,0.09784898161888123,-0.14807111024856567
1751223267938358000,16.86635791015625,0.08490180969238281,0.0860341489315033,-0.19696545600891113
1751223267957184500,16.8851845703125,0.007229804992675781,0.06386673450469971,-0.16958647966384888
1751223267976010800,16.9040107421875,-0.007289886474609375,0.07074439525604248,-0.13911521434783936
1751223267994837000,16.9228369140625,-0.021249771118164062,0.03602626919746399,0.0018625259399414062
1751223268013663500,16.94166357421875,-0.0066890716552734375,-0.0025725066661834717,0.046245574951171875
1751223268032489700,16.96048974609375,0.03542804718017578,0.03494817018508911,-0.013902068138122559
1751223268051316200,16.979316162109374,0.006382942199707031,0.024850159883499146,-0.06980103254318237
1751223268070142500,16.998142578125,-0.03070831298828125,0.05907079577445984,-0.007829368114471436
1751223268088968700,17.01696875,0.007525444030761719,0.02618718147277832,-0.04548358917236328
1751223268107795200,17.035795166015625,0.007236480712890625,0.013133019208908081,-0.003828883171081543
1751223268126621400,17.054621337890627,0.030900001525878906,0.05712860822677612,-0.02469414472579956
1751223268145447700,17.07344775390625,0.0018548965454101562,0.005369246006011963,0.016888916492462158
1751223268164274200,17.092274169921875,-0.01708221435546875,-0.013324350118637085,0.01625925302505493
1751223268183100400,17.111100341796874,-0.0075168609619140625,0.015271425247192383,0.010524392127990723
1751223268201926700,17.1299267578125,-0.016725540161132812,0.011217087507247925,0.031805455684661865
1751223268220753200,17.148753173828126,-0.0023107528686523438,0.00830867886543274,0.03308159112930298
1751223268239579400,17.167579345703125,0.007415771484375,0.015014231204986572,0.03368556499481201
1751223268258406000,17.186406005859375,-0.0020494461059570312,-0.006783664226531982,0.07716470956802368
1751223268277232000,17.205232177734374,0.0028705596923828125,-0.02388983964920044,-0.001035451889038086
1751223268296058400,17.224058349609376,0.0023775100708007812,0.03835529088973999,-0.0490078330039978
1751223268314884900,17.242884765625,-0.015869140625,0.020297378301620483,0.03031820058822632
1751223268333711000,17.261711181640624,-0.0018644332885742188,0.00208890438079834,0.028616905212402344
1751223268352537600,17.28053759765625,-0.0064258575439453125,0.035161614418029785,0.046663105487823486
1751223268371363800,17.29936376953125,-0.005444526672363281,0.02159157395362854,-0.010669231414794922
1751223268390190000,17.318190185546875,-0.04330253601074219,0.04550066590309143,-0.08581268787384033
1751223268409016600,17.3370166015625,0.03273200988769531,0.0737864077091217,-0.12173652648925781
1751223268427842800,17.3558427734375,0.032088279724121094,0.07791414856910706,-0.12000280618667603
1751223268446669000,17.3746689453125,0.01763439178466797,0.02082902193069458,-0.058445870876312256
1751223268465495600,17.39349560546875,-0.024827957153320312,0.007322818040847778,-0.009046494960784912
1751223268484321800,17.41232177734375,-0.0047016143798828125,0.027866721153259277,-0.05074208974838257
1751223268503148300,17.431148193359373,-0.013262748718261719,0.03956565260887146,-0.03745204210281372
1751223268521974500,17.449974609375,0.015592575073242188,0.03703254461288452,-0.005884766578674316
1751223268540800800,17.46880078125,0.0018606185913085938,0.016279608011245728,-0.004080593585968018
1751223268559627300,17.487627197265624,-0.00711822509765625,0.0004571676254272461,0.11478030681610107
1751223268578453500,17.50645361328125,0.007765769958496094,-0.03391921520233154,0.1292816400527954
1751223268597279700,17.52527978515625,-0.015354156494140625,0.0017402470111846924,0.07032710313796997
1751223268616106200,17.544106201171875,-0.019410133361816406,-0.015440911054611206,0.09381413459777832
1751223268634932500,17.562932373046873,-0.02876567840576172,-0.028681695461273193,0.10523170232772827
1751223268653759000,17.581759033203124,-0.009045600891113281,0.0002525448799133301,0.009518206119537354
1751223268672585200,17.600585205078126,-0.004570960998535156,0.028958261013031006,-0.0467832088470459
1751223268691411500,17.619411376953124,0.04736042022705078,0.09550854563713074,-0.15428078174591064
1751223268710238000,17.638238037109375,0.023008346557617188,0.0759495198726654,-0.16983675956726074
1751223268729064200,17.657064208984377,0.026938438415527344,0.04115590453147888,-0.09569168090820312
1751223268747890400,17.675890380859375,-0.03032207489013672,0.011546969413757324,-0.0663638710975647
1751223268766717000,17.694717041015625,-0.0106353759765625,0.059091925621032715,-0.0718960165977478
1751223268785543200,17.713543212890624,-0.033237457275390625,0.04076969623565674,-0.035539865493774414
1751223268804369700,17.73236962890625,0.014339447021484375,0.04102689027786255,-0.008698701858520508
1751223268823196000,17.75119580078125,-0.0000896453857421875,0.012454420328140259,0.03845047950744629
1751223268842022100,17.770022216796875,0.008798599243164062,-0.01632624864578247,0.07157939672470093
1751223268860848600,17.7888486328125,0.017669677734375,0.010874390602111816,0.0029854178428649902
1751223268879675000,17.8076748046875,-0.016158103942871094,-0.0050446391105651855,0.010702550411224365
1751223268898501000,17.826501220703125,-0.039015769958496094,0.003017812967300415,0.05103921890258789
1751223268917327600,17.84532763671875,-0.0052738189697265625,-0.03998371958732605,0.09018111228942871
1751223268936153900,17.86415380859375,-0.024343490600585938,0.007163941860198975,0.0438077449798584
1751223268954980000,17.88297998046875,0.037072181701660156,-0.008723467588424683,0.010177016258239746
1751223268973806600,17.901806640625,0.002483367919921875,0.022994697093963623,-0.009087443351745605
1751223268992632800,17.9206328125,-0.03571128845214844,-0.05505341291427612,0.05830538272857666
1751223269011459300,17.939459228515624,-0.030776023864746094,-0.008509784936904907,0.03461778163909912
1751223269030285600,17.95828564453125,-0.015783309936523438,0.032860398292541504,-0.026394903659820557
1751223269049111800,17.97711181640625,0.025987625122070312,0.03563505411148071,-0.040157198905944824
1751223269067938300,17.995938232421874,0.006000518798828125,0.0575004518032074,-0.025412440299987793
1751223269086764500,18.0147646484375,-0.00861358642578125,-0.020306438207626343,0.05944257974624634
1751223269105590800,18.0335908203125,-0.008709907531738281,-0.02571466565132141,0.10973429679870605
1751223269124417300,18.052417236328125,-0.036449432373046875,-0.015610307455062866,0.05546891689300537
1751223269143243500,18.071243408203124,0.053483009338378906,0.01216733455657959,-0.010367095470428467
1751223269162070000,18.090070068359374,-0.009426116943359375,0.038700610399246216,-0.05630546808242798
1751223269180896300,18.108896240234376,0.018762588500976562,0.0039101243019104,0.026496827602386475
1751223269199722500,18.127722412109375,0.008387565612792969,0.03967994451522827,-0.07076078653335571
1751223269218549000,18.146549072265625,-0.015339851379394531,0.08094388246536255,-0.149699866771698
1751223269237375200,18.165375244140623,-0.0102996826171875,0.04266935586929321,-0.09854000806808472
1751223269256201500,18.184201416015625,0.040904998779296875,0.04334992170333862,-0.023338913917541504
1751223269275028000,18.203028076171876,-0.0059814453125,0.012283027172088623,0.030216991901397705
1751223269293854200,18.221854248046874,0.008546829223632812,-0.028349101543426514,0.06849515438079834
1751223269312680700,18.2406806640625,-0.010064125061035156,0.016227513551712036,0.035092711448669434
1751223269331507000,18.2595068359375,0.008940696716308594,-0.00185394287109375,0.02612888813018799
1751223269350333200,18.278333251953125,-0.0004892349243164062,-0.019403576850891113,0.05033022165298462
1751223269369159700,18.29715966796875,0.022922515869140625,0.020113348960876465,0.009653449058532715
1751223269387986000,18.31598583984375,0.01787853240966797,0.03485879302024841,-0.03321492671966553
1751223269406812200,18.334812255859376,-0.00598907470703125,0.0713510513305664,-0.10518395900726318
1751223269425638700,18.353638671875,-0.00150299072265625,0.046711742877960205,-0.10205584764480591
1751223269444465000,18.37246484375,-0.010251998901367188,0.06588876247406006,-0.10224580764770508
1751223269463291100,18.391291015625,-0.03716564178466797,0.04481559991836548,-0.03621703386306763
1751223269482117600,18.41011767578125,0.006848335266113281,0.03403109312057495,-0.00030612945556640625
1751223269500944000,18.42894384765625,0.04463958740234375,0.060312122106552124,-0.0999862551689148
1751223269519770400,18.447770263671874,0.03442955017089844,0.07054746150970459,-0.14380908012390137
1751223269538596600,18.4665966796875,0.014614105224609375,0.04700303077697754,-0.04491615295410156
1751223269557422800,18.4854228515625,0.014469146728515625,-0.004987984895706177,0.006307125091552734
1751223269576249300,18.504249267578125,-0.03255939483642578,0.004436463117599487,0.010467350482940674
1751223269595075600,18.52307568359375,-0.0314483642578125,0.0005027353763580322,0.07986032962799072
1751223269613901800,18.54190185546875,0.0024499893188476562,0.006355017423629761,0.11037594079971313
1751223269632728300,18.560728271484376,0.00724029541015625,0.007378906011581421,0.0694311261177063
1751223269651554600,18.579554443359374,-0.016256332397460938,0.007959991693496704,0.05934673547744751
1751223269670380800,18.598380859375,0.0023708343505859375,0.021213412284851074,-0.009353399276733398
1751223269689207300,18.617207275390626,0.006735801696777344,0.0955176055431366,-0.09434044361114502
1751223269708033500,18.636033447265625,-0.0024366378784179688,0.09919783473014832,-0.128900945186615
1751223269726859800,18.65485986328125,0.011884689331054688,0.032839179039001465,-0.019240498542785645
1751223269745686300,18.673686279296874,-0.011669158935546875,0.014459818601608276,0.008269071578979492
1751223269764512500,18.692512451171876,0.006993293762207031,0.061823517084121704,-0.02555161714553833
1751223269783339000,18.711339111328126,0.01661396026611328,0.04719752073287964,-0.052494585514068604
1751223269802165200,18.730165283203124,-0.011766433715820312,0.0566505491733551,-0.02355217933654785
1751223269820991500,18.748991455078126,0.021543502807617188,-0.003674328327178955,0.021565496921539307
1751223269839818000,18.76781787109375,0.0027322769165039062,-0.015334278345108032,0.012837827205657959
1751223269858644200,18.786644287109375,0.025913238525390625,0.009801775217056274,0.05207890272140503
1751223269877470500,18.805470458984374,0.016698837280273438,0.03969550132751465,0.062436819076538086
1751223269896297000,18.824296875,-0.016119956970214844,0.021965384483337402,-0.002171039581298828
1751223269915123200,18.843123291015626,-0.0060710906982421875,0.009317368268966675,0.03235870599746704
1751223269933949700,18.86194970703125,-0.014739036560058594,0.0061952173709869385,0.019604861736297607
1751223269952776000,18.88077587890625,0.046319007873535156,0.011901497840881348,0.008639335632324219
1751223269971602200,18.899602294921873,0.040320396423339844,0.0348774790763855,-0.05630546808242798
1751223269990428700,18.9184287109375,-0.01673412322998047,0.020365923643112183,-0.03193867206573486
1751223270009255000,18.9372548828125,-0.016033172607421875,0.0212041437625885,0.005025684833526611
1751223270028081200,18.9560810546875,-0.0012359619140625,0.02250957489013672,-0.030567288398742676
1751223270046907600,18.97490771484375,-0.0052700042724609375,0.052181363105773926,-0.027672171592712402
1751223270065734000,18.99373388671875,-0.009857177734375,-0.022678911685943604,0.01334470510482788
1751223270084560400,19.012560302734375,0.013157844543457031,0.0244448184967041,-0.033540546894073486
1751223270103386600,19.03138671875,0.02191638946533203,0.03338459134101868,-0.07441842555999756
1751223270122212900,19.050212890625,-0.011270523071289062,0.056764692068099976,-0.07765138149261475
1751223270141039400,19.069039306640626,0.0034780502319335938,0.032825976610183716,-0.03967481851577759
1751223270159865600,19.087865478515624,0.008582115173339844,0.05234247446060181,-0.03624618053436279
1751223270178691800,19.10669189453125,-0.0009965896606445312,0.057259052991867065,-0.02788454294204712
1751223270197518300,19.125518310546877,0.004199981689453125,0.02833157777786255,-0.0364764928817749
1751223270216344600,19.144344482421875,-0.014852523803710938,0.03240644931793213,-0.020920157432556152
1751223270235170800,19.1631708984375,0.027565956115722656,0.05535811185836792,-0.057620108127593994
1751223270253997300,19.181997314453124,-0.01467132568359375,-0.01948714256286621,0.06817454099655151
1751223270272823600,19.200823486328126,0.009335517883300781,0.020382702350616455,0.05944550037384033
1751223270291649800,19.21964990234375,0.009936332702636719,0.035980790853500366,0.02896261215209961
1751223270310476300,19.238476318359375,0.014445304870605469,0.0077301859855651855,0.010027706623077393
1751223270329302500,19.257302490234373,-0.014855384826660156,-0.018030226230621338,-0.0014200806617736816
1751223270348129000,19.27612890625,0.013918876647949219,0.009529680013656616,-0.022242963314056396
1751223270366955300,19.294955322265626,-0.015069007873535156,0.013526171445846558,-0.025362730026245117
1751223270385781500,19.313781494140624,0.008769989013671875,0.04233592748641968,-0.010170996189117432
1751223270404608000,19.33260791015625,0.0086517333984375,0.06591707468032837,-0.06760841608047485
1751223270423434200,19.351434326171876,0.013470649719238281,0.0515880286693573,-0.06783181428909302
1751223270442260500,19.370260498046875,0.027074813842773438,0.06015092134475708,-0.05371826887130737
1751223270461087000,19.3890869140625,0.01756000518798828,0.05084910988807678,-0.060341835021972656
1751223270479913200,19.407913330078124,-0.019756317138671875,0.019060730934143066,0.021004021167755127
1751223270498739700,19.42673974609375,-0.023645401000976562,0.020538270473480225,0.02194160223007202
1751223270517566000,19.44556591796875,0.019052505493164062,0.01643550395965576,0.015493810176849365
1751223270536392200,19.46439208984375,0.009281158447265625,0.03117358684539795,0.01818084716796875
1751223270555218700,19.48321875,-0.009545326232910156,-0.0018116235733032227,0.0033746957778930664
1751223270574045000,19.502044921875,0.009514808654785156,-0.005083620548248291,0.023894846439361572
1751223270592871200,19.52087109375,-0.008901596069335938,-0.02131989598274231,0.10839718580245972
1751223270611697700,19.53969775390625,-0.0035638809204101562,-0.023659944534301758,0.07032573223114014
1751223270630524000,19.55852392578125,0.010715484619140625,0.020421892404556274,0.029530584812164307
1751223270649350100,19.57735009765625,0.01012420654296875,-0.01259845495223999,0.013884186744689941
1751223270668176600,19.5961767578125,0.0009908676147460938,0.03060966730117798,-0.005668997764587402
1751223270687003000,19.6150029296875,0.005837440490722656,0.031118422746658325,0.021731078624725342
1751223270705829400,19.633829345703123,-0.021795272827148438,0.04208877682685852,-0.013592243194580078
1751223270724655600,19.652655517578125,-0.01601123809814453,-0.002879232168197632,0.07165348529815674
1751223270743481900,19.67148193359375,0.012383460998535156,0.0177249014377594,0.02556854486465454
1751223270762308400,19.690308349609374,0.0031175613403320312,0.023477762937545776,-0.02884542942047119
1751223270781134600,19.709134521484376,-0.015722274780273438,0.015789657831192017,-0.022289276123046875
1751223270799960800,19.7279609375,-0.005420684814453125,0.027088314294815063,-0.011740505695343018
1751223270818787300,19.746787353515625,0.0092926025390625,0.02823585271835327,-0.08527189493179321
1751223270837613600,19.765613525390624,0.02300262451171875,0.06110545992851257,-0.08965378999710083
1751223270856439800,19.784439697265626,0.04119396209716797,0.05044957995414734,-0.12968343496322632
1751223270875266300,19.803266357421876,-0.0023794174194335938,0.03429397940635681,-0.10819762945175171
1751223270894092500,19.822092529296874,0.0025997161865234375,0.05693468451499939,-0.1119375228881836
1751223270912919000,19.8409189453125,-0.025495529174804688,0.07497778534889221,-0.08315420150756836
1751223270931745300,19.859745361328127,0.017751693725585938,0.03688901662826538,-0.08449351787567139
1751223270950571500,19.878571533203125,-0.0011510848999023438,0.05666470527648926,-0.04065239429473877
1751223270969398000,19.89739794921875,0.013243675231933594,0.005321145057678223,-0.01255643367767334
1751223270988224300,19.916224365234374,-0.014756202697753906,-0.0028765499591827393,0.03778553009033203
1751223271007050500,19.935050537109376,-0.008823394775390625,0.009197443723678589,0.06304877996444702
1751223271025877000,19.953876953125,-0.026895523071289062,0.03005734086036682,0.009049654006958008
1751223271044703200,19.972703125,0.0070476531982421875,0.05063191056251526,-0.009852826595306396
1751223271063529500,19.991529541015623,-0.006381034851074219,0.024599522352218628,0.0027291178703308105
1751223271082356000,20.01035595703125,-0.001270294189453125,-0.038784921169281006,0.09416079521179199
1751223271101182200,20.02918212890625,0.00376129150390625,-0.017306894063949585,0.11039292812347412
1751223271120008700,20.0480087890625,-0.0007953643798828125,-0.020110249519348145,0.09540992975234985
1751223271138835000,20.0668349609375,-0.0003910064697265625,0.008887946605682373,-0.0017372965812683105
1751223271157661200,20.0856611328125,-0.019123077392578125,0.013369828462600708,-0.017695605754852295
1751223271176487700,20.10448779296875,0.010103225708007812,0.02823573350906372,-0.01985800266265869
1751223271195314000,20.12331396484375,-0.012957572937011719,0.02896299958229065,-0.008396029472351074
1751223271214140200,20.14214013671875,-0.022037506103515625,0.020243853330612183,0.007211863994598389
1751223271232966700,20.160966552734376,-0.021223068237304688,0.026513129472732544,0.018936634063720703
1751223271251793000,20.17979296875,0.012218475341796875,0.0034810900688171387,0.036247432231903076
1751223271270619100,20.198619140625,0.016820907592773438,0.02808290719985962,-0.059283435344696045
1751223271289445600,20.217445556640627,0.011956214904785156,0.014620721340179443,-0.04486441612243652
1751223271308271900,20.23627197265625,-0.006550788879394531,0.09620696306228638,-0.06588351726531982
1751223271327098000,20.25509814453125,0.022188186645507812,0.02112993597984314,-0.016774773597717285
1751223271345924600,20.273924560546874,-0.0019893646240234375,-0.011447399854660034,-0.052971601486206055
1751223271364750800,20.292750732421876,0.03562736511230469,0.030839204788208008,-0.05916625261306763
1751223271383577300,20.311577392578126,-0.0066967010498046875,0.008383423089981079,0.010584473609924316
1751223271402403600,20.330403564453125,0.012953758239746094,-0.003851950168609619,0.025947988033294678
1751223271430643200,20.358643310546874,-0.008855819702148438,0.04043734073638916,-0.006782710552215576
1751223271449469400,20.377469482421876,-0.003559112548828125,0.031802356243133545,-0.016593098640441895
1751223271468295700,20.396295654296875,-0.007264137268066406,0.014187633991241455,0.003526747226715088
1751223271487122200,20.4151220703125,-0.04445457458496094,0.03819781541824341,0.029624879360198975
1751223271505948400,20.433948486328124,0.055169105529785156,0.013839691877365112,-0.012083351612091064
1751223271524774700,20.452774658203126,0.011333465576171875,0.022013813257217407,-0.046668946743011475
1751223271543601200,20.47160107421875,0.038811683654785156,-0.0032087862491607666,-0.03960108757019043
1751223271562427400,20.490427490234374,-0.02687549591064453,0.0047044456005096436,0.04685753583908081
1751223271581253600,20.509253662109376,-0.015503883361816406,-0.01408076286315918,0.13349974155426025
1751223271600080100,20.528080078125,-0.03815460205078125,0.016925036907196045,0.0726434588432312
1751223271618906400,20.54690625,0.029733657836914062,0.07523182034492493,-0.05839204788208008
1751223271637732900,20.56573291015625,0.001056671142578125,0.08518680930137634,-0.06029355525970459
1751223271656559000,20.58455908203125,-0.027299880981445312,0.08911117911338806,-0.08307719230651855
1751223271675385300,20.60338525390625,0.043694496154785156,0.01688283681869507,-0.11282628774642944
1751223271694211800,20.6222119140625,0.0041446685791015625,0.016188204288482666,-0.04272007942199707
1751223271713038000,20.6410380859375,0.022609710693359375,0.023562133312225342,-0.0748603343963623
1751223271731864300,20.6598642578125,-0.0067272186279296875,0.08227589726448059,-0.07161110639572144
1751223271750690800,20.67869091796875,-0.0198974609375,0.03412935137748718,0.0266263484954834
1751223271769517000,20.69751708984375,-0.014287948608398438,-0.03012484312057495,0.11484920978546143
1751223271788343300,20.71634326171875,-0.041507720947265625,-0.031291306018829346,0.09756582975387573
1751223271807169800,20.735169677734376,-0.0308380126953125,0.009433060884475708,0.10471725463867188
1751223271825996000,20.75399609375,-0.006217002868652344,-0.007903516292572021,0.05883586406707764
1751223271854235600,20.782235595703124,0.03525066375732422,0.03295966982841492,-0.06512314081192017
1751223271873062000,20.801061767578126,0.01604461669921875,0.019311517477035522,-0.013143002986907959
1751223271891888000,20.81988818359375,0.006493568420410156,0.005039215087890625,0.019571959972381592
1751223271910714600,20.838714599609375,-0.0030231475830078125,0.059664398431777954,-0.04804646968841553
1751223271929540900,20.857540771484373,0.0016870498657226562,0.03808054327964783,-0.07647556066513062
1751223271948367400,20.876367431640624,0.015469551086425781,0.026613742113113403,-0.017083585262298584
1751223271967193600,20.895193603515626,0.006712913513183594,0.008987009525299072,0.040859758853912354
1751223271986019800,20.914019775390624,-0.021631240844726562,-0.014547795057296753,0.02858877182006836
1751223272004846300,20.932846435546875,-0.007038116455078125,0.01356092095375061,0.00028705596923828125
1751223272023672600,20.951672607421877,-0.002353668212890625,0.04078584909439087,-0.039735496044158936
1751223272042498800,20.970498779296875,-0.021303176879882812,0.053222864866256714,-0.026954948902130127
1751223272061325300,20.9893251953125,0.011865615844726562,0.02456599473953247,0.0025551915168762207
1751223272080151600,21.008151611328124,-0.016625404357910156,0.024042367935180664,-0.029025793075561523
1751223272098978000,21.02697802734375,0.043865203857421875,0.06412342190742493,-0.1093941330909729
1751223272117804300,21.04580419921875,-0.018274307250976562,0.04757195711135864,-0.1231849193572998
1751223272136630500,21.064630615234375,0.019382476806640625,0.05065491795539856,-0.044572412967681885
1751223272155457000,21.08345703125,0.0004901885986328125,0.02703070640563965,0.021099090576171875
1751223272174283300,21.102283203125,-0.013712882995605469,-0.010620832443237305,0.02866339683532715
1751223272193109500,21.121109619140626,-0.01789379119873047,-0.023573875427246094,0.05464959144592285
1751223272211936000,21.13993603515625,0.005764961242675781,0.03770759701728821,-0.011973977088928223
1751223272230762200,21.15876220703125,0.03404521942138672,0.06889235973358154,-0.08514028787612915
1751223272249588500,21.17758837890625,0.0189666748046875,0.03899121284484863,-0.10089391469955444
1751223272268415000,21.1964150390625,-0.00021266937255859375,0.05661693215370178,-0.06668192148208618
1751223272287241200,21.2152412109375,0.000286102294921875,-0.00949317216873169,0.016866028308868408
1751223272306067700,21.234067626953124,-0.027578353881835938,-0.03209972381591797,0.11718595027923584
1751223272324894000,21.25289404296875,0.005599021911621094,-0.04148989915847778,0.10530221462249756
1751223272343720200,21.27172021484375,-0.027462005615234375,-0.02213004231452942,0.0797390341758728
1751223272362546700,21.290546630859374,-0.0030698776245117188,0.03121042251586914,0.06122708320617676
1751223272381373000,21.309373046875,-0.020874977111816406,0.052206844091415405,-0.010327696800231934
1751223272400199200,21.32819921875,-0.006278038024902344,0.05210503935813904,-0.06399381160736084
1751223272419025700,21.347025634765625,-0.01989269256591797,0.03866282105445862,0.03743135929107666
1751223272437852000,21.365851806640624,-0.014489173889160156,-0.007701903581619263,0.11976665258407593
1751223272456678400,21.384678466796874,-0.01513671875,-0.04169732332229614,0.06653589010238647
1751223272475504600,21.403504638671876,0.09307861328125,0.015454113483428955,-0.07241302728652954
1751223272494331000,21.422330810546875,-0.0201416015625,0.11419373750686646,-0.15747612714767456
1751223272513157400,21.441157470703125,0.08955955505371094,0.13392212986946106,-0.2586595416069031
1751223272531983600,21.459983642578123,-0.016448020935058594,0.11635389924049377,-0.1696602702140808
1751223272550810000,21.47881005859375,-0.043274879455566406,0.011122673749923706,-0.03787040710449219
1751223272569636400,21.49763623046875,-0.05123710632324219,-0.006591737270355225,0.14749759435653687
1751223272588462600,21.516462646484374,0.016152381896972656,0.013075709342956543,0.08269321918487549
1751223272607289000,21.5352890625,-0.0218048095703125,-0.00014653801918029785,0.028654038906097412
1751223272626115300,21.554115234375,0.020112037658691406,0.01361393928527832,-0.03273528814315796
1751223272644941600,21.572941650390625,-0.02720355987548828,0.022327125072479248,-0.06702315807342529
1751223272663768000,21.59176806640625,0.020097732543945312,0.006315737962722778,0.0007221102714538574
1751223272682594300,21.61059423828125,0.018583297729492188,0.036881446838378906,0.0006979107856750488
1751223272701420800,21.6294208984375,-0.028951644897460938,0.030045896768569946,-0.03804701566696167
1751223272720247000,21.6482470703125,-0.00003814697265625,0.05233028531074524,-0.05486297607421875
1751223272739073300,21.6670732421875,-0.009013175964355469,0.06182989478111267,-0.032479166984558105
1751223272757899800,21.685899658203127,0.005428314208984375,0.005856513977050781,0.015525639057159424
1751223272776726000,21.70472607421875,-0.018310546875,-0.04141107201576233,0.17979955673217773
1751223272795552300,21.72355224609375,0.010034561157226562,-0.03679355978965759,0.10416525602340698
1751223272814378800,21.742378662109374,0.014473915100097656,-0.0003922879695892334,0.059453368186950684
1751223272833205000,21.761205078125,-0.004862785339355469,0.021424412727355957,0.01595759391784668
1751223272852031500,21.780031494140626,0.004303932189941406,0.04363304376602173,-0.06616497039794922
1751223272870857700,21.798857666015625,-0.005199432373046875,0.06602466106414795,-0.06728595495223999
1751223272889684000,21.81768408203125,-0.0005502700805664062,0.09311142563819885,-0.09171652793884277
1751223272908510500,21.836510498046874,-0.014364242553710938,0.051193445920944214,-0.03435450792312622
1751223272927336700,21.855336669921876,0.008962631225585938,-0.005658447742462158,0.0011774897575378418
1751223272946163200,21.8741630859375,0.01659870147705078,-0.03272184729576111,0.06548929214477539
1751223272964989400,21.892989501953124,0.034478187561035156,0.026641666889190674,-0.060802340507507324
1751223272983815700,21.911815673828126,0.0069217681884765625,0.06699824333190918,-0.14568281173706055
1751223273002642200,21.93064208984375,0.02728271484375,0.08007675409317017,-0.04774552583694458
1751223273021468400,21.949468505859375,-0.15988445281982422,0.09722858667373657,-0.14350223541259766
1751223273040295000,21.968294921875,0.06750011444091797,-0.022411048412322998,0.18750488758087158
1751223273059121200,21.98712109375,0.049508094787597656,-0.09257176518440247,0.2878316640853882
1751223273077947400,22.005947509765626,-0.07662105560302734,0.000710904598236084,0.13692718744277954
1751223273096774000,22.02477392578125,0.0739755630493164,-0.04277476668357849,-0.007964491844177246
1751223273115600100,22.04360009765625,-0.050350189208984375,0.1657295525074005,-0.2533007860183716
1751223273134426400,22.06242626953125,-0.01903057098388672,0.20364747941493988,-0.27325379848480225
1751223273153252900,22.0812529296875,-0.02590656280517578,0.0018393993377685547,0.14042842388153076
1751223273172079000,22.1000791015625,0.04328155517578125,-0.10265961289405823,0.263718843460083
1751223273190905600,22.118905517578124,-0.02407550811767578,-0.0044641196727752686,-0.017589092254638672
1751223273209731800,22.13773193359375,0.10663700103759766,0.06380772590637207,-0.19155359268188477
1751223273228558000,22.15655810546875,-0.022321701049804688,0.11297628283500671,-0.23242878913879395
1751223273247384600,22.175384521484375,0.025529861450195312,0.08881044387817383,-0.19407784938812256
1751223273266210800,22.1942109375,-0.0025768280029296875,0.01924753189086914,-0.029444634914398193
1751223273285037300,22.213037353515624,0.012197494506835938,-0.056098729372024536,0.16343188285827637
1751223273303863600,22.231863525390626,-0.049155235290527344,-0.026775270700454712,0.07652831077575684
1751223273322689800,22.250689697265624,0.03698444366455078,0.08520910143852234,-0.13862204551696777
1751223273341516300,22.269516357421875,-0.011186599731445312,0.059183359146118164,-0.12928873300552368
1751223273360342500,22.288342529296877,-0.0005426406860351562,-0.03049081563949585,0.05593538284301758
1751223273379169000,22.3071689453125,0.0036840438842773438,-0.08490604162216187,0.23392701148986816
1751223273397995300,22.325995361328125,-0.0011987686157226562,-0.022946178913116455,0.11734926700592041
1751223273416821500,22.344821533203124,-0.03439044952392578,0.05056247115135193,-0.012611985206604004
1751223273435648000,22.36364794921875,-0.033031463623046875,0.09671705961227417,-0.11267423629760742
1751223273454474200,22.38247412109375,0.04340171813964844,0.06106647849082947,-0.10447108745574951
1751223273473300700,22.40130078125,0.033753395080566406,0.007953077554702759,-0.019007861614227295
1751223273492127000,22.420126953125,0.03299236297607422,-0.07590052485466003,0.053067922592163086
1751223273510953200,22.438953125,0.036139488220214844,0.03164824843406677,-0.0755113959312439
1751223273529779700,22.45777978515625,-0.03431129455566406,-0.015834897756576538,0.019380033016204834
1751223273548606000,22.47660595703125,-0.01845264434814453,-0.046172648668289185,0.1897711157798767
1751223273567432400,22.495432373046874,-0.08304023742675781,0.016274452209472656,0.10918521881103516
1751223273586258700,22.5142587890625,0.05933856964111328,0.08473983407020569,-0.1346096396446228
1751223273605085000,22.5330849609375,-0.021625518798828125,0.06506067514419556,-0.1578373908996582
1751223273623911400,22.551911376953125,-0.01580333709716797,-0.06818658113479614,0.20285338163375854
1751223273642737700,22.570737548828124,-0.04350090026855469,-0.15028730034828186,0.3140915632247925
1751223273661564200,22.589564208984374,0.012975692749023438,0.013522893190383911,0.0049664974212646484
1751223273680390400,22.608390380859376,0.0262908935546875,0.10455486178398132,-0.2482929229736328
1751223273699217000,22.627216796875,0.05867290496826172,0.13129132986068726,-0.27059733867645264
1751223273718043100,22.646043212890625,-0.021050453186035156,-0.03577551245689392,0.052835285663604736
1751223273736869400,22.664869384765623,-0.043575286865234375,-0.12183624505996704,0.24219852685928345
1751223273755695900,22.68369580078125,-0.029003143310546875,-0.059699952602386475,0.14004647731781006
1751223273774522000,22.702522216796876,-0.00003147125244140625,0.13239601254463196,-0.19252383708953857
1751223273793348600,22.7213486328125,0.0089111328125,0.11251777410507202,-0.18208181858062744
1751223273812174800,22.7401748046875,0.023941993713378906,-0.023006469011306763,0.004395186901092529
1751223273831001000,22.7590009765625,0.0364532470703125,0.009221494197845459,-0.056228578090667725
1751223273849827600,22.77782763671875,-0.025267601013183594,0.011422157287597656,-0.0525590181350708
1751223273868653800,22.79665380859375,0.012765884399414062,-0.013015121221542358,0.02424556016921997
1751223273887480300,22.815480224609374,-0.044353485107421875,-0.009019672870635986,0.07728564739227295
