time,seconds_elapsed,z,y,x
1751223251392472600,0.32047265625,9.850652694702148,-0.2745763957500458,0.9367900490760803
1751223251411298800,0.339298828125,9.845867156982422,-0.26500511169433594,0.9367900490760803
1751223251430125300,0.358125244140625,9.845867156982422,-0.2793620526790619,0.9511470198631287
1751223251448951800,0.376951904296875,9.836296081542969,-0.26979073882102966,0.9415757060050964
1751223251467778000,0.395778076171875,9.841081619262695,-0.2793620526790619,0.9128618240356445
1751223251486604500,0.4146044921875,9.836296081542969,-0.2745763957500458,0.9224331378936768
1751223251505431000,0.43343115234375,9.841081619262695,-0.2602194547653198,0.9272187948226929
1751223251524257300,0.45225732421875,9.836296081542969,-0.2841476798057556,0.9320043921470642
1751223251543083800,0.471083740234375,9.855438232421875,-0.2745763957500458,0.9224331378936768
1751223251561910300,0.48991015625,9.836296081542969,-0.2745763957500458,0.9176474809646606
1751223251580736500,0.508736572265625,9.850652694702148,-0.2793620526790619,0.9128618240356445
1751223251599563000,0.52756298828125,9.855438232421875,-0.26979073882102966,0.9080761671066284
1751223251618389500,0.546389404296875,9.845867156982422,-0.2841476798057556,0.9463613629341125
1751223251646629000,0.574629150390625,9.860223770141602,-0.26979073882102966,0.9415757060050964
1751223251665455600,0.59345556640625,9.841081619262695,-0.2841476798057556,0.9176474809646606
1751223251684281900,0.61228173828125,9.845867156982422,-0.2793620526790619,0.9367900490760803
1751223251703108400,0.6311083984375,9.845867156982422,-0.2793620526790619,0.9320043921470642
1751223251721934800,0.649934814453125,9.841081619262695,-0.2793620526790619,0.9415757060050964
1751223251740761000,0.668760986328125,9.836296081542969,-0.26500511169433594,0.9320043921470642
1751223251759587600,0.687587646484375,9.855438232421875,-0.28893333673477173,0.9415757060050964
1751223251778414000,0.7064140625,9.850652694702148,-0.26979073882102966,0.9224331378936768
1751223251797240300,0.725240234375,9.850652694702148,-0.2745763957500458,0.9415757060050964
1751223251816066800,0.74406689453125,9.845867156982422,-0.26979073882102966,0.9367900490760803
1751223251834893300,0.762893310546875,9.850652694702148,-0.2745763957500458,0.9415757060050964
1751223251853719800,0.7817197265625,9.850652694702148,-0.2793620526790619,0.9367900490760803
1751223251872546000,0.800546142578125,9.865009307861328,-0.2745763957500458,0.9272187948226929
1751223251891372500,0.81937255859375,9.850652694702148,-0.2793620526790619,0.9320043921470642
1751223251910199000,0.838198974609375,9.850652694702148,-0.26500511169433594,0.9224331378936768
1751223251929025300,0.857025390625,9.855438232421875,-0.28893333673477173,0.9320043921470642
1751223251947851800,0.875851806640625,9.855438232421875,-0.2745763957500458,0.9320043921470642
1751223251966678300,0.89467822265625,9.860223770141602,-0.2793620526790619,0.9176474809646606
1751223251985504800,0.9135048828125,9.845867156982422,-0.26979073882102966,0.9415757060050964
1751223252004331000,0.9323310546875,9.845867156982422,-0.29850462079048157,0.9320043921470642
1751223252023157500,0.951157470703125,9.860223770141602,-0.2793620526790619,0.9224331378936768
1751223252041983700,0.969983642578125,9.845867156982422,-0.2841476798057556,0.9272187948226929
1751223252060810200,0.988810302734375,9.850652694702148,-0.2602194547653198,0.9272187948226929
1751223252079636700,1.00763671875,9.855438232421875,-0.28893333673477173,0.9415757060050964
1751223252098463200,1.026463134765625,9.865009307861328,-0.2745763957500458,0.9224331378936768
1751223252117289500,1.04528955078125,9.845867156982422,-0.26979073882102966,0.9272187948226929
1751223252136116000,1.064115966796875,9.855438232421875,-0.2793620526790619,0.9367900490760803
1751223252154942500,1.0829423828125,9.865009307861328,-0.2793620526790619,0.9320043921470642
1751223252173768700,1.101768798828125,9.845867156982422,-0.2793620526790619,0.9415757060050964
1751223252192595200,1.12059521484375,9.845867156982422,-0.2602194547653198,0.9224331378936768
1751223252211421700,1.139421630859375,9.855438232421875,-0.2745763957500458,0.9272187948226929
1751223252230248200,1.158248291015625,9.850652694702148,-0.2841476798057556,0.9320043921470642
1751223252249074400,1.177074462890625,9.855438232421875,-0.28893333673477173,0.9320043921470642
1751223252267901000,1.19590087890625,9.869794845581055,-0.2745763957500458,0.9320043921470642
1751223252286727400,1.2147275390625,9.855438232421875,-0.2745763957500458,0.9272187948226929
1751223252305553700,1.2335537109375,9.860223770141602,-0.28893333673477173,0.9463613629341125
1751223252324380200,1.252380126953125,9.850652694702148,-0.26979073882102966,0.9272187948226929
1751223252343206700,1.27120654296875,9.865009307861328,-0.28893333673477173,0.9320043921470642
1751223252362033000,1.290032958984375,9.850652694702148,-0.2793620526790619,0.9320043921470642
1751223252380859400,1.308859375,9.855438232421875,-0.28893333673477173,0.9415757060050964
1751223252399686000,1.327685791015625,9.81236743927002,-0.2793620526790619,0.9320043921470642
1751223252418512100,1.34651220703125,9.960722923278809,-0.2745763957500458,0.8889335989952087
1751223252437338600,1.365338623046875,9.77408218383789,-0.2602194547653198,0.9559326171875
1751223252456165000,1.3841650390625,9.893723487854004,-0.32243284583091736,0.9415757060050964
1751223252474991600,1.40299169921875,9.836296081542969,-0.26500511169433594,0.9176474809646606
1751223252493817900,1.42181787109375,9.860223770141602,-0.26979073882102966,0.9224331378936768
1751223252512644400,1.440644287109375,9.836296081542969,-0.2793620526790619,0.9607182741165161
1751223252531470800,1.459470947265625,9.841081619262695,-0.2745763957500458,0.9272187948226929
1751223252550297000,1.478297119140625,9.855438232421875,-0.2602194547653198,0.9080761671066284
1751223252569123600,1.49712353515625,9.831509590148926,-0.2745763957500458,0.9463613629341125
1751223252587950000,1.5159501953125,9.865009307861328,-0.29850462079048157,0.989432156085968
1751223252606776600,1.534776611328125,9.908080101013184,-0.3032902777194977,0.8937192559242249
1751223252625602800,1.553602783203125,9.78843879699707,-0.2554338276386261,0.9415757060050964
1751223252644429300,1.57242919921875,9.855438232421875,-0.29850462079048157,0.9702895879745483
1751223252663255800,1.591255859375,9.865009307861328,-0.2602194547653198,0.9128618240356445
1751223252682082000,1.61008203125,9.865009307861328,-0.2602194547653198,0.9272187948226929
1751223252700908500,1.628908447265625,9.821938514709473,-0.32243284583091736,0.9798609018325806
1751223252719735000,1.647735107421875,9.79801082611084,-0.29371899366378784,0.9655039310455322
1751223252738561300,1.666561279296875,9.879366874694824,-0.2793620526790619,0.9224331378936768
1751223252757387800,1.6853876953125,9.93679428100586,-0.26979073882102966,0.8793623447418213
1751223252776214300,1.70421435546875,9.91286563873291,-0.24107688665390015,0.8506484627723694
1751223252795040500,1.72304052734375,9.769296646118164,-0.24586252868175507,1.0133603811264038
1751223252813867000,1.741866943359375,9.908080101013184,-0.32721850275993347,0.9655039310455322
1751223252832693500,1.760693603515625,9.802796363830566,-0.2841476798057556,0.9511470198631287
1751223252851520000,1.77952001953125,9.802796363830566,-0.26500511169433594,0.9367900490760803
1751223252870346200,1.79834619140625,9.888937950134277,-0.28893333673477173,0.9320043921470642
1751223252889172700,1.8171728515625,9.831509590148926,-0.2554338276386261,0.9080761671066284
1751223252907999200,1.835999267578125,9.860223770141602,-0.2745763957500458,0.9415757060050964
1751223252926825500,1.854825439453125,9.869794845581055,-0.29371899366378784,0.9942178130149841
1751223252945652000,1.87365185546875,9.869794845581055,-0.2745763957500458,0.9511470198631287
1751223252964478500,1.892478515625,9.845867156982422,-0.2841476798057556,0.9702895879745483
1751223252983304700,1.9113046875,9.860223770141602,-0.3080759048461914,1.0133603811264038
1751223253002131200,1.930131103515625,9.764511108398438,-0.28893333673477173,0.9655039310455322
1751223253020957700,1.948957763671875,9.850652694702148,-0.26979073882102966,0.865005373954773
1751223253039784200,1.9677841796875,9.831509590148926,-0.26500511169433594,0.898504912853241
1751223253058610400,1.9866103515625,9.908080101013184,-0.2793620526790619,0.9080761671066284
1751223253077437000,2.00543701171875,9.91286563873291,-0.26979073882102966,0.9367900490760803
1751223253096263400,2.024263427734375,9.879366874694824,-0.29850462079048157,0.9415757060050964
1751223253115089700,2.043089599609375,9.807581901550293,-0.2745763957500458,0.9655039310455322
1751223253133916200,2.061916259765625,9.8267240524292,-0.2745763957500458,0.9224331378936768
1751223253152742700,2.08074267578125,9.879366874694824,-0.26979073882102966,0.9320043921470642
1751223253171569000,2.09956884765625,9.8267240524292,-0.26500511169433594,0.9176474809646606
1751223253190395400,2.1183955078125,9.841081619262695,-0.2841476798057556,0.9320043921470642
1751223253209222000,2.137221923828125,9.8267240524292,-0.28893333673477173,0.9607182741165161
1751223253228048100,2.156048095703125,9.869794845581055,-0.32721850275993347,0.9702895879745483
1751223253246874600,2.17487451171875,9.88415241241455,-0.3080759048461914,0.9990034699440002
1751223253265701000,2.193701171875,9.850652694702148,-0.3080759048461914,0.9846464991569519
1751223253284527600,2.212527587890625,9.8267240524292,-0.28893333673477173,0.9702895879745483
1751223253303353900,2.231353759765625,9.802796363830566,-0.32243284583091736,1.0133603811264038
1751223253331593500,2.259593505859375,9.841081619262695,-0.31764721870422363,1.0133603811264038
1751223253350420000,2.278419921875,9.91286563873291,-0.3128615617752075,0.9176474809646606
1751223253369246500,2.29724658203125,9.845867156982422,-0.3032902777194977,0.8793623447418213
1751223253388072700,2.31607275390625,9.855438232421875,-0.2554338276386261,0.8937192559242249
1751223253406899200,2.334899169921875,9.855438232421875,-0.3080759048461914,0.9750752449035645
1751223253425725700,2.3537255859375,9.8267240524292,-0.3415754437446594,1.085145115852356
1751223253444552000,2.372552001953125,9.836296081542969,-0.3607180118560791,1.1186445951461792
1751223253463378400,2.39137841796875,9.893723487854004,-0.355932354927063,1.0612168312072754
1751223253491618000,2.4196181640625,9.860223770141602,-0.2602194547653198,0.8315058946609497
1751223253510444500,2.438444580078125,9.850652694702148,-0.22193430364131927,0.7022934556007385
1751223253529271000,2.45727099609375,9.927223205566406,-0.18843477964401245,0.7310073375701904
1751223253548097300,2.47609716796875,9.879366874694824,-0.15493527054786682,0.7262216806411743
1751223253566923800,2.494923828125,9.874580383300781,-0.20757736265659332,0.7070791125297546
1751223253595163400,2.523163330078125,9.865009307861328,-0.2027917206287384,0.6927221417427063
1751223253613990000,2.541989990234375,9.845867156982422,-0.25064817070961,0.7884350419044495
1751223253632816000,2.560816162109375,9.845867156982422,-0.2793620526790619,0.8793623447418213
1751223253651642600,2.579642578125,9.92243766784668,-0.2793620526790619,0.9032905697822571
1751223253670469000,2.59846923828125,9.903294563293457,-0.23629122972488403,0.8889335989952087
1751223253689295400,2.61729541015625,9.855438232421875,-0.26500511169433594,0.9128618240356445
1751223253708121900,2.636121826171875,9.8267240524292,-0.3128615617752075,1.0133603811264038
1751223253726948400,2.6549482421875,9.821938514709473,-0.4085744619369507,1.1473584175109863
1751223253745774600,2.673774658203125,9.778867721557617,-0.3415754437446594,1.0277173519134521
1751223253764601000,2.69260107421875,9.860223770141602,-0.29850462079048157,0.8554341197013855
1751223253783427600,2.711427490234375,9.903294563293457,-0.24107688665390015,0.7262216806411743
1751223253802254000,2.730254150390625,9.821938514709473,-0.2267199456691742,0.7884350419044495
1751223253821080300,2.749080322265625,9.879366874694824,-0.2602194547653198,0.8841479420661926
1751223253839906800,2.76790673828125,9.850652694702148,-0.2602194547653198,0.9032905697822571
1751223253858733000,2.786733154296875,9.888937950134277,-0.2602194547653198,0.898504912853241
1751223253877559600,2.8055595703125,9.865009307861328,-0.2793620526790619,0.865005373954773
1751223253896386000,2.824385986328125,9.845867156982422,-0.2841476798057556,0.9176474809646606
1751223253915212500,2.843212646484375,9.831509590148926,-0.28893333673477173,0.9415757060050964
1751223253934038800,2.862038818359375,9.845867156982422,-0.26500511169433594,0.9080761671066284
1751223253952865300,2.880865234375,9.836296081542969,-0.2745763957500458,0.9511470198631287
1751223253971691800,2.89969189453125,9.88415241241455,-0.2793620526790619,0.9320043921470642
1751223253990518000,2.91851806640625,9.860223770141602,-0.3032902777194977,0.9320043921470642
1751223254009344500,2.937344482421875,9.8267240524292,-0.26500511169433594,0.9080761671066284
1751223254028171000,2.9561708984375,9.869794845581055,-0.3032902777194977,0.9080761671066284
1751223254046997200,2.974997314453125,9.874580383300781,-0.3080759048461914,0.9128618240356445
1751223254065823700,2.99382373046875,9.855438232421875,-0.2841476798057556,0.9176474809646606
1751223254084650200,3.012650146484375,9.874580383300781,-0.2841476798057556,0.9176474809646606
1751223254103476500,3.0314765625,9.841081619262695,-0.2745763957500458,0.9559326171875
1751223254122303000,3.050302978515625,9.855438232421875,-0.2793620526790619,0.9128618240356445
1751223254141129500,3.06912939453125,9.874580383300781,-0.3032902777194977,0.9080761671066284
1751223254159955700,3.087955810546875,9.850652694702148,-0.29371899366378784,0.8793623447418213
1751223254178782200,3.1067822265625,9.836296081542969,-0.29371899366378784,0.9463613629341125
1751223254197608700,3.125608642578125,9.81236743927002,-0.2793620526790619,0.9176474809646606
1751223254216435000,3.14443505859375,9.865009307861328,-0.2602194547653198,0.9032905697822571
1751223254235261400,3.163261474609375,9.888937950134277,-0.2315055876970291,0.7692924737930298
1751223254254088000,3.182087890625,9.91286563873291,-0.23629122972488403,0.8075776696205139
1751223254272914200,3.2009140625,9.807581901550293,-0.2602194547653198,0.9176474809646606
1751223254291740700,3.21974072265625,9.88415241241455,-0.26500511169433594,0.8315058946609497
1751223254310567200,3.238567138671875,9.888937950134277,-0.18843477964401245,0.6448656916618347
1751223254329393400,3.257393310546875,9.89850902557373,-0.1453639715909958,0.5539384484291077
1751223254348220000,3.276219970703125,9.908080101013184,-0.1453639715909958,0.5778666734695435
1751223254367046400,3.29504638671875,9.888937950134277,-0.1788634955883026,0.7022934556007385
1751223254385872600,3.31387255859375,9.927223205566406,-0.18843477964401245,0.6352944374084473
1751223254404699100,3.33269921875,9.879366874694824,-0.15972091257572174,0.5539384484291077
1751223254423525600,3.351525634765625,9.8267240524292,-0.24107688665390015,0.7645068168640137
1751223254442351900,3.370351806640625,9.802796363830566,-0.45643091201782227,1.176072359085083
1751223254461178400,3.389178466796875,9.802796363830566,-0.4995017349720001,1.4249259233474731
1751223254480004900,3.4080048828125,9.831509590148926,-0.4420739710330963,1.2430713176727295
1751223254498831000,3.4268310546875,9.874580383300781,-0.4325026869773865,1.1904292106628418
1751223254517657600,3.44565771484375,9.78843879699707,-0.4468596279621124,1.2957134246826172
1751223254536484000,3.464484130859375,9.793225288391113,-0.5521438121795654,1.534995675086975
1751223254555310600,3.483310546875,9.888937950134277,-0.19800607860088348,0.7692924737930298
1751223254574136800,3.50213671875,9.88415241241455,-0.2745763957500458,0.8793623447418213
1751223254592963300,3.52096337890625,9.817152976989746,-0.2793620526790619,0.9367900490760803
1751223254611789600,3.53978955078125,9.821938514709473,-0.32243284583091736,0.989432156085968
1751223254630616000,3.558615966796875,9.865009307861328,-0.29371899366378784,0.9463613629341125
1751223254649442600,3.577442626953125,9.879366874694824,-0.25064817070961,0.8123632669448853
1751223254668268800,3.596268798828125,9.903294563293457,-0.2793620526790619,0.8697910308837891
1751223254687095300,3.61509521484375,9.807581901550293,-0.28893333673477173,0.9655039310455322
1751223254705921800,3.633921875,9.807581901550293,-0.32243284583091736,0.9990034699440002
1751223254724748000,3.652748046875,9.850652694702148,-0.32243284583091736,0.989432156085968
1751223254743574500,3.671574462890625,9.850652694702148,-0.3032902777194977,0.9798609018325806
1751223254762401000,3.690401123046875,9.860223770141602,-0.31764721870422363,0.9559326171875
1751223254781227300,3.709227294921875,9.845867156982422,-0.28893333673477173,0.9128618240356445
1751223254800053800,3.7280537109375,9.860223770141602,-0.2841476798057556,0.9176474809646606
1751223254818880300,3.74688037109375,9.860223770141602,-0.3320041298866272,0.9990034699440002
1751223254837706500,3.76570654296875,9.865009307861328,-0.34636107087135315,1.0995019674301147
1751223254856533000,3.784532958984375,9.841081619262695,-0.37507495284080505,1.1377872228622437
1751223254875359500,3.803359375,9.8267240524292,-0.34636107087135315,1.0085747241973877
1751223254894185700,3.822185791015625,9.855438232421875,-0.25064817070961,0.8219345808029175
1751223254913012200,3.84101220703125,9.874580383300781,-0.2793620526790619,0.8315058946609497
1751223254931838700,3.859838623046875,9.860223770141602,-0.28893333673477173,0.898504912853241
1751223254950665000,3.8786650390625,9.845867156982422,-0.2745763957500458,0.8841479420661926
1751223254969491500,3.897491455078125,9.869794845581055,-0.20757736265659332,0.7692924737930298
1751223254988317700,3.916317626953125,9.869794845581055,-0.21236300468444824,0.6879364848136902
1751223255007144200,3.935144287109375,9.908080101013184,-0.26500511169433594,0.7597211599349976
1751223255025970700,3.953970703125,9.831509590148926,-0.26500511169433594,0.8315058946609497
1751223255044797000,3.972796875,9.845867156982422,-0.2841476798057556,0.9511470198631287
1751223255063623400,3.99162353515625,9.831509590148926,-0.32721850275993347,1.0037890672683716
1751223255082450000,4.010449951171875,9.8267240524292,-0.2793620526790619,0.9942178130149841
1751223255101276200,4.029276123046875,9.88415241241455,-0.31764721870422363,1.0133603811264038
1751223255120102700,4.0481025390625,9.850652694702148,-0.3367897868156433,1.0947163105010986
1751223255138929200,4.06692919921875,9.850652694702148,-0.3798605799674988,1.1234302520751953
1751223255157755400,4.08575537109375,9.8267240524292,-0.4133601188659668,1.1904292106628418
1751223255176582000,4.104581787109375,9.793225288391113,-0.34636107087135315,1.0372886657714844
1751223255195408400,4.123408447265625,9.841081619262695,-0.34636107087135315,0.9367900490760803
1751223255214234600,4.142234619140625,9.860223770141602,-0.3080759048461914,0.8793623447418213
1751223255233061000,4.16106103515625,9.865009307861328,-0.3032902777194977,0.9367900490760803
1751223255251887600,4.1798876953125,9.841081619262695,-0.24586252868175507,0.9463613629341125
1751223255270713900,4.1987138671875,9.836296081542969,-0.3415754437446594,0.9702895879745483
1751223255289540400,4.217540283203125,9.865009307861328,-0.31764721870422363,0.9128618240356445
1751223255308366800,4.236366943359375,9.855438232421875,-0.28893333673477173,0.8123632669448853
1751223255327193000,4.255193115234375,9.865009307861328,-0.26500511169433594,0.8123632669448853
1751223255346019600,4.27401953125,9.831509590148926,-0.19800607860088348,0.7980063557624817
1751223255364845800,4.292845703125,9.869794845581055,-0.2554338276386261,0.9176474809646606
1751223255383672300,4.31167236328125,9.836296081542969,-0.32721850275993347,0.9655039310455322
1751223255402498800,4.330498779296875,9.855438232421875,-0.3128615617752075,0.9798609018325806
1751223255421325000,4.349324951171875,9.831509590148926,-0.3032902777194977,0.9463613629341125
1751223255440151600,4.368151611328125,9.879366874694824,-0.32243284583091736,0.9367900490760803
1751223255458978000,4.38697802734375,9.903294563293457,-0.2793620526790619,0.8937192559242249
1751223255477804300,4.40580419921875,9.8267240524292,-0.32243284583091736,0.898504912853241
1751223255496630800,4.424630859375,9.831509590148926,-0.389431893825531,1.0516455173492432
1751223255515457000,4.44345703125,9.841081619262695,-0.32243284583091736,1.0325030088424683
1751223255534283500,4.462283447265625,9.841081619262695,-0.3080759048461914,1.0372886657714844
1751223255553110000,4.481110107421875,9.874580383300781,-0.26500511169433594,0.9559326171875
1751223255571936300,4.499936279296875,9.836296081542969,-0.3320041298866272,1.0085747241973877
1751223255590762800,4.5187626953125,9.817152976989746,-0.3655036687850952,0.9942178130149841
1751223255609589200,4.53758935546875,9.821938514709473,-0.34636107087135315,1.01814603805542
1751223255628415500,4.55641552734375,9.869794845581055,-0.32243284583091736,0.9990034699440002
1751223255647242000,4.575241943359375,9.807581901550293,-0.37028929591178894,1.0372886657714844
1751223255666068500,4.594068359375,9.888937950134277,-0.3128615617752075,0.9750752449035645
1751223255684894700,4.612894775390625,9.841081619262695,-0.35114672780036926,0.9750752449035645
1751223255703721200,4.63172119140625,9.821938514709473,-0.3032902777194977,0.9032905697822571
1751223255722547700,4.650547607421875,9.917651176452637,-0.21236300468444824,0.8458628058433533
1751223255741374000,4.6693740234375,9.841081619262695,-0.29371899366378784,0.8697910308837891
1751223255760200400,4.688200439453125,9.8267240524292,-0.3320041298866272,0.9607182741165161
1751223255779026700,4.707026611328125,9.841081619262695,-0.3128615617752075,1.0277173519134521
1751223255797853200,4.725853271484375,9.77408218383789,-0.4085744619369507,1.171286702156067
1751223255816679700,4.7446796875,9.860223770141602,-0.42771705985069275,1.1808580160140991
1751223255835506000,4.763505859375,9.841081619262695,-0.4133601188659668,1.1234302520751953
1751223255854332400,4.78233251953125,9.874580383300781,-0.40378883481025696,1.01814603805542
1751223255873159000,4.801158935546875,9.8267240524292,-0.3032902777194977,0.8841479420661926
1751223255891985200,4.819985107421875,9.836296081542969,-0.24107688665390015,0.7932206988334656
1751223255910811600,4.838811767578125,9.88415241241455,-0.18843477964401245,0.6400800347328186
1751223255929638100,4.85763818359375,9.888937950134277,-0.12622138857841492,0.6065805554389954
1751223255948464400,4.87646435546875,9.903294563293457,-0.10229317098855972,0.6113662123680115
1751223255967291000,4.895290771484375,9.865009307861328,-0.18364913761615753,0.7070791125297546
1751223255986117000,4.9141171875,9.855438232421875,-0.25064817070961,0.8458628058433533
1751223256004943600,4.932943603515625,9.831509590148926,-0.3032902777194977,0.9320043921470642
1751223256023770000,4.95177001953125,9.850652694702148,-0.29850462079048157,0.9128618240356445
1751223256042596400,4.970596435546875,9.879366874694824,-0.2793620526790619,0.8697910308837891
1751223256061422800,4.9894228515625,9.855438232421875,-0.26979073882102966,0.8602197170257568
1751223256080249000,5.0082490234375,9.831509590148926,-0.25064817070961,0.8841479420661926
1751223256099075600,5.02707568359375,9.855438232421875,-0.2793620526790619,0.9511470198631287
1751223256117902000,5.045902099609375,9.879366874694824,-0.32243284583091736,0.9559326171875
1751223256136728300,5.064728271484375,9.888937950134277,-0.2841476798057556,0.9176474809646606
1751223256155554800,5.083554931640625,9.850652694702148,-0.24107688665390015,0.9224331378936768
1751223256174381300,5.10238134765625,9.88415241241455,-0.2602194547653198,0.9224331378936768
1751223256193207600,5.12120751953125,9.845867156982422,-0.2554338276386261,0.9655039310455322
1751223256212034000,5.140033935546875,9.845867156982422,-0.26979073882102966,0.9272187948226929
1751223256230860300,5.1588603515625,9.879366874694824,-0.28893333673477173,0.9320043921470642
1751223256249686800,5.177686767578125,9.841081619262695,-0.3032902777194977,0.9702895879745483
1751223256268513300,5.19651318359375,9.836296081542969,-0.3128615617752075,0.989432156085968
1751223256287339500,5.215339599609375,9.869794845581055,-0.32243284583091736,1.0037890672683716
1751223256306166000,5.234166015625,9.850652694702148,-0.26979073882102966,0.9750752449035645
1751223256324992500,5.252992431640625,9.841081619262695,-0.29850462079048157,0.8602197170257568
1751223256343818800,5.27181884765625,9.893723487854004,-0.2602194547653198,0.8219345808029175
1751223256362645200,5.290645263671875,9.836296081542969,-0.23629122972488403,0.8267202377319336
1751223256381471500,5.309471435546875,9.88415241241455,-0.22193430364131927,0.8315058946609497
1751223256400298000,5.328298095703125,9.869794845581055,-0.24586252868175507,0.8267202377319336
1751223256419124500,5.34712451171875,9.888937950134277,-0.2554338276386261,0.8171489238739014
1751223256437950700,5.36595068359375,9.865009307861328,-0.22193430364131927,0.8602197170257568
1751223256456777200,5.384777099609375,9.845867156982422,-0.26500511169433594,0.8889335989952087
1751223256475603500,5.403603515625,9.8267240524292,-0.28893333673477173,0.9463613629341125
1751223256494430000,5.422429931640625,9.836296081542969,-0.2745763957500458,0.9032905697822571
1751223256513256400,5.44125634765625,9.888937950134277,-0.28893333673477173,0.9080761671066284
1751223256532082700,5.460082763671875,9.850652694702148,-0.28893333673477173,0.9367900490760803
1751223256550909200,5.4789091796875,9.855438232421875,-0.3415754437446594,1.0037890672683716
1751223256569735400,5.4977353515625,9.831509590148926,-0.3655036687850952,1.1665010452270508
1751223256588562000,5.51656201171875,9.821938514709473,-0.37028929591178894,1.176072359085083
1751223256607388400,5.535388427734375,9.865009307861328,-0.34636107087135315,1.042074203491211
1751223256626214700,5.554214599609375,9.850652694702148,-0.32721850275993347,0.9750752449035645
1751223256645041200,5.573041259765625,9.841081619262695,-0.26979073882102966,0.8889335989952087
1751223256663867400,5.591867431640625,9.865009307861328,-0.25064817070961,0.8745766878128052
1751223256682694000,5.61069384765625,9.865009307861328,-0.2602194547653198,0.8745766878128052
1751223256701520400,5.629520263671875,9.845867156982422,-0.24586252868175507,0.8697910308837891
1751223256720346600,5.6483466796875,9.869794845581055,-0.2745763957500458,0.8793623447418213
1751223256739173000,5.667173095703125,9.836296081542969,-0.26979073882102966,0.9367900490760803
1751223256757999400,5.685999267578125,9.8267240524292,-0.3320041298866272,0.9846464991569519
1751223256776825900,5.704825927734375,9.817152976989746,-0.3128615617752075,0.9463613629341125
1751223256795652400,5.72365234375,9.869794845581055,-0.2602194547653198,0.8793623447418213
1751223256814478600,5.742478515625,9.860223770141602,-0.26979073882102966,0.8602197170257568
1751223256833305000,5.76130517578125,9.874580383300781,-0.2745763957500458,0.898504912853241
1751223256852131600,5.780131591796875,9.865009307861328,-0.31764721870422363,0.9702895879745483
1751223256870957800,5.798957763671875,9.841081619262695,-0.31764721870422363,1.0277173519134521
1751223256889784300,5.817784423828125,9.850652694702148,-0.34636107087135315,1.0037890672683716
1751223256908610600,5.836610595703125,9.831509590148926,-0.34636107087135315,0.9846464991569519
1751223256927437000,5.85543701171875,9.8267240524292,-0.3128615617752075,0.9032905697822571
1751223256946263600,5.874263671875,9.869794845581055,-0.28893333673477173,0.9176474809646606
1751223256965089800,5.89308984375,9.841081619262695,-0.3032902777194977,0.9415757060050964
1751223256983916300,5.911916259765625,9.888937950134277,-0.3032902777194977,0.9176474809646606
1751223257002742500,5.930742431640625,9.865009307861328,-0.3032902777194977,0.9224331378936768
1751223257021569000,5.949569091796875,9.855438232421875,-0.26979073882102966,0.8458628058433533
1751223257040395500,5.9683955078125,9.841081619262695,-0.23629122972488403,0.865005373954773
1751223257059221800,5.9872216796875,9.850652694702148,-0.25064817070961,0.8554341197013855
1751223257078048300,6.00604833984375,9.874580383300781,-0.2267199456691742,0.8602197170257568
1751223257096874500,6.02487451171875,9.88415241241455,-0.2793620526790619,0.8745766878128052
1751223257115701000,6.043700927734375,9.88415241241455,-0.3080759048461914,0.9511470198631287
1751223257134527500,6.062527587890625,9.841081619262695,-0.3128615617752075,0.9559326171875
1751223257153353700,6.081353759765625,9.817152976989746,-0.32721850275993347,1.042074203491211
1751223257172180200,6.10018017578125,9.817152976989746,-0.34636107087135315,1.01814603805542
1751223257191006500,6.11900634765625,9.908080101013184,-0.3080759048461914,0.898504912853241
1751223257209833000,6.1378330078125,9.908080101013184,-0.2267199456691742,0.8506484627723694
1751223257228659500,6.156659423828125,9.869794845581055,-0.25064817070961,0.836291491985321
1751223257247485700,6.175485595703125,9.817152976989746,-0.2841476798057556,0.9750752449035645
1751223257266312200,6.194312255859375,9.802796363830566,-0.31764721870422363,1.0085747241973877
1751223257285138400,6.213138427734375,9.807581901550293,-0.31764721870422363,1.0037890672683716
1751223257303965000,6.23196484375,9.860223770141602,-0.35114672780036926,1.042074203491211
1751223257322791400,6.25079150390625,9.845867156982422,-0.29850462079048157,1.0133603811264038
1751223257341617700,6.26961767578125,9.841081619262695,-0.2602194547653198,0.9272187948226929
1751223257360444200,6.288444091796875,9.836296081542969,-0.32243284583091736,0.9655039310455322
1751223257379270400,6.3072705078125,9.869794845581055,-0.3128615617752075,0.9750752449035645
1751223257398097000,6.326096923828125,9.836296081542969,-0.37507495284080505,1.042074203491211
1751223257416923100,6.344923095703125,9.807581901550293,-0.32243284583091736,1.0085747241973877
1751223257435749600,6.36374951171875,9.78843879699707,-0.3080759048461914,0.989432156085968
1751223257454576000,6.382576171875,9.888937950134277,-0.32721850275993347,0.9463613629341125
1751223257473402400,6.40140234375,9.92243766784668,-0.32721850275993347,0.8889335989952087
1751223257492228900,6.420228759765625,9.841081619262695,-0.3032902777194977,0.8506484627723694
1751223257511055000,6.43905517578125,9.821938514709473,-0.2745763957500458,0.8458628058433533
1751223257529881600,6.457881591796875,9.831509590148926,-0.2793620526790619,0.7214360237121582
1751223257548708000,6.4767080078125,9.89850902557373,-0.21714866161346436,0.592223584651947
1751223257567534300,6.495534423828125,9.92243766784668,-0.1740778535604477,0.5635097622871399
1751223257586360800,6.51436083984375,9.908080101013184,-0.16929219663143158,0.5635097622871399
1751223257605187000,6.53318701171875,9.874580383300781,-0.1501496136188507,0.534795880317688
1751223257624013600,6.552013671875,9.908080101013184,-0.1788634955883026,0.5778666734695435
1751223257642839800,6.57083984375,9.903294563293457,-0.2793620526790619,0.8793623447418213
1751223257661666300,6.589666259765625,9.874580383300781,-0.26979073882102966,0.8745766878128052
1751223257680492800,6.608492919921875,9.841081619262695,-0.2793620526790619,0.8745766878128052
1751223257699319000,6.627319091796875,9.855438232421875,-0.29371899366378784,0.9032905697822571
1751223257718145500,6.6461455078125,9.865009307861328,-0.29850462079048157,0.8697910308837891
1751223257736971800,6.6649716796875,9.836296081542969,-0.2745763957500458,0.8697910308837891
1751223257755798300,6.68379833984375,9.88415241241455,-0.3080759048461914,0.9080761671066284
1751223257774624800,6.702624755859375,9.869794845581055,-0.3415754437446594,1.0037890672683716
1751223257793451000,6.721450927734375,9.845867156982422,-0.32721850275993347,0.9942178130149841
1751223257812277500,6.740277587890625,9.89850902557373,-0.3367897868156433,0.9990034699440002
1751223257831103700,6.759103759765625,9.88415241241455,-0.34636107087135315,1.022931694984436
1751223257849930200,6.77793017578125,9.836296081542969,-0.32243284583091736,0.9607182741165161
1751223257868756500,6.796756591796875,9.850652694702148,-0.25064817070961,0.7836494445800781
1751223257887583000,6.8155830078125,9.874580383300781,-0.26500511169433594,0.7501499056816101
1751223257906409500,6.834409423828125,9.888937950134277,-0.2267199456691742,0.6927221417427063
1751223257925235700,6.853235595703125,9.874580383300781,-0.16929219663143158,0.6305087804794312
1751223257944062200,6.872062255859375,9.908080101013184,-0.2315055876970291,0.7357929348945618
1751223257962888400,6.890888427734375,9.850652694702148,-0.20757736265659332,0.778863787651062
1751223257981715000,6.90971484375,9.888937950134277,-0.26500511169433594,0.8458628058433533
1751223258000541200,6.928541259765625,9.88415241241455,-0.2793620526790619,0.8554341197013855
1751223258019367700,6.94736767578125,9.855438232421875,-0.2745763957500458,0.8889335989952087
1751223258038194200,6.966194091796875,9.860223770141602,-0.3032902777194977,0.9846464991569519
1751223258057020400,6.9850205078125,9.821938514709473,-0.3080759048461914,0.9559326171875
1751223258075847000,7.003846923828125,9.855438232421875,-0.29850462079048157,0.9607182741165161
1751223258094673200,7.022673095703125,9.879366874694824,-0.3032902777194977,0.9607182741165161
1751223258113499600,7.041499755859375,9.893723487854004,-0.3080759048461914,0.9272187948226929
1751223258132326000,7.060325927734375,9.836296081542969,-0.29371899366378784,0.9080761671066284
1751223258151152400,7.07915234375,9.850652694702148,-0.2745763957500458,0.8267202377319336
1751223258169979000,7.097978759765625,9.855438232421875,-0.2315055876970291,0.7932206988334656
1751223258188805000,7.11680517578125,9.855438232421875,-0.24586252868175507,0.8027920126914978
1751223258207631600,7.135631591796875,9.879366874694824,-0.2841476798057556,0.8697910308837891
1751223258226457900,7.154457763671875,9.855438232421875,-0.2745763957500458,0.8697910308837891
1751223258245284400,7.173284423828125,9.869794845581055,-0.24586252868175507,0.8123632669448853
1751223258264110600,7.192110595703125,9.893723487854004,-0.26500511169433594,0.8506484627723694
1751223258282937000,7.21093701171875,9.89850902557373,-0.2602194547653198,0.7597211599349976
1751223258301763300,7.229763427734375,9.850652694702148,-0.21236300468444824,0.7405785918235779
1751223258320589800,7.24858984375,9.91286563873291,-0.2745763957500458,0.8697910308837891
1751223258339416300,7.267416259765625,9.8267240524292,-0.2841476798057556,0.9176474809646606
1751223258358242600,7.28624267578125,9.855438232421875,-0.3080759048461914,0.9655039310455322
1751223258377069000,7.305069091796875,9.865009307861328,-0.3320041298866272,0.9702895879745483
1751223258395895300,7.323895263671875,9.869794845581055,-0.32243284583091736,0.9463613629341125
1751223258414721800,7.3427216796875,9.879366874694824,-0.29371899366378784,0.8937192559242249
1751223258433548000,7.361548095703125,9.855438232421875,-0.2841476798057556,0.8793623447418213
1751223258452374500,7.38037451171875,9.836296081542969,-0.31764721870422363,0.9607182741165161
1751223258471200800,7.39920068359375,9.821938514709473,-0.26500511169433594,0.8554341197013855
1751223258490027300,7.41802734375,9.821938514709473,-0.28893333673477173,0.8458628058433533
1751223258508853800,7.436853759765625,9.874580383300781,-0.22193430364131927,0.7405785918235779
1751223258527680000,7.455679931640625,9.908080101013184,-0.26979073882102966,0.8075776696205139
1751223258546506500,7.474506591796875,9.89850902557373,-0.2267199456691742,0.7597211599349976
1751223258565332700,7.493332763671875,9.874580383300781,-0.23629122972488403,0.8171489238739014
1751223258584159200,7.5121591796875,9.841081619262695,-0.2745763957500458,0.865005373954773
1751223258602985500,7.5309853515625,9.845867156982422,-0.26979073882102966,0.8602197170257568
1751223258621812000,7.54981201171875,9.879366874694824,-0.2793620526790619,0.9032905697822571
1751223258640638500,7.568638427734375,9.855438232421875,-0.3128615617752075,0.9367900490760803
1751223258659464700,7.587464599609375,9.850652694702148,-0.34636107087135315,1.022931694984436
1751223258678291200,7.606291259765625,9.88415241241455,-0.3080759048461914,0.9846464991569519
1751223258697117400,7.625117431640625,9.850652694702148,-0.2793620526790619,0.9511470198631287
1751223258715944000,7.64394384765625,9.845867156982422,-0.3032902777194977,0.898504912853241
1751223258734770200,7.662770263671875,9.81236743927002,-0.2602194547653198,0.7980063557624817
1751223258753596700,7.6815966796875,9.869794845581055,-0.2315055876970291,0.7645068168640137
1751223258772423000,7.7004228515625,9.893723487854004,-0.2602194547653198,0.7932206988334656
1751223258791249400,7.71924951171875,9.869794845581055,-0.24107688665390015,0.7980063557624817
1751223258810076000,7.738075927734375,9.88415241241455,-0.2745763957500458,0.8506484627723694
1751223258828902100,7.756902099609375,9.88415241241455,-0.2841476798057556,0.8889335989952087
1751223258847728600,7.775728759765625,9.817152976989746,-0.26500511169433594,0.8937192559242249
1751223258866555000,7.794554931640625,9.865009307861328,-0.29850462079048157,0.8841479420661926
1751223258885381400,7.81338134765625,9.88415241241455,-0.29850462079048157,0.8793623447418213
1751223258904207600,7.83220751953125,9.874580383300781,-0.2841476798057556,0.8123632669448853
1751223258923034000,7.8510341796875,9.869794845581055,-0.2602194547653198,0.8506484627723694
1751223258941860400,7.8698603515625,9.865009307861328,-0.26979073882102966,0.8937192559242249
1751223258960686800,7.888686767578125,9.855438232421875,-0.26500511169433594,0.8315058946609497
1751223258979513000,7.90751318359375,9.865009307861328,-0.3032902777194977,0.8745766878128052
1751223258998339600,7.926339599609375,9.865009307861328,-0.3032902777194977,0.9176474809646606
1751223259017166000,7.945166015625,9.836296081542969,-0.25064817070961,0.8793623447418213
1751223259035992300,7.963992431640625,9.874580383300781,-0.3080759048461914,0.8458628058433533
1751223259054818800,7.98281884765625,9.865009307861328,-0.28893333673477173,0.898504912853241
1751223259073645000,8.00164501953125,9.845867156982422,-0.31764721870422363,0.9511470198631287
1751223259092471600,8.020471435546876,9.855438232421875,-0.34636107087135315,0.9798609018325806
1751223259111297800,8.0392978515625,9.836296081542969,-0.2745763957500458,0.865005373954773
1751223259130124300,8.058124267578124,9.831509590148926,-0.24107688665390015,0.8027920126914978
1751223259148950500,8.076950439453125,9.91286563873291,-0.2602194547653198,0.7884350419044495
1751223259167777000,8.095777099609375,9.865009307861328,-0.26979073882102966,0.8889335989952087
1751223259186603500,8.114603515625,9.850652694702148,-0.2841476798057556,0.9272187948226929
1751223259205429800,8.1334296875,9.850652694702148,-0.26979073882102966,0.9080761671066284
1751223259224256300,8.15225634765625,9.850652694702148,-0.2745763957500458,0.8697910308837891
1751223259243082500,8.17108251953125,9.845867156982422,-0.2745763957500458,0.8171489238739014
1751223259261908700,8.18990869140625,9.855438232421875,-0.19322042167186737,0.6975077986717224
1751223259280735200,8.2087353515625,9.88415241241455,-0.2267199456691742,0.7501499056816101
1751223259299561700,8.227561767578125,9.91286563873291,-0.22193430364131927,0.7597211599349976
1751223259318388000,8.246387939453125,9.850652694702148,-0.26500511169433594,0.8841479420661926
1751223259337214500,8.26521435546875,9.831509590148926,-0.26979073882102966,0.9080761671066284
1751223259356040700,8.284040771484374,9.860223770141602,-0.3128615617752075,0.9655039310455322
1751223259374867200,8.3028671875,9.793225288391113,-0.3846462368965149,1.089930772781372
1751223259393693400,8.321693359375,9.836296081542969,-0.355932354927063,1.046859860420227
1751223259412520000,8.34052001953125,9.860223770141602,-0.32243284583091736,0.9655039310455322
1751223259431346200,8.35934619140625,9.865009307861328,-0.355932354927063,0.9224331378936768
1751223259450172700,8.378172607421876,9.865009307861328,-0.26500511169433594,0.8937192559242249
1751223259468999000,8.3969990234375,9.845867156982422,-0.32243284583091736,0.8602197170257568
1751223259487825400,8.415825439453124,9.855438232421875,-0.35114672780036926,0.9511470198631287
1751223259506652000,8.43465185546875,9.869794845581055,-0.25064817070961,0.8554341197013855
1751223259525478100,8.45347802734375,9.850652694702148,-0.23629122972488403,0.7501499056816101
1751223259544304600,8.4723046875,9.903294563293457,-0.24586252868175507,0.7692924737930298
1751223259563131000,8.491130859375,9.850652694702148,-0.1740778535604477,0.6783652305603027
1751223259581957400,8.509957275390626,9.865009307861328,-0.23629122972488403,0.7645068168640137
1751223259600783600,8.52878369140625,9.855438232421875,-0.26500511169433594,0.865005373954773
1751223259619610000,8.547610107421875,9.855438232421875,-0.29371899366378784,0.8697910308837891
1751223259638436400,8.566436279296875,9.879366874694824,-0.3032902777194977,0.9367900490760803
1751223259657262800,8.585262939453125,9.874580383300781,-0.3128615617752075,0.9272187948226929
1751223259676089000,8.604089111328125,9.88415241241455,-0.28893333673477173,0.8458628058433533
1751223259694915600,8.62291552734375,9.836296081542969,-0.23629122972488403,0.7549355626106262
1751223259713741800,8.641741943359374,9.860223770141602,-0.28893333673477173,0.8602197170257568
1751223259732568300,8.660568359375,9.817152976989746,-0.2602194547653198,0.898504912853241
1751223259751394600,8.67939453125,9.865009307861328,-0.29371899366378784,0.9224331378936768
1751223259770221000,8.698220947265625,9.908080101013184,-0.2602194547653198,0.7549355626106262
1751223259789047300,8.71704736328125,9.88415241241455,-0.22193430364131927,0.8075776696205139
1751223259807873800,8.735873779296876,9.841081619262695,-0.29371899366378784,0.865005373954773
1751223259826700300,8.7547001953125,9.836296081542969,-0.3080759048461914,0.8841479420661926
1751223259845526500,8.773526611328125,9.855438232421875,-0.2745763957500458,0.8793623447418213
1751223259864352800,8.792352783203125,9.88415241241455,-0.23629122972488403,0.7980063557624817
1751223259883179300,8.81117919921875,9.888937950134277,-0.29371899366378784,0.8745766878128052
1751223259902005800,8.830005859375,9.855438232421875,-0.3080759048461914,0.898504912853241
1751223259920832000,8.84883203125,9.855438232421875,-0.29371899366378784,0.898504912853241
1751223259939658500,8.867658447265624,9.807581901550293,-0.3320041298866272,0.9607182741165161
1751223259958484700,8.886484619140624,9.8267240524292,-0.355932354927063,0.9942178130149841
1751223259977311000,8.90531103515625,9.860223770141602,-0.3415754437446594,0.9750752449035645
1751223259996137500,8.924137451171875,9.850652694702148,-0.29371899366378784,0.9320043921470642
1751223260014964000,8.9429638671875,9.845867156982422,-0.3415754437446594,0.9607182741165161
1751223260033790200,8.961790283203126,9.88415241241455,-0.31764721870422363,0.9032905697822571
1751223260052616700,8.98061669921875,9.845867156982422,-0.28893333673477173,0.8745766878128052
1751223260071443000,8.99944287109375,9.860223770141602,-0.2793620526790619,0.9032905697822571
1751223260090269400,9.01826953125,9.855438232421875,-0.2745763957500458,0.8841479420661926
1751223260109095700,9.037095703125,9.860223770141602,-0.2602194547653198,0.8410771489143372
1751223260127922200,9.055922119140625,9.869794845581055,-0.28893333673477173,0.8841479420661926
1751223260146748400,9.07474853515625,9.841081619262695,-0.26500511169433594,0.7597211599349976
1751223260165575000,9.093574951171876,9.88415241241455,-0.26979073882102966,0.8075776696205139
1751223260184401200,9.112401123046874,9.855438232421875,-0.2315055876970291,0.7692924737930298
1751223260203227600,9.1312275390625,9.879366874694824,-0.23629122972488403,0.7357929348945618
1751223260222054000,9.150053955078125,9.865009307861328,-0.2554338276386261,0.8171489238739014
1751223260250293500,9.17829345703125,9.893723487854004,-0.35114672780036926,0.9702895879745483
1751223260269119700,9.19711962890625,9.817152976989746,-0.2841476798057556,0.8937192559242249
1751223260287946200,9.2159462890625,9.888937950134277,-0.26500511169433594,0.7884350419044495
1751223260306772700,9.234772705078125,9.888937950134277,-0.24107688665390015,0.7405785918235779
1751223260325599000,9.253598876953125,9.888937950134277,-0.26979073882102966,0.7214360237121582
1751223260344425200,9.27242529296875,9.879366874694824,-0.2267199456691742,0.7501499056816101
1751223260363251700,9.291251708984374,9.845867156982422,-0.25064817070961,0.8123632669448853
1751223260382078000,9.310077880859374,9.888937950134277,-0.3080759048461914,0.8841479420661926
1751223260400904400,9.328904541015625,9.88415241241455,-0.31764721870422363,0.8937192559242249
1751223260419731000,9.34773095703125,9.89850902557373,-0.29371899366378784,0.8410771489143372
1751223260438557200,9.36655712890625,9.860223770141602,-0.2554338276386261,0.8123632669448853
1751223260457383400,9.385383544921876,9.850652694702148,-0.29850462079048157,0.8793623447418213
1751223260476210000,9.4042099609375,9.817152976989746,-0.29371899366378784,0.8841479420661926
1751223260495036400,9.423036376953124,9.874580383300781,-0.28893333673477173,0.8506484627723694
1751223260513862700,9.441862548828125,9.888937950134277,-0.26979073882102966,0.8171489238739014
1751223260532689000,9.46068896484375,9.874580383300781,-0.3080759048461914,0.8554341197013855
1751223260551515400,9.479515380859375,9.855438232421875,-0.29371899366378784,0.8793623447418213
1751223260570342000,9.498341796875,9.865009307861328,-0.3367897868156433,0.9320043921470642
1751223260589168000,9.517168212890626,9.865009307861328,-0.28893333673477173,0.9128618240356445
1751223260607994400,9.535994384765624,9.893723487854004,-0.2841476798057556,0.8554341197013855
1751223260626820900,9.55482080078125,9.860223770141602,-0.2793620526790619,0.8315058946609497
1751223260645647400,9.5736474609375,9.88415241241455,-0.2745763957500458,0.7740781307220459
1751223260664473600,9.5924736328125,9.850652694702148,-0.20757736265659332,0.6975077986717224
1751223260683299800,9.6112998046875,9.89850902557373,-0.1740778535604477,0.6017948985099792
1751223260702126300,9.630126220703126,9.903294563293457,-0.2027917206287384,0.7070791125297546
1751223260720952800,9.648952880859374,9.91286563873291,-0.2841476798057556,0.8506484627723694
1751223260739779000,9.667779052734375,9.850652694702148,-0.31764721870422363,0.9655039310455322
1751223260758605300,9.686605224609375,9.836296081542969,-0.3607180118560791,1.01814603805542
1751223260777431800,9.705431884765625,9.860223770141602,-0.3415754437446594,0.9655039310455322
1751223260796258300,9.72425830078125,9.850652694702148,-0.3415754437446594,0.9224331378936768
1751223260815084500,9.74308447265625,9.89850902557373,-0.3607180118560791,0.9367900490760803
1751223260833910800,9.761910888671874,9.78843879699707,-0.32721850275993347,0.9559326171875
1751223260852737300,9.7807373046875,9.879366874694824,-0.32721850275993347,0.8602197170257568
1751223260871563500,9.7995634765625,9.879366874694824,-0.26979073882102966,0.7740781307220459
1751223260890390000,9.81839013671875,9.879366874694824,-0.26500511169433594,0.7070791125297546
1751223260909216300,9.83721630859375,9.91286563873291,-0.2267199456691742,0.6544370055198669
1751223260928042800,9.856042724609376,9.874580383300781,-0.18364913761615753,0.6113662123680115
1751223260946869000,9.874868896484376,9.903294563293457,-0.2602194547653198,0.7836494445800781
1751223260965695500,9.893695556640624,9.865009307861328,-0.29371899366378784,0.8458628058433533
1751223260984521700,9.912521728515625,9.831509590148926,-0.3320041298866272,0.9463613629341125
1751223261003348200,9.93134814453125,9.831509590148926,-0.355932354927063,0.9320043921470642
1751223261022174500,9.950174560546875,9.850652694702148,-0.3607180118560791,0.9320043921470642
1751223261041001000,9.9690009765625,9.836296081542969,-0.32721850275993347,0.8554341197013855
1751223261059827200,9.9878271484375,9.879366874694824,-0.29850462079048157,0.8410771489143372
1751223261078653700,10.00665380859375,9.869794845581055,-0.3032902777194977,0.8027920126914978
1751223261097480000,10.02547998046875,9.860223770141602,-0.26500511169433594,0.7980063557624817
1751223261116306400,10.044306396484375,9.860223770141602,-0.28893333673477173,0.7836494445800781
1751223261135132700,10.063132568359375,9.845867156982422,-0.26979073882102966,0.7405785918235779
1751223261153959200,10.081959228515625,9.865009307861328,-0.21714866161346436,0.6975077986717224
1751223261172785400,10.100785400390626,9.927223205566406,-0.2841476798057556,0.8075776696205139
1751223261191612000,10.11961181640625,9.821938514709473,-0.3080759048461914,0.9320043921470642
1751223261210438100,10.138438232421874,9.831509590148926,-0.37028929591178894,1.0037890672683716
1751223261229264600,10.1572646484375,9.8267240524292,-0.3607180118560791,0.9559326171875
1751223261248091000,10.1760908203125,9.841081619262695,-0.3415754437446594,0.8841479420661926
1751223261266917000,10.194917236328125,9.865009307861328,-0.32721850275993347,0.865005373954773
1751223261285743600,10.21374365234375,9.865009307861328,-0.3415754437446594,0.898504912853241
1751223261304570000,10.232570068359376,9.841081619262695,-0.32721850275993347,0.898504912853241
1751223261323396400,10.251396240234374,9.869794845581055,-0.32721850275993347,0.8937192559242249
1751223261342222600,10.27022265625,9.88415241241455,-0.3128615617752075,0.8410771489143372
1751223261361049000,10.289049072265625,9.841081619262695,-0.26979073882102966,0.7501499056816101
1751223261379875300,10.307875244140625,9.860223770141602,-0.2745763957500458,0.7310073375701904
1751223261398701800,10.326701904296876,9.831509590148926,-0.32721850275993347,0.865005373954773
1751223261417528000,10.345528076171876,9.850652694702148,-0.2602194547653198,0.7932206988334656
1751223261436354600,10.3643544921875,9.89850902557373,-0.2745763957500458,0.7740781307220459
1751223261455180800,10.383180908203125,9.869794845581055,-0.21714866161346436,0.7262216806411743
1751223261474007300,10.40200732421875,9.91286563873291,-0.21714866161346436,0.6831508874893188
1751223261492833500,10.42083349609375,9.807581901550293,-0.28893333673477173,0.836291491985321
1751223261511660000,10.439659912109375,9.860223770141602,-0.32243284583091736,0.8506484627723694
1751223261530486300,10.458486328125,9.869794845581055,-0.2745763957500458,0.8219345808029175
1751223261549312800,10.477312744140624,9.92243766784668,-0.26979073882102966,0.7692924737930298
1751223261568139000,10.496138916015624,9.89850902557373,-0.23629122972488403,0.6975077986717224
1751223261586965500,10.514965576171875,9.865009307861328,-0.23629122972488403,0.7932206988334656
1751223261605791700,10.533791748046875,9.845867156982422,-0.2841476798057556,0.836291491985321
1751223261624618200,10.5526181640625,9.888937950134277,-0.3367897868156433,0.8554341197013855
1751223261643444500,10.571444580078126,9.841081619262695,-0.2793620526790619,0.745364248752594
1751223261662270700,10.590270751953126,9.903294563293457,-0.28893333673477173,0.7740781307220459
1751223261681097200,10.60909716796875,9.855438232421875,-0.29850462079048157,0.8554341197013855
1751223261699923700,10.627923828125,9.836296081542969,-0.3128615617752075,0.9559326171875
1751223261718750000,10.64675,9.88415241241455,-0.3367897868156433,0.989432156085968
1751223261737576200,10.665576171875,9.841081619262695,-0.34636107087135315,0.9367900490760803
1751223261756402700,10.684402587890625,9.831509590148926,-0.29371899366378784,0.8315058946609497
1751223261775229000,10.70322900390625,9.903294563293457,-0.2602194547653198,0.7645068168640137
1751223261794055400,10.722055419921874,9.89850902557373,-0.21714866161346436,0.7166503667831421
1751223261812881700,10.740881591796875,9.879366874694824,-0.2841476798057556,0.7836494445800781
1751223261831708200,10.759708251953125,9.869794845581055,-0.35114672780036926,0.8554341197013855
1751223261850534400,10.778534423828125,9.855438232421875,-0.2841476798057556,0.8315058946609497
1751223261869361000,10.79736083984375,9.865009307861328,-0.3128615617752075,0.8410771489143372
1751223261888187100,10.816187255859376,9.836296081542969,-0.29850462079048157,0.836291491985321
1751223261907013600,10.835013671875,9.855438232421875,-0.32243284583091736,0.8841479420661926
1751223261925840000,10.85383984375,9.874580383300781,-0.3080759048461914,0.8602197170257568
1751223261944666400,10.872666259765625,9.845867156982422,-0.3320041298866272,0.8506484627723694
1751223261963492600,10.89149267578125,9.865009307861328,-0.29850462079048157,0.8171489238739014
1751223261982318800,10.91031884765625,9.893723487854004,-0.28893333673477173,0.778863787651062
1751223262001145300,10.929145263671876,9.836296081542969,-0.35114672780036926,0.8697910308837891
1751223262019971600,10.9479716796875,9.841081619262695,-0.3320041298866272,0.8458628058433533
1751223262038798000,10.966798095703124,9.860223770141602,-0.28893333673477173,0.7980063557624817
1751223262057624300,10.985624267578125,9.874580383300781,-0.29371899366378784,0.8267202377319336
1751223262076450800,11.004450927734375,9.874580383300781,-0.3032902777194977,0.8315058946609497
1751223262095277000,11.023277099609375,9.807581901550293,-0.26979073882102966,0.8075776696205139
1751223262114103600,11.042103515625,9.88415241241455,-0.29850462079048157,0.7645068168640137
1751223262132929800,11.0609296875,9.917651176452637,-0.3080759048461914,0.8554341197013855
1751223262151756300,11.07975634765625,9.831509590148926,-0.35114672780036926,0.9320043921470642
1751223262170582500,11.09858251953125,9.893723487854004,-0.3367897868156433,0.9176474809646606
1751223262189409000,11.117408935546875,9.869794845581055,-0.2841476798057556,0.7740781307220459
1751223262208235300,11.1362353515625,9.836296081542969,-0.2745763957500458,0.7932206988334656
1751223262227061500,11.1550615234375,9.91286563873291,-0.3128615617752075,0.8506484627723694
1751223262245888000,11.173887939453126,9.855438232421875,-0.3128615617752075,0.8027920126914978
1751223262264714200,11.19271435546875,9.841081619262695,-0.28893333673477173,0.7692924737930298
1751223262283540700,11.211540771484374,9.845867156982422,-0.25064817070961,0.7166503667831421
1751223262302367000,11.230366943359375,9.874580383300781,-0.2745763957500458,0.7214360237121582
1751223262330606600,11.258606689453124,9.903294563293457,-0.2745763957500458,0.7549355626106262
1751223262349433000,11.27743310546875,9.821938514709473,-0.3032902777194977,0.8219345808029175
1751223262368259300,11.29625927734375,9.874580383300781,-0.3080759048461914,0.8410771489143372
1751223262387085600,11.31508544921875,9.908080101013184,-0.3080759048461914,0.7501499056816101
1751223262405912000,11.333912109375,9.845867156982422,-0.28893333673477173,0.6975077986717224
1751223262424738300,11.35273828125,9.927223205566406,-0.29371899366378784,0.7740781307220459
1751223262443564800,11.371564697265624,9.817152976989746,-0.32721850275993347,0.865005373954773
1751223262462391000,11.39039111328125,9.8267240524292,-0.3320041298866272,0.9128618240356445
1751223262481217500,11.409217529296875,9.836296081542969,-0.3415754437446594,0.836291491985321
1751223262500043800,11.428043701171875,9.879366874694824,-0.2841476798057556,0.7980063557624817
1751223262518870300,11.446870361328125,9.841081619262695,-0.3080759048461914,0.8027920126914978
1751223262537696500,11.465696533203126,9.879366874694824,-0.3080759048461914,0.7692924737930298
1751223262556522800,11.484522705078126,9.79801082611084,-0.3080759048461914,0.7740781307220459
1751223262575349200,11.503349365234374,9.869794845581055,-0.32243284583091736,0.8027920126914978
1751223262594175700,11.52217578125,9.893723487854004,-0.29371899366378784,0.7740781307220459
1751223262613002000,11.541001953125,9.869794845581055,-0.26979073882102966,0.7022934556007385
1751223262631828200,11.559828125,9.855438232421875,-0.26979073882102966,0.7501499056816101
1751223262650654700,11.57865478515625,9.89850902557373,-0.2793620526790619,0.7310073375701904
1751223262669481000,11.59748095703125,9.831509590148926,-0.31764721870422363,0.7980063557624817
1751223262688307500,11.616307373046874,9.893723487854004,-0.3415754437446594,0.8171489238739014
1751223262707133700,11.6351337890625,9.793225288391113,-0.32721850275993347,0.8123632669448853
1751223262725960200,11.653960205078125,9.903294563293457,-0.34636107087135315,0.8889335989952087
1751223262744786400,11.672786376953125,9.831509590148926,-0.3367897868156433,0.9463613629341125
1751223262763613000,11.691613037109375,9.860223770141602,-0.3032902777194977,0.8123632669448853
1751223262782439200,11.710439208984376,9.92243766784668,-0.3320041298866272,0.7501499056816101
1751223262801265400,11.729265380859376,9.79801082611084,-0.31764721870422363,0.7405785918235779
1751223262820092000,11.748091796875,9.903294563293457,-0.24586252868175507,0.6400800347328186
1751223262838918100,11.766918212890625,9.888937950134277,-0.24586252868175507,0.6735795736312866
1751223262857744600,11.78574462890625,9.893723487854004,-0.28893333673477173,0.7022934556007385
1751223262876571000,11.80457080078125,9.836296081542969,-0.26979073882102966,0.7597211599349976
1751223262895397400,11.8233974609375,9.845867156982422,-0.32243284583091736,0.8123632669448853
1751223262914223600,11.8422236328125,9.855438232421875,-0.3080759048461914,0.8219345808029175
1751223262933050000,11.861050048828124,9.893723487854004,-0.3032902777194977,0.7501499056816101
1751223262951876400,11.87987646484375,9.917651176452637,-0.31764721870422363,0.7405785918235779
1751223262970702800,11.898702880859375,9.91286563873291,-0.2793620526790619,0.6831508874893188
1751223262989529000,11.917529052734375,9.91286563873291,-0.26979073882102966,0.7262216806411743
1751223263008355600,11.93635546875,9.817152976989746,-0.35114672780036926,0.8458628058433533
1751223263027181800,11.955181884765626,9.664012908935547,0.06041877344250679,0.5443671345710754
1751223263046008000,11.974008056640624,10.13300609588623,-0.3032902777194977,0.7166503667831421
1751223263064834600,11.99283447265625,9.707083702087402,-0.4181457459926605,1.1186445951461792
1751223263083660800,12.011660888671875,9.92243766784668,-0.3080759048461914,0.8075776696205139
1751223263102487300,12.0304873046875,9.865009307861328,-0.24107688665390015,0.6879364848136902
1751223263121313500,12.0493134765625,9.8267240524292,-0.32721850275993347,0.9080761671066284
1751223263140140000,12.06814013671875,9.917651176452637,-0.34636107087135315,0.8267202377319336
1751223263158966300,12.08696630859375,9.817152976989746,-0.2841476798057556,0.778863787651062
1751223263177792800,12.105792724609374,9.88415241241455,-0.3367897868156433,0.8554341197013855
1751223263196619000,12.124618896484375,9.841081619262695,-0.32243284583091736,0.8602197170257568
1751223263215445200,12.1434453125,9.855438232421875,-0.29371899366378784,0.7884350419044495
1751223263234271700,12.162271728515625,9.879366874694824,-0.31764721870422363,0.8315058946609497
1751223263253098000,12.181097900390625,9.860223770141602,-0.31764721870422363,0.8315058946609497
1751223263271924500,12.199924560546876,9.879366874694824,-0.3128615617752075,0.7884350419044495
1751223263290750700,12.218750732421874,9.855438232421875,-0.3128615617752075,0.8315058946609497
1751223263309577200,12.2375771484375,9.879366874694824,-0.32721850275993347,0.836291491985321
1751223263328403500,12.256403564453125,9.855438232421875,-0.32243284583091736,0.8410771489143372
1751223263347230000,12.27522998046875,9.865009307861328,-0.31764721870422363,0.8410771489143372
1751223263366056200,12.29405615234375,9.865009307861328,-0.32243284583091736,0.8267202377319336
1751223263384882400,12.31288232421875,9.869794845581055,-0.32243284583091736,0.7980063557624817
1751223263403709000,12.331708984375,9.893723487854004,-0.31764721870422363,0.8123632669448853
1751223263422535200,12.35053515625,9.865009307861328,-0.3080759048461914,0.8171489238739014
1751223263441361700,12.369361572265625,9.865009307861328,-0.3128615617752075,0.8267202377319336
1751223263460188000,12.38818798828125,9.860223770141602,-0.32243284583091736,0.8315058946609497
1751223263479014400,12.407014404296875,9.874580383300781,-0.32243284583091736,0.8267202377319336
1751223263497840600,12.425840576171876,9.869794845581055,-0.31764721870422363,0.8219345808029175
1751223263516667100,12.444667236328126,9.865009307861328,-0.29850462079048157,0.8267202377319336
1751223263535493400,12.463493408203124,9.855438232421875,-0.3032902777194977,0.8123632669448853
1751223263554320000,12.48231982421875,9.855438232421875,-0.3128615617752075,0.8171489238739014
1751223263573146000,12.50114599609375,9.850652694702148,-0.3080759048461914,0.8410771489143372
1751223263591972400,12.519972412109375,9.850652694702148,-0.3367897868156433,0.8315058946609497
1751223263610798800,12.538798828125,9.860223770141602,-0.32243284583091736,0.8171489238739014
1751223263629625000,12.557625,9.850652694702148,-0.3128615617752075,0.8267202377319336
1751223263648451600,12.57645166015625,9.874580383300781,-0.3080759048461914,0.8123632669448853
1751223263667277800,12.59527783203125,9.879366874694824,-0.3128615617752075,0.8410771489143372
1751223263686104300,12.614104248046875,9.860223770141602,-0.29850462079048157,0.8219345808029175
1751223263704930600,12.6329306640625,9.860223770141602,-0.32721850275993347,0.8315058946609497
1751223263723757000,12.651757080078125,9.865009307861328,-0.32243284583091736,0.8410771489143372
1751223263742583300,12.670583251953126,9.855438232421875,-0.31764721870422363,0.8267202377319336
1751223263761409500,12.689409423828126,9.874580383300781,-0.3128615617752075,0.8267202377319336
1751223263780236000,12.708236083984374,9.869794845581055,-0.3320041298866272,0.8458628058433533
1751223263799062300,12.727062255859375,9.865009307861328,-0.3128615617752075,0.8315058946609497
1751223263817888800,12.745888671875,9.831509590148926,-0.34636107087135315,0.9080761671066284
1751223263836715000,12.764715087890625,9.879366874694824,-0.32243284583091736,0.8075776696205139
1751223263855541500,12.78354150390625,9.908080101013184,-0.2841476798057556,0.8171489238739014
1751223263874367700,12.80236767578125,9.731011390686035,-0.2027917206287384,0.6831508874893188
1751223263893194200,12.8211943359375,9.932008743286133,-0.31764721870422363,0.8123632669448853
1751223263912020500,12.8400205078125,10.042078018188477,-0.3798605799674988,0.8554341197013855
1751223263930846700,12.8588466796875,9.845867156982422,-0.34636107087135315,0.8937192559242249
1751223263949673200,12.877673095703125,9.841081619262695,-0.4372883439064026,0.9990034699440002
1751223263968499500,12.89649951171875,9.711869239807129,-0.18364913761615753,0.8123632669448853
1751223263987326000,12.915325927734376,9.932008743286133,-0.31764721870422363,0.8458628058433533
1751223264006152200,12.934152099609374,9.850652694702148,-0.5856433510780334,1.2478569746017456
1751223264024978700,12.952978759765625,9.807581901550293,-0.5521438121795654,1.3196417093276978
1751223264043805000,12.971804931640625,9.78843879699707,-0.4707878530025482,1.2382856607437134
1751223264062631400,12.99063134765625,9.893723487854004,-0.389431893825531,0.9032905697822571
1751223264081457700,13.009457763671875,9.802796363830566,-0.3320041298866272,0.7262216806411743
1751223264100284000,13.028283935546876,9.893723487854004,-0.2027917206287384,0.5252245664596558
1751223264119110400,13.0471103515625,9.92243766784668,-0.2315055876970291,0.5060819983482361
1751223264137936600,13.0659365234375,9.879366874694824,-0.10707881301641464,0.4103690981864929
1751223264156763100,13.08476318359375,9.903294563293457,-0.18364913761615753,0.592223584651947
1751223264175589400,13.10358935546875,9.855438232421875,-0.3320041298866272,0.9128618240356445
1751223264194415600,13.12241552734375,9.932008743286133,-0.4995017349720001,1.0803594589233398
1751223264213242000,13.1412421875,9.783653259277344,-0.4133601188659668,0.9320043921470642
1751223264232068400,13.160068359375,9.836296081542969,-0.39421752095222473,0.8793623447418213
1751223264250894800,13.178894775390624,9.783653259277344,-0.4181457459926605,0.9990034699440002
1751223264269721000,13.19772119140625,9.855438232421875,-0.5282155871391296,1.2287144660949707
1751223264288547600,13.216547607421875,9.817152976989746,-0.542572557926178,1.2095718383789062
1751223264307373800,13.235373779296875,9.865009307861328,-0.37028929591178894,0.8793623447418213
1751223264326200300,13.254200439453125,9.88415241241455,-0.32243284583091736,0.6687939167022705
1751223264345026600,13.273026611328126,9.908080101013184,-0.22193430364131927,0.5156532526016235
1751223264363852800,13.291852783203124,9.850652694702148,-0.19322042167186737,0.5635097622871399
1751223264382679300,13.31067919921875,9.917651176452637,-0.24586252868175507,0.6592226624488831
1751223264401505500,13.329505615234375,9.845867156982422,-0.29850462079048157,0.7405785918235779
1751223264420332000,13.34833203125,9.903294563293457,-0.32243284583091736,0.7932206988334656
1751223264439158300,13.367158203125,9.841081619262695,-0.32721850275993347,0.8219345808029175
1751223264457984800,13.38598486328125,9.841081619262695,-0.3415754437446594,0.7884350419044495
1751223264476811000,13.40481103515625,9.845867156982422,-0.32721850275993347,0.7501499056816101
1751223264495637200,13.42363720703125,9.879366874694824,-0.26979073882102966,0.7022934556007385
1751223264514463700,13.442463623046875,9.860223770141602,-0.26500511169433594,0.745364248752594
1751223264533290000,13.4612900390625,9.865009307861328,-0.3320041298866272,0.778863787651062
1751223264552116500,13.480116455078125,9.860223770141602,-0.34636107087135315,0.8554341197013855
1751223264570942700,13.498942626953125,9.865009307861328,-0.37507495284080505,0.9032905697822571
1751223264589769200,13.517769287109376,9.807581901550293,-0.3032902777194977,0.7932206988334656
1751223264608595500,13.536595458984374,9.888937950134277,-0.35114672780036926,0.8410771489143372
1751223264627421700,13.555421630859374,9.869794845581055,-0.35114672780036926,0.8315058946609497
1751223264646248200,13.574248291015625,9.807581901550293,-0.37028929591178894,0.8937192559242249
1751223264665074400,13.593074462890625,9.88415241241455,-0.39900317788124084,0.9176474809646606
1751223264683901000,13.61190087890625,9.869794845581055,-0.3032902777194977,0.7932206988334656
1751223264702727200,13.63072705078125,9.865009307861328,-0.3320041298866272,0.8171489238739014
1751223264721553700,13.6495537109375,9.860223770141602,-0.3607180118560791,0.7692924737930298
1751223264740380000,13.6683798828125,9.869794845581055,-0.3128615617752075,0.7597211599349976
1751223264759206100,13.6872060546875,9.855438232421875,-0.3367897868156433,0.8219345808029175
1751223264778032600,13.70603271484375,9.855438232421875,-0.34636107087135315,0.8554341197013855
1751223264796859000,13.72485888671875,9.88415241241455,-0.37507495284080505,0.8937192559242249
1751223264815685400,13.743685302734375,9.802796363830566,-0.35114672780036926,0.9080761671066284
1751223264834511600,13.76251171875,9.917651176452637,-0.3080759048461914,0.778863787651062
1751223264853337900,13.781337890625,9.865009307861328,-0.2793620526790619,0.7692924737930298
1751223264872164400,13.800164306640625,9.869794845581055,-0.35114672780036926,0.8123632669448853
1751223264890990600,13.818990478515625,9.855438232421875,-0.35114672780036926,0.8458628058433533
1751223264909817000,13.837817138671875,9.836296081542969,-0.3320041298866272,0.8697910308837891
1751223264928643300,13.856643310546875,9.879366874694824,-0.4468596279621124,0.9559326171875
1751223264947469800,13.8754697265625,9.8267240524292,-0.40378883481025696,0.9942178130149841
1751223264966296000,13.894296142578124,9.860223770141602,-0.39900317788124084,0.8937192559242249
1751223264985122300,13.913122314453124,9.841081619262695,-0.26500511169433594,0.7214360237121582
1751223265003948800,13.93194873046875,9.903294563293457,-0.23629122972488403,0.6209374666213989
1751223265022775000,13.950775146484375,9.917651176452637,-0.2793620526790619,0.6687939167022705
1751223265041601500,13.9696015625,9.903294563293457,-0.29371899366378784,0.7166503667831421
1751223265060427800,13.988427734375,9.860223770141602,-0.3607180118560791,0.8745766878128052
1751223265079254300,14.007254150390626,9.88415241241455,-0.37028929591178894,0.898504912853241
1751223265098080500,14.02608056640625,9.850652694702148,-0.3367897868156433,0.9224331378936768
1751223265116906800,14.04490673828125,9.860223770141602,-0.31764721870422363,0.8219345808029175
1751223265135733200,14.063733154296875,9.89850902557373,-0.29371899366378784,0.6879364848136902
1751223265154559500,14.0825595703125,9.874580383300781,-0.2602194547653198,0.6305087804794312
1751223265173386000,14.101385986328125,9.888937950134277,-0.3080759048461914,0.7405785918235779
1751223265192212200,14.120212158203126,9.917651176452637,-0.3128615617752075,0.7692924737930298
1751223265211038700,14.139038818359374,9.802796363830566,-0.3128615617752075,0.7836494445800781
1751223265229865000,14.157864990234375,9.932008743286133,-0.3032902777194977,0.6879364848136902
1751223265248691200,14.176691162109375,9.869794845581055,-0.25064817070961,0.6831508874893188
1751223265267517700,14.195517578125,9.89850902557373,-0.29850462079048157,0.7405785918235779
1751223265286344000,14.214343994140625,9.88415241241455,-0.3415754437446594,0.7501499056816101
1751223265305170400,14.23317041015625,9.841081619262695,-0.28893333673477173,0.7357929348945618
1751223265323996700,14.25199658203125,9.88415241241455,-0.3367897868156433,0.8410771489143372
1751223265342823000,14.270822998046874,9.865009307861328,-0.3607180118560791,0.898504912853241
1751223265361649400,14.2896494140625,9.865009307861328,-0.34636107087135315,0.8602197170257568
1751223265380475600,14.3084755859375,9.850652694702148,-0.31764721870422363,0.7884350419044495
1751223265399302100,14.32730224609375,9.841081619262695,-0.3415754437446594,0.8075776696205139
1751223265418128400,14.34612841796875,9.874580383300781,-0.3655036687850952,0.8889335989952087
1751223265436954600,14.36495458984375,9.831509590148926,-0.37507495284080505,0.9415757060050964
1751223265455781000,14.383781005859374,9.869794845581055,-0.4133601188659668,0.8889335989952087
1751223265474607400,14.402607421875,9.865009307861328,-0.3655036687850952,0.9415757060050964
1751223265493433900,14.421433837890625,9.869794845581055,-0.4085744619369507,0.9798609018325806
1751223265512260000,14.440260009765625,9.78843879699707,-0.389431893825531,0.8697910308837891
1751223265531086600,14.459086669921875,9.855438232421875,-0.355932354927063,0.8793623447418213
1751223265549912800,14.477912841796876,9.841081619262695,-0.3320041298866272,0.6975077986717224
1751223265568739000,14.496739013671874,9.927223205566406,-0.16929219663143158,0.5252245664596558
1751223265587565600,14.515565673828124,9.893723487854004,-0.18843477964401245,0.4821537733078003
1751223265606391800,14.534391845703125,9.903294563293457,-0.2315055876970291,0.5300102233886719
1751223265625218300,14.55321826171875,9.88415241241455,-0.32721850275993347,0.7740781307220459
1751223265644044500,14.57204443359375,9.869794845581055,-0.39421752095222473,0.9320043921470642
1751223265662870800,14.590870849609376,9.81236743927002,-0.355932354927063,0.8841479420661926
1751223265681697300,14.609697265625,9.865009307861328,-0.34636107087135315,0.7884350419044495
1751223265700523500,14.6285234375,9.855438232421875,-0.29850462079048157,0.7549355626106262
1751223265719350000,14.64735009765625,9.879366874694824,-0.3032902777194977,0.7549355626106262
1751223265738176300,14.66617626953125,9.908080101013184,-0.32721850275993347,0.7980063557624817
1751223265757002500,14.68500244140625,9.836296081542969,-0.4372883439064026,1.0085747241973877
1751223265775829000,14.7038291015625,9.8267240524292,-0.4995017349720001,1.1473584175109863
1751223265794655200,14.7226552734375,9.8267240524292,-0.4133601188659668,0.989432156085968
1751223265813481700,14.741481689453124,9.888937950134277,-0.24586252868175507,0.6879364848136902
1751223265832308000,14.760307861328124,9.888937950134277,-0.1453639715909958,0.4582255482673645
1751223265851134200,14.77913427734375,9.917651176452637,-0.16450655460357666,0.4103690981864929
1751223265869960700,14.797960693359375,9.91286563873291,-0.2267199456691742,0.5300102233886719
1751223265888787000,14.816786865234375,9.89850902557373,-0.29371899366378784,0.6687939167022705
1751223265907613400,14.835613525390626,9.8267240524292,-0.28893333673477173,0.6448656916618347
1751223265926439700,14.854439697265626,9.874580383300781,-0.26979073882102966,0.6400800347328186
1751223265945266200,14.87326611328125,9.89850902557373,-0.32243284583091736,0.8027920126914978
1751223265964092400,14.892092529296875,9.893723487854004,-0.3367897868156433,0.7884350419044495
1751223265982918700,14.910918701171875,9.860223770141602,-0.34636107087135315,0.7884350419044495
1751223266001745200,14.9297451171875,9.8267240524292,-0.3655036687850952,0.8745766878128052
1751223266020571400,14.9485712890625,9.860223770141602,-0.40378883481025696,1.0085747241973877
1751223266039398000,14.96739794921875,9.855438232421875,-0.4612165689468384,1.0803594589233398
1751223266058224000,14.98622412109375,9.845867156982422,-0.4372883439064026,1.0372886657714844
1751223266077050400,15.00505029296875,9.855438232421875,-0.3655036687850952,0.9367900490760803
1751223266095876900,15.023876953125,9.869794845581055,-0.35114672780036926,0.8075776696205139
1751223266114703000,15.042703125,9.855438232421875,-0.29371899366378784,0.7022934556007385
1751223266133529600,15.061529541015625,9.869794845581055,-0.3032902777194977,0.6352944374084473
1751223266152355800,15.08035595703125,9.879366874694824,-0.26979073882102966,0.5730810165405273
1751223266171182000,15.09918212890625,9.88415241241455,-0.3032902777194977,0.6687939167022705
1751223266190008600,15.118008544921874,9.893723487854004,-0.3128615617752075,0.6879364848136902
1751223266208834800,15.136834716796875,9.917651176452637,-0.2841476798057556,0.7357929348945618
1751223266227661300,15.155661376953125,9.860223770141602,-0.2841476798057556,0.7597211599349976
1751223266246487600,15.174487548828125,9.865009307861328,-0.37507495284080505,0.7980063557624817
1751223266265313800,15.193313720703125,9.831509590148926,-0.3846462368965149,0.836291491985321
1751223266284140300,15.212140380859376,9.888937950134277,-0.3846462368965149,0.8219345808029175
1751223266302966500,15.230966552734374,9.841081619262695,-0.3415754437446594,0.6975077986717224
1751223266321793000,15.24979296875,9.893723487854004,-0.23629122972488403,0.5778666734695435
1751223266340619300,15.268619384765625,9.917651176452637,-0.22193430364131927,0.49651068449020386
1751223266359445500,15.287445556640625,9.855438232421875,-0.26500511169433594,0.625723123550415
1751223266378272000,15.30627197265625,9.893723487854004,-0.3032902777194977,0.6640082597732544
1751223266397098200,15.32509814453125,9.888937950134277,-0.29850462079048157,0.6783652305603027
1751223266415924700,15.3439248046875,9.855438232421875,-0.26500511169433594,0.6544370055198669
1751223266434751000,15.3627509765625,9.860223770141602,-0.26500511169433594,0.6975077986717224
1751223266453577200,15.3815771484375,9.888937950134277,-0.3128615617752075,0.7357929348945618
1751223266472403700,15.40040380859375,9.860223770141602,-0.3798605799674988,0.8171489238739014
1751223266491230000,15.41922998046875,9.865009307861328,-0.355932354927063,0.8267202377319336
1751223266510056400,15.438056396484376,9.850652694702148,-0.3655036687850952,0.8315058946609497
1751223266528882700,15.456882568359376,9.865009307861328,-0.3415754437446594,0.7645068168640137
1751223266547709000,15.475708984375,9.860223770141602,-0.31764721870422363,0.711864709854126
1751223266566535400,15.494535400390625,9.879366874694824,-0.3080759048461914,0.7357929348945618
1751223266585361700,15.513361572265625,9.92243766784668,-0.32243284583091736,0.7405785918235779
1751223266604188000,15.53218798828125,9.865009307861328,-0.3415754437446594,0.8075776696205139
1751223266623014400,15.551014404296875,9.845867156982422,-0.3367897868156433,0.7022934556007385
1751223266641840600,15.569840576171876,9.874580383300781,-0.25064817070961,0.6879364848136902
1751223266660667100,15.588667236328124,9.874580383300781,-0.3128615617752075,0.7214360237121582
1751223266679493400,15.607493408203124,9.88415241241455,-0.3320041298866272,0.7980063557624817
1751223266698320000,15.62631982421875,9.855438232421875,-0.40378883481025696,0.8889335989952087
1751223266717146000,15.64514599609375,9.855438232421875,-0.39421752095222473,0.898504912853241
1751223266735972400,15.663972412109375,9.869794845581055,-0.355932354927063,0.8410771489143372
1751223266754798800,15.682798828125,9.874580383300781,-0.355932354927063,0.7692924737930298
1751223266773625000,15.701625,9.831509590148926,-0.34636107087135315,0.7549355626106262
1751223266792451600,15.72045166015625,9.869794845581055,-0.3415754437446594,0.7645068168640137
1751223266811277800,15.73927783203125,9.836296081542969,-0.34636107087135315,0.7405785918235779
1751223266830104000,15.75810400390625,9.888937950134277,-0.24107688665390015,0.6113662123680115
1751223266848930600,15.7769306640625,9.88415241241455,-0.26979073882102966,0.5539384484291077
1751223266867756800,15.7957568359375,9.91286563873291,-0.2841476798057556,0.592223584651947
1751223266886583000,15.8145830078125,9.879366874694824,-0.28893333673477173,0.625723123550415
1751223266905409500,15.833409423828124,9.855438232421875,-0.2841476798057556,0.6209374666213989
1751223266924235800,15.85223583984375,9.860223770141602,-0.29850462079048157,0.6927221417427063
1751223266943062300,15.871062255859375,9.893723487854004,-0.3080759048461914,0.7166503667831421
1751223266961888500,15.889888427734375,9.903294563293457,-0.3080759048461914,0.7405785918235779
1751223266980714800,15.90871484375,9.869794845581055,-0.31764721870422363,0.7597211599349976
1751223266999541200,15.927541259765626,9.831509590148926,-0.3415754437446594,0.7645068168640137
1751223267018367500,15.946367431640626,9.836296081542969,-0.37028929591178894,0.7932206988334656
1751223267037194000,15.965194091796874,9.860223770141602,-0.3798605799674988,0.7836494445800781
1751223267056020200,15.984020263671875,9.88415241241455,-0.3607180118560791,0.7645068168640137
1751223267074846500,16.002846435546875,9.888937950134277,-0.31764721870422363,0.8075776696205139
1751223267093673000,16.0216728515625,9.91286563873291,-0.3415754437446594,0.8075776696205139
1751223267112499200,16.040499267578124,9.831509590148926,-0.3320041298866272,0.7597211599349976
1751223267131325700,16.05932568359375,9.88415241241455,-0.32721850275993347,0.7262216806411743
1751223267150152000,16.07815185546875,9.865009307861328,-0.29850462079048157,0.6783652305603027
1751223267168978200,16.096978271484375,9.893723487854004,-0.31764721870422363,0.6927221417427063
1751223267187804700,16.1158046875,9.879366874694824,-0.32243284583091736,0.7357929348945618
1751223267206631000,16.134630859375,9.893723487854004,-0.3655036687850952,0.7740781307220459
1751223267225457200,16.15345703125,9.850652694702148,-0.3032902777194977,0.7022934556007385
1751223267244283600,16.17228369140625,9.865009307861328,-0.29371899366378784,0.6496513485908508
1751223267263110000,16.19110986328125,9.888937950134277,-0.25064817070961,0.6065805554389954
1751223267281936400,16.209936279296876,9.874580383300781,-0.29371899366378784,0.6400800347328186
1751223267300762600,16.2287626953125,9.88415241241455,-0.3415754437446594,0.7645068168640137
1751223267319588900,16.2475888671875,9.874580383300781,-0.37507495284080505,0.8027920126914978
1751223267338415400,16.266415283203123,9.850652694702148,-0.3367897868156433,0.7932206988334656
1751223267357241600,16.28524169921875,9.850652694702148,-0.3032902777194977,0.6783652305603027
1751223267376068000,16.304068115234376,9.908080101013184,-0.3080759048461914,0.6831508874893188
1751223267394894300,16.322894287109374,9.88415241241455,-0.3320041298866272,0.7501499056816101
1751223267413720600,16.341720458984376,9.874580383300781,-0.389431893825531,0.865005373954773
1751223267432547000,16.360547119140627,9.845867156982422,-0.3655036687850952,0.8602197170257568
1751223267451373300,16.379373291015625,9.850652694702148,-0.32721850275993347,0.7836494445800781
1751223267470199600,16.398199462890624,9.860223770141602,-0.3415754437446594,0.7645068168640137
1751223267489026000,16.417026123046874,9.874580383300781,-0.31764721870422363,0.6448656916618347
1751223267507852300,16.435852294921876,9.879366874694824,-0.31764721870422363,0.6831508874893188
1751223267526678500,16.454678466796874,9.91286563873291,-0.32721850275993347,0.6640082597732544
1751223267545505000,16.473505126953125,9.855438232421875,-0.3080759048461914,0.6209374666213989
1751223267564331300,16.492331298828127,9.869794845581055,-0.2602194547653198,0.6017948985099792
1751223267583157800,16.51115771484375,9.874580383300781,-0.2602194547653198,0.6161518096923828
1751223267601984000,16.52998388671875,9.93679428100586,-0.32721850275993347,0.6783652305603027
1751223267620810500,16.548810546875,9.879366874694824,-0.3367897868156433,0.7166503667831421
1751223267639636700,16.56763671875,9.850652694702148,-0.3128615617752075,0.6783652305603027
1751223267658463000,16.586462890625,9.831509590148926,-0.3032902777194977,0.6544370055198669
1751223267677289500,16.60528955078125,9.89850902557373,-0.2745763957500458,0.6687939167022705
1751223267696115700,16.62411572265625,9.893723487854004,-0.3128615617752075,0.6927221417427063
1751223267714942000,16.64294189453125,9.865009307861328,-0.37028929591178894,0.8027920126914978
1751223267733768400,16.6617685546875,9.860223770141602,-0.3798605799674988,0.8171489238739014
1751223267752594700,16.6805947265625,9.89850902557373,-0.39421752095222473,0.8027920126914978
1751223267771421000,16.6994208984375,9.850652694702148,-0.37507495284080505,0.8745766878128052
1751223267790247400,16.718247314453127,9.845867156982422,-0.4085744619369507,0.9080761671066284
1751223267809073700,16.73707373046875,9.841081619262695,-0.37507495284080505,0.8458628058433533
1751223267827900200,16.755900146484375,9.893723487854004,-0.3607180118560791,0.7836494445800781
1751223267846726400,16.774726318359374,9.88415241241455,-0.32243284583091736,0.7262216806411743
1751223267865552600,16.793552734375,9.88415241241455,-0.32721850275993347,0.6927221417427063
1751223267884379100,16.812379150390626,9.831509590148926,-0.3080759048461914,0.6544370055198669
1751223267903205400,16.831205322265625,9.874580383300781,-0.29371899366378784,0.5970092415809631
1751223267922031900,16.850031982421875,9.908080101013184,-0.26979073882102966,0.4821537733078003
1751223267940858000,16.868858154296873,9.927223205566406,-0.24107688665390015,0.4582255482673645
1751223267959684400,16.887684326171875,9.888937950134277,-0.25064817070961,0.49651068449020386
1751223267978510800,16.9065107421875,9.869794845581055,-0.2745763957500458,0.6209374666213989
1751223267997337000,16.925337158203124,9.860223770141602,-0.32243284583091736,0.6975077986717224
1751223268016163300,16.944163330078126,9.888937950134277,-0.32243284583091736,0.6831508874893188
1751223268034989800,16.96298974609375,9.893723487854004,-0.26979073882102966,0.625723123550415
1751223268053816000,16.981816162109375,9.845867156982422,-0.32243284583091736,0.6113662123680115
1751223268072642600,17.000642578125,9.879366874694824,-0.2793620526790619,0.6161518096923828
1751223268091468800,17.01946875,9.89850902557373,-0.3032902777194977,0.6305087804794312
1751223268110295000,17.038294921875,9.874580383300781,-0.31764721870422363,0.6592226624488831
1751223268129121500,17.05712158203125,9.903294563293457,-0.3032902777194977,0.6592226624488831
1751223268147947800,17.07594775390625,9.88415241241455,-0.29850462079048157,0.6879364848136902
1751223268166774000,17.09477392578125,9.888937950134277,-0.29371899366378784,0.6831508874893188
1751223268185600500,17.1136005859375,9.879366874694824,-0.32243284583091736,0.7262216806411743
1751223268204426800,17.1324267578125,9.888937950134277,-0.3415754437446594,0.711864709854126
1751223268223253200,17.151253173828124,9.874580383300781,-0.3415754437446594,0.7405785918235779
1751223268242079500,17.17007958984375,9.88415241241455,-0.34636107087135315,0.7501499056816101
1751223268260905700,17.18890576171875,9.869794845581055,-0.37028929591178894,0.7549355626106262
1751223268279732200,17.207732177734375,9.908080101013184,-0.35114672780036926,0.6927221417427063
1751223268298558500,17.226558349609373,9.845867156982422,-0.355932354927063,0.7166503667831421
1751223268317384700,17.245384765625,9.903294563293457,-0.355932354927063,0.7214360237121582
1751223268336211200,17.264211181640626,9.869794845581055,-0.32721850275993347,0.7166503667831421
1751223268355037400,17.283037353515624,9.8267240524292,-0.32721850275993347,0.6831508874893188
1751223268373864000,17.301864013671874,9.89850902557373,-0.31764721870422363,0.6592226624488831
1751223268392690200,17.320690185546876,9.88415241241455,-0.28893333673477173,0.5730810165405273
1751223268411516400,17.339516357421875,9.89850902557373,-0.2745763957500458,0.5108676552772522
1751223268430343000,17.358343017578125,9.88415241241455,-0.26979073882102966,0.5491527915000916
1751223268449169200,17.377169189453124,9.88415241241455,-0.29850462079048157,0.6592226624488831
1751223268467995400,17.395995361328126,9.845867156982422,-0.3128615617752075,0.6640082597732544
1751223268486822000,17.41482177734375,9.860223770141602,-0.32721850275993347,0.7070791125297546
1751223268505648000,17.433648193359375,9.88415241241455,-0.3320041298866272,0.7070791125297546
1751223268524474400,17.452474365234377,9.874580383300781,-0.34636107087135315,0.711864709854126
1751223268543300900,17.47130078125,9.88415241241455,-0.355932354927063,0.7645068168640137
1751223268562127000,17.490127197265625,9.860223770141602,-0.4325026869773865,0.8410771489143372
1751223268580953600,17.50895361328125,9.855438232421875,-0.39900317788124084,0.8602197170257568
1751223268599779800,17.52777978515625,9.850652694702148,-0.4181457459926605,0.9272187948226929
1751223268618606000,17.546606201171876,9.88415241241455,-0.39421752095222473,0.8458628058433533
1751223268637432600,17.5654326171875,9.841081619262695,-0.35114672780036926,0.7932206988334656
1751223268656258800,17.5842587890625,9.89850902557373,-0.3128615617752075,0.6879364848136902
1751223268675085000,17.6030849609375,9.874580383300781,-0.3415754437446594,0.6544370055198669
1751223268693911600,17.62191162109375,9.88415241241455,-0.32721850275993347,0.5874379873275757
1751223268712737800,17.64073779296875,9.903294563293457,-0.2793620526790619,0.6017948985099792
1751223268731564300,17.659564208984374,9.903294563293457,-0.2793620526790619,0.6400800347328186
1751223268750390500,17.678390625,9.865009307861328,-0.32721850275993347,0.6831508874893188
1751223268769216800,17.697216796875,9.841081619262695,-0.3367897868156433,0.7310073375701904
1751223268788043300,17.716043212890625,9.88415241241455,-0.32243284583091736,0.7405785918235779
1751223268806869500,17.734869384765624,9.879366874694824,-0.31764721870422363,0.7070791125297546
1751223268825696000,17.753696044921874,9.893723487854004,-0.37507495284080505,0.7836494445800781
1751223268844522200,17.772522216796876,9.879366874694824,-0.3415754437446594,0.7214360237121582
1751223268863348500,17.791348388671874,9.888937950134277,-0.3607180118560791,0.7501499056816101
1751223268882175000,17.810175048828125,9.8267240524292,-0.34636107087135315,0.7980063557624817
1751223268901001200,17.829001220703127,9.845867156982422,-0.32721850275993347,0.7980063557624817
1751223268919827500,17.847827392578125,9.874580383300781,-0.35114672780036926,0.8027920126914978
1751223268938654000,17.866654052734376,9.855438232421875,-0.32721850275993347,0.745364248752594
1751223268957480200,17.885480224609374,9.908080101013184,-0.3607180118560791,0.7645068168640137
1751223268976306700,17.904306640625,9.869794845581055,-0.32721850275993347,0.7501499056816101
1751223268995133000,17.9231328125,9.865009307861328,-0.3367897868156433,0.7501499056816101
1751223269013959200,17.941959228515625,9.8267240524292,-0.3080759048461914,0.6879364848136902
1751223269032785400,17.960785400390623,9.903294563293457,-0.29371899366378784,0.6831508874893188
1751223269051612000,17.97961181640625,9.89850902557373,-0.32243284583091736,0.6592226624488831
1751223269070438100,17.998438232421876,9.874580383300781,-0.32243284583091736,0.7166503667831421
1751223269089264600,18.0172646484375,9.860223770141602,-0.355932354927063,0.7980063557624817
1751223269108091000,18.0360908203125,9.8267240524292,-0.39421752095222473,0.7932206988334656
1751223269126917000,18.054917236328127,9.855438232421875,-0.3128615617752075,0.6592226624488831
1751223269145743600,18.07374365234375,9.903294563293457,-0.28893333673477173,0.6352944374084473
1751223269164569900,18.09256982421875,9.860223770141602,-0.32721850275993347,0.6352944374084473
1751223269183396400,18.111396240234374,9.888937950134277,-0.2841476798057556,0.6113662123680115
1751223269202222600,18.13022265625,9.869794845581055,-0.26979073882102966,0.5443671345710754
1751223269221048800,18.149048828125,9.874580383300781,-0.2793620526790619,0.5491527915000916
1751223269239875300,18.167875244140625,9.93679428100586,-0.29371899366378784,0.5635097622871399
1751223269258701600,18.18670166015625,9.841081619262695,-0.3655036687850952,0.6687939167022705
1751223269277527800,18.20552783203125,9.874580383300781,-0.3320041298866272,0.6687939167022705
1751223269296354300,18.224354248046875,9.874580383300781,-0.3080759048461914,0.6687939167022705
1751223269315180500,18.2431806640625,9.893723487854004,-0.2841476798057556,0.6592226624488831
1751223269334006800,18.2620068359375,9.88415241241455,-0.3032902777194977,0.6975077986717224
1751223269352833300,18.280833251953126,9.893723487854004,-0.3655036687850952,0.6831508874893188
1751223269371659500,18.299659423828125,9.869794845581055,-0.39900317788124084,0.745364248752594
1751223269390486000,18.318486083984375,9.869794845581055,-0.32721850275993347,0.6209374666213989
1751223269409312300,18.337312255859374,9.89850902557373,-0.3128615617752075,0.5587241053581238
1751223269428138500,18.356138427734376,9.855438232421875,-0.3032902777194977,0.5682953596115112
1751223269446965000,18.374965087890626,9.841081619262695,-0.3128615617752075,0.6448656916618347
1751223269465791200,18.393791259765624,9.850652694702148,-0.29850462079048157,0.6592226624488831
1751223269484617500,18.412617431640626,9.893723487854004,-0.29850462079048157,0.6161518096923828
1751223269503444000,18.43144384765625,9.903294563293457,-0.3080759048461914,0.5682953596115112
1751223269522270200,18.450270263671875,9.917651176452637,-0.3320041298866272,0.6065805554389954
1751223269541096400,18.469096435546874,9.874580383300781,-0.37028929591178894,0.6831508874893188
1751223269559923000,18.4879228515625,9.860223770141602,-0.32721850275993347,0.6927221417427063
1751223269578749200,18.506749267578126,9.841081619262695,-0.3655036687850952,0.7405785918235779
1751223269597575700,18.52557568359375,9.845867156982422,-0.37028929591178894,0.7884350419044495
1751223269616402000,18.54440185546875,9.865009307861328,-0.3798605799674988,0.7980063557624817
1751223269635228200,18.563228271484373,9.855438232421875,-0.3846462368965149,0.778863787651062
1751223269654054700,18.5820546875,9.88415241241455,-0.3415754437446594,0.7357929348945618
1751223269672881000,18.600880859375,9.874580383300781,-0.35114672780036926,0.6448656916618347
1751223269691707100,18.61970703125,9.845867156982422,-0.37507495284080505,0.6783652305603027
1751223269710533600,18.63853369140625,9.869794845581055,-0.3607180118560791,0.6544370055198669
1751223269729360000,18.65735986328125,9.869794845581055,-0.3415754437446594,0.6687939167022705
1751223269748186400,18.676186279296875,9.89850902557373,-0.32721850275993347,0.6927221417427063
1751223269767012600,18.6950126953125,9.855438232421875,-0.32721850275993347,0.6209374666213989
1751223269785838800,18.7138388671875,9.869794845581055,-0.32721850275993347,0.6544370055198669
1751223269804665300,18.732665283203126,9.879366874694824,-0.32721850275993347,0.6400800347328186
1751223269823491600,18.75149169921875,9.869794845581055,-0.35114672780036926,0.6975077986717224
1751223269842317800,18.77031787109375,9.903294563293457,-0.355932354927063,0.7262216806411743
1751223269861144300,18.789144287109377,9.845867156982422,-0.37507495284080505,0.7549355626106262
1751223269879970600,18.807970458984375,9.860223770141602,-0.3655036687850952,0.7214360237121582
1751223269898797000,18.826797119140625,9.865009307861328,-0.355932354927063,0.7310073375701904
1751223269917623300,18.845623291015624,9.845867156982422,-0.35114672780036926,0.7405785918235779
1751223269936449500,18.864449462890626,9.89850902557373,-0.37028929591178894,0.7310073375701904
1751223269955276000,18.883276123046876,9.903294563293457,-0.32721850275993347,0.6496513485908508
1751223269974102300,18.902102294921875,9.869794845581055,-0.355932354927063,0.6879364848136902
1751223269992928500,18.920928466796877,9.855438232421875,-0.3655036687850952,0.6927221417427063
1751223270011755000,18.939755126953123,9.860223770141602,-0.35114672780036926,0.7310073375701904
1751223270030581200,18.958581298828125,9.845867156982422,-0.35114672780036926,0.7166503667831421
1751223270049407500,18.977407470703124,9.879366874694824,-0.34636107087135315,0.7214360237121582
1751223270068234000,18.99623388671875,9.917651176452637,-0.3032902777194977,0.6305087804794312
1751223270087060200,19.015060302734376,9.89850902557373,-0.3367897868156433,0.6592226624488831
1751223270105886700,19.03388671875,9.869794845581055,-0.35114672780036926,0.6448656916618347
1751223270124713000,19.052712890625,9.855438232421875,-0.32721850275993347,0.6544370055198669
1751223270143539200,19.071539306640624,9.855438232421875,-0.3607180118560791,0.7022934556007385
1751223270162365700,19.09036572265625,9.88415241241455,-0.355932354927063,0.6879364848136902
1751223270181192000,19.10919189453125,9.845867156982422,-0.3367897868156433,0.6592226624488831
1751223270200018200,19.12801806640625,9.879366874694824,-0.3320041298866272,0.6831508874893188
1751223270218844700,19.1468447265625,9.88415241241455,-0.3367897868156433,0.6496513485908508
1751223270237671000,19.1656708984375,9.850652694702148,-0.3367897868156433,0.6975077986717224
1751223270256497200,19.1844970703125,9.869794845581055,-0.3798605799674988,0.7501499056816101
1751223270275323600,19.20332373046875,9.831509590148926,-0.3798605799674988,0.7405785918235779
1751223270294150000,19.22214990234375,9.869794845581055,-0.37028929591178894,0.7357929348945618
1751223270312976400,19.240976318359376,9.908080101013184,-0.2841476798057556,0.6879364848136902
1751223270331802600,19.259802734375,9.845867156982422,-0.29850462079048157,0.6496513485908508
1751223270350628900,19.27862890625,9.89850902557373,-0.3128615617752075,0.6975077986717224
1751223270369455400,19.297455322265623,9.869794845581055,-0.3607180118560791,0.6592226624488831
1751223270388281600,19.316281494140625,9.879366874694824,-0.32721850275993347,0.6783652305603027
1751223270407107800,19.33510791015625,9.869794845581055,-0.31764721870422363,0.6400800347328186
1751223270425934300,19.353934326171874,9.89850902557373,-0.3128615617752075,0.6640082597732544
1751223270444760600,19.372760498046876,9.865009307861328,-0.3607180118560791,0.711864709854126
1751223270463586800,19.3915869140625,9.855438232421875,-0.355932354927063,0.7405785918235779
1751223270482413300,19.410413330078125,9.855438232421875,-0.37507495284080505,0.7740781307220459
1751223270501239600,19.429239501953123,9.879366874694824,-0.37507495284080505,0.7357929348945618
1751223270520066000,19.448066162109374,9.879366874694824,-0.3655036687850952,0.7645068168640137
1751223270538892300,19.466892333984376,9.865009307861328,-0.34636107087135315,0.7166503667831421
1751223270557718500,19.485718505859374,9.879366874694824,-0.3607180118560791,0.7597211599349976
1751223270576545000,19.504544921875,9.855438232421875,-0.39421752095222473,0.7980063557624817
1751223270595371300,19.523371337890627,9.855438232421875,-0.3846462368965149,0.7836494445800781
1751223270614197500,19.542197509765625,9.869794845581055,-0.40378883481025696,0.7884350419044495
1751223270633024000,19.56102392578125,9.89850902557373,-0.37028929591178894,0.7549355626106262
1751223270651850200,19.579850341796874,9.845867156982422,-0.3798605799674988,0.7405785918235779
1751223270670676500,19.598676513671876,9.865009307861328,-0.389431893825531,0.7501499056816101
1751223270689503000,19.6175029296875,9.841081619262695,-0.39421752095222473,0.7262216806411743
1751223270708329200,19.6363291015625,9.845867156982422,-0.37507495284080505,0.8171489238739014
1751223270727155500,19.655155517578127,9.888937950134277,-0.37507495284080505,0.7597211599349976
1751223270745982000,19.67398193359375,9.860223770141602,-0.34636107087135315,0.7597211599349976
1751223270764808200,19.69280810546875,9.888937950134277,-0.3607180118560791,0.7214360237121582
1751223270783634700,19.711634765625,9.855438232421875,-0.3415754437446594,0.7357929348945618
1751223270802461000,19.7304609375,9.860223770141602,-0.3415754437446594,0.7022934556007385
1751223270821287200,19.749287109375,9.893723487854004,-0.35114672780036926,0.6975077986717224
1751223270840113700,19.76811376953125,9.888937950134277,-0.34636107087135315,0.6305087804794312
1751223270858940000,19.78693994140625,9.908080101013184,-0.3032902777194977,0.625723123550415
1751223270877766100,19.80576611328125,9.865009307861328,-0.3320041298866272,0.6735795736312866
1751223270896592600,19.824592529296876,9.869794845581055,-0.35114672780036926,0.6831508874893188
1751223270915419000,19.8434189453125,9.865009307861328,-0.3128615617752075,0.6352944374084473
1751223270934245400,19.862245361328124,9.88415241241455,-0.3607180118560791,0.7022934556007385
1751223270953071600,19.881071533203126,9.88415241241455,-0.35114672780036926,0.7262216806411743
1751223270971897900,19.89989794921875,9.874580383300781,-0.3320041298866272,0.7597211599349976
1751223270990724400,19.918724365234375,9.841081619262695,-0.389431893825531,0.836291491985321
1751223271009550600,19.937550537109374,9.855438232421875,-0.39900317788124084,0.8554341197013855
1751223271028376800,19.956376953125,9.855438232421875,-0.39421752095222473,0.8171489238739014
1751223271047203300,19.975203369140626,9.850652694702148,-0.3798605799674988,0.8267202377319336
1751223271066029600,19.994029541015625,9.888937950134277,-0.355932354927063,0.8027920126914978
1751223271084855800,20.012855712890627,9.869794845581055,-0.39421752095222473,0.898504912853241
1751223271103682300,20.031682373046873,9.860223770141602,-0.4612165689468384,0.9224331378936768
1751223271122508500,20.050508544921875,9.841081619262695,-0.4325026869773865,0.865005373954773
1751223271141334800,20.069334716796874,9.865009307861328,-0.3798605799674988,0.836291491985321
1751223271160161300,20.088161376953124,9.836296081542969,-0.39421752095222473,0.8075776696205139
1751223271178987500,20.106987548828126,9.841081619262695,-0.37507495284080505,0.8219345808029175
1751223271197814000,20.12581396484375,9.874580383300781,-0.355932354927063,0.8267202377319336
1751223271216640300,20.14464013671875,9.845867156982422,-0.4085744619369507,0.8554341197013855
1751223271235466500,20.163466552734373,9.855438232421875,-0.3846462368965149,0.8697910308837891
1751223271254293000,20.18229296875,9.860223770141602,-0.39900317788124084,0.8267202377319336
1751223271273119200,20.201119140625,9.860223770141602,-0.4133601188659668,0.7980063557624817
1751223271291945500,20.219945556640624,9.850652694702148,-0.3846462368965149,0.8027920126914978
1751223271310772000,20.23877197265625,9.869794845581055,-0.3320041298866272,0.7357929348945618
1751223271329598200,20.25759814453125,9.89850902557373,-0.37507495284080505,0.8171489238739014
1751223271348424700,20.2764248046875,9.879366874694824,-0.37507495284080505,0.7932206988334656
1751223271367251000,20.2952509765625,9.860223770141602,-0.39900317788124084,0.836291491985321
1751223271386077200,20.3140771484375,9.860223770141602,-0.42293140292167664,0.865005373954773
1751223271404903700,20.332903564453126,9.8267240524292,-0.4325026869773865,0.8745766878128052
1751223271433143000,20.36114306640625,9.865009307861328,-0.3798605799674988,0.8315058946609497
1751223271451969500,20.379969482421874,9.821938514709473,-0.40378883481025696,0.8793623447418213
1751223271470795800,20.398795654296876,9.841081619262695,-0.39900317788124084,0.9463613629341125
1751223271489622000,20.4176220703125,9.841081619262695,-0.4181457459926605,0.8937192559242249
1751223271508448500,20.436448486328125,9.869794845581055,-0.42293140292167664,0.8745766878128052
1751223271527274800,20.455274658203123,9.88415241241455,-0.37507495284080505,0.8123632669448853
1751223271546101000,20.47410107421875,9.860223770141602,-0.39900317788124084,0.8506484627723694
1751223271564927500,20.492927490234376,9.821938514709473,-0.4325026869773865,1.046859860420227
1751223271583753700,20.511753662109374,9.845867156982422,-0.4707878530025482,1.022931694984436
1751223271602580000,20.530580078125,9.78843879699707,-0.4325026869773865,0.9032905697822571
1751223271621406500,20.549406494140626,9.869794845581055,-0.4372883439064026,0.8793623447418213
1751223271640232700,20.568232666015625,9.869794845581055,-0.3367897868156433,0.8410771489143372
1751223271659059000,20.587058837890623,9.855438232421875,-0.3320041298866272,0.8075776696205139
1751223271677885400,20.605885498046874,9.917651176452637,-0.40378883481025696,0.8075776696205139
1751223271696711700,20.624711669921876,9.845867156982422,-0.4085744619369507,0.8219345808029175
1751223271715538200,20.6435380859375,9.888937950134277,-0.37028929591178894,0.8219345808029175
1751223271734364400,20.662364501953125,9.81236743927002,-0.389431893825531,0.9080761671066284
1751223271753190700,20.681190673828127,9.850652694702148,-0.39421752095222473,0.9320043921470642
1751223271772017200,20.70001708984375,9.831509590148926,-0.4660021960735321,1.0277173519134521
1751223271790843400,20.718843505859375,9.841081619262695,-0.4325026869773865,1.022931694984436
1751223271809669600,20.737669677734374,9.817152976989746,-0.4325026869773865,1.0277173519134521
1751223271828496100,20.75649609375,9.865009307861328,-0.4085744619369507,0.9415757060050964
1751223271856735500,20.784735595703125,9.855438232421875,-0.40378883481025696,0.8075776696205139
1751223271875562000,20.80356201171875,9.845867156982422,-0.4325026869773865,0.898504912853241
1751223271894388200,20.82238818359375,9.831509590148926,-0.40378883481025696,0.865005373954773
1751223271913214500,20.84121435546875,9.831509590148926,-0.39900317788124084,0.8697910308837891
1751223271932041000,20.860041015625,9.865009307861328,-0.37507495284080505,0.8219345808029175
1751223271950867200,20.8788671875,9.817152976989746,-0.39900317788124084,0.9272187948226929
1751223271969693700,20.897693603515624,9.860223770141602,-0.3846462368965149,0.9415757060050964
1751223271988520000,20.91652001953125,9.836296081542969,-0.4181457459926605,0.9367900490760803
1751223272007346200,20.93534619140625,9.841081619262695,-0.4325026869773865,0.9128618240356445
1751223272026172700,20.954172607421874,9.845867156982422,-0.3655036687850952,0.8793623447418213
1751223272044999000,20.9729990234375,9.850652694702148,-0.42771705985069275,0.9224331378936768
1751223272063825200,20.9918251953125,9.845867156982422,-0.37028929591178894,0.9080761671066284
1751223272082651600,21.010651611328125,9.888937950134277,-0.37028929591178894,0.836291491985321
1751223272101478000,21.029477783203124,9.855438232421875,-0.37507495284080505,0.778863787651062
1751223272120304400,21.048304443359374,9.869794845581055,-0.355932354927063,0.7980063557624817
1751223272139130600,21.067130615234376,9.841081619262695,-0.39421752095222473,0.9128618240356445
1751223272157956900,21.085956787109374,9.860223770141602,-0.39900317788124084,0.9463613629341125
1751223272176783400,21.104783447265625,9.841081619262695,-0.42293140292167664,0.9272187948226929
1751223272195609600,21.123609619140623,9.855438232421875,-0.4133601188659668,0.9272187948226929
1751223272214435800,21.142435791015625,9.831509590148926,-0.37028929591178894,0.8745766878128052
1751223272233262300,21.161262451171876,9.874580383300781,-0.3798605799674988,0.7884350419044495
1751223272252088600,21.180088623046874,9.865009307861328,-0.35114672780036926,0.7980063557624817
1751223272270915000,21.1989150390625,9.841081619262695,-0.3798605799674988,0.836291491985321
1751223272289741300,21.2177412109375,9.836296081542969,-0.4133601188659668,0.9942178130149841
1751223272308567600,21.236567626953125,9.850652694702148,-0.45164528489112854,1.0325030088424683
1751223272327394000,21.25539404296875,9.841081619262695,-0.4420739710330963,1.0133603811264038
1751223272346220300,21.27422021484375,9.836296081542969,-0.4372883439064026,0.9846464991569519
1751223272365046500,21.293046630859376,9.817152976989746,-0.45164528489112854,0.9511470198631287
1751223272383873000,21.311873046875,9.860223770141602,-0.3607180118560791,0.8602197170257568
1751223272402699300,21.33069921875,9.850652694702148,-0.3607180118560791,0.8745766878128052
1751223272421525500,21.349525390625,9.8267240524292,-0.42771705985069275,1.0277173519134521
1751223272440352000,21.36835205078125,9.850652694702148,-0.4995017349720001,1.0612168312072754
1751223272459178200,21.38717822265625,9.77408218383789,-0.45164528489112854,0.9559326171875
1751223272478004700,21.406004638671874,10.02293586730957,-0.37507495284080505,0.6975077986717224
1751223272496831000,21.4248310546875,9.77408218383789,-0.3367897868156433,0.6927221417427063
1751223272515657200,21.4436572265625,9.932008743286133,-0.32721850275993347,0.6592226624488831
1751223272534483700,21.462483642578125,9.817152976989746,-0.2841476798057556,0.7310073375701904
1751223272553310000,21.48131005859375,9.8267240524292,-0.3655036687850952,0.9176474809646606
1751223272572136200,21.50013623046875,9.807581901550293,-0.39900317788124084,0.9990034699440002
1751223272590962700,21.518962646484376,9.850652694702148,-0.4181457459926605,0.9750752449035645
1751223272609789000,21.537788818359374,9.903294563293457,-0.32721850275993347,0.8315058946609497
1751223272628615400,21.556615478515624,9.836296081542969,-0.355932354927063,0.8219345808029175
1751223272647441700,21.575441650390626,9.831509590148926,-0.3798605799674988,0.8602197170257568
1751223272666268000,21.594267822265625,9.893723487854004,-0.37507495284080505,0.8554341197013855
1751223272685094400,21.613094482421875,9.845867156982422,-0.35114672780036926,0.8075776696205139
1751223272703920600,21.631920654296874,9.841081619262695,-0.32243284583091736,0.7740781307220459
1751223272722747100,21.6507470703125,9.841081619262695,-0.3415754437446594,0.8506484627723694
1751223272741573400,21.669573486328126,9.869794845581055,-0.3415754437446594,0.8554341197013855
1751223272760399600,21.688399658203124,9.850652694702148,-0.39421752095222473,0.9559326171875
1751223272779226000,21.70722607421875,9.831509590148926,-0.45164528489112854,1.0085747241973877
1751223272798052400,21.72605224609375,9.8267240524292,-0.39900317788124084,0.9080761671066284
1751223272816878600,21.744878662109375,9.836296081542969,-0.389431893825531,0.898504912853241
1751223272835705000,21.763705078125,9.855438232421875,-0.37028929591178894,0.8506484627723694
1751223272854531300,21.78253125,9.845867156982422,-0.3320041298866272,0.8027920126914978
1751223272873357800,21.80135791015625,9.855438232421875,-0.31764721870422363,0.778863787651062
1751223272892184000,21.82018408203125,9.845867156982422,-0.35114672780036926,0.8219345808029175
1751223272911010300,21.83901025390625,9.869794845581055,-0.389431893825531,0.836291491985321
1751223272929836800,21.8578369140625,9.888937950134277,-0.45643091201782227,0.9559326171875
1751223272948663000,21.8766630859375,9.874580383300781,-0.3846462368965149,0.8937192559242249
1751223272967489500,21.895489501953126,9.860223770141602,-0.29371899366378784,0.6640082597732544
1751223272986315800,21.914315673828124,9.836296081542969,-0.355932354927063,0.8123632669448853
1751223273005142000,21.93314208984375,9.91286563873291,-0.29850462079048157,0.7214360237121582
1751223273023968500,21.951968505859377,9.664012908935547,-0.4133601188659668,0.9702895879745483
1751223273042794800,21.970794677734375,9.951150894165039,-0.4707878530025482,1.1377872228622437
1751223273061621000,21.98962109375,9.754940032958984,-0.39900317788124084,1.113858938217163
1751223273080447500,22.008447509765624,9.89850902557373,-0.4660021960735321,0.9128618240356445
1751223273099273700,22.027273681640626,9.850652694702148,-0.32243284583091736,0.7692924737930298
1751223273118100200,22.046100341796876,9.821938514709473,-0.24107688665390015,0.5491527915000916
1751223273136926500,22.064926513671875,9.79801082611084,-0.31764721870422363,0.7884350419044495
1751223273155752700,22.083752685546877,9.903294563293457,-0.5138586759567261,1.1904292106628418
1751223273174579200,22.1025791015625,9.836296081542969,-0.4660021960735321,1.085145115852356
1751223273193405400,22.121405517578125,9.917651176452637,-0.37028929591178894,0.7549355626106262
1751223273212232000,22.14023193359375,9.860223770141602,-0.32721850275993347,0.6592226624488831
1751223273231058200,22.15905810546875,9.865009307861328,-0.3032902777194977,0.6879364848136902
1751223273249884400,22.177884521484376,9.879366874694824,-0.32243284583091736,0.7597211599349976
1751223273268711000,22.1967109375,9.831509590148926,-0.4133601188659668,0.9846464991569519
1751223273287537200,22.215537109375,9.855438232421875,-0.4372883439064026,1.042074203491211
1751223273306363600,22.23436376953125,9.793225288391113,-0.35114672780036926,0.9080761671066284
1751223273325190000,22.25318994140625,9.879366874694824,-0.3320041298866272,0.7357929348945618
1751223273344016400,22.272016357421876,9.79801082611084,-0.3415754437446594,0.8075776696205139
1751223273362842600,22.290842529296874,9.888937950134277,-0.4468596279621124,1.0564311742782593
1751223273381668900,22.3096689453125,9.831509590148926,-0.4707878530025482,1.085145115852356
1751223273400495400,22.328495361328127,9.831509590148926,-0.39421752095222473,0.9702895879745483
1751223273419321600,22.347321533203125,9.793225288391113,-0.2841476798057556,0.8123632669448853
1751223273438147800,22.36614794921875,9.850652694702148,-0.31764721870422363,0.7645068168640137
1751223273456974300,22.384974365234374,9.865009307861328,-0.3846462368965149,0.8315058946609497
1751223273475800600,22.403800537109376,9.874580383300781,-0.42771705985069275,0.9511470198631287
1751223273494627000,22.422626953125,9.903294563293457,-0.4420739710330963,0.9272187948226929
1751223273513453300,22.441453369140625,9.841081619262695,-0.35114672780036926,0.836291491985321
1751223273532279600,22.460279541015623,9.807581901550293,-0.48035913705825806,1.089930772781372
1751223273551106000,22.47910595703125,9.778867721557617,-0.4468596279621124,1.113858938217163
1751223273569932300,22.497932373046876,9.841081619262695,-0.3320041298866272,0.8793623447418213
1751223273588758800,22.5167587890625,9.874580383300781,-0.3080759048461914,0.7549355626106262
1751223273607585000,22.5355849609375,9.860223770141602,-0.39421752095222473,0.9224331378936768
1751223273626411300,22.554411376953126,9.81236743927002,-0.5138586759567261,1.2526426315307617
1751223273645237800,22.57323779296875,9.817152976989746,-0.48035913705825806,1.1282159090042114
1751223273664064000,22.59206396484375,9.860223770141602,-0.31764721870422363,0.745364248752594
1751223273682890500,22.610890380859374,9.903294563293457,-0.24107688665390015,0.625723123550415
1751223273701716700,22.629716796875,9.855438232421875,-0.3367897868156433,0.7884350419044495
1751223273720543000,22.64854296875,9.831509590148926,-0.47557350993156433,1.1330015659332275
1751223273739369500,22.667369384765625,9.821938514709473,-0.5234299302101135,1.2047861814498901
1751223273758195700,22.68619580078125,9.802796363830566,-0.37028929591178894,0.9224331378936768
1751223273777022200,22.705022216796873,9.91286563873291,-0.2793620526790619,0.711864709854126
1751223273795848400,22.723848388671875,9.821938514709473,-0.32721850275993347,0.8745766878128052
1751223273814675000,22.742675048828126,9.908080101013184,-0.4133601188659668,0.9463613629341125
1751223273833501200,22.761501220703124,9.8267240524292,-0.3607180118560791,0.865005373954773
1751223273852327400,22.780327392578126,9.841081619262695,-0.389431893825531,0.9272187948226929
1751223273871154000,22.79915380859375,9.845867156982422,-0.4468596279621124,1.042074203491211
1751223273889980200,22.817980224609375,9.836296081542969,-0.355932354927063,0.9463613629341125
1751223273908806700,22.836806640625,9.879366874694824,-0.25064817070961,0.7645068168640137
1751223273927633000,22.8556328125,9.850652694702148,-0.37028929591178894,0.9463613629341125
1751223273946459100,22.874459228515626,9.903294563293457,-0.494716078042984,1.046859860420227
1751223273965285600,22.89328564453125,9.754940032958984,-0.4468596279621124,1.0612168312072754
1751223273984111900,22.91211181640625,9.874580383300781,-0.4133601188659668,1.0133603811264038
1751223274002938400,22.9309384765625,9.845867156982422,-0.42771705985069275,1.0277173519134521
1751223274021764600,22.9497646484375,9.831509590148926,-0.42771705985069275,0.9798609018325806
1751223274050004200,22.978004150390625,9.831509590148926,-0.355932354927063,0.9511470198631287
1751223274068830500,22.99683056640625,9.879366874694824,-0.3320041298866272,0.836291491985321
1751223274087656700,23.01565673828125,9.817152976989746,-0.3415754437446594,0.898504912853241
1751223274106483200,23.034483154296876,9.860223770141602,-0.4085744619369507,0.9559326171875
1751223274125309400,23.053309326171874,9.8267240524292,-0.45643091201782227,1.0277173519134521
1751223274144136000,23.072135986328124,9.821938514709473,-0.37507495284080505,0.9846464991569519
1751223274162962200,23.090962158203126,9.845867156982422,-0.3846462368965149,0.9272187948226929
1751223274181788700,23.10978857421875,9.888937950134277,-0.29850462079048157,0.8075776696205139
1751223274200615000,23.128614990234375,9.831509590148926,-0.389431893825531,0.8793623447418213
1751223274219441200,23.147441162109374,9.860223770141602,-0.37028929591178894,0.9655039310455322
1751223274238267600,23.166267578125,9.8267240524292,-0.3655036687850952,0.9511470198631287
1751223274257094000,23.185093994140626,9.860223770141602,-0.3415754437446594,0.898504912853241
1751223274275920400,23.20392041015625,9.88415241241455,-0.3655036687850952,0.8697910308837891
1751223274294746600,23.22274658203125,9.783653259277344,-0.29371899366378784,0.8793623447418213
1751223274313573000,23.241572998046873,9.955936431884766,-0.3032902777194977,0.745364248752594
1751223274332399400,23.2603994140625,9.821938514709473,-0.3128615617752075,0.898504912853241
1751223274351225600,23.2792255859375,9.89850902557373,-0.389431893825531,0.9176474809646606
1751223274370052000,23.298052001953124,9.79801082611084,-0.40378883481025696,1.0660024881362915
1751223274388878300,23.31687841796875,9.845867156982422,-0.5138586759567261,1.1665010452270508
1751223274407704800,23.335704833984376,9.754940032958984,-0.4372883439064026,1.1234302520751953
1751223274426531000,23.354531005859375,9.869794845581055,-0.3367897868156433,0.865005373954773
1751223274445357600,23.373357666015625,9.88415241241455,-0.32721850275993347,0.8027920126914978
1751223274464183800,23.392183837890624,9.8267240524292,-0.3846462368965149,0.9463613629341125
1751223274483010000,23.411010009765626,9.869794845581055,-0.4181457459926605,1.046859860420227
1751223274501836500,23.42983642578125,9.783653259277344,-0.4181457459926605,1.0612168312072754
1751223274520662800,23.448662841796875,9.845867156982422,-0.4133601188659668,1.042074203491211
1751223274539489300,23.4674892578125,9.81236743927002,-0.42771705985069275,1.01814603805542
1751223274558315500,23.4863154296875,9.821938514709473,-0.39421752095222473,0.989432156085968
1751223274577141800,23.505141845703125,9.841081619262695,-0.3607180118560791,0.9559326171875
1751223274595968300,23.52396826171875,9.850652694702148,-0.3607180118560791,0.9272187948226929
1751223274614794500,23.54279443359375,9.831509590148926,-0.4325026869773865,1.0133603811264038
1751223274633621000,23.56162109375,9.850652694702148,-0.42293140292167664,1.0277173519134521
1751223274652447200,23.580447265625,9.8267240524292,-0.4612165689468384,1.0564311742782593
1751223274671273700,23.599273681640625,9.831509590148926,-0.389431893825531,0.9990034699440002
1751223274690100000,23.618099853515623,9.855438232421875,-0.39421752095222473,0.9607182741165161
1751223274708926200,23.63692626953125,9.8267240524292,-0.39900317788124084,0.9750752449035645
1751223274727752700,23.655752685546876,9.860223770141602,-0.4181457459926605,0.9990034699440002
1751223274746579000,23.674578857421874,9.807581901550293,-0.37028929591178894,1.022931694984436
1751223274765405400,23.693405517578125,9.860223770141602,-0.39900317788124084,0.9942178130149841
1751223274784231700,23.712231689453127,9.817152976989746,-0.39900317788124084,0.9846464991569519
1751223274803058200,23.73105810546875,9.831509590148926,-0.4181457459926605,1.0133603811264038
1751223274821884400,23.749884521484375,9.821938514709473,-0.45164528489112854,1.0372886657714844
1751223274840711000,23.7687109375,9.817152976989746,-0.3367897868156433,0.9655039310455322
1751223274868950300,23.7969501953125,9.845867156982422,-0.37028929591178894,0.8793623447418213
1751223274887776800,23.81577685546875,9.879366874694824,-0.3655036687850952,0.9559326171875
1751223274906603000,23.83460302734375,9.817152976989746,-0.4133601188659668,1.01814603805542
1751223274925429200,23.85342919921875,9.831509590148926,-0.42771705985069275,1.022931694984436
1751223274944255700,23.872255859375,9.850652694702148,-0.3415754437446594,0.9511470198631287
1751223274963082000,23.89108203125,9.850652694702148,-0.37507495284080505,0.9176474809646606
1751223274981908500,23.909908447265625,9.841081619262695,-0.4181457459926605,0.9607182741165161
1751223275000734700,23.928734619140624,9.855438232421875,-0.42771705985069275,1.0372886657714844
1751223275019561200,23.947561279296874,9.855438232421875,-0.3655036687850952,0.9990034699440002
1751223275038387500,23.966387451171876,9.831509590148926,-0.3415754437446594,0.8937192559242249
1751223275057213700,23.985213623046874,9.88415241241455,-0.34636107087135315,0.8937192559242249
1751223275076040200,24.004040283203125,9.81236743927002,-0.3607180118560791,0.9367900490760803
1751223275094866400,24.022866455078123,9.850652694702148,-0.3655036687850952,0.9320043921470642
1751223275113693000,24.04169287109375,9.8267240524292,-0.3367897868156433,0.9272187948226929
1751223275132519200,24.060519287109376,9.807581901550293,-0.37507495284080505,0.9750752449035645
1751223275151345400,24.079345458984374,9.845867156982422,-0.39900317788124084,1.01814603805542
1751223275170172000,24.098171875,9.817152976989746,-0.4133601188659668,1.022931694984436
1751223275188998100,24.116998046875,9.845867156982422,-0.40378883481025696,1.01814603805542
1751223275207824600,24.13582470703125,9.821938514709473,-0.39421752095222473,1.0325030088424683
1751223275226651000,24.15465087890625,9.860223770141602,-0.355932354927063,0.9080761671066284
1751223275245477400,24.173477294921874,9.841081619262695,-0.3607180118560791,0.9750752449035645
1751223275264303600,24.1923037109375,9.817152976989746,-0.39900317788124084,0.9846464991569519
1751223275283130000,24.211130126953126,9.855438232421875,-0.3846462368965149,1.0037890672683716
1751223275301956400,24.229956298828125,9.8267240524292,-0.34636107087135315,0.9750752449035645
1751223275320782600,24.248782470703127,9.869794845581055,-0.4085744619369507,0.989432156085968
