time,seconds_elapsed,z,y,x
1751223251305253600,0.233253662109375,9.760265350341797,-0.26996245980262756,0.9136383533477783
1751223251324080000,0.252080078125,9.760107040405273,-0.26600873470306396,0.9164848923683167
1751223251342906400,0.27090625,9.760025024414062,-0.2682071924209595,0.9167162179946899
1751223251371146000,0.29914599609375,9.759702682495117,-0.26988959312438965,0.9196503758430481
1751223251399385900,0.3273857421875,9.759502410888672,-0.27078425884246826,0.921504557132721
1751223251418212000,0.346212158203125,9.75951862335205,-0.2698330581188202,0.9216220378875732
1751223251437038600,0.36503857421875,9.759363174438477,-0.27041879296302795,0.9230833053588867
1751223251455864800,0.38386474609375,9.759333610534668,-0.2699400782585144,0.9235408306121826
1751223251474691300,0.40269140625,9.7593994140625,-0.27020886540412903,0.9227700233459473
1751223251493517800,0.421517822265625,9.759404182434082,-0.27063342928886414,0.9225886464118958
1751223251512344000,0.440343994140625,9.759387969970703,-0.27045929431915283,0.9228119850158691
1751223251531170600,0.459170654296875,9.7593355178833,-0.2712973952293396,0.9231305718421936
1751223251549997000,0.4779970703125,9.759364128112793,-0.27125197649002075,0.922835111618042
1751223251568823600,0.496823486328125,9.759387969970703,-0.271969199180603,0.9223692417144775
1751223251587649800,0.51564990234375,9.759434700012207,-0.2718889117240906,0.9218993186950684
1751223251606476300,0.534476318359375,9.759511947631836,-0.27194610238075256,0.9210659861564636
1751223251625302800,0.553302734375,9.759432792663574,-0.2726311981678009,0.921699047088623
1751223251644129000,0.57212890625,9.759459495544434,-0.272538423538208,0.9214434623718262
1751223251662955500,0.59095556640625,9.759448051452637,-0.27268272638320923,0.9215192794799805
1751223251681782000,0.609781982421875,9.759489059448242,-0.2729513645172119,0.9209970831871033
1751223251700608300,0.628608154296875,9.759446144104004,-0.27328354120254517,0.9213622212409973
1751223251719434800,0.647434814453125,9.759403228759766,-0.2736993134021759,0.9216991066932678
1751223251738261200,0.66626123046875,9.75940990447998,-0.27349284291267395,0.9216786623001099
1751223251757087500,0.68508740234375,9.759403228759766,-0.2733171284198761,0.9218114614486694
1751223251775914000,0.7039140625,9.759364128112793,-0.27349960803985596,0.9221749901771545
1751223251794740500,0.722740478515625,9.759371757507324,-0.27350053191185,0.9220901131629944
1751223251813567000,0.74156689453125,9.759315490722656,-0.27351438999176025,0.9226689338684082
1751223251832393200,0.760393310546875,9.759303092956543,-0.2732953429222107,0.9228780269622803
1751223251851219700,0.7792197265625,9.759299278259277,-0.27330875396728516,0.9229137897491455
1751223251870046200,0.798046142578125,9.75927734375,-0.2733265459537506,0.9231305122375488
1751223251888872400,0.81687255859375,9.759288787841797,-0.2733457386493683,0.9230198860168457
1751223251907699000,0.835698974609375,9.759300231933594,-0.2732797861099243,0.9229062795639038
1751223251926525400,0.854525390625,9.759294509887695,-0.27338358759880066,0.9229357242584229
1751223251945351700,0.8733515625,9.759296417236328,-0.27354174852371216,0.922873318195343
1751223251964178200,0.89217822265625,9.759270668029785,-0.2737026512622833,0.9230930209159851
1751223251983004700,0.911004638671875,9.759305000305176,-0.2737849950790405,0.922711193561554
1751223252001831200,0.9298310546875,9.759265899658203,-0.27410346269607544,0.9230334758758545
1751223252020657400,0.948657470703125,9.75924301147461,-0.2744530439376831,0.9231585264205933
1751223252039484000,0.96748388671875,9.759251594543457,-0.2745125889778137,0.923047661781311
1751223252058310400,0.986310302734375,9.75924301147461,-0.27465173602104187,0.9231102466583252
1751223252077136600,1.00513671875,9.75925350189209,-0.27440404891967773,0.9230757355690002
1751223252095963100,1.023963134765625,9.759209632873535,-0.274692177772522,0.923449695110321
1751223252114789600,1.04278955078125,9.75921630859375,-0.2747298777103424,0.9233660101890564
1751223252133615900,1.061615966796875,9.759212493896484,-0.2747180759906769,0.9234153032302856
1751223252152442400,1.0804423828125,9.759209632873535,-0.27484893798828125,0.9233936071395874
1751223252171268900,1.099268798828125,9.759190559387207,-0.2747296392917633,0.9236425161361694
1751223252190095000,1.11809521484375,9.759166717529297,-0.27469801902770996,0.923902690410614
1751223252208921600,1.136921630859375,9.75918197631836,-0.274594783782959,0.9237697720527649
1751223252227748000,1.155748046875,9.759170532226562,-0.27488943934440613,0.9238008260726929
1751223252246574600,1.17457470703125,9.759162902832031,-0.27492186427116394,0.9238719940185547
1751223252265400800,1.19340087890625,9.759149551391602,-0.2752748727798462,0.9239160418510437
1751223252284227300,1.212227294921875,9.759129524230957,-0.27505919337272644,0.9241809844970703
1751223252303053800,1.2310537109375,9.759146690368652,-0.2750230133533478,0.9240105152130127
1751223252321880000,1.249880126953125,9.759140968322754,-0.27504977583885193,0.9240729212760925
1751223252340706600,1.26870654296875,9.759123802185059,-0.2750808894634247,0.9242467880249023
1751223252359533000,1.287532958984375,9.759124755859375,-0.27509957551956177,0.9242351055145264
1751223252378359600,1.306359619140625,9.759093284606934,-0.27537548542022705,0.9244842529296875
1751223252397185800,1.325185791015625,9.75912857055664,-0.27551838755607605,0.9240633845329285
1751223252416012300,1.34401220703125,9.759268760681152,-0.2755851745605469,0.922561526298523
1751223252434838800,1.3628388671875,9.759200096130371,-0.2749544084072113,0.9234789609909058
1751223252453665000,1.3816650390625,9.759034156799316,-0.27594777941703796,0.9249392151832581
1751223252472491500,1.400491455078125,9.759127616882324,-0.2762278914451599,0.92385333776474
1751223252491318000,1.419318115234375,9.759215354919434,-0.2755955457687378,0.923119306564331
1751223252510144300,1.438144287109375,9.759073257446289,-0.27628058195114136,0.9244155883789062
1751223252528970800,1.456970703125,9.759052276611328,-0.2761461138725281,0.9246771931648254
1751223252547797200,1.47579736328125,9.759135246276855,-0.2758941054344177,0.9238717555999756
1751223252566623500,1.49462353515625,9.759095191955566,-0.2761659622192383,0.9242261052131653
1751223252585450000,1.513449951171875,9.759024620056152,-0.27662840485572815,0.9248127937316895
1751223252604276500,1.5322763671875,9.75910472869873,-0.2765527069568634,0.9240062832832336
1751223252623103000,1.55110302734375,9.759054183959961,-0.27606362104415894,0.9246769547462463
1751223252641929200,1.56992919921875,9.758715629577637,-0.2777155935764313,0.9277597069740295
1751223252660755700,1.588755615234375,9.758813858032227,-0.2779493033885956,0.9266534447669983
1751223252679582200,1.607582275390625,9.758752822875977,-0.2777897119522095,0.9273445010185242
1751223252698408400,1.626408447265625,9.758419036865234,-0.2789842486381531,0.9304904937744141
1751223252717235000,1.64523486328125,9.758604049682617,-0.27866432070732117,0.9286384582519531
1751223252736061400,1.6640615234375,9.75946044921875,-0.27676042914390564,0.920177698135376
1751223252754887700,1.6828876953125,9.760415077209473,-0.27386757731437683,0.9108588695526123
1751223252773714200,1.701714111328125,9.760871887207031,-0.2710368037223816,0.9068052172660828
1751223252792540700,1.720540771484375,9.760477066040039,-0.2708567976951599,0.9111109375953674
1751223252811367000,1.739366943359375,9.759428977966309,-0.27434512972831726,0.921227216720581
1751223252830193400,1.758193359375,9.758696556091309,-0.27560508251190186,0.9285807609558105
1751223252849020000,1.77702001953125,9.758254051208496,-0.2758404016494751,0.933159351348877
1751223252867846400,1.795846435546875,9.757856369018555,-0.2779994010925293,0.9366695284843445
1751223252886672600,1.814672607421875,9.75772476196289,-0.27790558338165283,0.9380651712417603
1751223252905499100,1.8334990234375,9.757732391357422,-0.2776246666908264,0.9380738735198975
1751223252924325600,1.85232568359375,9.75749397277832,-0.27871400117874146,0.9402256011962891
1751223252943151900,1.87115185546875,9.757155418395996,-0.2797083556652069,0.9434353113174438
1751223252961978400,1.889978271484375,9.756866455078125,-0.2805540859699249,0.9461707472801208
1751223252980804900,1.908804931640625,9.756691932678223,-0.28094035387039185,0.9478572607040405
1751223252999631400,1.92763134765625,9.756619453430176,-0.280522882938385,0.9487103223800659
1751223253018457600,1.94645751953125,9.757024765014648,-0.2808893322944641,0.9444394111633301
1751223253037284000,1.9652841796875,9.757803916931152,-0.2803535461425781,0.9365061521530151
1751223253056110600,1.984110595703125,9.758550643920898,-0.27998489141464233,0.9288030862808228
1751223253074936800,2.002936767578125,9.75892448425293,-0.2799394428730011,0.9248848557472229
1751223253093763300,2.021763427734375,9.758865356445312,-0.27975669503211975,0.9255695343017578
1751223253112589800,2.04058984375,9.75880241394043,-0.27942103147506714,0.9263355135917664
1751223253131416000,2.059416015625,9.75890827178955,-0.2786256968975067,0.9254565834999084
1751223253150242600,2.07824267578125,9.759164810180664,-0.27836018800735474,0.9228237271308899
1751223253169069000,2.097069091796875,9.759364128112793,-0.2777794599533081,0.9208865165710449
1751223253187895300,2.115895263671875,9.759502410888672,-0.2779304087162018,0.9193796515464783
1751223253206721800,2.1347216796875,9.759671211242676,-0.27859336137771606,0.9173844456672668
1751223253225548300,2.15354833984375,9.759875297546387,-0.27949321269989014,0.9149293899536133
1751223253244374500,2.17237451171875,9.759919166564941,-0.28036725521087646,0.9141956567764282
1751223253263201000,2.191200927734375,9.759800910949707,-0.2806873321533203,0.9153566956520081
1751223253282027500,2.210027587890625,9.759591102600098,-0.2809249758720398,0.9175296425819397
1751223253300854000,2.22885400390625,9.759187698364258,-0.2822328209877014,0.9214115142822266
1751223253329093600,2.25709375,9.758795738220215,-0.28556686639785767,0.9245288372039795
1751223253347920000,2.275919921875,9.758944511413574,-0.28689470887184143,0.9225291609764099
1751223253366746400,2.294746337890625,9.75964641571045,-0.2851306200027466,0.9156356453895569
1751223253385572900,2.31357275390625,9.759851455688477,-0.2849162220954895,0.9135175943374634
1751223253404399000,2.332399169921875,9.759843826293945,-0.28508105874061584,0.9135529398918152
1751223253423225600,2.3512255859375,9.759601593017578,-0.2856249213218689,0.9159586429595947
1751223253442052000,2.370052001953125,9.759061813354492,-0.28846436738967896,0.9208031296730042
1751223253460878600,2.388878662109375,9.758360862731934,-0.2921765446662903,0.9270434975624084
1751223253479704800,2.407704833984375,9.758012771606445,-0.2951124608516693,0.92978835105896
1751223253498531300,2.42653125,9.758281707763672,-0.29564404487609863,0.9267815351486206
1751223253517357800,2.44535791015625,9.758971214294434,-0.29496514797210693,0.9197174906730652
1751223253536184000,2.46418408203125,9.759727478027344,-0.2927439510822296,0.912367582321167
1751223253555010600,2.483010498046875,9.760315895080566,-0.28961536288261414,0.9070549607276917
1751223253573837000,2.501837158203125,9.760823249816895,-0.28777194023132324,0.9021668434143066
1751223253592663300,2.520663330078125,9.761395454406738,-0.285450279712677,0.8967053294181824
1751223253611489800,2.53948974609375,9.76215934753418,-0.2827600836753845,0.8892008662223816
1751223253630316300,2.55831640625,9.762663841247559,-0.28197789192199707,0.8838930130004883
1751223253649142500,2.577142578125,9.762989044189453,-0.2816563844680786,0.8803954124450684
1751223253667969000,2.595968994140625,9.762995719909668,-0.2811652719974518,0.8804866671562195
1751223253686795500,2.61479541015625,9.762639999389648,-0.28035637736320496,0.8846685290336609
1751223253705621800,2.633621826171875,9.761990547180176,-0.2815172076225281,0.8914448022842407
1751223253724448300,2.6524482421875,9.7612886428833,-0.2834170460700989,0.8984924554824829
1751223253743274800,2.671274658203125,9.76054573059082,-0.2860317528247833,0.9057081341743469
1751223253762101200,2.690101318359375,9.760136604309082,-0.28846830129623413,0.9093469381332397
1751223253780927500,2.708927490234375,9.760117530822754,-0.2899954617023468,0.9090677499771118
1751223253799754000,2.72775390625,9.760391235351562,-0.28847646713256836,0.9066099524497986
1751223253818580500,2.74658056640625,9.760566711425781,-0.28780120611190796,0.9049336910247803
1751223253837406700,2.76540673828125,9.760553359985352,-0.28725728392601013,0.905250072479248
1751223253856233200,2.784233154296875,9.760577201843262,-0.2862672507762909,0.9053044319152832
1751223253875059700,2.803059814453125,9.760528564453125,-0.286055326461792,0.9058853387832642
1751223253893886000,2.821885986328125,9.760519981384277,-0.28559696674346924,0.9061277508735657
1751223253912712400,2.84071240234375,9.760331153869629,-0.28593626618385315,0.9080560207366943
1751223253931539000,2.8595390625,9.760180473327637,-0.2864290475845337,0.9095192551612854
1751223253950365200,2.878365234375,9.760231971740723,-0.2860240638256073,0.909091591835022
1751223253969191700,2.897191650390625,9.760123252868652,-0.28627830743789673,0.9101724028587341
1751223253988018200,2.91601806640625,9.760072708129883,-0.28604552149772644,0.9107983112335205
1751223254006844400,2.934844482421875,9.760093688964844,-0.2857806384563446,0.9106473326683044
1751223254025671000,2.9536708984375,9.76020336151123,-0.2856189012527466,0.9095273613929749
1751223254044497400,2.972497314453125,9.760392189025879,-0.2856612205505371,0.9074744582176208
1751223254063323600,2.99132373046875,9.760539054870605,-0.2854079306125641,0.9059794545173645
1751223254082150100,3.010150146484375,9.760549545288086,-0.28566229343414307,0.9058017134666443
1751223254100976600,3.0289765625,9.760635375976562,-0.2852226197719574,0.905015230178833
1751223254119803000,3.047802978515625,9.760765075683594,-0.2846783697605133,0.9037726521492004
1751223254138629400,3.06662939453125,9.760943412780762,-0.28416094183921814,0.9020109176635742
1751223254157456000,3.085455810546875,9.761068344116211,-0.28438180685043335,0.9005910754203796
1751223254176282400,3.104282470703125,9.761188507080078,-0.2844584882259369,0.8992596864700317
1751223254195108600,3.123108642578125,9.761463165283203,-0.2839428782463074,0.8964322209358215
1751223254213935000,3.14193505859375,9.761775970458984,-0.284030944108963,0.8930068612098694
1751223254232761300,3.16076123046875,9.762120246887207,-0.2843538224697113,0.8891178369522095
1751223254251587800,3.179587890625,9.76279354095459,-0.28270548582077026,0.8822281956672668
1751223254270414300,3.198414306640625,9.763166427612305,-0.2806946039199829,0.8787387609481812
1751223254289240600,3.217240478515625,9.763418197631836,-0.2801681458950043,0.8761104941368103
1751223254308067000,3.236067138671875,9.763842582702637,-0.27862468361854553,0.8718533515930176
1751223254326893600,3.2548935546875,9.764700889587402,-0.2747117578983307,0.8634405136108398
1751223254345720000,3.273719970703125,9.765678405761719,-0.2693386971950531,0.8540306091308594
1751223254364546300,3.29254638671875,9.766267776489258,-0.26413694024086,0.84891277551651
1751223254383372800,3.311372802734375,9.766255378723145,-0.26128217577934265,0.8499155044555664
1751223254411612400,3.3396123046875,9.767139434814453,-0.2536407709121704,0.8420435786247253
1751223254430438700,3.358438720703125,9.76752758026123,-0.24932485818862915,0.838825523853302
1751223254449265200,3.37726513671875,9.766827583312988,-0.25200721621513367,0.8461416959762573
1751223254468091600,3.396091552734375,9.765235900878906,-0.25812026858329773,0.8625117540359497
1751223254486918100,3.414918212890625,9.7637939453125,-0.2645363211631775,0.8767691850662231
1751223254505744400,3.433744384765625,9.762660026550293,-0.26927450299263,0.887883722782135
1751223254524571000,3.45257080078125,9.761384010314941,-0.27370262145996094,0.9004747271537781
1751223254543397000,3.471397216796875,9.759551048278809,-0.28131580352783203,0.9178209900856018
1751223254562223600,3.4902236328125,9.760014533996582,-0.27907413244247437,0.913581907749176
1751223254581050000,3.509050048828125,9.760031700134277,-0.2794893682003021,0.91326904296875
1751223254609289700,3.537289794921875,9.760025024414062,-0.27870017290115356,0.9135787487030029
1751223254628116200,3.5561162109375,9.759955406188965,-0.2790190279483795,0.914228618144989
1751223254646942500,3.5749423828125,9.760062217712402,-0.2788279056549072,0.9131399989128113
1751223254665769000,3.59376904296875,9.760308265686035,-0.2782558500766754,0.9106840491294861
1751223254684595200,3.61259521484375,9.760430335998535,-0.27657997608184814,0.9098812341690063
1751223254703421700,3.631421630859375,9.760132789611816,-0.2779514789581299,0.912646472454071
1751223254722248200,3.650248291015625,9.75981330871582,-0.27968528866767883,0.9155300259590149
1751223254741074400,3.669074462890625,9.759775161743164,-0.2807014584541321,0.9156368374824524
1751223254759901000,3.68790087890625,9.759628295898438,-0.28232914209365845,0.9166886210441589
1751223254778727400,3.7067275390625,9.759592056274414,-0.28327879309654236,0.9167954921722412
1751223254797553700,3.7255537109375,9.75971508026123,-0.28363290429115295,0.9153631925582886
1751223254816380200,3.744380126953125,9.759817123413086,-0.2840943932533264,0.9141390323638916
1751223254835206700,3.76320654296875,9.759617805480957,-0.2858666777610779,0.9157136082649231
1751223254854033000,3.782032958984375,9.758810043334961,-0.28938809037208557,0.9231886267662048
1751223254872859400,3.800859375,9.757941246032715,-0.2925964593887329,0.9313265085220337
1751223254891686000,3.819685791015625,9.757655143737793,-0.2949536442756653,0.9335773587226868
1751223254910512000,3.83851220703125,9.758050918579102,-0.29465651512145996,0.9295262694358826
1751223254929338600,3.857338623046875,9.758419036865234,-0.29371407628059387,0.9259545803070068
1751223254948165000,3.8761650390625,9.758285522460938,-0.2940499484539032,0.9272474646568298
1751223254966991400,3.894991455078125,9.758081436157227,-0.2958466112613678,0.9288186430931091
1751223254985817900,3.91381787109375,9.758185386657715,-0.2959598898887634,0.9276946187019348
1751223255004644400,3.932644287109375,9.758448600769043,-0.29620322585105896,0.9248422384262085
1751223255023470600,3.951470703125,9.75878620147705,-0.2948527932167053,0.921711802482605
1751223255042297000,3.970297119140625,9.758750915527344,-0.2948096990585327,0.922091007232666
1751223255061123300,3.989123291015625,9.758537292480469,-0.29546064138412476,0.92415452003479
1751223255079949800,4.00794970703125,9.758269309997559,-0.2964012324810028,0.9266605377197266
1751223255098776300,4.0267763671875,9.758091926574707,-0.29721400141716003,0.9282747507095337
1751223255117602600,4.0456025390625,9.757889747619629,-0.29785728454589844,0.9301871657371521
1751223255136429000,4.064428955078125,9.757237434387207,-0.2997855842113495,0.9363968968391418
1751223255155255600,4.083255615234375,9.75628662109375,-0.3036838173866272,0.9450094699859619
1751223255174081800,4.102081787109375,9.75509262084961,-0.3086010813713074,0.9556825757026672
1751223255192908300,4.120908203125,9.754551887512207,-0.3119172155857086,0.9601147174835205
1751223255211734800,4.13973486328125,9.754548072814941,-0.3132806122303009,0.959709882736206
1751223255230561000,4.15856103515625,9.754678726196289,-0.3137812614440918,0.9582224488258362
1751223255249387500,4.177387451171875,9.754593849182129,-0.3147333860397339,0.9587630033493042
1751223255268214000,4.196214111328125,9.754340171813965,-0.31571778655052185,0.9610284566879272
1751223255287040300,4.215040283203125,9.754231452941895,-0.31751522421836853,0.9615312218666077
1751223255305866800,4.23386669921875,9.754402160644531,-0.3178483843803406,0.9596865773200989
1751223255324693200,4.252693359375,9.754912376403809,-0.31737902760505676,0.9546407461166382
1751223255343519500,4.27151953125,9.755667686462402,-0.31366389989852905,0.948138415813446
1751223255362346000,4.290345947265625,9.756063461303711,-0.3113710582256317,0.9448069930076599
1751223255381172200,4.309172119140625,9.75594711303711,-0.31202587485313416,0.945796549320221
1751223255399998700,4.327998779296875,9.755951881408691,-0.3127482831478119,0.9455108046531677
1751223255418825200,4.3468251953125,9.756112098693848,-0.31295764446258545,0.9437832832336426
1751223255437651500,4.3656513671875,9.75625228881836,-0.3135058581829071,0.9421509504318237
1751223255456478000,4.38447802734375,9.756280899047852,-0.31403428316116333,0.9416770339012146
1751223255475304400,4.403304443359375,9.75641918182373,-0.3129286468029022,0.9406114816665649
1751223255494130700,4.422130615234375,9.756192207336426,-0.31352943181991577,0.9427559971809387
1751223255512957200,4.440957275390625,9.755716323852539,-0.31500059366226196,0.9471893310546875
1751223255531783700,4.45978369140625,9.755215644836426,-0.31678348779678345,0.9517388343811035
1751223255550610000,4.47860986328125,9.754490852355957,-0.3190489411354065,0.9583929777145386
1751223255569436400,4.4974365234375,9.753983497619629,-0.32050397992134094,0.9630445837974548
1751223255588262700,4.5162626953125,9.753280639648438,-0.32474878430366516,0.9687277674674988
1751223255607089200,4.535089111328125,9.752882957458496,-0.32703331112861633,0.971961259841919
1751223255625915600,4.55391552734375,9.752610206604004,-0.3283300995826721,0.9742597341537476
1751223255644742000,4.572741943359375,9.752466201782227,-0.32755404710769653,0.975967288017273
1751223255663568400,4.591568359375,9.75196647644043,-0.3310277760028839,0.9797745943069458
1751223255682395000,4.610394775390625,9.75190544128418,-0.33188581466674805,0.9800877571105957
1751223255701221000,4.62922119140625,9.75213623046875,-0.3317258358001709,0.9778456687927246
1751223255720047600,4.648047607421875,9.752509117126465,-0.33214572072029114,0.9739822745323181
1751223255738874000,4.6668740234375,9.753097534179688,-0.3292733132839203,0.9690479636192322
1751223255757700400,4.685700439453125,9.753714561462402,-0.32671791315078735,0.963687002658844
1751223255776526800,4.70452685546875,9.753829956054688,-0.3260636031627655,0.9627475142478943
1751223255795353000,4.72335302734375,9.753388404846191,-0.3277732729911804,0.9666298031806946
1751223255814179600,4.7421796875,9.752540588378906,-0.33262863755226135,0.9734995365142822
1751223255833006000,4.761006103515625,9.751644134521484,-0.3364104628562927,0.9811436533927917
1751223255851832300,4.779832275390625,9.750716209411621,-0.3410281836986542,0.9887455701828003
1751223255870658800,4.798658935546875,9.75035572052002,-0.343551903963089,0.9914259910583496
1751223255889485300,4.8174853515625,9.750604629516602,-0.34266752004623413,0.9892784953117371
1751223255908311600,4.8363115234375,9.751185417175293,-0.34128570556640625,0.9840219616889954
1751223255927138000,4.855137939453125,9.75244140625,-0.3370762765407562,0.972963273525238
1751223255945964300,4.87396435546875,9.753870964050293,-0.33216020464897156,0.9602298140525818
1751223255964790800,4.892790771484375,9.75533676147461,-0.32632651925086975,0.9472722411155701
1751223255983617300,4.9116171875,9.756455421447754,-0.3217039704322815,0.9372642040252686
1751223256002443500,4.930443603515625,9.757220268249512,-0.31888511776924133,0.9302397966384888
1751223256021270000,4.94927001953125,9.75774097442627,-0.31729769706726074,0.9253212213516235
1751223256040096500,4.968096435546875,9.758136749267578,-0.31599873304367065,0.9215807914733887
1751223256058922800,4.9869228515625,9.75851058959961,-0.31488028168678284,0.9179843068122864
1751223256077749200,5.005749267578125,9.758864402770996,-0.3133331537246704,0.9147505760192871
1751223256096575500,5.024575439453125,9.75918960571289,-0.31187981367111206,0.9117761850357056
1751223256115402000,5.043402099609375,9.759285926818848,-0.31138670444488525,0.9109194874763489
1751223256134228500,5.062228515625,9.759394645690918,-0.31106260418891907,0.9098570942878723
1751223256153054700,5.0810546875,9.75951099395752,-0.31001806259155273,0.9089624285697937
1751223256171881200,5.099881103515625,9.759519577026367,-0.3090273141860962,0.9092112183570862
1751223256190707700,5.118707763671875,9.759316444396973,-0.30873528122901917,0.9114990830421448
1751223256209534000,5.137533935546875,9.75906753540039,-0.30857449769973755,0.9141971468925476
1751223256228360400,5.1563603515625,9.758916854858398,-0.30947959423065186,0.9155098795890808
1751223256247186700,5.175186767578125,9.758771896362305,-0.3097440302371979,0.9169561862945557
1751223256266013200,5.19401318359375,9.75853157043457,-0.31003862619400024,0.9194234013557434
1751223256284839700,5.212839599609375,9.758347511291504,-0.31110477447509766,0.9210091233253479
1751223256303666000,5.231666015625,9.758296012878418,-0.3112752139568329,0.9214913249015808
1751223256322492400,5.250492431640625,9.758354187011719,-0.309988796710968,0.9213110208511353
1751223256341318700,5.269318603515625,9.758660316467285,-0.30937543511390686,0.9182688593864441
1751223256360145200,5.288145263671875,9.75907039642334,-0.30729010701179504,0.9146039485931396
1751223256378971600,5.3069716796875,9.759317398071289,-0.30671390891075134,0.9121686816215515
1751223256397798000,5.3257978515625,9.759636878967285,-0.30502504110336304,0.9093027710914612
1751223256416624400,5.344624267578125,9.759993553161621,-0.30326521396636963,0.9060558080673218
1751223256435451000,5.363450927734375,9.760244369506836,-0.30136173963546753,0.9039904475212097
1751223256454277000,5.382277099609375,9.760368347167969,-0.29919472336769104,0.9033797979354858
1751223256473103600,5.401103515625,9.760506629943848,-0.2980218529701233,0.902267575263977
1751223256491929900,5.419929931640625,9.760583877563477,-0.29715996980667114,0.9017171859741211
1751223256510756400,5.43875634765625,9.760824203491211,-0.2965855598449707,0.8992913365364075
1751223256529582800,5.457582763671875,9.761067390441895,-0.29510030150413513,0.8971489667892456
1751223256548409000,5.4764091796875,9.761063575744629,-0.2948356568813324,0.8972660899162292
1751223256567235600,5.495235595703125,9.76071834564209,-0.29553651809692383,0.9007945656776428
1751223256586061800,5.514061767578125,9.75973129272461,-0.29870346188545227,0.9103832840919495
1751223256604888300,5.532888427734375,9.758740425109863,-0.3023615777492523,0.9197531342506409
1751223256623714800,5.55171484375,9.75805377960205,-0.3051100969314575,0.9261049032211304
1751223256642541000,5.570541015625,9.75770378112793,-0.306274950504303,0.929410994052887
1751223256661367600,5.589367431640625,9.757672309875488,-0.3064972460269928,0.9296627044677734
1751223256680193800,5.60819384765625,9.757757186889648,-0.3061429560184479,0.9288960099220276
1751223256699020300,5.627020263671875,9.757950782775879,-0.3056996464729309,0.9269980788230896
1751223256717846800,5.6458466796875,9.75816822052002,-0.30503490567207336,0.9249390363693237
1751223256736673000,5.664673095703125,9.758245468139648,-0.3049651086330414,0.924141526222229
1751223256755499500,5.68349951171875,9.758193969726562,-0.30500027537345886,0.924678385257721
1751223256774326000,5.702325927734375,9.7579345703125,-0.3064238131046295,0.9269346594810486
1751223256793152300,5.72115234375,9.757894515991211,-0.3075386583805084,0.9269856810569763
1751223256811978800,5.739978759765625,9.758258819580078,-0.30630895495414734,0.9235539436340332
1751223256830805000,5.758804931640625,9.75859260559082,-0.3054303526878357,0.9203115701675415
1751223256849631500,5.777631591796875,9.758769989013672,-0.3040502667427063,0.9188877940177917
1751223256868458000,5.7964580078125,9.758607864379883,-0.3042493164539337,0.9205342531204224
1751223256887284200,5.8152841796875,9.75809383392334,-0.3055284321308136,0.9255516529083252
1751223256906110700,5.83411083984375,9.757707595825195,-0.30692631006240845,0.9291478395462036
1751223256924937000,5.85293701171875,9.757340431213379,-0.3086833655834198,0.9324252009391785
1751223256943763500,5.871763427734375,9.757253646850586,-0.31042033433914185,0.9327501654624939
1751223256962590000,5.89058984375,9.757284164428711,-0.31035682559013367,0.9324535131454468
1751223256981416200,5.909416259765625,9.757393836975098,-0.3107185959815979,0.9311792850494385
1751223257000242700,5.92824267578125,9.757505416870117,-0.3104122281074524,0.930118203163147
1751223257019069000,5.94706884765625,9.757613182067871,-0.3095046579837799,0.9292890429496765
1751223257037895400,5.9658955078125,9.7579345703125,-0.3083743751049042,0.9262802004814148
1751223257056722000,5.984721923828125,9.75826358795166,-0.3077382445335388,0.9230304956436157
1751223257075548200,6.003548095703125,9.75885009765625,-0.3055846691131592,0.9175265431404114
1751223257094374700,6.022374755859375,9.759428977966309,-0.30308476090431213,0.9121870994567871
1751223257113201000,6.041200927734375,9.759657859802246,-0.3022976219654083,0.9099861979484558
1751223257132027400,6.06002734375,9.759425163269043,-0.30262309312820435,0.9123775362968445
1751223257150853600,6.078853515625,9.75911808013916,-0.3032344877719879,0.9154592156410217
1751223257169680100,6.09768017578125,9.758796691894531,-0.3049585223197937,0.9182983636856079
1751223257188506600,6.116506591796875,9.7586669921875,-0.3065698742866516,0.9191332459449768
1751223257207332900,6.135332763671875,9.758668899536133,-0.3065476715564728,0.9191216230392456
1751223257226159400,6.154159423828125,9.758731842041016,-0.3041907250881195,0.9192485213279724
1751223257244985900,6.17298583984375,9.758576393127441,-0.30314913392066956,0.9212357997894287
1751223257263812000,6.19181201171875,9.758294105529785,-0.30372199416160583,0.9240313768386841
1751223257282638600,6.210638671875,9.7582426071167,-0.30485400557518005,0.9242138266563416
1751223257301464800,6.22946484375,9.758374214172363,-0.3060574233531952,0.9224134683609009
1751223257320291300,6.248291259765625,9.75846004486084,-0.307140052318573,0.9211485385894775
1751223257339117600,6.26711767578125,9.758625984191895,-0.30718517303466797,0.9193741083145142
1751223257357944000,6.285944091796875,9.75879192352295,-0.3077470660209656,0.9174171090126038
1751223257376770600,6.3047705078125,9.7586088180542,-0.3102034628391266,0.9185369610786438
1751223257395596800,6.3235966796875,9.758149147033691,-0.3131902515888214,0.922400712966919
1751223257414423300,6.34242333984375,9.757863998413086,-0.31670671701431274,0.9242202639579773
1751223257433249500,6.36124951171875,9.758056640625,-0.318737268447876,0.921475887298584
1751223257452076000,6.380075927734375,9.758299827575684,-0.3217047154903412,0.9178586602210999
1751223257470902500,6.398902587890625,9.758523941040039,-0.3234594166278839,0.9148590564727783
1751223257489728800,6.417728759765625,9.758374214172363,-0.3250595033168793,0.9158912301063538
1751223257508555300,6.43655517578125,9.758134841918945,-0.32747742533683777,0.9175747036933899
1751223257527381500,6.455381591796875,9.758316993713379,-0.32828572392463684,0.9153479337692261
1751223257546208000,6.4742080078125,9.759042739868164,-0.3282119631767273,0.9076055884361267
1751223257565034500,6.493034423828125,9.760347366333008,-0.32501310110092163,0.8946263194084167
1751223257583860700,6.51186083984375,9.761664390563965,-0.3200654089450836,0.8819531798362732
1751223257602687200,6.530687255859375,9.762944221496582,-0.31480124592781067,0.8695982694625854
1751223257621513500,6.549513427734375,9.764196395874023,-0.3097183108329773,0.8572802543640137
1751223257640340000,6.568340087890625,9.765250205993652,-0.3046189844608307,0.8470407128334045
1751223257659166200,6.587166259765625,9.765294075012207,-0.3026203513145447,0.8472558856010437
1751223257677992700,6.60599267578125,9.765336990356445,-0.30069464445114136,0.847449779510498
1751223257696819200,6.624819091796875,9.765423774719238,-0.2989685535430908,0.8470677733421326
1751223257715645400,6.6436455078125,9.765775680541992,-0.2972012460231781,0.8436172008514404
1751223257734472000,6.662471923828125,9.7662935256958,-0.2948780655860901,0.838417649269104
1751223257753298200,6.681298095703125,9.76682186126709,-0.29274365305900574,0.832991898059845
1751223257772124700,6.700124755859375,9.767292976379395,-0.28998857736587524,0.828429639339447
1751223257790951200,6.718951171875,9.767304420471191,-0.2889346778392792,0.8286537528038025
1751223257809777400,6.73777734375,9.766977310180664,-0.28975430130958557,0.8322140574455261
1751223257828604000,6.75660400390625,9.766098022460938,-0.29246076941490173,0.8415322303771973
1751223257847430100,6.77543017578125,9.765155792236328,-0.29473963379859924,0.8516137003898621
1751223257866256600,6.794256591796875,9.76435375213623,-0.29758429527282715,0.8597763776779175
1751223257885083000,6.813082763671875,9.76425838470459,-0.2985398471355438,0.8605378270149231
1751223257903909400,6.831909423828125,9.764430046081543,-0.2977193295955658,0.858864963054657
1751223257922735600,6.850735595703125,9.764755249023438,-0.295932799577713,0.8557896614074707
1751223257941562000,6.86956201171875,9.765243530273438,-0.2935529351234436,0.8510258793830872
1751223257960388600,6.888388671875,9.765748977661133,-0.2903982102870941,0.8462942838668823
1751223257979214800,6.90721484375,9.766164779663086,-0.2879233956336975,0.8423193693161011
1751223257998041300,6.926041259765625,9.76640510559082,-0.2865148186683655,0.8400108218193054
1751223258016867600,6.94486767578125,9.766504287719727,-0.28596141934394836,0.8390475511550903
1751223258035694000,6.963694091796875,9.766444206237793,-0.2858949899673462,0.8397730588912964
1751223258054520600,6.9825205078125,9.766183853149414,-0.286031574010849,0.8427506685256958
1751223258073346800,7.001346923828125,9.76577091217041,-0.2883613407611847,0.8467419743537903
1751223258092173300,7.02017333984375,9.765168190002441,-0.2913522720336914,0.8526414036750793
1751223258110999600,7.03899951171875,9.764535903930664,-0.2941456437110901,0.8588913679122925
1751223258129826000,7.057825927734375,9.76406478881836,-0.2953377366065979,0.8638263940811157
1751223258148652300,7.07665234375,9.76370906829834,-0.2955675721168518,0.8677680492401123
1751223258167478800,7.095478759765625,9.763493537902832,-0.29626724123954773,0.8699437379837036
1751223258186305300,7.11430517578125,9.763445854187012,-0.2966669201850891,0.8703560829162598
1751223258205131500,7.133131591796875,9.763672828674316,-0.2954014241695404,0.8682317137718201
1751223258223958000,7.1519580078125,9.763839721679688,-0.2946193218231201,0.8666110634803772
1751223258242784300,7.1707841796875,9.764063835144043,-0.2934551239013672,0.8644809722900391
1751223258261610800,7.18961083984375,9.764283180236816,-0.2928750216960907,0.8621931076049805
1751223258280437000,7.20843701171875,9.7645845413208,-0.29196956753730774,0.8590894937515259
1751223258299263500,7.227263427734375,9.765058517456055,-0.2900516092777252,0.8543394804000854
1751223258318089700,7.24608984375,9.765669822692871,-0.2877601981163025,0.8481001257896423
1751223258336916200,7.264916259765625,9.765900611877441,-0.28602540493011475,0.8460224270820618
1751223258355742700,7.28374267578125,9.765932083129883,-0.2856767475605011,0.8457863330841064
1751223258374569000,7.30256884765625,9.765588760375977,-0.2870044410228729,0.8493025302886963
1751223258393395500,7.3213955078125,9.765084266662598,-0.28893372416496277,0.8544119596481323
1751223258412221700,7.3402216796875,9.764420509338379,-0.29085758328437805,0.861321747303009
1751223258431048200,7.359048095703125,9.763801574707031,-0.2921918034553528,0.8678629398345947
1751223258449874400,7.37787451171875,9.763346672058105,-0.2925269305706024,0.8728607892990112
1751223258468701000,7.396700927734375,9.762856483459473,-0.29372042417526245,0.8779146671295166
1751223258487527400,7.41552734375,9.76268196105957,-0.2946135699748993,0.8795580267906189
1751223258506353700,7.434353759765625,9.763127326965332,-0.29359495639801025,0.8749427795410156
1751223258525180200,7.45318017578125,9.763910293579102,-0.29135164618492126,0.8669335246086121
1751223258544006400,7.47200634765625,9.764544486999512,-0.2887784242630005,0.860619843006134
1751223258562833000,7.4908330078125,9.7650785446167,-0.28594017028808594,0.8554924726486206
1751223258581659100,7.5096591796875,9.765461921691895,-0.2837388515472412,0.8518397808074951
1751223258600485600,7.528485595703125,9.765685081481934,-0.282939076423645,0.8495462536811829
1751223258619311900,7.547311767578125,9.765840530395508,-0.2828444242477417,0.8477926254272461
1751223258638138400,7.566138427734375,9.76584529876709,-0.2827647030353546,0.8477665185928345
1751223258656964900,7.58496484375,9.765508651733398,-0.2841372787952423,0.8511676788330078
1751223258675791000,7.603791015625,9.764634132385254,-0.28791606426239014,0.8599004745483398
1751223258694617600,7.62261767578125,9.763792991638184,-0.29042181372642517,0.8685674667358398
1751223258713443800,7.64144384765625,9.763147354125977,-0.2920074760913849,0.8752570152282715
1751223258732270300,7.660270263671875,9.762666702270508,-0.2937062978744507,0.8800313472747803
1751223258751096600,7.6790966796875,9.762754440307617,-0.29354941844940186,0.8791115880012512
1751223258769923000,7.697923095703125,9.763276100158691,-0.291936993598938,0.8738459348678589
1751223258788749300,7.716749267578125,9.763504028320312,-0.29088306427001953,0.8716438412666321
1751223258807575800,7.735575927734375,9.763633728027344,-0.2905316948890686,0.87030428647995
1751223258826402300,7.75440234375,9.763771057128906,-0.2900030016899109,0.8689382672309875
1751223258845228500,7.773228515625,9.763901710510254,-0.2888182997703552,0.8678717613220215
1751223258864055000,7.792054931640625,9.763894081115723,-0.2887752950191498,0.8679705262184143
1751223258882881300,7.81088134765625,9.763877868652344,-0.289722204208374,0.8678306341171265
1751223258901707800,7.829707763671875,9.76391887664795,-0.2897627353668213,0.8673563003540039
1751223258920534000,7.848533935546875,9.763832092285156,-0.29056134819984436,0.868070662021637
1751223258939360500,7.867360595703125,9.763872146606445,-0.28991273045539856,0.867835283279419
1751223258958186800,7.886186767578125,9.763772010803223,-0.2894206643104553,0.8691284656524658
1751223258977013200,7.90501318359375,9.763800621032715,-0.2890240252017975,0.8689314723014832
1751223258995839500,7.923839599609375,9.763721466064453,-0.28878432512283325,0.8698943257331848
1751223259014666000,7.942666015625,9.763639450073242,-0.28878477215766907,0.8708288669586182
1751223259033492200,7.9614921875,9.763672828674316,-0.2881850004196167,0.8706499934196472
1751223259052318700,7.980318603515625,9.763754844665527,-0.28811386227607727,0.8697489500045776
1751223259071145200,7.999145263671875,9.763869285583496,-0.28768599033355713,0.8686081767082214
1751223259089971500,8.017971435546874,9.76346206665039,-0.2892276644706726,0.872660756111145
1751223259108798000,8.0367978515625,9.76290225982666,-0.29188984632492065,0.8780244588851929
1751223259127624200,8.055624267578125,9.7628812789917,-0.2918444275856018,0.8782702088356018
1751223259146450700,8.07445068359375,9.763131141662598,-0.2911638617515564,0.8757181763648987
1751223259165277000,8.09327685546875,9.763450622558594,-0.29078489542007446,0.8722680807113647
1751223259184103400,8.112103515625,9.763481140136719,-0.29030513763427734,0.8720965385437012
1751223259202929700,8.1309296875,9.763140678405762,-0.29173240065574646,0.8754263520240784
1751223259221756200,8.149756103515625,9.762845039367676,-0.29275479912757874,0.878378689289093
1751223259240582400,8.16858251953125,9.762856483459473,-0.29228028655052185,0.8784000277519226
1751223259259409000,8.187408935546875,9.763108253479004,-0.29235130548477173,0.8755742907524109
1751223259278235400,8.2062353515625,9.76382064819336,-0.29003027081489563,0.8683770895004272
1751223259297061600,8.2250615234375,9.764381408691406,-0.2879931926727295,0.862724244594574
1751223259315888000,8.24388818359375,9.764534950256348,-0.2867266833782196,0.8614175319671631
1751223259334714400,8.26271435546875,9.764419555664062,-0.28671973943710327,0.8627277612686157
1751223259353540900,8.281540771484375,9.764355659484863,-0.2866499125957489,0.8634677529335022
1751223259372367000,8.3003671875,9.76447868347168,-0.28656622767448425,0.8621018528938293
1751223259391193600,8.319193603515625,9.764565467834473,-0.28787311911582947,0.8606904745101929
1751223259410019800,8.338019775390626,9.764845848083496,-0.2885837256908417,0.8572648763656616
1751223259428846300,8.356846435546874,9.765170097351074,-0.28877314925193787,0.853489875793457
1751223259447672600,8.375672607421874,9.765307426452637,-0.28985562920570374,0.8515563607215881
1751223259466499000,8.3944990234375,9.765158653259277,-0.2896922528743744,0.8533132672309875
1751223259485325300,8.4133251953125,9.764959335327148,-0.2913988530635834,0.8550063371658325
1751223259504151800,8.43215185546875,9.76458740234375,-0.29419997334480286,0.858299970626831
1751223259522978000,8.45097802734375,9.76453685760498,-0.2945959270000458,0.8587363958358765
1751223259541804500,8.469804443359376,9.764699935913086,-0.29472431540489197,0.8568329811096191
1751223259560630800,8.488630859375,9.764904022216797,-0.2939451038837433,0.8547794222831726
1751223259579457300,8.507457275390625,9.765271186828613,-0.29228851199150085,0.8511227369308472
1751223259598283800,8.52628369140625,9.76541805267334,-0.2912377715110779,0.8498098850250244
1751223259617110000,8.545110107421875,9.76518440246582,-0.29161983728408813,0.8523675799369812
1751223259635936500,8.5639365234375,9.764820098876953,-0.2930009365081787,0.8560619950294495
1751223259654762800,8.5827626953125,9.764238357543945,-0.2950204610824585,0.8619765043258667
1751223259673589200,8.60158935546875,9.76386833190918,-0.2962130308151245,0.8657487630844116
1751223259692415500,8.62041552734375,9.763690948486328,-0.29607295989990234,0.8677942156791687
1751223259711242000,8.639241943359375,9.763833999633789,-0.2951198220252991,0.8665066957473755
1751223259730068200,8.658068115234375,9.763662338256836,-0.29547789692878723,0.8683258295059204
1751223259748894700,8.676894775390625,9.763477325439453,-0.2962033152580261,0.8701561093330383
1751223259767721000,8.695720947265626,9.763410568237305,-0.29682713747024536,0.8706861138343811
1751223259786547500,8.71454736328125,9.763741493225098,-0.2950792908668518,0.8675692081451416
1751223259805373700,8.733373779296874,9.763952255249023,-0.2926306128501892,0.8660247325897217
1751223259824200200,8.7522001953125,9.76374626159668,-0.2932831048965454,0.8681168556213379
1751223259843026400,8.7710263671875,9.763642311096191,-0.29369258880615234,0.8691475987434387
1751223259861853000,8.78985302734375,9.763792037963867,-0.29278668761253357,0.8677750825881958
1751223259880679200,8.80867919921875,9.76415729522705,-0.2912171185016632,0.8641752600669861
1751223259899505700,8.827505615234376,9.764305114746094,-0.2903393805027008,0.8628131151199341
1751223259918332000,8.846331787109374,9.764266967773438,-0.29021623730659485,0.8632830381393433
1751223259937158400,8.865158447265625,9.764144897460938,-0.2904641032218933,0.8645745515823364
1751223259955984600,8.883984619140625,9.76397705078125,-0.29160264134407043,0.8660881519317627
1751223259974811100,8.90281103515625,9.763921737670898,-0.292999804019928,0.8662368655204773
1751223259993637600,8.9216376953125,9.76377010345459,-0.29426586627960205,0.8675249218940735
1751223260012463900,8.9404638671875,9.76370906829834,-0.29465451836586,0.8680758476257324
1751223260031290000,8.9592900390625,9.76352310180664,-0.29687488079071045,0.8694132566452026
1751223260050116600,8.97811669921875,9.763433456420898,-0.29714539647102356,0.8703227043151855
1751223260068942800,8.99694287109375,9.763338088989258,-0.2981451153755188,0.8710465431213379
1751223260087769300,9.015769287109375,9.76330280303955,-0.2990037798881531,0.8711527585983276
1751223260106595800,9.034595947265625,9.763467788696289,-0.29949235916137695,0.8691264390945435
1751223260125422000,9.053422119140626,9.763869285583496,-0.2990650236606598,0.8647559285163879
1751223260144248300,9.072248291015624,9.764327049255371,-0.2986855208873749,0.8597023487091064
1751223260163074800,9.09107470703125,9.764911651611328,-0.2980363965034485,0.8532581925392151
1751223260181901300,9.1099013671875,9.765425682067871,-0.29659146070480347,0.8478690981864929
1751223260200727600,9.1287275390625,9.765984535217285,-0.29477187991142273,0.8420469760894775
1751223260219554000,9.147553955078125,9.766522407531738,-0.29348206520080566,0.8362354040145874
1751223260247793400,9.17579345703125,9.767253875732422,-0.29140225052833557,0.8283876776695251
1751223260266620000,9.194619873046875,9.767247200012207,-0.2918543517589569,0.8283016681671143
1751223260285446100,9.213446044921875,9.767389297485352,-0.29213881492614746,0.8265219330787659
1751223260304272600,9.232272705078126,9.767694473266602,-0.2918320596218109,0.823028028011322
1751223260323099000,9.251098876953124,9.76789379119873,-0.2910766899585724,0.8209208846092224
1751223260341925400,9.26992529296875,9.767853736877441,-0.291426420211792,0.8212698101997375
1751223260360751600,9.288751708984375,9.767828941345215,-0.2909575402736664,0.8217349648475647
1751223260379578000,9.307578125,9.767592430114746,-0.29148194193840027,0.8243619203567505
1751223260398404400,9.326404296875,9.767058372497559,-0.2935686409473419,0.8299170732498169
1751223260417230800,9.34523095703125,9.766597747802734,-0.2956691086292267,0.8345959186553955
1751223260436057000,9.36405712890625,9.766366004943848,-0.2962571680545807,0.8370897769927979
1751223260454883600,9.382883544921874,9.76616382598877,-0.29682958126068115,0.8392447233200073
1751223260473709800,9.401709716796875,9.765922546386719,-0.29724931716918945,0.8418931365013123
1751223260492536300,9.420536376953125,9.765710830688477,-0.29831409454345703,0.8439783453941345
1751223260511362600,9.439362548828125,9.765876770019531,-0.2980840802192688,0.8421283960342407
1751223260530189000,9.45818896484375,9.76608943939209,-0.2973878085613251,0.8399093747138977
1751223260549015300,9.477015380859376,9.76618480682373,-0.2969778776168823,0.8389483690261841
1751223260567841800,9.495841796875,9.766077041625977,-0.29749569296836853,0.8400141596794128
1751223260586668000,9.51466796875,9.765727996826172,-0.29944926500320435,0.8433673977851868
1751223260605494500,9.53349462890625,9.765384674072266,-0.30102217197418213,0.8467693328857422
1751223260624320800,9.55232080078125,9.765209197998047,-0.3021543323993683,0.8483977913856506
1751223260643147300,9.571147216796875,9.765190124511719,-0.30265316367149353,0.8484329581260681
1751223260661973500,9.589973388671876,9.765460968017578,-0.30258774757385254,0.8453298807144165
1751223260680800000,9.608800048828124,9.766252517700195,-0.2999483644962311,0.8370822668075562
1751223260699626200,9.627626220703124,9.767461776733398,-0.29563108086586,0.8244296312332153
1751223260718452700,9.64645263671875,9.768295288085938,-0.29220375418663025,0.8157139420509338
1751223260737279000,9.665279052734375,9.768653869628906,-0.29064613580703735,0.8119741678237915
1751223260756105500,9.68410546875,9.768579483032227,-0.2910536825656891,0.8127270340919495
1751223260774931700,9.702931640625,9.768091201782227,-0.29362988471984863,0.8176469206809998
1751223260793758200,9.72175830078125,9.767488479614258,-0.2969496548175812,0.8236321806907654
1751223260812584400,9.74058447265625,9.767096519470215,-0.29925474524497986,0.8274484872817993
1751223260831411000,9.759410888671875,9.76663875579834,-0.3010700047016144,0.8321731686592102
1751223260850237200,9.7782373046875,9.766167640686035,-0.3041060268878937,0.836577832698822
1751223260869063700,9.797063720703125,9.766228675842285,-0.30546918511390686,0.8353784680366516
1751223260887890000,9.815889892578125,9.766530990600586,-0.30457738041877747,0.8321614265441895
1751223260906716400,9.83471630859375,9.766810417175293,-0.3045291006565094,0.8288922309875488
1751223260925542700,9.853542724609374,9.767285346984863,-0.3022778034210205,0.8241057395935059
1751223260944369200,9.872369140625,9.767765998840332,-0.3003522753715515,0.819096028804779
1751223260963195400,9.8911953125,9.767809867858887,-0.2994717061519623,0.8189014792442322
1751223260982022000,9.91002197265625,9.767577171325684,-0.29997947812080383,0.8214909434318542
1751223261000848100,9.92884814453125,9.767173767089844,-0.30195438861846924,0.8255470395088196
1751223261019674600,9.947674560546876,9.766900062561035,-0.3043707311153412,0.8279005289077759
1751223261038500900,9.9665009765625,9.7665376663208,-0.3064728379249573,0.8313956260681152
1751223261057327400,9.985327392578125,9.766304016113281,-0.308510959148407,0.833372950553894
1751223261076153600,10.004153564453125,9.766213417053223,-0.30853739380836487,0.834429919719696
1751223261094980000,10.02297998046875,9.76638126373291,-0.3083474040031433,0.8325302600860596
1751223261113806300,10.041806396484375,9.766878128051758,-0.30667874217033386,0.8272995352745056
1751223261132632800,10.0606328125,9.767330169677734,-0.30518579483032227,0.8225011229515076
1751223261151459000,10.079458984375,9.767690658569336,-0.30447885394096375,0.818477988243103
1751223261170285600,10.09828564453125,9.767932891845703,-0.303419828414917,0.8159825205802917
1751223261189111800,10.11711181640625,9.767948150634766,-0.3026748299598694,0.8160556554794312
1751223261207938300,10.135938232421875,9.767518043518066,-0.30398085713386536,0.8207222819328308
1751223261226764500,10.1547646484375,9.766934394836426,-0.3069738447666168,0.8265267014503479
1751223261245590800,10.1735908203125,9.766576766967773,-0.30958306789398193,0.8297722339630127
1751223261264417300,10.192417236328126,9.766571044921875,-0.31082192063331604,0.8293681740760803
1751223261283243800,10.211243896484374,9.766581535339355,-0.3107234835624695,0.8292959928512573
1751223261302070000,10.230070068359375,9.766351699829102,-0.31160110235214233,0.8316601514816284
1751223261320896300,10.248896240234375,9.76595401763916,-0.31374019384384155,0.8355211615562439
1751223261339722800,10.26772265625,9.765525817871094,-0.3156064450740814,0.8398152589797974
1751223261358549000,10.286549072265625,9.765174865722656,-0.31721019744873047,0.8432953953742981
1751223261377375500,10.30537548828125,9.765170097351074,-0.31681522727012634,0.8434879183769226
1751223261396201700,10.32420166015625,9.765268325805664,-0.3158265948295593,0.8427270650863647
1751223261415028200,10.3430283203125,9.764933586120605,-0.31769609451293945,0.845900297164917
1751223261433854500,10.3618544921875,9.764800071716309,-0.3187117874622345,0.8470537066459656
1751223261452681000,10.380680908203125,9.76495361328125,-0.31816595792770386,0.8454834222793579
1751223261471507200,10.399507080078125,9.765542984008789,-0.3155435621738434,0.8396357297897339
1751223261490333700,10.418333740234376,9.766032218933105,-0.3130611479282379,0.8348643779754639
1751223261509160000,10.437159912109376,9.766180038452148,-0.31285610795021057,0.8331971168518066
1751223261527986400,10.455986328125,9.766207695007324,-0.3136579990386963,0.8325813412666321
1751223261546812700,10.474812744140625,9.766287803649902,-0.3140370547771454,0.8314983248710632
1751223261565639200,10.49363916015625,9.766630172729492,-0.3130783438682556,0.8278334140777588
1751223261584465400,10.51246533203125,9.767202377319336,-0.31019386649131775,0.8221367001533508
1751223261603292000,10.5312919921875,9.76754093170166,-0.3081541657447815,0.818888247013092
1751223261622118100,10.5501181640625,9.767688751220703,-0.30819153785705566,0.8170977234840393
1751223261640944400,10.5689443359375,9.767946243286133,-0.3076544404029846,0.8142239451408386
1751223261659771000,10.58777099609375,9.768510818481445,-0.3060435950756073,0.8080414533615112
1751223261678597000,10.60659716796875,9.769172668457031,-0.30350616574287415,0.8009580969810486
1751223261697423600,10.625423583984375,9.769388198852539,-0.30226680636405945,0.798799455165863
1751223261716249900,10.644249755859375,9.768977165222168,-0.30477386713027954,0.8028584718704224
1751223261735076400,10.663076416015626,9.768545150756836,-0.30661600828170776,0.807404637336731
1751223261753902600,10.681902587890624,9.768260955810547,-0.30875164270401,0.8100289106369019
1751223261772729000,10.70072900390625,9.76823616027832,-0.31009963154792786,0.8098161220550537
1751223261791555300,10.719555419921875,9.768261909484863,-0.310899019241333,0.8091771602630615
1751223261810381800,10.7383818359375,9.768404960632324,-0.30976712703704834,0.8078909516334534
1751223261829208000,10.7572080078125,9.76810073852539,-0.31070053577423096,0.8112185597419739
1751223261848034600,10.77603466796875,9.767533302307129,-0.31298670172691345,0.8171384930610657
1751223261866860800,10.79486083984375,9.767182350158691,-0.3139749765396118,0.8209415078163147
1751223261885687300,10.813687255859374,9.766950607299805,-0.31494975090026855,0.8233293890953064
1751223261904513500,10.832513427734375,9.76677417755127,-0.3156895637512207,0.8251410126686096
1751223261923339800,10.85133984375,9.766314506530762,-0.31784510612487793,0.8297387361526489
1751223261942166300,10.870166259765625,9.765886306762695,-0.3198550045490265,0.8340014219284058
1751223261960992500,10.888992431640625,9.76572322845459,-0.3213872015476227,0.8353022336959839
1751223261979819000,10.907819091796876,9.765995025634766,-0.32116276025772095,0.8322228193283081
1751223261998645200,10.926645263671874,9.76630973815918,-0.31963402032852173,0.8291155695915222
1751223262017471700,10.9454716796875,9.766157150268555,-0.32071661949157715,0.8304848074913025
1751223262036298000,10.964298095703125,9.766151428222656,-0.32185834646224976,0.830110490322113
1751223262055124500,10.98312451171875,9.766328811645508,-0.3210422992706299,0.828338086605072
1751223262073950700,11.00195068359375,9.766375541687012,-0.32155826687812805,0.8275824189186096
1751223262092777200,11.020777099609376,9.766432762145996,-0.3216657340526581,0.8268744349479675
1751223262111603500,11.039603515625,9.766693115234375,-0.3215886056423187,0.823824405670166
1751223262130430000,11.058429931640624,9.767231941223145,-0.3205863833427429,0.8177985548973083
1751223262149256200,11.077256103515625,9.767406463623047,-0.31899166107177734,0.8163273334503174
1751223262168082400,11.09608251953125,9.766858100891113,-0.3219519853591919,0.8217041492462158
1751223262186909000,11.114908935546875,9.766297340393066,-0.324499249458313,0.827365517616272
1751223262205735200,11.133735107421876,9.76624870300293,-0.32447972893714905,0.8279357552528381
1751223262224561700,11.152561767578124,9.766271591186523,-0.3252834677696228,0.8273574709892273
1751223262243388000,11.171387939453124,9.766215324401855,-0.325592041015625,0.8278881311416626
1751223262262214400,11.19021435546875,9.766270637512207,-0.3260249197483063,0.8270686268806458
1751223262281040600,11.20904052734375,9.766610145568848,-0.32580775022506714,0.8231356143951416
1751223262299867100,11.2278671875,9.76731014251709,-0.3234342038631439,0.8157362341880798
1751223262328106500,11.2561064453125,9.768472671508789,-0.32102128863334656,0.8026723265647888
1751223262346933000,11.27493310546875,9.769331932067871,-0.3177569806575775,0.7934620976448059
1751223262365759200,11.29375927734375,9.769713401794434,-0.31745263934135437,0.7888585329055786
1751223262384585700,11.312585693359376,9.769893646240234,-0.31794390082359314,0.7864394187927246
1751223262403412000,11.331411865234376,9.770108222961426,-0.31737956404685974,0.783989667892456
1751223262422238500,11.350238525390624,9.770085334777832,-0.31803399324417114,0.7840089201927185
1751223262441064700,11.369064697265625,9.769898414611816,-0.3166883587837219,0.7868828177452087
1751223262459891200,11.38789111328125,9.769305229187012,-0.3180520236492157,0.7936549186706543
1751223262478717400,11.406717529296875,9.76880168914795,-0.3204379081726074,0.7988842725753784
1751223262497544000,11.4255439453125,9.768684387207031,-0.32134515047073364,0.7999522686004639
1751223262516370200,11.4443701171875,9.768620491027832,-0.3219221234321594,0.8004970550537109
1751223262535196700,11.46319677734375,9.768691062927246,-0.3221914768218994,0.7995399832725525
1751223262554023000,11.48202294921875,9.768961906433105,-0.32125961780548096,0.7965941429138184
1751223262572849200,11.50084912109375,9.769416809082031,-0.32050514221191406,0.7913102507591248
1751223262591675600,11.519675537109375,9.769963264465332,-0.31986919045448303,0.7847806811332703
1751223262610502000,11.538501953125,9.770489692687988,-0.31804507970809937,0.7789459228515625
1751223262629328400,11.557328369140626,9.771050453186035,-0.3163876235485077,0.7725751399993896
1751223262648154600,11.576154541015624,9.771132469177246,-0.3161645531654358,0.7716258764266968
1751223262666981000,11.594981201171874,9.77090072631836,-0.3172455132007599,0.7741089463233948
1751223262685807400,11.613807373046875,9.770602226257324,-0.3185855448246002,0.7773017287254333
1751223262704633900,11.6326337890625,9.7703218460083,-0.3193802535533905,0.7805002927780151
1751223262723460000,11.651460205078125,9.770015716552734,-0.3211800754070282,0.7835986018180847
1751223262742286600,11.67028662109375,9.769515037536621,-0.32328543066978455,0.7889500856399536
1751223262761112800,11.68911279296875,9.768978118896484,-0.3255590498447418,0.7946452498435974
1751223262779939000,11.70793896484375,9.768669128417969,-0.3272911608219147,0.7977372407913208
1751223262798765600,11.726765625,9.768576622009277,-0.3274807631969452,0.7987760901451111
1751223262817591800,11.745591796875,9.76841926574707,-0.3286416828632355,0.8002339601516724
1751223262836418300,11.764418212890625,9.768396377563477,-0.3285387456417084,0.8005452156066895
1751223262855244500,11.78324462890625,9.768728256225586,-0.32641640305519104,0.7973615527153015
1751223262874071000,11.802071044921876,9.7689790725708,-0.32554876804351807,0.7946341037750244
1751223262892897300,11.820897216796874,9.76932144165039,-0.32432591915130615,0.7909281253814697
1751223262911723800,11.839723876953125,9.769637107849121,-0.32386866211891174,0.787199079990387
1751223262930550000,11.858550048828125,9.770041465759277,-0.3228034973144531,0.7826144695281982
1751223262949376500,11.87737646484375,9.77038860321045,-0.32125455141067505,0.778893768787384
1751223262968202800,11.89620263671875,9.770633697509766,-0.3190390467643738,0.7767375707626343
1751223262987029200,11.915029296875,9.770730018615723,-0.31567010283470154,0.7769038677215576
1751223263005855500,11.93385546875,9.7701997756958,-0.31301918625831604,0.7846139669418335
1751223263024681700,11.952681640625,9.77029037475586,-0.31042417883872986,0.7845012545585632
1751223263043508200,11.97150830078125,9.770033836364746,-0.313645601272583,0.7864116430282593
1751223263062334500,11.99033447265625,9.767633438110352,-0.32349884510040283,0.811842143535614
1751223263081161000,12.009160888671875,9.767770767211914,-0.3227812945842743,0.8104686141014099
1751223263099987200,12.0279873046875,9.768647193908691,-0.3179176449775696,0.8017783164978027
1751223263118813700,12.046813720703126,9.76801586151123,-0.3197135329246521,0.8087297677993774
1751223263137640000,12.065639892578124,9.767861366271973,-0.3208328187465668,0.8101479411125183
1751223263156466400,12.084466552734375,9.768265724182129,-0.3177262246608734,0.8064835667610168
1751223263175292700,12.103292724609375,9.768047332763672,-0.31882303953170776,0.8086917400360107
1751223263194119000,12.122118896484375,9.767770767211914,-0.31945136189460754,0.8117826581001282
1751223263212945400,12.1409453125,9.767923355102539,-0.31840500235557556,0.8103474974632263
1751223263231771600,12.159771728515626,9.767904281616211,-0.31837865710258484,0.8106002807617188
1751223263250598100,12.17859814453125,9.76780891418457,-0.31871846318244934,0.8116110563278198
1751223263269424400,12.19742431640625,9.767894744873047,-0.3180471956729889,0.8108428120613098
1751223263288251000,12.2162509765625,9.767914772033691,-0.3178781569004059,0.8106754422187805
1751223263307077000,12.2350771484375,9.767804145812988,-0.3180203437805176,0.8119447827339172
1751223263325903600,12.253903564453125,9.767786979675293,-0.317868173122406,0.8122069835662842
1751223263344729900,12.272729736328126,9.767744064331055,-0.31818580627441406,0.8126116394996643
1751223263363556000,12.29155615234375,9.767685890197754,-0.31847307085990906,0.8131977915763855
1751223263382382600,12.310382568359374,9.767709732055664,-0.31820258498191833,0.81300288438797
1751223263401208800,12.329208740234375,9.767739295959473,-0.3183359205722809,0.8125956654548645
1751223263420035300,12.348035400390625,9.767695426940918,-0.3185342848300934,0.8130537271499634
1751223263438861600,12.366861572265625,9.76768684387207,-0.3182453513145447,0.8132666349411011
1751223263457688000,12.38568798828125,9.767638206481934,-0.3183560073375702,0.8138079643249512
1751223263476514300,12.404514404296876,9.767579078674316,-0.3185597360134125,0.8144422173500061
1751223263495340800,12.4233408203125,9.767570495605469,-0.31852811574935913,0.8145463466644287
1751223263514167000,12.4421669921875,9.767599105834961,-0.3180427849292755,0.8144075870513916
1751223263532993300,12.4609931640625,9.76761531829834,-0.3176780045032501,0.814353883266449
1751223263551819800,12.47981982421875,9.76762580871582,-0.31741029024124146,0.8143252730369568
1751223263570646000,12.49864599609375,9.767608642578125,-0.3172360360622406,0.8146060705184937
1751223263589472500,12.517472412109376,9.767558097839355,-0.31707027554512024,0.8152696490287781
1751223263608298800,12.536298828125,9.767513275146484,-0.3174508810043335,0.8156617879867554
1751223263627125200,12.555125244140624,9.767524719238281,-0.31743353605270386,0.8155287504196167
1751223263645951500,12.573951416015625,9.7675199508667,-0.31716638803482056,0.8156789541244507
1751223263664778000,12.592778076171875,9.767532348632812,-0.31706464290618896,0.8155868649482727
1751223263683604200,12.611604248046875,9.767496109008789,-0.31704652309417725,0.8160221576690674
1751223263702430500,12.630430419921876,9.767498970031738,-0.31696781516075134,0.816010057926178
1751223263721257000,12.649257080078126,9.767474174499512,-0.31716251373291016,0.8162403702735901
1751223263740083200,12.668083251953124,9.767465591430664,-0.31714269518852234,0.8163443207740784
1751223263758909700,12.68690966796875,9.767483711242676,-0.3170410394668579,0.8161702752113342
1751223263777736000,12.70573583984375,9.767472267150879,-0.3171059489250183,0.8162826299667358
1751223263796562400,12.7245625,9.767412185668945,-0.3172341287136078,0.81694495677948
1751223263815388700,12.743388671875,9.767579078674316,-0.3164486587047577,0.8152583241462708
1751223263834215200,12.762215087890626,9.768470764160156,-0.31175467371940613,0.8063295483589172
1751223263853041400,12.78104150390625,9.769868850708008,-0.3045279383659363,0.7920396327972412
1751223263871867600,12.79986767578125,9.770886421203613,-0.2995854318141937,0.7812844514846802
1751223263890694100,12.818694091796875,9.770265579223633,-0.3045459985733032,0.7871241569519043
1751223263909520400,12.837520263671875,9.769207954406738,-0.31103354692459106,0.7976263761520386
1751223263928347000,12.856346923828125,9.769145011901855,-0.3091500997543335,0.7991432547569275
1751223263947173000,12.875173095703126,9.769120216369629,-0.30761539936065674,0.8000354766845703
1751223263965999600,12.89399951171875,9.769302368164062,-0.3054127097129822,0.7986495494842529
1751223263984825900,12.912825927734374,9.769831657409668,-0.3029707074165344,0.7930848598480225
1751223264003652400,12.93165234375,9.76924991607666,-0.307760626077652,0.7983835339546204
1751223264022478600,12.950478515625,9.767495155334473,-0.31757354736328125,0.8158217072486877
1751223264041304800,12.969304931640625,9.765323638916016,-0.32824376225471497,0.8373202681541443
1751223264060131300,12.98813134765625,9.76371955871582,-0.3363822400569916,0.8526439666748047
1751223264078957600,13.00695751953125,9.763090133666992,-0.3402283191680908,0.8583199977874756
1751223264097784000,13.0257841796875,9.763052940368652,-0.34406107664108276,0.857212245464325
1751223264116610300,13.0446103515625,9.763545036315918,-0.3443613350391388,0.8514636754989624
1751223264135436800,13.063436767578125,9.764219284057617,-0.34276628494262695,0.8443564176559448
1751223264154263000,13.082262939453125,9.765108108520508,-0.3389380872249603,0.8355728983879089
1751223264173089300,13.10108935546875,9.765145301818848,-0.33935314416885376,0.8349589705467224
1751223264191915800,13.119915771484376,9.764372825622559,-0.3442505896091461,0.8419695496559143
1751223264210742000,13.138741943359374,9.763672828674316,-0.34851697087287903,0.8483036160469055
1751223264229568500,13.157568603515625,9.763287544250488,-0.35159605741500854,0.8514705896377563
1751223264248394800,13.176394775390625,9.762828826904297,-0.3538613021373749,0.8557608723640442
1751223264267221200,13.19522119140625,9.761575698852539,-0.36062002182006836,0.8671600222587585
1751223264286047500,13.214047607421875,9.759830474853516,-0.36932292580604553,0.8830147981643677
1751223264304874000,13.2328740234375,9.758828163146973,-0.3753374516963959,0.8914986848831177
1751223264323700200,13.2517001953125,9.758934020996094,-0.37707769870758057,0.889610767364502
1751223264342526500,13.2705263671875,9.759464263916016,-0.37781697511672974,0.8834574818611145
1751223264361353000,13.28935302734375,9.760324478149414,-0.3752412497997284,0.8750129342079163
1751223264380179200,13.30817919921875,9.761236190795898,-0.37214067578315735,0.866115927696228
1751223264399005700,13.327005615234375,9.761746406555176,-0.37081778049468994,0.8609246611595154
1751223264417832000,13.34583203125,9.76207447052002,-0.3700324594974518,0.8575325608253479
1751223264436658200,13.364658203125,9.762221336364746,-0.36939457058906555,0.856141984462738
1751223264455484700,13.383484619140624,9.762207984924316,-0.3699181377887726,0.8560587763786316
1751223264474311000,13.402310791015625,9.762426376342773,-0.36917200684547424,0.8538914322853088
1751223264493137400,13.421137451171875,9.762775421142578,-0.36835935711860657,0.8502495288848877
1751223264511963600,13.439963623046875,9.76326847076416,-0.36610445380210876,0.8455424904823303
1751223264530790100,13.4587900390625,9.763772964477539,-0.3637617230415344,0.8407076001167297
1751223264549616400,13.477616455078126,9.764138221740723,-0.361959844827652,0.8372455835342407
1751223264568443000,13.49644287109375,9.764358520507812,-0.360669881105423,0.8352154493331909
1751223264587269000,13.51526904296875,9.76447868347168,-0.3599547743797302,0.8341370820999146
1751223264606095400,13.534095458984375,9.764908790588379,-0.35841917991638184,0.8297463059425354
1751223264624921900,13.552921875,9.765254020690918,-0.3569502830505371,0.8263065218925476
1751223264643748000,13.571748046875,9.76564884185791,-0.354510098695755,0.8226973414421082
1751223264662574600,13.59057470703125,9.765868186950684,-0.35358884930610657,0.8204807043075562
1751223264681400800,13.60940087890625,9.766144752502441,-0.35269761085510254,0.8175646066665649
1751223264700227000,13.62822705078125,9.76667594909668,-0.34996864199638367,0.8123643398284912
1751223264719053600,13.647053466796875,9.767213821411133,-0.3473568558692932,0.8070136308670044
1751223264737879800,13.6658798828125,9.767622947692871,-0.3458218574523926,0.8027080297470093
1751223264756706300,13.684706298828125,9.767826080322266,-0.3446405231952667,0.800735592842102
1751223264775532500,13.703532470703125,9.767943382263184,-0.3428223729133606,0.8000833988189697
1751223264794359000,13.722359130859376,9.767948150634766,-0.3420161008834839,0.8003756403923035
1751223264813185300,13.741185302734374,9.767824172973633,-0.3420470058917999,0.8018707633018494
1751223264832011500,13.760011474609374,9.767766952514648,-0.34275463223457336,0.8022633194923401
1751223264850838000,13.778838134765625,9.767927169799805,-0.34275636076927185,0.8003106117248535
1751223264869664300,13.797664306640625,9.767877578735352,-0.3428518772125244,0.8008902072906494
1751223264888490800,13.81649072265625,9.767556190490723,-0.3449510633945465,0.8038966059684753
1751223264907317000,13.83531689453125,9.767130851745605,-0.34674811363220215,0.8082792162895203
1751223264926143500,13.8541435546875,9.766706466674805,-0.34929952025413513,0.8122861385345459
1751223264944969700,13.8729697265625,9.765969276428223,-0.3537214696407318,0.8192123770713806
1751223264963796000,13.8917958984375,9.765279769897461,-0.357960045337677,0.8255683779716492
1751223264982622500,13.91062255859375,9.765082359313965,-0.3592671751976013,0.8273432850837708
1751223265001448700,13.92944873046875,9.765361785888672,-0.35806140303611755,0.8245478272438049
1751223265020275200,13.948275146484375,9.765617370605469,-0.3576716482639313,0.8216933012008667
1751223265039101400,13.967101318359376,9.765708923339844,-0.3575294613838196,0.820672869682312
1751223265057928000,13.985927978515624,9.765667915344238,-0.3578518331050873,0.8210101127624512
1751223265076754200,14.004754150390625,9.765251159667969,-0.3599008619785309,0.8250659108161926
1751223265095580400,14.023580322265625,9.764899253845215,-0.36145642399787903,0.8285387754440308
1751223265114407000,14.042406982421875,9.76463794708252,-0.36241573095321655,0.8312005996704102
1751223265133233200,14.061233154296875,9.764892578125,-0.36132073402404785,0.8286830186843872
1751223265152059600,14.0800595703125,9.765701293945312,-0.35868358612060547,0.820244312286377
1751223265170886000,14.098885986328124,9.76658821105957,-0.35559606552124023,0.81098872423172
1751223265189712100,14.117712158203124,9.767130851745605,-0.3536120355129242,0.8052991628646851
1751223265208538600,14.13653857421875,9.767516136169434,-0.35132938623428345,0.80161452293396
1751223265227364900,14.15536474609375,9.768026351928711,-0.3493751585483551,0.7962361574172974
1751223265246191400,14.17419140625,9.768631935119629,-0.3466877043247223,0.7899560332298279
1751223265265017600,14.193017578125,9.769166946411133,-0.344210147857666,0.7844099402427673
1751223265283843800,14.21184375,9.769437789916992,-0.34279394149780273,0.7816401124000549
1751223265302670300,14.23067041015625,9.769594192504883,-0.34221726655960083,0.7799412608146667
1751223265321496600,14.24949658203125,9.769694328308105,-0.3417755961418152,0.7788779735565186
1751223265340323000,14.268322998046875,9.769495964050293,-0.3419572412967682,0.7812852263450623
1751223265359149300,14.2871494140625,9.769269943237305,-0.3421034812927246,0.7840441465377808
1751223265377975800,14.305975830078125,9.769176483154297,-0.342121422290802,0.7851952314376831
1751223265396802000,14.324802001953126,9.769076347351074,-0.3425862789154053,0.7862351536750793
1751223265415628300,14.343628173828124,9.768726348876953,-0.3445488214492798,0.7897139191627502
1751223265434454800,14.362454833984375,9.768030166625977,-0.3481464385986328,0.7967140078544617
1751223265453281000,14.381281005859375,9.767317771911621,-0.35152941942214966,0.8039372563362122
1751223265472107500,14.400107421875,9.766843795776367,-0.35393381118774414,0.8086321949958801
1751223265490933800,14.418933837890625,9.766502380371094,-0.3548354208469391,0.812345564365387
1751223265509760000,14.437760009765626,9.766201972961426,-0.35603848099708557,0.8154203295707703
1751223265528586500,14.45658642578125,9.766230583190918,-0.3568500876426697,0.8147310614585876
1751223265547412700,14.475412841796874,9.76647663116455,-0.3561321794986725,0.8120871186256409
1751223265566239200,14.4942392578125,9.767060279846191,-0.3553289771080017,0.8053939342498779
1751223265585065500,14.5130654296875,9.767960548400879,-0.3516208529472351,0.7960442900657654
1751223265603892000,14.53189208984375,9.768898963928223,-0.34743329882621765,0.7863181233406067
1751223265622718200,14.55071826171875,9.769474029541016,-0.3446182310581207,0.7803879976272583
1751223265641544400,14.56954443359375,9.76937484741211,-0.34489497542381287,0.7814942598342896
1751223265660371000,14.588370849609374,9.769073486328125,-0.3458905518054962,0.7848297357559204
1751223265679197200,14.607197265625,9.768994331359863,-0.34626510739326477,0.7856571078300476
1751223265698023700,14.626023681640625,9.769064903259277,-0.3467561602592468,0.7845463156700134
1751223265716850000,14.644849853515625,9.769388198852539,-0.34550225734710693,0.7810733318328857
1751223265735676200,14.66367626953125,9.769811630249023,-0.34358683228492737,0.7765958309173584
1751223265754502700,14.682502685546876,9.770087242126465,-0.34218499064445496,0.7737573981285095
1751223265773329000,14.701328857421874,9.769744873046875,-0.34429097175598145,0.7771291732788086
1751223265792155400,14.7201552734375,9.769132614135742,-0.347389817237854,0.7834339737892151
1751223265810981600,14.738981689453125,9.769017219543457,-0.34811797738075256,0.7845386862754822
1751223265829807900,14.757807861328125,9.769719123840332,-0.3444678485393524,0.7773764133453369
1751223265848634400,14.77663427734375,9.770934104919434,-0.3393123149871826,0.7642683386802673
1751223265867460600,14.795460693359376,9.772099494934082,-0.3341832458972931,0.7515292167663574
1751223265886287000,14.814287109375,9.77285099029541,-0.33093395829200745,0.7431426644325256
1751223265905113300,14.83311328125,9.773224830627441,-0.32845988869667053,0.7393134236335754
1751223265923939600,14.851939697265625,9.77354621887207,-0.32675856351852417,0.7358063459396362
1751223265942766000,14.87076611328125,9.773696899414062,-0.3262070119380951,0.7340387105941772
1751223265961592300,14.88959228515625,9.773691177368164,-0.3257269859313965,0.7343282103538513
1751223265980418800,14.908418701171875,9.773664474487305,-0.3251061737537384,0.7349636554718018
1751223265999245000,14.9272451171875,9.773555755615234,-0.3255380094051361,0.7362200617790222
1751223266018071300,14.9460712890625,9.773053169250488,-0.32859498262405396,0.7415077090263367
1751223266036897800,14.964897705078124,9.772173881530762,-0.3327973783016205,0.7511721253395081
1751223266055724000,14.98372412109375,9.771166801452637,-0.3381213843822479,0.7618184089660645
1751223266074550500,15.002550537109375,9.770524978637695,-0.34138232469558716,0.7685609459877014
1751223266093376800,15.021376708984375,9.770295143127441,-0.3421403765678406,0.7711453437805176
1751223266112203000,15.040203125,9.770224571228027,-0.34337669610977173,0.7714892029762268
1751223266131029500,15.059029541015626,9.770370483398438,-0.3435770273208618,0.7695606350898743
1751223266149855700,15.077855712890624,9.770573616027832,-0.34430330991744995,0.7666388750076294
1751223266168682200,15.09668212890625,9.770771980285645,-0.34555554389953613,0.7635347843170166
1751223266187508500,15.115508544921875,9.770846366882324,-0.3459952175617218,0.7623938918113708
1751223266206335000,15.1343349609375,9.770843505859375,-0.3467963635921478,0.762062668800354
1751223266225161200,15.1531611328125,9.770998001098633,-0.34551936388015747,0.7606554627418518
1751223266243987500,15.171987548828126,9.771211624145508,-0.3440456986427307,0.7585811614990234
1751223266262814000,15.19081396484375,9.771245002746582,-0.3445580005645752,0.7579227089881897
1751223266281640200,15.20964013671875,9.7711763381958,-0.346479594707489,0.7579340934753418
1751223266300466700,15.228466796875,9.771184921264648,-0.3469361662864685,0.7576049566268921
1751223266319293000,15.24729296875,9.771347045898438,-0.34724244475364685,0.7553672194480896
1751223266338119200,15.266119140625,9.771939277648926,-0.34382250905036926,0.7492482662200928
1751223266356945700,15.284945556640626,9.772340774536133,-0.3420196771621704,0.7448287010192871
1751223266375772000,15.30377197265625,9.772530555725098,-0.3411559462547302,0.7427363395690918
1751223266394598400,15.322598388671874,9.77267837524414,-0.3401017487049103,0.7412662506103516
1751223266413424600,15.341424560546875,9.772899627685547,-0.3385242819786072,0.7390652894973755
1751223266432251000,15.3602509765625,9.773089408874512,-0.33708319067955017,0.7372131943702698
1751223266451077400,15.379077392578125,9.773118019104004,-0.3361716866493225,0.7372481822967529
1751223266469903600,15.397903564453125,9.772970199584961,-0.3365531861782074,0.7390435338020325
1751223266488730000,15.416730224609376,9.772669792175293,-0.3380233347415924,0.7423189282417297
1751223266507556400,15.435556396484374,9.772507667541504,-0.33878278732299805,0.7441121339797974
1751223266526382600,15.454382568359375,9.772481918334961,-0.3386020362377167,0.7445393204689026
1751223266545209000,15.473208984375,9.772563934326172,-0.33823347091674805,0.7436379790306091
1751223266564035300,15.492035400390625,9.772650718688965,-0.33791396021842957,0.7426219582557678
1751223266582861800,15.51086181640625,9.77258014678955,-0.338373064994812,0.7433520555496216
1751223266601688000,15.52968798828125,9.772431373596191,-0.3388087749481201,0.7451040744781494
1751223266620514300,15.548514404296874,9.772295951843262,-0.33902573585510254,0.7467750906944275
1751223266639340800,15.5673408203125,9.772504806518555,-0.33861711621284485,0.7442362904548645
1751223266658167000,15.5861669921875,9.772790908813477,-0.33699291944503784,0.741195023059845
1751223266676993300,15.6049931640625,9.773004531860352,-0.3367547392845154,0.7384791374206543
1751223266695819800,15.62381982421875,9.773097038269043,-0.3367036283016205,0.7372946739196777
1751223266714646000,15.64264599609375,9.773063659667969,-0.33734822273254395,0.737442135810852
1751223266733472500,15.661472412109376,9.773019790649414,-0.3375401794910431,0.7379319667816162
1751223266752298800,15.680298828125,9.77304744720459,-0.3378402590751648,0.7374342679977417
1751223266771125000,15.699125,9.773118019104004,-0.3378014862537384,0.7364994287490845
1751223266789951500,15.717951416015625,9.77316951751709,-0.3387841284275055,0.7353753447532654
1751223266808777700,15.73677783203125,9.77319622039795,-0.338474303483963,0.7351568937301636
1751223266827604200,15.755604248046875,9.7732515335083,-0.33874809741973877,0.734299898147583
1751223266846430500,15.774430419921876,9.773552894592285,-0.33701643347740173,0.731065034866333
1751223266865256700,15.793256591796874,9.774110794067383,-0.33470168709754944,0.724653422832489
1751223266884083200,15.812083251953124,9.774478912353516,-0.3330610990524292,0.7204343676567078
1751223266902909400,15.830909423828125,9.774731636047363,-0.3318600058555603,0.7175576090812683
1751223266921736000,15.84973583984375,9.77489185333252,-0.33110183477401733,0.71571946144104
1751223266940562200,15.868562255859375,9.7748441696167,-0.33102160692214966,0.7163898944854736
1751223266959388400,15.887388427734376,9.77481460571289,-0.33110737800598145,0.7167600989341736
1751223266978215000,15.90621484375,9.774819374084473,-0.3303626775741577,0.7170458436012268
1751223266997041200,15.925041259765624,9.774715423583984,-0.33037662506103516,0.7184568643569946
1751223267015867600,15.94386767578125,9.77458381652832,-0.33123621344566345,0.7198424935340881
1751223267034694000,15.96269384765625,9.774356842041016,-0.33300331234931946,0.7221183776855469
1751223267053520100,15.98152001953125,9.774091720581055,-0.3348846435546875,0.7248217463493347
1751223267072346600,16.0003466796875,9.773821830749512,-0.336302250623703,0.7278087139129639
1751223267091172900,16.0191728515625,9.77362060546875,-0.33657705783843994,0.7303778529167175
1751223267109999000,16.0379990234375,9.773486137390137,-0.33656224608421326,0.7321786880493164
1751223267128825600,16.05682568359375,9.7734956741333,-0.33648428320884705,0.7320910692214966
1751223267147651800,16.07565185546875,9.773493766784668,-0.33704909682273865,0.7318540811538696
1751223267175891500,16.103891357421876,9.773536682128906,-0.33740371465682983,0.731111466884613
1751223267194717700,16.1227177734375,9.77358627319336,-0.33685314655303955,0.7307106256484985
1751223267213544200,16.141544189453125,9.77361011505127,-0.33696436882019043,0.7303350567817688
1751223267232370400,16.160370361328123,9.773940086364746,-0.3352534770965576,0.726706326007843
1751223267251196700,16.17919677734375,9.77440357208252,-0.3334912359714508,0.7212483882904053
1751223267270023200,16.198023193359376,9.774945259094238,-0.33108535408973694,0.7149832844734192
1751223267288849400,16.216849365234374,9.775335311889648,-0.3297621011734009,0.7102495431900024
1751223267307676000,16.235676025390624,9.775487899780273,-0.3291902542114258,0.7084165811538696
1751223267326502100,16.254502197265627,9.775496482849121,-0.32953813672065735,0.7081326246261597
1751223267345328400,16.273328369140625,9.7753267288208,-0.3305834233760834,0.7100004553794861
1751223267364155000,16.29215478515625,9.775422096252441,-0.33079883456230164,0.708580732345581
1751223267382981000,16.310981201171874,9.775607109069824,-0.3305031955242157,0.706169843673706
1751223267401807400,16.329807373046876,9.775686264038086,-0.33083948493003845,0.7048951983451843
1751223267420633900,16.3486337890625,9.775458335876465,-0.3319447338581085,0.7075403928756714
1751223267439460000,16.367460205078125,9.775141716003418,-0.3338151276111603,0.7110341787338257
1751223267458286600,16.38628662109375,9.774882316589355,-0.3356819152832031,0.7137114405632019
1751223267477112800,16.40511279296875,9.774569511413574,-0.33770596981048584,0.7170301079750061
1751223267495939000,16.42393896484375,9.77442455291748,-0.33872631192207336,0.7185347676277161
1751223267514765600,16.442765625,9.774340629577637,-0.3396834135055542,0.7192097902297974
1751223267533591800,16.461591796875,9.774212837219238,-0.3411889672279358,0.7202409505844116
1751223267552418300,16.480418212890626,9.774030685424805,-0.3422844409942627,0.7221912145614624
1751223267571244500,16.49924462890625,9.773799896240234,-0.3432809114456177,0.7248353958129883
1751223267590070800,16.51807080078125,9.773632049560547,-0.34353476762771606,0.7269805073738098
1751223267608897300,16.536897216796874,9.773429870605469,-0.344966858625412,0.7290043830871582
1751223267627723500,16.5557236328125,9.773542404174805,-0.343699187040329,0.7281123995780945
1751223267646549800,16.5745498046875,9.773865699768066,-0.3420541286468506,0.7245297431945801
1751223267665376300,16.593376220703124,9.774369239807129,-0.3400399386882782,0.7186520099639893
1751223267684202500,16.612202392578126,9.774810791015625,-0.33841079473495483,0.7134117484092712
1751223267712442000,16.640442138671876,9.775130271911621,-0.337835431098938,0.7092811465263367
1751223267731268400,16.659268310546874,9.775139808654785,-0.338407039642334,0.7088720202445984
1751223267750094800,16.6780947265625,9.775152206420898,-0.3394157588481903,0.7082200646400452
1751223267768921000,16.696921142578127,9.775036811828613,-0.3403676450252533,0.7093534469604492
1751223267787747300,16.715747314453125,9.77473258972168,-0.3417721390724182,0.7128708362579346
1751223267806573800,16.73457373046875,9.774473190307617,-0.34345951676368713,0.7155994772911072
1751223267825400000,16.753400146484374,9.774575233459473,-0.3434446454048157,0.7142214775085449
1751223267844226300,16.772226318359376,9.774911880493164,-0.3425981104373932,0.710020899772644
1751223267863052800,16.791052734375,9.775470733642578,-0.3399895429611206,0.7035508751869202
1751223267881879000,16.809879150390625,9.776029586791992,-0.33781105279922485,0.6967778205871582
1751223267900705500,16.82870556640625,9.776394844055176,-0.3371560871601105,0.6919724941253662
1751223267919531800,16.84753173828125,9.776893615722656,-0.335602730512619,0.6856489777565002
1751223267938358000,16.86635791015625,9.777566909790039,-0.3333326578140259,0.677100658416748
1751223267957184500,16.8851845703125,9.77823257446289,-0.33032354712486267,0.668917179107666
1751223267976010800,16.9040107421875,9.77876091003418,-0.3276692032814026,0.662464439868927
1751223267994837000,16.9228369140625,9.77894401550293,-0.3264819383621216,0.6603311896324158
1751223268013663500,16.94166357421875,9.779041290283203,-0.3261813819408417,0.6590520739555359
1751223268032489700,16.96048974609375,9.779208183288574,-0.32539859414100647,0.6569544076919556
1751223268051316200,16.979316162109374,9.779328346252441,-0.32487019896507263,0.6554269194602966
1751223268070142500,16.998142578125,9.779281616210938,-0.32562193274497986,0.6557424068450928
1751223268088968700,17.01696875,9.779304504394531,-0.3262307941913605,0.6551157236099243
1751223268107795200,17.035795166015625,9.779169082641602,-0.3275066316127777,0.6564896106719971
1751223268126621400,17.054621337890627,9.77902603149414,-0.3284086287021637,0.6581679582595825
1751223268145447700,17.07344775390625,9.778899192810059,-0.32926735281944275,0.6596103310585022
1751223268164274200,17.092274169921875,9.778841972351074,-0.3297167718410492,0.6602436304092407
1751223268183100400,17.111100341796874,9.778783798217773,-0.3295976519584656,0.6611788868904114
1751223268201926700,17.1299267578125,9.778579711914062,-0.33032694458961487,0.6638102531433105
1751223268220753200,17.148753173828126,9.778282165527344,-0.3321773111820221,0.6672683358192444
1751223268239579400,17.167579345703125,9.777935981750488,-0.33407142758369446,0.6713950634002686
1751223268258406000,17.186406005859375,9.777565956115723,-0.33617135882377625,0.6757102608680725
1751223268277232000,17.205232177734374,9.777384757995605,-0.33818572759628296,0.6773204803466797
1751223268296058400,17.224058349609376,9.77737808227539,-0.33820000290870667,0.6774009466171265
1751223268314884900,17.242884765625,9.77719783782959,-0.339298278093338,0.6794595718383789
1751223268333711000,17.261711181640624,9.77705192565918,-0.3402057886123657,0.6811092495918274
1751223268352537600,17.28053759765625,9.776988983154297,-0.33978885412216187,0.6822057962417603
1751223268371363800,17.29936376953125,9.776963233947754,-0.34060075879096985,0.6821772456169128
1751223268390190000,17.318190185546875,9.777059555053711,-0.3405998945236206,0.68080073595047
1751223268418429700,17.3464296875,9.77734661102295,-0.3398430347442627,0.6770468354225159
1751223268437256000,17.365255859375,9.777420043945312,-0.33925125002861023,0.6762889623641968
1751223268456082400,17.38408251953125,9.777222633361816,-0.3399258852005005,0.6787848472595215
1751223268474908700,17.40290869140625,9.776935577392578,-0.34118419885635376,0.6822827458381653
1751223268493735000,17.42173486328125,9.776517868041992,-0.3432590663433075,0.6872156858444214
1751223268512561400,17.4405615234375,9.776019096374512,-0.3455551564693451,0.6931257247924805
1751223268531387600,17.4593876953125,9.775419235229492,-0.3480542302131653,0.7002943754196167
1751223268550214100,17.478214111328125,9.774677276611328,-0.3512985408306122,0.7089781761169434
1751223268569040400,17.497040283203123,9.773783683776855,-0.3552674949169159,0.7192508578300476
1751223268587866600,17.51586669921875,9.773070335388184,-0.35818472504615784,0.7274512052536011
1751223268606693000,17.534693115234376,9.772537231445312,-0.3603018820285797,0.7335442900657654
1751223268625519400,17.553519287109374,9.772263526916504,-0.3613707423210144,0.7366631627082825
1751223268644345600,17.572345703125,9.772123336791992,-0.3618723452091217,0.7382743954658508
1751223268672585200,17.600585205078126,9.772212982177734,-0.3621397614479065,0.7369481921195984
1751223268691411500,17.619411376953124,9.77242374420166,-0.3616771996021271,0.7343643307685852
1751223268710238000,17.638238037109375,9.772706985473633,-0.3612598180770874,0.7308030128479004
1751223268729064200,17.657064208984377,9.772933959960938,-0.3599557876586914,0.7284198999404907
1751223268747890400,17.675890380859375,9.773009300231934,-0.3590784966945648,0.7278300523757935
1751223268766717000,17.694717041015625,9.77296257019043,-0.3587881624698639,0.7286057472229004
1751223268785543200,17.713543212890624,9.772782325744629,-0.35964205861091614,0.7306002974510193
1751223268804369700,17.73236962890625,9.772637367248535,-0.359881192445755,0.7324230670928955
1751223268823196000,17.75119580078125,9.77258014678955,-0.36001649498939514,0.733113706111908
1751223268842022100,17.770022216796875,9.772560119628906,-0.35992464423179626,0.7334283590316772
1751223268860848600,17.7888486328125,9.77285385131836,-0.35841184854507446,0.7302395105361938
1751223268879675000,17.8076748046875,9.773127555847168,-0.35686346888542175,0.7273334860801697
1751223268898501000,17.826501220703125,9.773324966430664,-0.35541537404060364,0.725395679473877
1751223268917327600,17.84532763671875,9.773383140563965,-0.35549476742744446,0.7245694994926453
1751223268936153900,17.86415380859375,9.773515701293945,-0.35480040311813354,0.7231161594390869
1751223268954980000,17.88297998046875,9.773913383483887,-0.3532707691192627,0.7184784412384033
1751223268973806600,17.901806640625,9.77431869506836,-0.35148268938064575,0.713811457157135
1751223268992632800,17.9206328125,9.774742126464844,-0.35003793239593506,0.7087205052375793
1751223269011459300,17.939459228515624,9.775144577026367,-0.34875768423080444,0.7037833333015442
1751223269030285600,17.95828564453125,9.775622367858887,-0.3471130132675171,0.6979346871376038
1751223269049111800,17.97711181640625,9.776076316833496,-0.34509214758872986,0.6925475597381592
1751223269067938300,17.995938232421874,9.77651309967041,-0.34303539991378784,0.6873965263366699
1751223269086764500,18.0147646484375,9.776798248291016,-0.34181204438209534,0.6839338541030884
1751223269105590800,18.0335908203125,9.77698802947998,-0.3411988615989685,0.6815290451049805
1751223269124417300,18.052417236328125,9.777179718017578,-0.34176716208457947,0.678477942943573
1751223269143243500,18.071243408203124,9.77762222290039,-0.3408210575580597,0.6725496053695679
1751223269162070000,18.090070068359374,9.778153419494629,-0.3386562168598175,0.6659003496170044
1751223269180896300,18.108896240234376,9.778615951538086,-0.33737584948539734,0.6597253084182739
1751223269199722500,18.127722412109375,9.779234886169434,-0.3348790407180786,0.6517652273178101
1751223269218549000,18.146549072265625,9.779765129089355,-0.3331146240234375,0.6446811556816101
1751223269237375200,18.165375244140623,9.779977798461914,-0.3331409692764282,0.6414401531219482
1751223269256201500,18.184201416015625,9.779873847961426,-0.33376285433769226,0.6426959037780762
1751223269275028000,18.203028076171876,9.779535293579102,-0.3361930251121521,0.6465709209442139
1751223269293854200,18.221854248046874,9.779138565063477,-0.3386000394821167,0.6513016223907471
1751223269312680700,18.2406806640625,9.778775215148926,-0.3400968015193939,0.6559553742408752
1751223269331507000,18.2595068359375,9.778462409973145,-0.34113195538520813,0.6600625514984131
1751223269350333200,18.278333251953125,9.778106689453125,-0.3427017033100128,0.6645161509513855
1751223269369159700,18.29715966796875,9.77790641784668,-0.34389638900756836,0.6668358445167542
1751223269387986000,18.31598583984375,9.777908325195312,-0.34427204728126526,0.6666179299354553
1751223269406812200,18.334812255859376,9.778277397155762,-0.34251195192337036,0.6620914340019226
1751223269425638700,18.353638671875,9.778511047363281,-0.34180572628974915,0.6589899659156799
1751223269444465000,18.37246484375,9.77849292755127,-0.3418676257133484,0.6592316627502441
1751223269463291100,18.391291015625,9.777999877929688,-0.3447401821613312,0.6650189161300659
1751223269482117600,18.41011767578125,9.777388572692871,-0.3482895493507385,0.6721316576004028
1751223269500944000,18.42894384765625,9.777039527893066,-0.3505896329879761,0.6760028600692749
1751223269519770400,18.447770263671874,9.776968955993652,-0.3512219786643982,0.6766988039016724
1751223269538596600,18.4665966796875,9.776848793029785,-0.35157376527786255,0.6782342195510864
1751223269557422800,18.4854228515625,9.77673053741455,-0.3522089719772339,0.6796208024024963
1751223269576249300,18.504249267578125,9.776687622070312,-0.35209155082702637,0.6802940964698792
1751223269604488700,18.53248876953125,9.776357650756836,-0.35367119312286377,0.6841999888420105
1751223269623315200,18.551315185546876,9.776100158691406,-0.3548356294631958,0.6872665882110596
1751223269642141400,18.570141357421875,9.775933265686035,-0.3557019531726837,0.689202606678009
1751223269660967700,18.5889677734375,9.776046752929688,-0.35521799325942993,0.6878344416618347
1751223269679794200,18.607794189453124,9.776419639587402,-0.35411322116851807,0.6830937266349792
1751223269698620400,18.626620361328126,9.776776313781738,-0.35264071822166443,0.6787306666374207
1751223269717446700,18.64544677734375,9.776968955993652,-0.3519037663936615,0.6763273477554321
1751223269736273200,18.664273193359374,9.776899337768555,-0.3522219657897949,0.6771715879440308
1751223269755099400,18.683099365234376,9.7767972946167,-0.35272476077079773,0.6783895492553711
1751223269773925600,18.701925537109375,9.776911735534668,-0.35211172699928284,0.6770557165145874
1751223269792752000,18.720752197265625,9.776979446411133,-0.3519420623779297,0.6761608123779297
1751223269811578400,18.739578369140624,9.77692985534668,-0.3523600697517395,0.6766667366027832
1751223269830404900,18.75840478515625,9.776549339294434,-0.3548293113708496,0.6808544397354126
1751223269849231000,18.777231201171876,9.776205062866211,-0.35703250765800476,0.6846489906311035
1751223269868057300,18.796057373046875,9.775882720947266,-0.3584895730018616,0.6884725093841553
1751223269886883800,18.8148837890625,9.775614738464355,-0.3594650328159332,0.6917517781257629
1751223269905710000,18.8337099609375,9.775351524353027,-0.36083081364631653,0.6947541832923889
1751223269924536300,18.852536376953125,9.775030136108398,-0.3624374270439148,0.6984341144561768
1751223269943362800,18.87136279296875,9.77479362487793,-0.3641563057899475,0.7008535265922546
1751223269962189000,18.89018896484375,9.774881362915039,-0.36368677020072937,0.6998709440231323
1751223269981015600,18.909015625,9.774967193603516,-0.3632522523403168,0.6988887190818787
1751223269999841800,18.927841796875,9.774944305419922,-0.3636150062084198,0.6990272998809814
1751223270018668000,18.94666796875,9.774749755859375,-0.36456888914108276,0.7012423276901245
1751223270037494500,18.96549462890625,9.774545669555664,-0.36603233218193054,0.703325092792511
1751223270056320800,18.98432080078125,9.774399757385254,-0.3666832149028778,0.7050148844718933
1751223270075147000,19.00314697265625,9.77436351776123,-0.36726608872413635,0.7052116990089417
1751223270093973500,19.021973388671874,9.774467468261719,-0.36686989665031433,0.7039775252342224
1751223270112799700,19.0407998046875,9.774620056152344,-0.36660444736480713,0.7019782066345215
1751223270131626000,19.0596259765625,9.774712562561035,-0.36591821908950806,0.7010595202445984
1751223270150452500,19.078452392578125,9.774587631225586,-0.3665017783641815,0.7024850249290466
1751223270169278700,19.09727880859375,9.774481773376465,-0.36690011620521545,0.7037653923034668
1751223270188105200,19.116105224609374,9.774518966674805,-0.366471529006958,0.7034787535667419
1751223270206931500,19.134931396484376,9.774602890014648,-0.3658287227153778,0.7026452422142029
1751223270225757700,19.1537578125,9.774751663208008,-0.36524081230163574,0.7008675932884216
1751223270244584200,19.172584228515625,9.774733543395996,-0.3648926317691803,0.7013039588928223
1751223270263410400,19.191410400390627,9.774320602416992,-0.3674359619617462,0.7057141661643982
1751223270282236700,19.210236572265625,9.774041175842285,-0.3690541088581085,0.7087331414222717
1751223270301063200,19.229063232421876,9.773940086364746,-0.36960285902023315,0.709837019443512
1751223270319889400,19.247889404296874,9.774174690246582,-0.3677365183830261,0.707563579082489
1751223270338716000,19.2667158203125,9.774446487426758,-0.36670738458633423,0.7043496966362
1751223270357542100,19.285542236328126,9.774613380432129,-0.36582088470458984,0.7025024890899658
1751223270376368400,19.304368408203125,9.774723052978516,-0.36612826585769653,0.700800895690918
1751223270395194600,19.323194580078123,9.774725914001465,-0.3658447563648224,0.7009167671203613
1751223270414021000,19.342021240234374,9.774724006652832,-0.3657078444957733,0.7010048031806946
1751223270432847400,19.360847412109376,9.77472972869873,-0.3652437925338745,0.7011679410934448
1751223270451673900,19.379673828125,9.774645805358887,-0.3650425970554352,0.7024491429328918
1751223270470500000,19.3985,9.774394989013672,-0.3656896948814392,0.7055885195732117
1751223270489326300,19.417326416015626,9.773974418640137,-0.36768829822540283,0.7103509306907654
1751223270508152800,19.43615283203125,9.773782730102539,-0.36858928203582764,0.712537944316864
1751223270526979000,19.45497900390625,9.77361011505127,-0.3691270053386688,0.7146220803260803
1751223270545805300,19.473805419921874,9.773560523986816,-0.3690820634365082,0.7153117060661316
1751223270564631800,19.4926318359375,9.7733793258667,-0.3700752556324005,0.7172695994377136
1751223270583458000,19.5114580078125,9.772942543029785,-0.37248149514198303,0.7219670414924622
1751223270602284500,19.530284423828125,9.772425651550293,-0.3751189708709717,0.7275794744491577
1751223270621110800,19.54911083984375,9.772026062011719,-0.3773628771305084,0.7317745685577393
1751223270639937000,19.56793701171875,9.77192211151123,-0.37744855880737305,0.7331098318099976
1751223270658763500,19.586763427734375,9.771824836730957,-0.3781289756298065,0.7340638041496277
1751223270677589800,19.60558984375,9.77176284790039,-0.37859269976615906,0.7346523404121399
1751223270696416000,19.624416015625,9.771612167358398,-0.379567950963974,0.7361444234848022
1751223270715242500,19.643242431640626,9.771238327026367,-0.38130635023117065,0.7401930093765259
1751223270734068700,19.66206884765625,9.7708158493042,-0.38370221853256226,0.7445276379585266
1751223270752895200,19.680895263671875,9.770601272583008,-0.3844512104988098,0.7469468116760254
1751223270771721500,19.699721435546873,9.77038860321045,-0.38583043217658997,0.7490156292915344
1751223270790547700,19.718547607421876,9.770051002502441,-0.38772276043891907,0.7524412870407104
1751223270809374200,19.737374267578126,9.769734382629395,-0.38935211300849915,0.7557076215744019
1751223270828200400,19.756200439453124,9.76966381072998,-0.3898690938949585,0.7563440799713135
1751223270847026700,19.775026611328126,9.769866943359375,-0.38885900378227234,0.7542415857315063
1751223270865853200,19.793853271484377,9.770187377929688,-0.38670021295547485,0.7511928677558899
1751223270884679400,19.812679443359375,9.770302772521973,-0.385800838470459,0.7501516938209534
1751223270903505700,19.831505615234374,9.770408630371094,-0.384771466255188,0.7492972612380981
1751223270922332200,19.850332275390624,9.77044677734375,-0.38368597626686096,0.7493638396263123
1751223270941158400,19.869158447265626,9.77014446258545,-0.38493838906288147,0.7526494860649109
1751223270959984600,19.887984619140624,9.769807815551758,-0.38518279790878296,0.7568807005882263
1751223270978811100,19.90681103515625,9.769290924072266,-0.386222243309021,0.7630058526992798
1751223270997637400,19.925637451171873,9.768532752990723,-0.38896578550338745,0.7712643146514893
1751223271016464000,19.9444638671875,9.767837524414062,-0.39121773838996887,0.778897225856781
1751223271035290000,19.9632900390625,9.767376899719238,-0.392787367105484,0.7838693857192993
1751223271054116400,19.982116455078124,9.766907691955566,-0.3943733274936676,0.7889106273651123
1751223271072942800,20.00094287109375,9.766217231750488,-0.39694342017173767,0.7961313724517822
1751223271091769000,20.01976904296875,9.765316009521484,-0.4005885422229767,0.8053163290023804
1751223271110595300,20.03859521484375,9.764668464660645,-0.4031014144420624,0.8118823170661926
1751223271129421800,20.057421875,9.764339447021484,-0.4041175842285156,0.8153294920921326
1751223271148248000,20.076248046875,9.76426887512207,-0.40347304940223694,0.8164921402931213
1751223271167074600,20.095074462890626,9.764104843139648,-0.40400230884552,0.818190336227417
1751223271185900800,20.11390087890625,9.763871192932129,-0.4044143557548523,0.8207690119743347
1751223271204727000,20.13272705078125,9.76357364654541,-0.4050293266773224,0.8239988684654236
1751223271223553300,20.15155322265625,9.763200759887695,-0.40680497884750366,0.8275449872016907
1751223271242379800,20.1703798828125,9.763022422790527,-0.4074852764606476,0.8292977809906006
1751223271261206000,20.1892060546875,9.762872695922852,-0.4086607098579407,0.830474853515625
1751223271280032500,20.208032470703124,9.762897491455078,-0.4092913568019867,0.8298851251602173
1751223271298858800,20.226858642578126,9.76278018951416,-0.41016247868537903,0.8308361768722534
1751223271317685000,20.24568505859375,9.762611389160156,-0.4101521372795105,0.8328137397766113
1751223271336511500,20.264511474609375,9.762181282043457,-0.4115533232688904,0.8371610641479492
1751223271355337700,20.283337646484377,9.76206111907959,-0.41175225377082825,0.8384554982185364
1751223271374164000,20.3021640625,9.761736869812012,-0.41190046072006226,0.8421553373336792
1751223271392990500,20.320990478515625,9.760923385620117,-0.4141502380371094,0.8504366278648376
1751223271411816700,20.339816650390624,9.760184288024902,-0.4159545600414276,0.8580015897750854
1751223271430643200,20.358643310546874,9.759697914123535,-0.41624513268470764,0.8633818030357361
1751223271449469400,20.377469482421876,9.75921630859375,-0.41717347502708435,0.8683604001998901
1751223271468295700,20.396295654296875,9.758809089660645,-0.4187150299549103,0.8721911907196045
1751223271487122200,20.4151220703125,9.758564949035645,-0.4188322424888611,0.8748571872711182
1751223271505948400,20.433948486328124,9.758710861206055,-0.41837558150291443,0.8734430074691772
1751223271524774700,20.452774658203126,9.759100914001465,-0.41697603464126587,0.8697461485862732
1751223271543601200,20.47160107421875,9.759366989135742,-0.415653258562088,0.8674005270004272
1751223271562427400,20.490427490234374,9.758411407470703,-0.4187653064727783,0.8765960931777954
1751223271581253600,20.509253662109376,9.756946563720703,-0.4238724708557129,0.8903476595878601
1751223271600080100,20.528080078125,9.756096839904785,-0.42616042494773865,0.8985209465026855
1751223271618906400,20.54690625,9.755885124206543,-0.42706045508384705,0.9003883600234985
1751223271637732900,20.56573291015625,9.755697250366211,-0.4274337887763977,0.9022576808929443
1751223271656559000,20.58455908203125,9.755833625793457,-0.42660221457481384,0.9011693000793457
1751223271675385300,20.60338525390625,9.75619888305664,-0.4261445105075836,0.8974160552024841
1751223271694211800,20.6222119140625,9.756522178649902,-0.425415962934494,0.8942533731460571
1751223271713038000,20.6410380859375,9.757172584533691,-0.4232388436794281,0.8881656527519226
1751223271731864300,20.6598642578125,9.757616996765137,-0.4197654724121094,0.8849319815635681
1751223271750690800,20.67869091796875,9.757416725158691,-0.4195200204849243,0.8872599005699158
1751223271769517000,20.69751708984375,9.756621360778809,-0.4222395420074463,0.8946805596351624
1751223271788343300,20.71634326171875,9.755755424499512,-0.42585107684135437,0.9023757576942444
1751223271807169800,20.735169677734376,9.754983901977539,-0.4282810688018799,0.9095425605773926
1751223271825996000,20.75399609375,9.754640579223633,-0.43008512258529663,0.9123585820198059
1751223271854235600,20.782235595703124,9.755231857299805,-0.42785459756851196,0.9070620536804199
1751223271873062000,20.801061767578126,9.755142211914062,-0.4285499155521393,0.9077033996582031
1751223271891888000,20.81988818359375,9.755066871643066,-0.42863136529922485,0.908475399017334
1751223271910714600,20.838714599609375,9.755566596984863,-0.4258796274662018,0.9044001698493958
1751223271929540900,20.857540771484373,9.756131172180176,-0.4234827756881714,0.8994230628013611
1751223271948367400,20.876367431640624,9.756394386291504,-0.4215918481349945,0.8974490761756897
1751223271967193600,20.895193603515626,9.755935668945312,-0.4231085777282715,0.9017110466957092
1751223271986019800,20.914019775390624,9.755670547485352,-0.4235026240348816,0.9043945074081421
1751223272004846300,20.932846435546875,9.755731582641602,-0.4229159355163574,0.9040135145187378
1751223272023672600,20.951672607421877,9.756072044372559,-0.4214513301849365,0.901016116142273
1751223272042498800,20.970498779296875,9.756441116333008,-0.41957348585128784,0.8978884220123291
1751223272061325300,20.9893251953125,9.756513595581055,-0.41961896419525146,0.8970762491226196
1751223272080151600,21.008151611328124,9.756706237792969,-0.4191179573535919,0.8952134847640991
1751223272098978000,21.02697802734375,9.757367134094238,-0.41611140966415405,0.8893983960151672
1751223272117804300,21.04580419921875,9.7579345703125,-0.4139646589756012,0.8841548562049866
1751223272136630500,21.064630615234375,9.758193016052246,-0.412262499332428,0.8820989727973938
1751223272155457000,21.08345703125,9.758060455322266,-0.41256850957870483,0.8834244608879089
1751223272174283300,21.102283203125,9.757853507995605,-0.41319388151168823,0.8854077458381653
1751223272193109500,21.121109619140626,9.757546424865723,-0.4145970642566681,0.8881364464759827
1751223272211936000,21.13993603515625,9.757621765136719,-0.4136657416820526,0.8877471089363098
1751223272230762200,21.15876220703125,9.758024215698242,-0.41137146949768066,0.8843724131584167
1751223272249588500,21.17758837890625,9.758380889892578,-0.4101802706718445,0.8809829354286194
1751223272268415000,21.1964150390625,9.75850772857666,-0.4086814224720001,0.8802851438522339
1751223272287241200,21.2152412109375,9.758235931396484,-0.4095713794231415,0.8828747868537903
1751223272306067700,21.234067626953124,9.757731437683105,-0.41089481115341187,0.8878231644630432
1751223272324894000,21.25289404296875,9.757519721984863,-0.411051869392395,0.890065610408783
1751223272343720200,21.27172021484375,9.75736141204834,-0.41127875447273254,0.8917104005813599
1751223272362546700,21.290546630859374,9.756954193115234,-0.4119727313518524,0.8958315253257751
1751223272381373000,21.309373046875,9.756452560424805,-0.4138442277908325,0.9004204869270325
1751223272400199200,21.32819921875,9.756361961364746,-0.41374966502189636,0.9014487862586975
1751223272419025700,21.347025634765625,9.755965232849121,-0.41467025876045227,0.9053035974502563
1751223272437852000,21.365851806640624,9.755550384521484,-0.41615667939186096,0.9090932011604309
1751223272456678400,21.384678466796874,9.755959510803223,-0.4156554341316223,0.9049132466316223
1751223272475504600,21.403504638671876,9.757469177246094,-0.4106263518333435,0.8908222913742065
1751223272494331000,21.422330810546875,9.758716583251953,-0.4040646255016327,0.8801018595695496
1751223272513157400,21.441157470703125,9.759671211242676,-0.39992862939834595,0.8713520169258118
1751223272531983600,21.459983642578123,9.760056495666504,-0.39673393964767456,0.868491530418396
1751223272550810000,21.47881005859375,9.759843826293945,-0.3968537747859955,0.8708269000053406
1751223272569636400,21.49763623046875,9.759239196777344,-0.3983091711997986,0.8769177198410034
1751223272588462600,21.516462646484374,9.75898551940918,-0.39883461594581604,0.8794968724250793
1751223272607289000,21.5352890625,9.75881290435791,-0.39996522665023804,0.8808949589729309
1751223272626115300,21.554115234375,9.758920669555664,-0.39933186769485474,0.8799850940704346
1751223272644941600,21.572941650390625,9.75930404663086,-0.3985191583633423,0.8761070370674133
1751223272663768000,21.59176806640625,9.75986099243164,-0.3968800902366638,0.8706263303756714
1751223272682594300,21.61059423828125,9.760407447814941,-0.39393457770347595,0.8658237457275391
1751223272701420800,21.6294208984375,9.76086139678955,-0.3919345438480377,0.8616058230400085
1751223272720247000,21.6482470703125,9.761125564575195,-0.3903242349624634,0.8593411445617676
1751223272739073300,21.6670732421875,9.76098918914795,-0.3902713358402252,0.8609116077423096
1751223272757899800,21.685899658203127,9.760528564453125,-0.39169740676879883,0.8654735684394836
1751223272776726000,21.70472607421875,9.760222434997559,-0.39227616786956787,0.8686574697494507
1751223272795552300,21.72355224609375,9.760313987731934,-0.392098605632782,0.8677055239677429
1751223272814378800,21.742378662109374,9.760665893554688,-0.3902322053909302,0.8645904064178467
1751223272833205000,21.761205078125,9.761127471923828,-0.3881506621837616,0.8602932691574097
1751223272852031500,21.780031494140626,9.76154613494873,-0.3864474296569824,0.8563123345375061
1751223272870857700,21.798857666015625,9.761919021606445,-0.3849421441555023,0.8527194857597351
1751223272889684000,21.81768408203125,9.762350082397461,-0.38334134221076965,0.8485006093978882
1751223272908510500,21.836510498046874,9.762295722961426,-0.3845028579235077,0.8486077785491943
1751223272927336700,21.855336669921876,9.762452125549316,-0.38505619764328003,0.8465554714202881
1751223272946163200,21.8741630859375,9.76317310333252,-0.3819025158882141,0.8396304845809937
1751223272964989400,21.892989501953124,9.763540267944336,-0.3790443241596222,0.8366605639457703
1751223272983815700,21.911815673828126,9.762747764587402,-0.38111045956611633,0.844924807548523
1751223273002642200,21.93064208984375,9.761564254760742,-0.3845863342285156,0.8569478392601013
1751223273021468400,21.949468505859375,9.759554862976074,-0.39218610525131226,0.8761565089225769
1751223273040295000,21.968294921875,9.758565902709961,-0.39698922634124756,0.8849828839302063
1751223273059121200,21.98712109375,9.758709907531738,-0.39371585845947266,0.8848395347595215
1751223273077947400,22.005947509765626,9.757932662963867,-0.3961421251296997,0.8923156261444092
1751223273096774000,22.02477392578125,9.758283615112305,-0.3956429660320282,0.8886855244636536
1751223273115600100,22.04360009765625,9.759714126586914,-0.3889169991016388,0.8758541941642761
1751223273134426400,22.06242626953125,9.759020805358887,-0.39337173104286194,0.8815705180168152
1751223273153252900,22.0812529296875,9.757550239562988,-0.4021044075489044,0.8938129544258118
1751223273172079000,22.1000791015625,9.75744342803955,-0.4027721583843231,0.8946937322616577
1751223273190905600,22.118905517578124,9.758062362670898,-0.40050050616264343,0.8889390826225281
1751223273209731800,22.13773193359375,9.75893783569336,-0.39692220091819763,0.8809046149253845
1751223273228558000,22.15655810546875,9.759688377380371,-0.39352092146873474,0.8740770816802979
1751223273247384600,22.175384521484375,9.759703636169434,-0.3932859003543854,0.8740128874778748
1751223273266210800,22.1942109375,9.758934020996094,-0.3954807221889496,0.8815784454345703
1751223273285037300,22.213037353515624,9.758158683776855,-0.39667895436286926,0.8895922899246216
1751223273303863600,22.231863525390626,9.757627487182617,-0.39729607105255127,0.895118772983551
1751223273322689800,22.250689697265624,9.758191108703613,-0.39447376132011414,0.890225887298584
1751223273341516300,22.269516357421875,9.758682250976562,-0.39240241050720215,0.8857356905937195
1751223273360342500,22.288342529296877,9.758496284484863,-0.39367958903312683,0.887218713760376
1751223273379169000,22.3071689453125,9.757606506347656,-0.3966065049171448,0.8956575989723206
1751223273397995300,22.325995361328125,9.757463455200195,-0.3963455855846405,0.8973420858383179
1751223273416821500,22.344821533203124,9.75794506072998,-0.393343448638916,0.8934139609336853
1751223273435648000,22.36364794921875,9.758465766906738,-0.3917319178581238,0.8884091973304749
1751223273454474200,22.38247412109375,9.758240699768066,-0.39432868361473083,0.8897324204444885
1751223273473300700,22.40130078125,9.757579803466797,-0.3985745906829834,0.8950802087783813
1751223273492127000,22.420126953125,9.757089614868164,-0.40079107880592346,0.8994200229644775
1751223273510953200,22.438953125,9.757264137268066,-0.39823371171951294,0.8986591696739197
1751223273529779700,22.45777978515625,9.756728172302246,-0.3986356556415558,0.9042873382568359
1751223273548606000,22.47660595703125,9.755536079406738,-0.40178072452545166,0.9156739711761475
1751223273567432400,22.495432373046874,9.755131721496582,-0.40209412574768066,0.9198400378227234
1751223273586258700,22.5142587890625,9.755743980407715,-0.3987812101840973,0.9147732257843018
1751223273605085000,22.5330849609375,9.755825996398926,-0.3982686400413513,0.9141230583190918
1751223273623911400,22.551911376953125,9.754427909851074,-0.40374037623405457,0.9265652894973755
1751223273642737700,22.570737548828124,9.75346565246582,-0.4077470302581787,0.9348974227905273
1751223273661564200,22.589564208984374,9.754255294799805,-0.40408632159233093,0.9282154440879822
1751223273680390400,22.608390380859376,9.755380630493164,-0.3994511067867279,0.9183622002601624
1751223273699217000,22.627216796875,9.755620002746582,-0.39745602011680603,0.9166713953018188
1751223273718043100,22.646043212890625,9.754322052001953,-0.40263840556144714,0.9281597137451172
1751223273736869400,22.664869384765623,9.753016471862793,-0.4074646830558777,0.9396970272064209
1751223273755695900,22.68369580078125,9.752861022949219,-0.4073907136917114,0.9413412809371948
1751223273774522000,22.702522216796876,9.753705978393555,-0.40335768461227417,0.9343008995056152
1751223273793348600,22.7213486328125,9.753824234008789,-0.4026077687740326,0.9333896636962891
1751223273812174800,22.7401748046875,9.753217697143555,-0.4058406949043274,0.9383003115653992
1751223273831001000,22.7590009765625,9.753439903259277,-0.40451380610466003,0.9365705251693726
1751223273849827600,22.77782763671875,9.753884315490723,-0.4019908010959625,0.9330236315727234
1751223273868653800,22.79665380859375,9.75393009185791,-0.4014779329299927,0.9327719211578369
1751223273887480300,22.815480224609374,9.753994941711426,-0.4007100760936737,0.9324131011962891
1751223273906306600,22.834306640625,9.754620552062988,-0.397948294878006,0.9270437955856323
1751223273925132800,22.8531328125,9.754325866699219,-0.39772945642471313,0.9302224516868591
1751223273943959300,22.871959228515625,9.75318431854248,-0.40399453043937683,0.9394516944885254
1751223273962785500,22.89078564453125,9.752339363098145,-0.4069215953350067,0.9469349384307861
1751223273981612000,22.909612060546873,9.752147674560547,-0.4080585241317749,0.9484189748764038
1751223274000438300,22.928438232421875,9.752213478088379,-0.40717774629592896,0.9481160044670105
1751223274019264800,22.9472646484375,9.752228736877441,-0.4064565598964691,0.948268711566925
1751223274038091000,22.966091064453124,9.75214672088623,-0.40664565563201904,0.9490262866020203
1751223274056917200,22.984917236328126,9.75225830078125,-0.4058019518852234,0.9482462406158447
1751223274075743700,23.00374365234375,9.752784729003906,-0.403147429227829,0.9439548254013062
1751223274094570000,23.022570068359375,9.753026962280273,-0.40141215920448303,0.9421955943107605
1751223274113396500,23.041396484375,9.75283145904541,-0.4020612835884094,0.9439447522163391
1751223274132222700,23.06022265625,9.752373695373535,-0.4044536054134369,0.9476335644721985
1751223274151049000,23.079049072265626,9.752265930175781,-0.40443623065948486,0.9487563371658325
1751223274169875500,23.09787548828125,9.752323150634766,-0.40439024567604065,0.9481862783432007
1751223274188701700,23.11670166015625,9.752737998962402,-0.4014902412891388,0.9451483488082886
1751223274207528200,23.135528076171877,9.752817153930664,-0.400551974773407,0.9447240829467773
1751223274226354400,23.1543544921875,9.752490043640137,-0.40135297179222107,0.9477604031562805
1751223274245180700,23.1731806640625,9.75219440460205,-0.4022176265716553,0.9504309296607971
1751223274264007200,23.192007080078124,9.752250671386719,-0.40109962224960327,0.9503143429756165
1751223274282833400,23.21083349609375,9.752251625061035,-0.4004296064376831,0.9505953788757324
1751223274301660000,23.229659912109376,9.752559661865234,-0.399448037147522,0.9478462934494019
1751223274320486100,23.248486083984375,9.752850532531738,-0.3986576199531555,0.9451764225959778
1751223274339312400,23.2673125,9.752673149108887,-0.39881616830825806,0.9469459056854248
1751223274358139000,23.286138916015624,9.752777099609375,-0.39752307534217834,0.9464128613471985
1751223274376965000,23.304965087890626,9.752257347106934,-0.39825838804244995,0.9514512419700623
1751223274395791600,23.32379150390625,9.751564979553223,-0.4007723033428192,0.9574618935585022
1751223274414617900,23.342617919921874,9.751420974731445,-0.4003860056400299,0.9590981006622314
1751223274433444400,23.3614443359375,9.751853942871094,-0.39828503131866455,0.9555686116218567
1751223274452270600,23.3802705078125,9.751943588256836,-0.3976602852344513,0.954906702041626
1751223274471097000,23.39909716796875,9.751565933227539,-0.39858612418174744,0.9583715200424194
1751223274489923300,23.41792333984375,9.751137733459473,-0.40014538168907166,0.9620786309242249
1751223274508749600,23.43674951171875,9.750622749328613,-0.4013117551803589,0.9667937159538269
1751223274527576000,23.455576171875,9.750211715698242,-0.40284764766693115,0.9702895879745483
1751223274546402300,23.47440234375,9.749955177307129,-0.4044610559940338,0.9722054600715637
1751223274565228800,23.493228759765625,9.749761581420898,-0.4051472544670105,0.9738588929176331
1751223274584055000,23.512054931640623,9.74967098236084,-0.4051125943660736,0.97477787733078
1751223274602881500,23.530881591796874,9.749726295471191,-0.4048289358615875,0.9743370413780212
1751223274621707800,23.549707763671876,9.749275207519531,-0.40730851888656616,0.9778110384941101
1751223274640534000,23.568533935546874,9.749021530151367,-0.4081064462661743,0.980013906955719
1751223274659360500,23.587360595703124,9.748857498168945,-0.40848711133003235,0.9814839363098145
1751223274678186800,23.606186767578127,9.748783111572266,-0.40853747725486755,0.982190728187561
1751223274697013200,23.62501318359375,9.74873161315918,-0.4083324670791626,0.9827962517738342
1751223274715839500,23.643839599609375,9.748513221740723,-0.40941497683525085,0.9845086336135864
1751223274734665700,23.662665771484374,9.748297691345215,-0.41044217348098755,0.9862145781517029
1751223274753492200,23.6814921875,9.748024940490723,-0.4111449122428894,0.9886159300804138
1751223274772318500,23.700318359375,9.747917175292969,-0.41133737564086914,0.9895983338356018
1751223274791145000,23.71914501953125,9.747807502746582,-0.4114823639392853,0.9906198978424072
1751223274809971200,23.73797119140625,9.747550010681152,-0.4121606945991516,0.9928717613220215
1751223274828797700,23.756797607421873,9.74726676940918,-0.4132479727268219,0.9951944947242737
1751223274847624000,23.7756240234375,9.747431755065918,-0.41170835494995117,0.994206428527832
1751223274866450400,23.794450439453126,9.747771263122559,-0.40988266468048096,0.9916321635246277
1751223274885276700,23.813276611328124,9.748031616210938,-0.40907609462738037,0.9894006252288818
1751223274904103000,23.83210302734375,9.747930526733398,-0.40888285636901855,0.9904799461364746
1751223274922929400,23.850929443359377,9.747772216796875,-0.40926122665405273,0.9918797016143799
1751223274941755600,23.869755615234375,9.747715950012207,-0.40945789217948914,0.992344319820404
1751223274960582100,23.88858203125,9.747993469238281,-0.4076462984085083,0.9903666973114014
1751223274979408400,23.907408447265624,9.748140335083008,-0.406792014837265,0.9892723560333252
1751223274998234600,23.926234619140626,9.748022079467773,-0.40671682357788086,0.9904677271842957
1751223275017061000,23.94506103515625,9.747811317443848,-0.4075106978416443,0.9922142028808594
1751223275035887400,23.963887451171875,9.747920036315918,-0.4063495993614197,0.9916247725486755
1751223275054713900,23.9827138671875,9.7483491897583,-0.4046744704246521,0.9880889058113098
1751223275073540000,24.0015400390625,9.74869441986084,-0.40234673023223877,0.9856200814247131
1751223275092366600,24.02036669921875,9.749001502990723,-0.40038567781448364,0.9833849668502808
1751223275111192800,24.03919287109375,9.749380111694336,-0.3984698951244354,0.9804032444953918
1751223275130019300,24.058019287109374,9.749753952026367,-0.39592522382736206,0.9777130484580994
1751223275148845600,24.076845458984376,9.749820709228516,-0.395389586687088,0.9772672653198242
1751223275167671800,24.095671875,9.749496459960938,-0.39598536491394043,0.9802531003952026
1751223275186498300,24.114498291015625,9.749065399169922,-0.3973543643951416,0.9839914441108704
1751223275205324500,24.133324462890624,9.748598098754883,-0.39879053831100464,0.9880260229110718
1751223275224151000,24.152151123046874,9.748380661010742,-0.3992244005203247,0.9899986386299133
1751223275242977300,24.170977294921876,9.74857234954834,-0.3981180787086487,0.9885444045066833
1751223275261803800,24.1898037109375,9.74854564666748,-0.3974316120147705,0.9890815019607544
