time,seconds_elapsed,z,y,x
1751223251361732900,0.28973291015625,-0.004276053514331579,0.002290742937475443,0.0032070400193333626
1751223251399385900,0.3273857421875,-0.004276053514331579,0.002290742937475443,0.0032070400193333626
1751223251418212000,0.346212158203125,-0.0030543238390237093,0.002290742937475443,0.0032070400193333626
1751223251437038600,0.36503857421875,-0.004276053514331579,0.002290742937475443,0.0032070400193333626
1751223251455864800,0.38386474609375,-0.004276053514331579,0.002290742937475443,0.0032070400193333626
1751223251474691300,0.40269140625,-0.004276053514331579,0.003512472379952669,0.0032070400193333626
1751223251493517800,0.421517822265625,-0.0030543238390237093,0.002290742937475443,0.0032070400193333626
1751223251512344000,0.440343994140625,-0.0030543238390237093,0.003512472379952669,0.0032070400193333626
1751223251531170600,0.459170654296875,-0.004276053514331579,0.002290742937475443,0.0032070400193333626
1751223251549997000,0.4779970703125,-0.004276053514331579,0.002290742937475443,0.0032070400193333626
1751223251568823600,0.496823486328125,-0.004276053514331579,0.003512472379952669,0.0032070400193333626
1751223251587649800,0.51564990234375,-0.004276053514331579,0.002290742937475443,0.0032070400193333626
1751223251606476300,0.534476318359375,-0.004276053514331579,0.002290742937475443,0.0032070400193333626
1751223251625302800,0.553302734375,-0.004276053514331579,0.002290742937475443,0.0032070400193333626
1751223251644129000,0.57212890625,-0.004276053514331579,0.002290742937475443,0.0032070400193333626
1751223251662955500,0.59095556640625,-0.004276053514331579,0.002290742937475443,0.0032070400193333626
1751223251681782000,0.609781982421875,-0.0030543238390237093,0.003512472379952669,0.0032070400193333626
1751223251700608300,0.628608154296875,-0.004276053514331579,0.002290742937475443,0.0032070400193333626
1751223251719434800,0.647434814453125,-0.004276053514331579,0.002290742937475443,0.0032070400193333626
1751223251738261200,0.66626123046875,-0.004276053514331579,0.002290742937475443,0.0032070400193333626
1751223251757087500,0.68508740234375,-0.004276053514331579,0.002290742937475443,0.0032070400193333626
1751223251775914000,0.7039140625,-0.004276053514331579,0.002290742937475443,0.0032070400193333626
1751223251794740500,0.722740478515625,-0.004276053514331579,0.002290742937475443,0.0032070400193333626
1751223251813567000,0.74156689453125,-0.0030543238390237093,0.002290742937475443,0.0032070400193333626
1751223251832393200,0.760393310546875,-0.0030543238390237093,0.002290742937475443,0.0032070400193333626
1751223251851219700,0.7792197265625,-0.004276053514331579,0.003512472379952669,0.0032070400193333626
1751223251870046200,0.798046142578125,-0.004276053514331579,0.002290742937475443,0.0032070400193333626
1751223251888872400,0.81687255859375,-0.0030543238390237093,0.002290742937475443,0.0032070400193333626
1751223251907699000,0.835698974609375,-0.004276053514331579,0.002290742937475443,0.0032070400193333626
1751223251926525400,0.854525390625,-0.0030543238390237093,0.003512472379952669,0.0032070400193333626
1751223251945351700,0.8733515625,-0.004276053514331579,0.002290742937475443,0.0032070400193333626
1751223251964178200,0.89217822265625,-0.004276053514331579,0.002290742937475443,0.0032070400193333626
1751223251983004700,0.911004638671875,-0.004276053514331579,0.003512472379952669,0.0032070400193333626
1751223252001831200,0.9298310546875,-0.004276053514331579,0.002290742937475443,0.0032070400193333626
1751223252020657400,0.948657470703125,-0.004276053514331579,0.003512472379952669,0.0032070400193333626
1751223252039484000,0.96748388671875,-0.0030543238390237093,0.002290742937475443,0.0032070400193333626
1751223252058310400,0.986310302734375,-0.0030543238390237093,0.002290742937475443,0.0032070400193333626
1751223252077136600,1.00513671875,-0.0030543238390237093,0.002290742937475443,0.0032070400193333626
1751223252095963100,1.023963134765625,-0.004276053514331579,0.002290742937475443,0.0032070400193333626
1751223252114789600,1.04278955078125,-0.004276053514331579,0.002290742937475443,0.0032070400193333626
1751223252133615900,1.061615966796875,-0.0030543238390237093,0.002290742937475443,0.0032070400193333626
1751223252152442400,1.0804423828125,-0.004276053514331579,0.003512472379952669,0.0032070400193333626
1751223252171268900,1.099268798828125,-0.004276053514331579,0.002290742937475443,0.0032070400193333626
1751223252190095000,1.11809521484375,-0.004276053514331579,0.003512472379952669,0.0032070400193333626
1751223252208921600,1.136921630859375,-0.004276053514331579,0.002290742937475443,0.0032070400193333626
1751223252227748000,1.155748046875,-0.004276053514331579,0.002290742937475443,0.0032070400193333626
1751223252246574600,1.17457470703125,-0.004276053514331579,0.003512472379952669,0.0032070400193333626
1751223252265400800,1.19340087890625,-0.004276053514331579,0.002290742937475443,0.0032070400193333626
1751223252284227300,1.212227294921875,-0.0030543238390237093,0.002290742937475443,0.0032070400193333626
1751223252303053800,1.2310537109375,-0.0030543238390237093,0.003512472379952669,0.0032070400193333626
1751223252321880000,1.249880126953125,-0.004276053514331579,0.002290742937475443,0.0032070400193333626
1751223252340706600,1.26870654296875,-0.004276053514331579,0.002290742937475443,0.0032070400193333626
1751223252359533000,1.287532958984375,-0.004276053514331579,0.002290742937475443,0.0032070400193333626
1751223252378359600,1.306359619140625,-0.004276053514331579,0.002290742937475443,0.0032070400193333626
1751223252397185800,1.325185791015625,-0.0030543238390237093,0.005955931730568409,0.0019853105768561363
1751223252416012300,1.34401220703125,-0.004276053514331579,0.01206457894295454,0.005650499369949102
1751223252434838800,1.3628388671875,-0.004276053514331579,-0.014813470654189587,0.0032070400193333626
1751223252453665000,1.3816650390625,-0.004276053514331579,0.007177661173045635,-0.002901607658714056
1751223252472491500,1.400491455078125,-0.0054977829568088055,0.008399390615522861,0.010537417605519295
1751223252491318000,1.419318115234375,-0.0030543238390237093,0.002290742937475443,0.0007635809597559273
1751223252510144300,1.438144287109375,-0.0030543238390237093,-0.0062613640911877155,0.0007635809597559273
1751223252528970800,1.456970703125,-0.004276053514331579,0.008399390615522861,0.005650499369949102
1751223252547797200,1.47579736328125,-0.004276053514331579,0.003512472379952669,0.004428769461810589
1751223252566623500,1.49462353515625,-0.004276053514331579,-0.0013744457392022014,0.0007635809597559273
1751223252585450000,1.513449951171875,-0.001832594396546483,-0.0013744457392022014,-0.001679878099821508
1751223252604276500,1.5322763671875,-0.0054977829568088055,0.015729768201708794,0.008093958720564842
1751223252623103000,1.55110302734375,-0.001832594396546483,-0.01847865991294384,0.0019853105768561363
1751223252641929200,1.56992919921875,-0.0030543238390237093,-0.0001527161948615685,-0.006566796451807022
1751223252660755700,1.588755615234375,-0.004276053514331579,0.013286309316754341,0.005650499369949102
1751223252679582200,1.607582275390625,-0.004276053514331579,-0.01359174121171236,-0.004123337101191282
1751223252698408400,1.626408447265625,-0.006719512399286032,-0.007483093533664942,-0.00045814859913662076
1751223252717235000,1.64523486328125,-0.009162971749901772,0.03390299528837204,0.014202605932950974
1751223252736061400,1.6640615234375,-0.011606430634856224,0.06200277432799339,0.0154243353754282
1751223252754887700,1.6828876953125,-0.009162971749901772,0.0412333719432354,0.01908952370285988
1751223252773714200,1.701714111328125,-0.0054977829568088055,0.008399390615522861,0.012980876490473747
1751223252792540700,1.720540771484375,-0.007941242307424545,-0.04169152304530144,-0.006566796451807022
1751223252811367000,1.739366943359375,-0.031154103577136993,-0.03436114266514778,-0.018631376326084137
1751223252830193400,1.758193359375,-0.0409279391169548,-0.025809036567807198,0.005650499369949102
1751223252849020000,1.77702001953125,-0.04214967042207718,-0.019700389355421066,-0.009010255336761475
1751223252867846400,1.795846435546875,-0.04214967042207718,-0.016035201027989388,-0.009010255336761475
1751223252886672600,1.814672607421875,-0.031154103577136993,-0.007483093533664942,0.0019853105768561363
1751223252905499100,1.8334990234375,-0.010384701192378998,-0.0038179049734026194,-0.002901607658714056
1751223252924325600,1.85232568359375,-0.010384701192378998,-0.0062613640911877155,-0.001679878099821508
1751223252943151900,1.87115185546875,-0.01649334840476513,-0.009926552884280682,-0.002901607658714056
1751223252961978400,1.889978271484375,-0.01649334840476513,-0.011148282326757908,-0.002901607658714056
1751223252980804900,1.908804931640625,-0.027488915249705315,0.004734201822429895,0.005650499369949102
1751223252999631400,1.92763134765625,-0.04825831577181816,0.013286309316754341,0.0032070400193333626
1751223253018457600,1.94645751953125,-0.039706211537122726,0.02779434807598591,-0.004123337101191282
1751223253037284000,1.9652841796875,-0.014049889519810677,0.038789913058280945,0.004428769461810589
1751223253056110600,1.984110595703125,-0.007941242307424545,0.0412333719432354,0.0032070400193333626
1751223253074936800,2.002936767578125,-0.0054977829568088055,0.010842849500477314,0.0007635809597559273
1751223253093763300,2.021763427734375,-0.006719512399286032,-0.005039634648710489,0.004428769461810589
1751223253112589800,2.04058984375,-0.007941242307424545,0.0010690133785828948,0.006872228812426329
1751223253131416000,2.059416015625,-0.010384701192378998,0.014508038759231567,0.005650499369949102
1751223253150242600,2.07824267578125,-0.006719512399286032,0.01695149764418602,0.004428769461810589
1751223253169069000,2.097069091796875,-0.007941242307424545,0.010842849500477314,0.005650499369949102
1751223253187895300,2.115895263671875,-0.007941242307424545,0.01206457894295454,-0.001679878099821508
1751223253206721800,2.1347216796875,-0.014049889519810677,0.01695149764418602,0.0007635809597559273
1751223253225548300,2.15354833984375,-0.02871064469218254,0.024281874299049377,0.0019853105768561363
1751223253244374500,2.17237451171875,-0.05803215503692627,0.019394956529140472,0.0019853105768561363
1751223253263201000,2.191200927734375,-0.08613193035125732,0.004734201822429895,-0.001679878099821508
1751223253282027500,2.210027587890625,-0.10567960888147354,-0.0001527161948615685,-0.005345067009329796
1751223253300854000,2.22885400390625,-0.12522727251052856,0.0010690133785828948,-0.013744457624852657
1751223253329093600,2.25709375,-0.1802051067352295,0.013286309316754341,-0.019853105768561363
1751223253347920000,2.275919921875,-0.20219624042510986,0.03634645417332649,-0.016340631991624832
1751223253366746400,2.294746337890625,-0.20341797173023224,0.038789913058280945,-0.00045814859913662076
1751223253385572900,2.31357275390625,-0.20952661335468292,0.01206457894295454,-0.019853105768561363
1751223253404399000,2.332399169921875,-0.21807873249053955,0.004734201822429895,-0.019853105768561363
1751223253423225600,2.3512255859375,-0.25473061203956604,0.013286309316754341,-0.018631376326084137
1751223253442052000,2.370052001953125,-0.32070401310920715,0.014508038759231567,-0.03329212963581085
1751223253460878600,2.388878662109375,-0.3964512348175049,0.009621120058000088,-0.04428769648075104
1751223253479704800,2.407704833984375,-0.43921178579330444,0.018173227086663246,-0.04306596517562866
1751223253498531300,2.42653125,-0.430659681558609,0.018173227086663246,-0.041844237595796585
1751223253517357800,2.44535791015625,-0.3744601011276245,0.01695149764418602,-0.03695731982588768
1751223253536184000,2.46418408203125,-0.3035998046398163,0.01206457894295454,-0.02718348242342472
1751223253555010600,2.483010498046875,-0.23762640357017517,0.003512472379952669,-0.023518294095993042
1751223253573837000,2.501837158203125,-0.16676609218120575,-0.0013744457392022014,-0.01740964688360691
1751223253592663300,2.520663330078125,-0.09590577334165573,0.004734201822429895,-0.006566796451807022
1751223253611489800,2.53948974609375,-0.027488915249705315,0.014508038759231567,0.0007635809597559273
1751223253630316300,2.55831640625,-0.0054977829568088055,0.025503603741526604,0.006872228812426329
1751223253649142500,2.577142578125,-0.006719512399286032,0.018173227086663246,0.0032070400193333626
1751223253667969000,2.595968994140625,-0.007941242307424545,-0.005039634648710489,0.005650499369949102
1751223253686795500,2.61479541015625,-0.009162971749901772,-0.023365577682852745,-0.001679878099821508
1751223253705621800,2.633621826171875,-0.020158538594841957,-0.025809036567807198,-0.006566796451807022
1751223253724448300,2.6524482421875,-0.06902772188186646,-0.0013744457392022014,-0.00045814859913662076
1751223253743274800,2.671274658203125,-0.1484401375055313,0.010842849500477314,-0.007788525894284248
1751223253762101200,2.690101318359375,-0.18875721096992493,-0.0025961752980947495,-0.02611446939408779
1751223253780927500,2.708927490234375,-0.16187916696071625,-0.011148282326757908,-0.021227551624178886
1751223253799754000,2.72775390625,-0.09712749719619751,-0.01359174121171236,-0.012675444595515728
1751223253818580500,2.74658056640625,-0.049480047076940536,-0.005039634648710489,-0.006566796451807022
1751223253837406700,2.76540673828125,-0.033597562462091446,0.003512472379952669,-0.00045814859913662076
1751223253856233200,2.784233154296875,-0.027488915249705315,-0.0001527161948615685,-0.001679878099821508
1751223253875059700,2.803059814453125,-0.017715077847242355,-0.0038179049734026194,0.0007635809597559273
1751223253893886000,2.821885986328125,-0.004276053514331579,-0.0062613640911877155,0.0032070400193333626
1751223253912712400,2.84071240234375,-0.007941242307424545,-0.0062613640911877155,0.0007635809597559273
1751223253931539000,2.8595390625,-0.009162971749901772,-0.0001527161948615685,0.0019853105768561363
1751223253950365200,2.878365234375,-0.0030543238390237093,0.003512472379952669,0.0007635809597559273
1751223253969191700,2.897191650390625,-0.001832594396546483,0.002290742937475443,0.0007635809597559273
1751223253988018200,2.91601806640625,-0.0054977829568088055,0.004734201822429895,0.004428769461810589
1751223254006844400,2.934844482421875,-0.006719512399286032,0.004734201822429895,0.005650499369949102
1751223254025671000,2.9536708984375,-0.004276053514331579,0.010842849500477314,0.0007635809597559273
1751223254044497400,2.972497314453125,-0.004276053514331579,0.013286309316754341,0.006872228812426329
1751223254063323600,2.99132373046875,-0.0030543238390237093,0.008399390615522861,0.0032070400193333626
1751223254082150100,3.010150146484375,-0.004276053514331579,0.004734201822429895,0.0032070400193333626
1751223254100976600,3.0289765625,-0.0030543238390237093,0.010842849500477314,0.004428769461810589
1751223254119803000,3.047802978515625,-0.001832594396546483,0.014508038759231567,0.005650499369949102
1751223254138629400,3.06662939453125,-0.001832594396546483,0.01206457894295454,0.004428769461810589
1751223254157456000,3.085455810546875,-0.000610864779446274,0.007177661173045635,0.005650499369949102
1751223254176282400,3.104282470703125,0.004276053514331579,0.009621120058000088,0.005650499369949102
1751223254195108600,3.123108642578125,-0.001832594396546483,0.021838415414094925,0.008093958720564842
1751223254213935000,3.14193505859375,-0.000610864779446274,0.026572618633508682,-0.001679878099821508
1751223254232761300,3.16076123046875,0.01893680728971958,0.010842849500477314,-0.001679878099821508
1751223254251587800,3.179587890625,0.07391463965177536,0.013286309316754341,0.010537417605519295
1751223254270414300,3.198414306640625,0.10079269111156464,0.010842849500477314,0.017867794260382652
1751223254289240600,3.217240478515625,0.11056652665138245,0.015729768201708794,0.014202605932950974
1751223254308067000,3.236067138671875,0.1545487940311432,-0.0001527161948615685,0.020311253145337105
1751223254326893600,3.2548935546875,0.2657261788845062,-0.007483093533664942,0.030085090547800064
1751223254345720000,3.273719970703125,0.4001164436340332,-0.017256930470466614,0.04718930274248123
1751223254364546300,3.29254638671875,0.5027416944503784,-0.033139415085315704,0.05451968312263489
1751223254383372800,3.311372802734375,0.5870410799980164,-0.05024362727999687,0.055741410702466965
1751223254402199300,3.33019921875,0.721431314945221,-0.03558287397027016,0.08261945843696594
1751223254421025500,3.349025634765625,0.842382550239563,-0.03558287397027016,0.09361502528190613
1751223254439852000,3.36785205078125,0.841160774230957,-0.01847865991294384,0.09117157012224197
1751223254458678300,3.38667822265625,0.6811142563819885,-0.0001527161948615685,0.07895427197217941
1751223254477504800,3.4055048828125,0.4929678738117218,-0.01359174121171236,0.04718930274248123
1751223254496331300,3.424331298828125,0.37201663851737976,-0.01359174121171236,0.039858926087617874
1751223254515157500,3.443157470703125,0.25350889563560486,-0.008704823441803455,0.036193739622831345
1751223254533984000,3.46198388671875,0.07880155742168427,0.007177661173045635,0.016646064817905426
1751223254552810500,3.480810546875,-0.01893680728971958,0.015729768201708794,0.011759147047996521
1751223254571637000,3.499636962890625,-0.010384701192378998,0.009621120058000088,-0.00045814859913662076
1751223254590463200,3.518463134765625,-0.011606430634856224,-0.0001527161948615685,0.008093958720564842
1751223254609289700,3.537289794921875,-0.025045456364750862,0.009621120058000088,0.005650499369949102
1751223254628116200,3.5561162109375,-0.05558869615197182,0.014508038759231567,0.005650499369949102
1751223254646942500,3.5749423828125,-0.05558869615197182,0.0010690133785828948,-0.005345067009329796
1751223254665769000,3.59376904296875,-0.031154103577136993,0.002290742937475443,0.005650499369949102
1751223254684595200,3.61259521484375,-0.031154103577136993,0.002290742937475443,0.008093958720564842
1751223254703421700,3.631421630859375,-0.05436696484684944,-0.0013744457392022014,-0.006566796451807022
1751223254722248200,3.650248291015625,-0.0922405794262886,0.01206457894295454,-0.004123337101191282
1751223254741074400,3.669074462890625,-0.11667517572641373,0.015729768201708794,-0.0102319847792387
1751223254759901000,3.68790087890625,-0.14721840620040894,0.008399390615522861,-0.013744457624852657
1751223254778727400,3.7067275390625,-0.1594357043504715,0.008399390615522861,-0.013744457624852657
1751223254797553700,3.7255537109375,-0.1545487940311432,0.010842849500477314,-0.013744457624852657
1751223254816380200,3.744380126953125,-0.16554436087608337,0.01695149764418602,-0.012675444595515728
1751223254835206700,3.76320654296875,-0.2156352698802948,0.0206166859716177,-0.01511890348047018
1751223254854033000,3.782032958984375,-0.30604326725006104,0.0010690133785828948,-0.03222311660647392
1751223254872859400,3.800859375,-0.38301220536231995,0.002290742937475443,-0.03817904740571976
1751223254891686000,3.819685791015625,-0.40255987644195557,0.01206457894295454,-0.04062250629067421
1751223254910512000,3.83851220703125,-0.3756818473339081,0.015729768201708794,-0.03329212963581085
1751223254929338600,3.857338623046875,-0.3597993552684784,0.015729768201708794,-0.029626941308379173
1751223254948165000,3.8761650390625,-0.36835145950317383,-0.0001527161948615685,-0.04062250629067421
1751223254966991400,3.894991455078125,-0.35613417625427246,-0.016035201027989388,-0.04673115536570549
1751223254985817900,3.91381787109375,-0.29504770040512085,-0.017256930470466614,-0.03940077871084213
1751223255004644400,3.932644287109375,-0.21930044889450073,-0.009926552884280682,-0.028405211865901947
1751223255023470600,3.951470703125,-0.164322629570961,-0.005039634648710489,-0.009010255336761475
1751223255042297000,3.970297119140625,-0.1496618688106537,-0.005039634648710489,-0.016340631991624832
1751223255061123300,3.989123291015625,-0.16187916696071625,0.0010690133785828948,-0.013744457624852657
1751223255079949800,4.00794970703125,-0.185092031955719,0.007177661173045635,-0.016340631991624832
1751223255098776300,4.0267763671875,-0.20830489695072174,0.014508038759231567,-0.018631376326084137
1751223255117602600,4.0456025390625,-0.2461785078048706,0.009621120058000088,-0.013744457624852657
1751223255136429000,4.064428955078125,-0.31093016266822815,0.003512472379952669,-0.031001387163996696
1751223255155255600,4.083255615234375,-0.4013381600379944,-0.0025961752980947495,-0.03940077871084213
1751223255174081800,4.102081787109375,-0.48563748598098755,-0.0038179049734026194,-0.05528326332569122
1751223255192908300,4.120908203125,-0.5198459029197693,0.008399390615522861,-0.057726722210645676
1751223255211734800,4.13973486328125,-0.5137372612953186,0.01206457894295454,-0.05406153202056885
1751223255230561000,4.15856103515625,-0.5039634704589844,0.014508038759231567,-0.04917461425065994
1751223255249387500,4.177387451171875,-0.5051851868629456,0.004734201822429895,-0.0565049909055233
1751223255268214000,4.196214111328125,-0.5100721120834351,0.004734201822429895,-0.061391908675432205
1751223255287040300,4.215040283203125,-0.5088503360748291,0.013286309316754341,-0.051618073135614395
1751223255305866800,4.23386669921875,-0.48930269479751587,0.019394956529140472,-0.047952886670827866
1751223255324693200,4.252693359375,-0.45509424805641174,0.019394956529140472,-0.04306596517562866
1751223255343519500,4.27151953125,-0.3915643095970154,0.014508038759231567,-0.029626941308379173
1751223255362346000,4.290345947265625,-0.3439168632030487,0.004734201822429895,-0.03940077871084213
1751223255381172200,4.309172119140625,-0.3439168632030487,0.009621120058000088,-0.03817904740571976
1751223255399998700,4.327998779296875,-0.35613417625427246,0.026572618633508682,-0.029626941308379173
1751223255418825200,4.3468251953125,-0.3695732057094574,0.026572618633508682,-0.03451386094093323
1751223255437651500,4.3656513671875,-0.3805687427520752,0.018173227086663246,-0.03940077871084213
1751223255456478000,4.38447802734375,-0.3805687427520752,0.009621120058000088,-0.035735588520765305
1751223255475304400,4.403304443359375,-0.3610210716724396,0.002290742937475443,-0.03451386094093323
1751223255494130700,4.422130615234375,-0.3634645342826843,0.004734201822429895,-0.03222311660647392
1751223255512957200,4.440957275390625,-0.40255987644195557,0.01206457894295454,-0.031001387163996696
1751223255531783700,4.45978369140625,-0.4416552484035492,-0.0001527161948615685,-0.05039634555578232
1751223255550610000,4.47860986328125,-0.4770853817462921,-0.0062613640911877155,-0.05528326332569122
1751223255569436400,4.4974365234375,-0.4978547990322113,-0.0062613640911877155,-0.057726722210645676
1751223255588262700,4.5162626953125,-0.5308414697647095,0.0010690133785828948,-0.06261363625526428
1751223255607089200,4.535089111328125,-0.5577195286750793,0.008399390615522861,-0.057726722210645676
1751223255625915600,4.55391552734375,-0.5760455131530762,0.014508038759231567,-0.05894844979047775
1751223255644742000,4.572741943359375,-0.5894845128059387,0.010842849500477314,-0.061391908675432205
1751223255663568400,4.591568359375,-0.6163625717163086,0.014508038759231567,-0.07116574794054031
1751223255682395000,4.610394775390625,-0.6346884965896606,0.026572618633508682,-0.061391908675432205
1751223255701221000,4.62922119140625,-0.6310232877731323,0.029016077518463135,-0.06383536756038666
1751223255720047600,4.648047607421875,-0.6090322136878967,0.030390523374080658,-0.06383536756038666
1751223255738874000,4.6668740234375,-0.565049946308136,0.02306014485657215,-0.0565049909055233
1751223255757700400,4.685700439453125,-0.5235111117362976,0.0206166859716177,-0.047952886670827866
1751223255776526800,4.70452685546875,-0.5235111117362976,0.026572618633508682,-0.04917461425065994
1751223255795353000,4.72335302734375,-0.5809323787689209,0.019394956529140472,-0.06261363625526428
1751223255814179600,4.7421796875,-0.6725621223449707,0.02306014485657215,-0.07483093440532684
1751223255833006000,4.761006103515625,-0.7654135823249817,0.015729768201708794,-0.07971785217523575
1751223255851832300,4.779832275390625,-0.8277217745780945,0.008399390615522861,-0.09193515032529831
1751223255870658800,4.798658935546875,-0.8362739086151123,0.015729768201708794,-0.08338304609060287
1751223255889485300,4.8174853515625,-0.7996219992637634,0.013286309316754341,-0.08826996386051178
1751223255908311600,4.8363115234375,-0.721431314945221,0.015729768201708794,-0.08460476994514465
1751223255927138000,4.855137939453125,-0.5980366468429565,0.019394956529140472,-0.06627883017063141
1751223255945964300,4.87396435546875,-0.46486809849739075,0.02306014485657215,-0.051618073135614395
1751223255964790800,4.892790771484375,-0.3488037884235382,0.025503603741526604,-0.03222311660647392
1751223255983617300,4.9116171875,-0.27550002932548523,0.03527744114398956,-0.018631376326084137
1751223256002443500,4.930443603515625,-0.24251331388950348,0.03390299528837204,-0.016340631991624832
1751223256021270000,4.94927001953125,-0.2315177470445633,0.032681263983249664,-0.016340631991624832
1751223256040096500,4.968096435546875,-0.2205221801996231,0.024281874299049377,-0.021227551624178886
1751223256058922800,4.9869228515625,-0.2009745091199875,0.01695149764418602,-0.01511890348047018
1751223256077749200,5.005749267578125,-0.18387030065059662,0.018173227086663246,-0.011453714221715927
1751223256096575500,5.024575439453125,-0.1740964651107788,0.021838415414094925,-0.013744457624852657
1751223256115402000,5.043402099609375,-0.19242240488529205,0.02306014485657215,-0.01511890348047018
1751223256134228500,5.062228515625,-0.19853104650974274,0.019394956529140472,-0.013744457624852657
1751223256153054700,5.0810546875,-0.19242240488529205,0.008399390615522861,-0.016340631991624832
1751223256171881200,5.099881103515625,-0.18753549456596375,0.003512472379952669,-0.018631376326084137
1751223256190707700,5.118707763671875,-0.19730933010578156,-0.0001527161948615685,-0.018631376326084137
1751223256209534000,5.137533935546875,-0.20463970303535461,0.002290742937475443,-0.021227551624178886
1751223256228360400,5.1563603515625,-0.20830489695072174,0.003512472379952669,-0.022296564653515816
1751223256247186700,5.175186767578125,-0.21807873249053955,0.004734201822429895,-0.018631376326084137
1751223256266013200,5.19401318359375,-0.23273947834968567,0.007177661173045635,-0.024740023538470268
1751223256284839700,5.212839599609375,-0.25473061203956604,0.019394956529140472,-0.018631376326084137
1751223256303666000,5.231666015625,-0.28038692474365234,0.0206166859716177,-0.021227551624178886
1751223256322492400,5.250492431640625,-0.28405213356018066,0.013286309316754341,-0.029626941308379173
1751223256341318700,5.269318603515625,-0.2559523284435272,0.014508038759231567,-0.022296564653515816
1751223256360145200,5.288145263671875,-0.21807873249053955,0.009621120058000088,-0.019853105768561363
1751223256378971600,5.3069716796875,-0.18264856934547424,0.005955931730568409,-0.022296564653515816
1751223256397798000,5.3257978515625,-0.14110976457595825,0.008399390615522861,-0.011453714221715927
1751223256416624400,5.344624267578125,-0.10079269111156464,0.005955931730568409,-0.007788525894284248
1751223256435451000,5.363450927734375,-0.06536252796649933,-0.0001527161948615685,-0.002901607658714056
1751223256454277000,5.382277099609375,-0.037262752652168274,-0.0001527161948615685,-0.001679878099821508
1751223256473103600,5.401103515625,-0.025045456364750862,0.008399390615522861,0.004428769461810589
1751223256491929900,5.419929931640625,-0.027488915249705315,0.013286309316754341,0.0007635809597559273
1751223256510756400,5.43875634765625,-0.021380268037319183,0.01695149764418602,0.004428769461810589
1751223256529582800,5.457582763671875,-0.020158538594841957,0.014508038759231567,0.006872228812426329
1751223256548409000,5.4764091796875,-0.03237583488225937,0.010842849500477314,0.0032070400193333626
1751223256567235600,5.495235595703125,-0.08002328872680664,0.007177661173045635,0.0007635809597559273
1751223256586061800,5.514061767578125,-0.17531819641590118,0.002290742937475443,-0.01740964688360691
1751223256604888300,5.532888427734375,-0.2559523284435272,-0.0013744457392022014,-0.028405211865901947
1751223256623714800,5.55171484375,-0.29504770040512085,-0.005039634648710489,-0.03329212963581085
1751223256642541000,5.570541015625,-0.30482152104377747,-0.0013744457392022014,-0.03222311660647392
1751223256661367600,5.589367431640625,-0.29626941680908203,0.004734201822429895,-0.031001387163996696
1751223256680193800,5.60819384765625,-0.28038692474365234,0.007177661173045635,-0.028405211865901947
1751223256699020300,5.627020263671875,-0.2522871494293213,0.007177661173045635,-0.028405211865901947
1751223256717846800,5.6458466796875,-0.22907429933547974,0.01206457894295454,-0.022296564653515816
1751223256736673000,5.664673095703125,-0.22174391150474548,0.007177661173045635,-0.021227551624178886
1751223256755499500,5.68349951171875,-0.2364046722650528,0.007177661173045635,-0.021227551624178886
1751223256774326000,5.702325927734375,-0.2571740746498108,0.008399390615522861,-0.02611446939408779
1751223256802565400,5.7305654296875,-0.2461785078048706,0.01695149764418602,-0.022296564653515816
1751223256821392000,5.749391845703125,-0.2205221801996231,0.01695149764418602,-0.01740964688360691
1751223256840218400,5.76821826171875,-0.205861434340477,0.013286309316754341,-0.016340631991624832
1751223256859044600,5.787044677734375,-0.21930044889450073,0.010842849500477314,-0.01740964688360691
1751223256877871000,5.80587109375,-0.24984370172023773,0.002290742937475443,-0.023518294095993042
1751223256896697300,5.824697265625,-0.28405213356018066,0.003512472379952669,-0.024740023538470268
1751223256915523800,5.84352392578125,-0.3084867000579834,0.0010690133785828948,-0.031001387163996696
1751223256934350300,5.862350341796875,-0.31459537148475647,0.0010690133785828948,-0.03695731982588768
1751223256953176600,5.881176513671875,-0.3023780584335327,0.007177661173045635,-0.03222311660647392
1751223256972003000,5.900003173828125,-0.29993459582328796,0.01695149764418602,-0.029626941308379173
1751223256990829300,5.918829345703125,-0.29504770040512085,0.015729768201708794,-0.02718348242342472
1751223257009655800,5.93765576171875,-0.29504770040512085,0.010842849500477314,-0.023518294095993042
1751223257028482300,5.956482421875,-0.27916520833969116,0.010842849500477314,-0.024740023538470268
1751223257047308500,5.97530859375,-0.2510654330253601,0.013286309316754341,-0.023518294095993042
1751223257066135000,5.994135009765625,-0.22296564280986786,0.019394956529140472,-0.019853105768561363
1751223257084961500,6.01296142578125,-0.1899789422750473,0.026572618633508682,-0.012675444595515728
1751223257103787800,6.031787841796875,-0.17531819641590118,0.015729768201708794,-0.013744457624852657
1751223257122614300,6.0506142578125,-0.1802051067352295,0.005955931730568409,-0.012675444595515728
1751223257141440500,6.0694404296875,-0.20708316564559937,0.004734201822429895,-0.01511890348047018
1751223257160267000,6.08826708984375,-0.24984370172023773,0.015729768201708794,-0.019853105768561363
1751223257179093200,6.10709326171875,-0.2864955961704254,0.018173227086663246,-0.031001387163996696
1751223257197919700,6.125919677734375,-0.28527384996414185,0.008399390615522861,-0.028405211865901947
1751223257216746200,6.144746337890625,-0.2706131041049957,-0.0038179049734026194,-0.022296564653515816
1751223257235572500,6.163572509765625,-0.24862197041511536,-0.007483093533664942,-0.021227551624178886
1751223257254399000,6.18239892578125,-0.25961753726005554,0.005955931730568409,-0.021227551624178886
1751223257273225200,6.20122509765625,-0.29138249158859253,0.02306014485657215,-0.024740023538470268
1751223257292051700,6.2200517578125,-0.32559093832969666,0.03634645417332649,-0.029626941308379173
1751223257310878200,6.238878173828125,-0.3646862804889679,0.04505127668380737,-0.029626941308379173
1751223257339117600,6.26711767578125,-0.42943793535232544,0.03634645417332649,-0.04062250629067421
1751223257357944000,6.285944091796875,-0.45020735263824463,0.02779434807598591,-0.04917461425065994
1751223257376770600,6.3047705078125,-0.4819723069667816,0.015729768201708794,-0.05406153202056885
1751223257395596800,6.3235966796875,-0.5332849621772766,0.018173227086663246,-0.057726722210645676
1751223257414423300,6.34242333984375,-0.5919279456138611,0.04016435891389847,-0.057726722210645676
1751223257433249500,6.36124951171875,-0.6395754218101501,0.054672397673130035,-0.06750056147575378
1751223257452076000,6.380075927734375,-0.6640099883079529,0.048563748598098755,-0.0772743970155716
1751223257470902500,6.398902587890625,-0.6688969135284424,0.03527744114398956,-0.07116574794054031
1751223257489728800,6.417728759765625,-0.676227331161499,0.008399390615522861,-0.07360920310020447
1751223257508555300,6.43655517578125,-0.6701186895370483,0.007177661173045635,-0.07605266571044922
1751223257527381500,6.455381591796875,-0.6432406306266785,0.015729768201708794,-0.06872228533029556
1751223257546208000,6.4742080078125,-0.5723803043365479,0.02779434807598591,-0.06017018109560013
1751223257565034500,6.493034423828125,-0.462424635887146,0.026572618633508682,-0.03940077871084213
1751223257583860700,6.51186083984375,-0.34636032581329346,0.02779434807598591,-0.024740023538470268
1751223257602687200,6.530687255859375,-0.2254091054201126,0.014508038759231567,-0.01740964688360691
1751223257621513500,6.549513427734375,-0.09346231073141098,0.015729768201708794,-0.006566796451807022
1751223257640340000,6.568340087890625,-0.0054977829568088055,0.010842849500477314,0.010537417605519295
1751223257659166200,6.587166259765625,-0.007941242307424545,0.008399390615522861,0.008093958720564842
1751223257677992700,6.60599267578125,-0.007941242307424545,0.003512472379952669,0.009315688163042068
1751223257696819200,6.624819091796875,-0.006719512399286032,0.014508038759231567,0.008093958720564842
1751223257715645400,6.6436455078125,-0.006719512399286032,0.03390299528837204,0.0154243353754282
1751223257734472000,6.662471923828125,-0.009162971749901772,0.03527744114398956,0.0154243353754282
1751223257753298200,6.681298095703125,-0.01649334840476513,0.04016435891389847,0.011759147047996521
1751223257772124700,6.700124755859375,-0.04459312930703163,0.0461202897131443,0.01908952370285988
1751223257790951200,6.718951171875,-0.10934479534626007,0.032681263983249664,0.004428769461810589
1751223257809777400,6.73777734375,-0.17043127119541168,0.004734201822429895,-0.013744457624852657
1751223257828604000,6.75660400390625,-0.23518294095993042,-0.014813470654189587,-0.022296564653515816
1751223257847430100,6.77543017578125,-0.2938259541988373,-0.01847865991294384,-0.02718348242342472
1751223257866256600,6.794256591796875,-0.32192572951316833,-0.014813470654189587,-0.03817904740571976
1751223257885083000,6.813082763671875,-0.29626941680908203,-0.0038179049734026194,-0.03222311660647392
1751223257903909400,6.831909423828125,-0.24862197041511536,-0.0013744457392022014,-0.022296564653515816
1751223257922735600,6.850735595703125,-0.18387030065059662,-0.008704823441803455,-0.022296564653515816
1751223257941562000,6.86956201171875,-0.11667517572641373,0.002290742937475443,-0.0102319847792387
1751223257960388600,6.888388671875,-0.06780599057674408,0.009621120058000088,0.0007635809597559273
1751223257979214800,6.90721484375,-0.037262752652168274,0.018173227086663246,0.0019853105768561363
1751223257998041300,6.926041259765625,-0.031154103577136993,0.014508038759231567,0.005650499369949102
1751223258016867600,6.94486767578125,-0.0360410213470459,0.009621120058000088,0.0007635809597559273
1751223258035694000,6.963694091796875,-0.05558869615197182,0.01206457894295454,0.0019853105768561363
1751223258054520600,6.9825205078125,-0.09957095980644226,0.010842849500477314,-0.004123337101191282
1751223258073346800,7.001346923828125,-0.14721840620040894,0.004734201822429895,-0.01740964688360691
1751223258092173300,7.02017333984375,-0.19608759880065918,-0.0025961752980947495,-0.022296564653515816
1751223258110999600,7.03899951171875,-0.23518294095993042,-0.0062613640911877155,-0.023518294095993042
1751223258129826000,7.057825927734375,-0.25473061203956604,-0.007483093533664942,-0.021227551624178886
1751223258148652300,7.07665234375,-0.2620609998703003,-0.008704823441803455,-0.02611446939408779
1751223258167478800,7.095478759765625,-0.24251331388950348,-0.014813470654189587,-0.031001387163996696
1751223258186305300,7.11430517578125,-0.2156352698802948,-0.005039634648710489,-0.02718348242342472
1751223258205131500,7.133131591796875,-0.18875721096992493,0.01206457894295454,-0.012675444595515728
1751223258223958000,7.1519580078125,-0.1802051067352295,0.01695149764418602,-0.009010255336761475
1751223258242784300,7.1707841796875,-0.17165300250053406,0.013286309316754341,-0.012675444595515728
1751223258261610800,7.18961083984375,-0.15088360011577606,0.009621120058000088,-0.012675444595515728
1751223258280437000,7.20843701171875,-0.12767073512077332,0.018173227086663246,-0.006566796451807022
1751223258299263500,7.227263427734375,-0.09101885557174683,0.01695149764418602,-0.004123337101191282
1751223258318089700,7.24608984375,-0.05558869615197182,0.0206166859716177,0.0019853105768561363
1751223258346329300,7.274329345703125,-0.06902772188186646,0.0206166859716177,0.0019853105768561363
1751223258365155800,7.29315576171875,-0.10567960888147354,0.010842849500477314,-0.009010255336761475
1751223258383982000,7.311982177734375,-0.1496618688106537,-0.005039634648710489,-0.01511890348047018
1751223258402808600,7.33080859375,-0.17043127119541168,-0.01847865991294384,-0.019853105768561363
1751223258421635000,7.349635009765625,-0.185092031955719,-0.02458730712532997,-0.022296564653515816
1751223258440461300,7.36846142578125,-0.19608759880065918,-0.01847865991294384,-0.018631376326084137
1751223258459287800,7.387287841796875,-0.2156352698802948,-0.014813470654189587,-0.019853105768561363
1751223258478114000,7.406114013671875,-0.2107483446598053,-0.0062613640911877155,-0.024740023538470268
1751223258496940500,7.4249404296875,-0.1948658674955368,0.018173227086663246,-0.01740964688360691
1751223258515766800,7.443766845703125,-0.14233149588108063,0.026572618633508682,-0.005345067009329796
1751223258534593300,7.46259326171875,-0.10445787757635117,0.024281874299049377,-0.001679878099821508
1751223258553419500,7.48141943359375,-0.06536252796649933,0.019394956529140472,0.0032070400193333626
1751223258572246000,7.50024609375,-0.04459312930703163,0.015729768201708794,0.0032070400193333626
1751223258591072500,7.519072509765625,-0.03848448023200035,0.018173227086663246,0.0032070400193333626
1751223258609898800,7.537898681640625,-0.039706211537122726,0.015729768201708794,-0.00045814859913662076
1751223258628725200,7.556725341796875,-0.049480047076940536,0.015729768201708794,0.0007635809597559273
1751223258647551500,7.575551513671875,-0.08124501258134842,0.009621120058000088,-0.002901607658714056
1751223258666378000,7.5943779296875,-0.13744457066059113,-0.005039634648710489,-0.01511890348047018
1751223258685204200,7.613204345703125,-0.19730933010578156,-0.016035201027989388,-0.019853105768561363
1751223258704030700,7.63203076171875,-0.2315177470445633,-0.016035201027989388,-0.024740023538470268
1751223258722857200,7.650857177734375,-0.24862197041511536,-0.014813470654189587,-0.024740023538470268
1751223258741683500,7.669683349609375,-0.24006985127925873,-0.005039634648710489,-0.02718348242342472
1751223258760510000,7.688510009765625,-0.19608759880065918,0.008399390615522861,-0.018631376326084137
1751223258779336200,7.707336181640625,-0.15210533142089844,0.009621120058000088,-0.0102319847792387
1751223258798162700,7.72616259765625,-0.1288924664258957,0.0010690133785828948,-0.01511890348047018
1751223258816989000,7.744989013671875,-0.10934479534626007,0.005955931730568409,-0.009010255336761475
1751223258835815400,7.7638154296875,-0.10934479534626007,0.014508038759231567,0.0007635809597559273
1751223258854641700,7.7826416015625,-0.11545344442129135,0.010842849500477314,-0.005345067009329796
1751223258873468200,7.80146826171875,-0.12156209349632263,0.005955931730568409,-0.013744457624852657
1751223258892294400,7.82029443359375,-0.1178968995809555,0.004734201822429895,-0.009010255336761475
1751223258911121000,7.839120849609375,-0.10079269111156464,-0.005039634648710489,-0.011453714221715927
1751223258929947100,7.857947021484375,-0.09712749719619751,0.0010690133785828948,-0.005345067009329796
1751223258958186800,7.886186767578125,-0.0922405794262886,0.0010690133785828948,-0.007788525894284248
1751223258977013200,7.90501318359375,-0.08613193035125732,-0.0001527161948615685,-0.006566796451807022
1751223258995839500,7.923839599609375,-0.09346231073141098,0.004734201822429895,-0.001679878099821508
1751223259014666000,7.942666015625,-0.09957095980644226,0.003512472379952669,-0.005345067009329796
1751223259033492200,7.9614921875,-0.09346231073141098,0.004734201822429895,-0.007788525894284248
1751223259052318700,7.980318603515625,-0.09346231073141098,0.014508038759231567,-0.001679878099821508
1751223259071145200,7.999145263671875,-0.10079269111156464,0.01206457894295454,-0.004123337101191282
1751223259089971500,8.017971435546874,-0.143553227186203,0.003512472379952669,-0.011453714221715927
1751223259108798000,8.0367978515625,-0.185092031955719,-0.0025961752980947495,-0.01740964688360691
1751223259127624200,8.055624267578125,-0.17898337543010712,0.003512472379952669,-0.01740964688360691
1751223259146450700,8.07445068359375,-0.15210533142089844,0.015729768201708794,-0.013744457624852657
1751223259165277000,8.09327685546875,-0.13255766034126282,0.013286309316754341,-0.009010255336761475
1751223259184103400,8.112103515625,-0.14477495849132538,0.010842849500477314,-0.0102319847792387
1751223259202929700,8.1309296875,-0.17165300250053406,-0.0025961752980947495,-0.018631376326084137
1751223259221756200,8.149756103515625,-0.185092031955719,-0.0001527161948615685,-0.018631376326084137
1751223259240582400,8.16858251953125,-0.17653992772102356,0.005955931730568409,-0.013744457624852657
1751223259259409000,8.187408935546875,-0.14477495849132538,0.007177661173045635,-0.016340631991624832
1751223259278235400,8.2062353515625,-0.08124501258134842,0.010842849500477314,-0.005345067009329796
1751223259297061600,8.2250615234375,-0.027488915249705315,0.008399390615522861,0.0007635809597559273
1751223259315888000,8.24388818359375,-0.006719512399286032,-0.005039634648710489,-0.00045814859913662076
1751223259334714400,8.26271435546875,-0.01282816007733345,0.002290742937475443,-0.001679878099821508
1751223259353540900,8.281540771484375,-0.025045456364750862,0.013286309316754341,0.0007635809597559273
1751223259372367000,8.3003671875,-0.05803215503692627,0.038789913058280945,0.010537417605519295
1751223259391193600,8.319193603515625,-0.13011419773101807,0.05833758786320686,0.0032070400193333626
1751223259410019800,8.338019775390626,-0.18142683804035187,0.04367683082818985,-0.009010255336761475
1751223259428846300,8.356846435546874,-0.2156352698802948,0.04367683082818985,-0.009010255336761475
1751223259447672600,8.375672607421874,-0.2559523284435272,0.024281874299049377,-0.01511890348047018
1751223259466499000,8.3944990234375,-0.2877173125743866,0.005955931730568409,-0.028405211865901947
1751223259485325300,8.4133251953125,-0.30482152104377747,0.002290742937475443,-0.029626941308379173
1751223259504151800,8.43215185546875,-0.33536475896835327,0.008399390615522861,-0.03222311660647392
1751223259522978000,8.45097802734375,-0.32681265473365784,0.002290742937475443,-0.03451386094093323
1751223259541804500,8.469804443359376,-0.2889390289783478,0.002290742937475443,-0.029626941308379173
1751223259560630800,8.488630859375,-0.24495677649974823,-0.0001527161948615685,-0.023518294095993042
1751223259579457300,8.507457275390625,-0.19730933010578156,0.0010690133785828948,-0.022296564653515816
1751223259598283800,8.52628369140625,-0.17898337543010712,-0.0001527161948615685,-0.013744457624852657
1751223259617110000,8.545110107421875,-0.185092031955719,-0.0013744457392022014,-0.01740964688360691
1751223259635936500,8.5639365234375,-0.20219624042510986,-0.0062613640911877155,-0.021227551624178886
1751223259654762800,8.5827626953125,-0.2364046722650528,-0.008704823441803455,-0.023518294095993042
1751223259673589200,8.60158935546875,-0.23884813487529755,-0.008704823441803455,-0.022296564653515816
1751223259692415500,8.62041552734375,-0.21319180727005005,-0.011148282326757908,-0.022296564653515816
1751223259711242000,8.639241943359375,-0.18264856934547424,-0.0001527161948615685,-0.01511890348047018
1751223259730068200,8.658068115234375,-0.1899789422750473,0.0010690133785828948,-0.01740964688360691
1751223259748894700,8.676894775390625,-0.1997527778148651,0.0010690133785828948,-0.024740023538470268
1751223259767721000,8.695720947265626,-0.19364413619041443,0.004734201822429895,-0.019853105768561363
1751223259786547500,8.71454736328125,-0.14599667489528656,0.003512472379952669,-0.011453714221715927
1751223259805373700,8.733373779296874,-0.11911863088607788,-0.0001527161948615685,-0.004123337101191282
1751223259824200200,8.7522001953125,-0.11545344442129135,-0.0062613640911877155,-0.013744457624852657
1751223259843026400,8.7710263671875,-0.11667517572641373,0.003512472379952669,-0.009010255336761475
1751223259861853000,8.78985302734375,-0.10445787757635117,0.014508038759231567,-0.005345067009329796
1751223259880679200,8.80867919921875,-0.0824667438864708,0.014508038759231567,-0.001679878099821508
1751223259899505700,8.827505615234376,-0.07880155742168427,0.008399390615522861,-0.00045814859913662076
1751223259918332000,8.846331787109374,-0.08857539296150208,0.008399390615522861,-0.001679878099821508
1751223259937158400,8.865158447265625,-0.10690133273601532,0.009621120058000088,-0.006566796451807022
1751223259955984600,8.883984619140625,-0.13988803327083588,0.018173227086663246,-0.009010255336761475
1751223259974811100,8.90281103515625,-0.17653992772102356,0.02779434807598591,-0.0102319847792387
1751223259993637600,8.9216376953125,-0.21685700118541718,0.0206166859716177,-0.016340631991624832
1751223260012463900,8.9404638671875,-0.24862197041511536,0.018173227086663246,-0.021227551624178886
1751223260031290000,8.9592900390625,-0.2767217457294464,0.01206457894295454,-0.024740023538470268
1751223260050116600,8.97811669921875,-0.2926042377948761,0.013286309316754341,-0.022296564653515816
1751223260068942800,8.99694287109375,-0.30115634202957153,0.008399390615522861,-0.029626941308379173
1751223260087769300,9.015769287109375,-0.3133736252784729,0.018173227086663246,-0.028405211865901947
1751223260106595800,9.034595947265625,-0.3170388340950012,0.0206166859716177,-0.031001387163996696
1751223260125422000,9.053422119140626,-0.31459537148475647,0.032681263983249664,-0.02718348242342472
1751223260144248300,9.072248291015624,-0.30482152104377747,0.03390299528837204,-0.023518294095993042
1751223260163074800,9.09107470703125,-0.2767217457294464,0.02779434807598591,-0.024740023538470268
1751223260181901300,9.1099013671875,-0.2522871494293213,0.02779434807598591,-0.01740964688360691
1751223260200727600,9.1287275390625,-0.22785256803035736,0.02779434807598591,-0.016340631991624832
1751223260219554000,9.147553955078125,-0.20341797173023224,0.0206166859716177,-0.016340631991624832
1751223260247793400,9.17579345703125,-0.21197007596492767,0.04245510324835777,-0.005345067009329796
1751223260266620000,9.194619873046875,-0.2522871494293213,0.03390299528837204,-0.01511890348047018
1751223260285446100,9.213446044921875,-0.26939135789871216,0.026572618633508682,-0.022296564653515816
1751223260304272600,9.232272705078126,-0.2510654330253601,0.014508038759231567,-0.021227551624178886
1751223260323099000,9.251098876953124,-0.22296564280986786,-0.0013744457392022014,-0.021227551624178886
1751223260341925400,9.26992529296875,-0.19242240488529205,-0.011148282326757908,-0.021227551624178886
1751223260360751600,9.288751708984375,-0.16798780858516693,-0.0062613640911877155,-0.018631376326084137
1751223260379578000,9.307578125,-0.17898337543010712,-0.005039634648710489,-0.018631376326084137
1751223260398404400,9.326404296875,-0.20219624042510986,-0.011148282326757908,-0.023518294095993042
1751223260417230800,9.34523095703125,-0.21197007596492767,-0.011148282326757908,-0.021227551624178886
1751223260436057000,9.36405712890625,-0.20341797173023224,-0.008704823441803455,-0.01740964688360691
1751223260454883600,9.382883544921874,-0.19364413619041443,-0.005039634648710489,-0.018631376326084137
1751223260473709800,9.401709716796875,-0.20219624042510986,-0.0013744457392022014,-0.018631376326084137
1751223260492536300,9.420536376953125,-0.21197007596492767,0.010842849500477314,-0.022296564653515816
1751223260511362600,9.439362548828125,-0.20830489695072174,0.013286309316754341,-0.016340631991624832
1751223260530189000,9.45818896484375,-0.20219624042510986,0.015729768201708794,-0.01511890348047018
1751223260549015300,9.477015380859376,-0.20463970303535461,0.014508038759231567,-0.013744457624852657
1751223260567841800,9.495841796875,-0.2205221801996231,0.010842849500477314,-0.018631376326084137
1751223260586668000,9.51466796875,-0.24495677649974823,0.004734201822429895,-0.024740023538470268
1751223260605494500,9.53349462890625,-0.2657261788845062,0.003512472379952669,-0.029626941308379173
1751223260624320800,9.55232080078125,-0.2718348205089569,0.0010690133785828948,-0.02718348242342472
1751223260643147300,9.571147216796875,-0.268169641494751,0.007177661173045635,-0.023518294095993042
1751223260661973500,9.589973388671876,-0.23273947834968567,0.010842849500477314,-0.023518294095993042
1751223260680800000,9.608800048828124,-0.16065743565559387,0.0206166859716177,-0.01511890348047018
1751223260699626200,9.627626220703124,-0.06414080411195755,0.03527744114398956,0.0007635809597559273
1751223260718452700,9.64645263671875,-0.03481929376721382,0.038789913058280945,0.010537417605519295
1751223260737279000,9.665279052734375,-0.05436696484684944,0.032681263983249664,0.006872228812426329
1751223260756105500,9.68410546875,-0.11056652665138245,0.02779434807598591,-0.002901607658714056
1751223260774931700,9.702931640625,-0.18631376326084137,0.01206457894295454,-0.016340631991624832
1751223260793758200,9.72175830078125,-0.23396120965480804,-0.005039634648710489,-0.028405211865901947
1751223260812584400,9.74058447265625,-0.27550002932548523,0.008399390615522861,-0.021227551624178886
1751223260831411000,9.759410888671875,-0.3292561173439026,0.0010690133785828948,-0.031001387163996696
1751223260850237200,9.7782373046875,-0.3634645342826843,0.009621120058000088,-0.041844237595796585
1751223260869063700,9.797063720703125,-0.35613417625427246,0.018173227086663246,-0.029626941308379173
1751223260887890000,9.815889892578125,-0.3170388340950012,0.008399390615522861,-0.03451386094093323
1751223260906716400,9.83471630859375,-0.26939135789871216,0.002290742937475443,-0.02718348242342472
1751223260925542700,9.853542724609374,-0.20219624042510986,0.003512472379952669,-0.021227551624178886
1751223260944369200,9.872369140625,-0.15088360011577606,0.005955931730568409,-0.013744457624852657
1751223260963195400,9.8911953125,-0.14477495849132538,0.002290742937475443,-0.011453714221715927
1751223260982022000,9.91002197265625,-0.16187916696071625,0.0010690133785828948,-0.01511890348047018
1751223261000848100,9.92884814453125,-0.19364413619041443,0.007177661173045635,-0.019853105768561363
1751223261019674600,9.947674560546876,-0.2315177470445633,0.013286309316754341,-0.01740964688360691
1751223261038500900,9.9665009765625,-0.2632827162742615,0.007177661173045635,-0.024740023538470268
1751223261057327400,9.985327392578125,-0.27427828311920166,-0.0013744457392022014,-0.02718348242342472
1751223261076153600,10.004153564453125,-0.268169641494751,0.004734201822429895,-0.024740023538470268
1751223261094980000,10.02297998046875,-0.2510654330253601,0.013286309316754341,-0.018631376326084137
1751223261113806300,10.041806396484375,-0.22418737411499023,0.03145953640341759,-0.012675444595515728
1751223261132632800,10.0606328125,-0.20341797173023224,0.01695149764418602,-0.01511890348047018
1751223261151459000,10.079458984375,-0.15699224174022675,0.002290742937475443,-0.019853105768561363
1751223261170285600,10.09828564453125,-0.11667517572641373,0.003512472379952669,-0.011453714221715927
1751223261189111800,10.11711181640625,-0.11911863088607788,0.004734201822429895,-0.004123337101191282
1751223261207938300,10.135938232421875,-0.1692095398902893,0.005955931730568409,-0.01511890348047018
1751223261226764500,10.1547646484375,-0.23273947834968567,0.008399390615522861,-0.022296564653515816
1751223261245590800,10.1735908203125,-0.26450446248054504,0.01206457894295454,-0.02611446939408779
1751223261264417300,10.192417236328126,-0.2718348205089569,0.015729768201708794,-0.021227551624178886
1751223261283243800,10.211243896484374,-0.28038692474365234,0.01695149764418602,-0.022296564653515816
1751223261302070000,10.230070068359375,-0.3121519088745117,0.007177661173045635,-0.024740023538470268
1751223261320896300,10.248896240234375,-0.3439168632030487,0.0010690133785828948,-0.03695731982588768
1751223261339722800,10.26772265625,-0.36712974309921265,-0.0038179049734026194,-0.03695731982588768
1751223261358549000,10.286549072265625,-0.36224281787872314,-0.009926552884280682,-0.03940077871084213
1751223261377375500,10.30537548828125,-0.3329212963581085,-0.0013744457392022014,-0.03222311660647392
1751223261396201700,10.32420166015625,-0.31459537148475647,0.0010690133785828948,-0.02611446939408779
1751223261415028200,10.3430283203125,-0.3182605504989624,-0.0038179049734026194,-0.035735588520765305
1751223261433854500,10.3618544921875,-0.30115634202957153,-0.0013744457392022014,-0.03695731982588768
1751223261452681000,10.380680908203125,-0.2608392536640167,0.004734201822429895,-0.02611446939408779
1751223261471507200,10.399507080078125,-0.20952661335468292,0.02306014485657215,-0.011453714221715927
1751223261490333700,10.418333740234376,-0.18142683804035187,0.015729768201708794,-0.012675444595515728
1751223261509160000,10.437159912109376,-0.18631376326084137,0.01695149764418602,-0.013744457624852657
1751223261527986400,10.455986328125,-0.19120067358016968,0.01206457894295454,-0.018631376326084137
1751223261546812700,10.474812744140625,-0.17776164412498474,0.009621120058000088,-0.019853105768561363
1751223261565639200,10.49363916015625,-0.14110976457595825,0.013286309316754341,-0.0102319847792387
1751223261584465400,10.51246533203125,-0.10445787757635117,0.018173227086663246,-0.001679878099821508
1751223261603292000,10.5312919921875,-0.09101885557174683,0.014508038759231567,-0.005345067009329796
1751223261622118100,10.5501181640625,-0.09346231073141098,0.02306014485657215,-0.004123337101191282
1751223261640944400,10.5689443359375,-0.09712749719619751,0.02306014485657215,-0.001679878099821508
1751223261659771000,10.58777099609375,-0.07269290834665298,0.03145953640341759,-0.001679878099821508
1751223261678597000,10.60659716796875,-0.06291907280683517,0.04016435891389847,0.014202605932950974
1751223261697423600,10.625423583984375,-0.08979712426662445,0.026572618633508682,-0.001679878099821508
1751223261716249900,10.644249755859375,-0.1533270627260208,0.010842849500477314,-0.01511890348047018
1751223261735076400,10.663076416015626,-0.20952661335468292,0.015729768201708794,-0.013744457624852657
1751223261753902600,10.681902587890624,-0.24495677649974823,0.010842849500477314,-0.024740023538470268
1751223261772729000,10.70072900390625,-0.24495677649974823,0.008399390615522861,-0.02718348242342472
1751223261791555300,10.719555419921875,-0.22785256803035736,0.002290742937475443,-0.022296564653515816
1751223261810381800,10.7383818359375,-0.20708316564559937,-0.0025961752980947495,-0.022296564653515816
1751223261829208000,10.7572080078125,-0.21319180727005005,-0.009926552884280682,-0.023518294095993042
1751223261848034600,10.77603466796875,-0.23518294095993042,-0.011148282326757908,-0.024740023538470268
1751223261866860800,10.79486083984375,-0.2461785078048706,-0.0038179049734026194,-0.024740023538470268
1751223261885687300,10.813687255859374,-0.24251331388950348,-0.0013744457392022014,-0.024740023538470268
1751223261904513500,10.832513427734375,-0.24740023910999298,-0.0025961752980947495,-0.023518294095993042
1751223261923339800,10.85133984375,-0.26450446248054504,-0.008704823441803455,-0.031001387163996696
1751223261942166300,10.870166259765625,-0.2828303873538971,-0.005039634648710489,-0.031001387163996696
1751223261960992500,10.888992431640625,-0.29138249158859253,0.009621120058000088,-0.02611446939408779
1751223261979819000,10.907819091796876,-0.27427828311920166,0.021838415414094925,-0.022296564653515816
1751223261998645200,10.926645263671874,-0.2608392536640167,0.018173227086663246,-0.01740964688360691
1751223262017471700,10.9454716796875,-0.26939135789871216,0.008399390615522861,-0.02611446939408779
1751223262036298000,10.964298095703125,-0.268169641494751,0.010842849500477314,-0.023518294095993042
1751223262055124500,10.98312451171875,-0.2522871494293213,0.010842849500477314,-0.024740023538470268
1751223262073950700,11.00195068359375,-0.25350889563560486,0.014508038759231567,-0.022296564653515816
1751223262092777200,11.020777099609376,-0.2559523284435272,0.01695149764418602,-0.021227551624178886
1751223262111603500,11.039603515625,-0.24251331388950348,0.02306014485657215,-0.024740023538470268
1751223262130430000,11.058429931640624,-0.22174391150474548,0.03756818547844887,-0.0102319847792387
1751223262149256200,11.077256103515625,-0.24373504519462585,0.0206166859716177,-0.012675444595515728
1751223262168082400,11.09608251953125,-0.28527384996414185,-0.0062613640911877155,-0.035735588520765305
1751223262186909000,11.114908935546875,-0.3133736252784729,-0.005039634648710489,-0.029626941308379173
1751223262205735200,11.133735107421876,-0.3023780584335327,0.002290742937475443,-0.031001387163996696
1751223262224561700,11.152561767578124,-0.2877173125743866,0.003512472379952669,-0.031001387163996696
1751223262243388000,11.171387939453124,-0.28038692474365234,0.008399390615522861,-0.023518294095993042
1751223262262214400,11.19021435546875,-0.268169641494751,0.010842849500477314,-0.02718348242342472
1751223262281040600,11.20904052734375,-0.23762640357017517,0.019394956529140472,-0.021227551624178886
1751223262299867100,11.2278671875,-0.18875721096992493,0.03145953640341759,-0.013744457624852657
1751223262328106500,11.2561064453125,-0.13255766034126282,0.04367683082818985,-0.005345067009329796
1751223262346933000,11.27493310546875,-0.11911863088607788,0.04978547990322113,0.006872228812426329
1751223262365759200,11.29375927734375,-0.1337793916463852,0.0412333719432354,-0.011453714221715927
1751223262384585700,11.312585693359376,-0.14477495849132538,0.02306014485657215,-0.009010255336761475
1751223262403412000,11.331411865234376,-0.12156209349632263,0.0010690133785828948,-0.012675444595515728
1751223262422238500,11.350238525390624,-0.10445787757635117,-0.0062613640911877155,-0.011453714221715927
1751223262441064700,11.369064697265625,-0.11178825795650482,-0.012370011769235134,0.0007635809597559273
1751223262459891200,11.38789111328125,-0.1496618688106537,-0.011148282326757908,-0.019853105768561363
1751223262478717400,11.406717529296875,-0.1802051067352295,0.0010690133785828948,-0.01740964688360691
1751223262497544000,11.4255439453125,-0.185092031955719,0.013286309316754341,-0.013744457624852657
1751223262516370200,11.4443701171875,-0.185092031955719,0.008399390615522861,-0.01740964688360691
1751223262535196700,11.46319677734375,-0.1802051067352295,0.01695149764418602,-0.012675444595515728
1751223262554023000,11.48202294921875,-0.17653992772102356,0.02306014485657215,-0.009010255336761475
1751223262572849200,11.50084912109375,-0.17287473380565643,0.03756818547844887,-0.011453714221715927
1751223262591675600,11.519675537109375,-0.17653992772102356,0.04245510324835777,-0.002901607658714056
1751223262610502000,11.538501953125,-0.17287473380565643,0.03634645417332649,-0.007788525894284248
1751223262629328400,11.557328369140626,-0.13622283935546875,0.018173227086663246,-0.007788525894284248
1751223262648154600,11.576154541015624,-0.1178968995809555,-0.0001527161948615685,-0.01511890348047018
1751223262666981000,11.594981201171874,-0.10567960888147354,-0.01847865991294384,-0.016340631991624832
1751223262685807400,11.613807373046875,-0.11667517572641373,-0.0013744457392022014,-0.009010255336761475
1751223262704633900,11.6326337890625,-0.14110976457595825,-0.0025961752980947495,-0.009010255336761475
1751223262723460000,11.651460205078125,-0.17531819641590118,0.004734201822429895,-0.018631376326084137
1751223262742286600,11.67028662109375,-0.22785256803035736,0.004734201822429895,-0.01740964688360691
1751223262761112800,11.68911279296875,-0.258395791053772,-0.005039634648710489,-0.029626941308379173
1751223262779939000,11.70793896484375,-0.2522871494293213,-0.0013744457392022014,-0.02611446939408779
1751223262798765600,11.726765625,-0.23518294095993042,-0.012370011769235134,-0.019853105768561363
1751223262817591800,11.745591796875,-0.205861434340477,-0.017256930470466614,-0.028405211865901947
1751223262836418300,11.764418212890625,-0.16798780858516693,-0.016035201027989388,-0.022296564653515816
1751223262855244500,11.78324462890625,-0.1178968995809555,-0.0001527161948615685,-0.011453714221715927
1751223262874071000,11.802071044921876,-0.08368847519159317,0.008399390615522861,-0.004123337101191282
1751223262892897300,11.820897216796874,-0.06414080411195755,0.02306014485657215,-0.00045814859913662076
1751223262911723800,11.839723876953125,-0.05558869615197182,0.03145953640341759,0.0019853105768561363
1751223262930550000,11.858550048828125,-0.047036588191986084,0.03390299528837204,0.0032070400193333626
1751223262949376500,11.87737646484375,-0.03848448023200035,0.009621120058000088,0.005650499369949102
1751223262968202800,11.89620263671875,-0.02260199747979641,0.004734201822429895,0.011759147047996521
1751223262987029200,11.915029296875,-0.000610864779446274,-0.03191768378019333,0.0154243353754282
1751223263005855500,11.93385546875,0.001832594396546483,-0.03436114266514778,0.011759147047996521
1751223263024681700,11.952681640625,0.007941242307424545,0.038789913058280945,0.030085090547800064
1751223263043508200,11.97150830078125,0.03848448023200035,-0.10399972647428513,-0.061391908675432205
1751223263062334500,11.99033447265625,0.006719512399286032,-0.09544762223958969,-0.02611446939408779
1751223263081161000,12.009160888671875,-0.006719512399286032,0.09010255336761475,0.036193739622831345
1751223263099987200,12.0279873046875,-0.0030543238390237093,-0.0001527161948615685,0.010537417605519295
1751223263118813700,12.046813720703126,0.001832594396546483,-0.04413498193025589,-0.023518294095993042
1751223263137640000,12.065639892578124,-0.004276053514331579,0.024281874299049377,0.014202605932950974
1751223263156466400,12.084466552734375,-0.004276053514331579,0.01206457894295454,0.012980876490473747
1751223263175292700,12.103292724609375,-0.000610864779446274,-0.019700389355421066,-0.011453714221715927
1751223263194119000,12.122118896484375,-0.004276053514331579,0.003512472379952669,0.008093958720564842
1751223263212945400,12.1409453125,-0.004276053514331579,0.014508038759231567,0.008093958720564842
1751223263231771600,12.159771728515626,-0.0030543238390237093,-0.007483093533664942,-0.001679878099821508
1751223263250598100,12.17859814453125,-0.0030543238390237093,0.003512472379952669,0.0032070400193333626
1751223263269424400,12.19742431640625,-0.0030543238390237093,0.008399390615522861,0.005650499369949102
1751223263288251000,12.2162509765625,-0.0030543238390237093,-0.0038179049734026194,0.0007635809597559273
1751223263307077000,12.2350771484375,-0.0030543238390237093,0.0010690133785828948,0.0019853105768561363
1751223263325903600,12.253903564453125,-0.0030543238390237093,0.004734201822429895,0.005650499369949102
1751223263344729900,12.272729736328126,-0.0030543238390237093,0.002290742937475443,0.0019853105768561363
1751223263363556000,12.29155615234375,-0.004276053514331579,0.002290742937475443,0.0032070400193333626
1751223263382382600,12.310382568359374,-0.0030543238390237093,0.004734201822429895,0.004428769461810589
1751223263401208800,12.329208740234375,-0.0030543238390237093,0.0010690133785828948,0.0019853105768561363
1751223263420035300,12.348035400390625,-0.0030543238390237093,0.0010690133785828948,0.0032070400193333626
1751223263438861600,12.366861572265625,-0.0030543238390237093,0.003512472379952669,0.0032070400193333626
1751223263457688000,12.38568798828125,-0.0030543238390237093,0.002290742937475443,0.0032070400193333626
1751223263476514300,12.404514404296876,-0.004276053514331579,0.002290742937475443,0.0032070400193333626
1751223263495340800,12.4233408203125,-0.0030543238390237093,0.003512472379952669,0.004428769461810589
1751223263514167000,12.4421669921875,-0.0030543238390237093,0.002290742937475443,0.0032070400193333626
1751223263532993300,12.4609931640625,-0.0030543238390237093,0.002290742937475443,0.0032070400193333626
1751223263551819800,12.47981982421875,-0.004276053514331579,0.002290742937475443,0.0032070400193333626
1751223263570646000,12.49864599609375,-0.0030543238390237093,0.002290742937475443,0.0032070400193333626
1751223263589472500,12.517472412109376,-0.0030543238390237093,0.002290742937475443,0.0032070400193333626
1751223263608298800,12.536298828125,-0.0030543238390237093,0.003512472379952669,0.0032070400193333626
1751223263627125200,12.555125244140624,-0.0030543238390237093,0.003512472379952669,0.0032070400193333626
1751223263645951500,12.573951416015625,-0.004276053514331579,0.002290742937475443,0.0032070400193333626
1751223263664778000,12.592778076171875,-0.004276053514331579,0.002290742937475443,0.0032070400193333626
1751223263683604200,12.611604248046875,-0.0030543238390237093,0.002290742937475443,0.0032070400193333626
1751223263702430500,12.630430419921876,-0.0030543238390237093,0.002290742937475443,0.0032070400193333626
1751223263721257000,12.649257080078126,-0.004276053514331579,0.002290742937475443,0.0032070400193333626
1751223263740083200,12.668083251953124,-0.0030543238390237093,0.003512472379952669,0.0032070400193333626
1751223263758909700,12.68690966796875,-0.004276053514331579,0.003512472379952669,0.0032070400193333626
1751223263777736000,12.70573583984375,-0.0030543238390237093,0.002290742937475443,0.0032070400193333626
1751223263796562400,12.7245625,-0.004276053514331579,0.002290742937475443,0.0032070400193333626
1751223263815388700,12.743388671875,-0.006719512399286032,0.021838415414094925,0.012980876490473747
1751223263834215200,12.762215087890626,-0.007941242307424545,0.0766635313630104,0.03741546720266342
1751223263853041400,12.78104150390625,-0.011606430634856224,0.08765909820795059,0.045967575162649155
1751223263871867600,12.79986767578125,-0.01893680728971958,0.06200277432799339,0.017867794260382652
1751223263890694100,12.818694091796875,-0.0054977829568088055,-0.09666935354471207,-0.06261363625526428
1751223263909520400,12.837520263671875,-0.017715077847242355,-0.0038179049734026194,0.0007635809597559273
1751223263928347000,12.856346923828125,-0.03481929376721382,-0.01359174121171236,0.016646064817905426
1751223263947173000,12.875173095703126,-0.08491020649671555,0.038789913058280945,0.02519817277789116
1751223263965999600,12.89399951171875,-0.143553227186203,0.038789913058280945,0.005650499369949102
1751223263984825900,12.912825927734374,-0.1337793916463852,0.03145953640341759,-0.021227551624178886
1751223264003652400,12.93165234375,-0.1997527778148651,-0.0025961752980947495,-0.019853105768561363
1751223264022478600,12.950478515625,-0.37323838472366333,-0.0013744457392022014,-0.03222311660647392
1751223264041304800,12.969304931640625,-0.5687150955200195,-0.01359174121171236,-0.06994401663541794
1751223264060131300,12.98813134765625,-0.7055488228797913,-0.0025961752980947495,-0.07849612087011337
1751223264078957600,13.00695751953125,-0.7385355234146118,-0.0038179049734026194,-0.07971785217523575
1751223264097784000,13.0257841796875,-0.6823359727859497,-0.0062613640911877155,-0.08460476994514465
1751223264116610300,13.0446103515625,-0.5748237371444702,-0.0013744457392022014,-0.06994401663541794
1751223264135436800,13.063436767578125,-0.43310311436653137,-0.011148282326757908,-0.051618073135614395
1751223264154263000,13.082262939453125,-0.29016077518463135,-0.014813470654189587,-0.03940077871084213
1751223264173089300,13.10108935546875,-0.2315177470445633,-0.016035201027989388,-0.04428769648075104
1751223264191915800,13.119915771484376,-0.29993459582328796,0.010842849500477314,-0.03695731982588768
1751223264210742000,13.138741943359374,-0.38179048895835876,0.008399390615522861,-0.028405211865901947
1751223264229568500,13.157568603515625,-0.41844236850738525,0.009621120058000088,-0.04306596517562866
1751223264248394800,13.176394775390625,-0.4477638900279999,0.0010690133785828948,-0.04917461425065994
1751223264267221200,13.19522119140625,-0.535728394985199,-0.005039634648710489,-0.06750056147575378
1751223264286047500,13.214047607421875,-0.6884446144104004,0.01206457894295454,-0.06994401663541794
1751223264304874000,13.2328740234375,-0.7800742983818054,0.02779434807598591,-0.0772743970155716
1751223264323700200,13.2517001953125,-0.7727439403533936,0.026572618633508682,-0.0821613147854805
1751223264342526500,13.2705263671875,-0.7031053900718689,0.010842849500477314,-0.07605266571044922
1751223264361353000,13.28935302734375,-0.5919279456138611,0.005955931730568409,-0.06505709886550903
1751223264380179200,13.30817919921875,-0.4929678738117218,0.019394956529140472,-0.05283980444073677
1751223264399005700,13.327005615234375,-0.42821621894836426,0.015729768201708794,-0.04428769648075104
1751223264417832000,13.34583203125,-0.3903425931930542,0.013286309316754341,-0.03817904740571976
1751223264436658200,13.364658203125,-0.36712974309921265,0.009621120058000088,-0.035735588520765305
1751223264455484700,13.383484619140624,-0.3597993552684784,0.009621120058000088,-0.03695731982588768
1751223264474311000,13.402310791015625,-0.3390299379825592,0.014508038759231567,-0.031001387163996696
1751223264493137400,13.421137451171875,-0.3023780584335327,0.014508038759231567,-0.02718348242342472
1751223264511963600,13.439963623046875,-0.24862197041511536,0.010842849500477314,-0.023518294095993042
1751223264530790100,13.4587900390625,-0.19853104650974274,0.015729768201708794,-0.01740964688360691
1751223264549616400,13.477616455078126,-0.1740964651107788,0.021838415414094925,-0.009010255336761475
1751223264568443000,13.49644287109375,-0.18142683804035187,0.02306014485657215,-0.0102319847792387
1751223264587269000,13.51526904296875,-0.1899789422750473,0.02306014485657215,-0.0102319847792387
1751223264606095400,13.534095458984375,-0.17898337543010712,0.030390523374080658,-0.0102319847792387
1751223264624921900,13.552921875,-0.19120067358016968,0.030390523374080658,-0.001679878099821508
1751223264643748000,13.571748046875,-0.19120067358016968,0.030390523374080658,-0.006566796451807022
1751223264662574600,13.59057470703125,-0.21197007596492767,0.03634645417332649,-0.006566796451807022
1751223264681400800,13.60940087890625,-0.22663083672523499,0.03634645417332649,-0.005345067009329796
1751223264700227000,13.62822705078125,-0.2205221801996231,0.03527744114398956,-0.007788525894284248
1751223264719053600,13.647053466796875,-0.2107483446598053,0.03390299528837204,-0.005345067009329796
1751223264737879800,13.6658798828125,-0.1997527778148651,0.025503603741526604,-0.004123337101191282
1751223264756706300,13.684706298828125,-0.2009745091199875,0.018173227086663246,-0.009010255336761475
1751223264775532500,13.703532470703125,-0.2107483446598053,0.01695149764418602,-0.006566796451807022
1751223264794359000,13.722359130859376,-0.24006985127925873,0.02306014485657215,-0.011453714221715927
1751223264813185300,13.741185302734374,-0.2816086709499359,0.02306014485657215,-0.018631376326084137
1751223264832011500,13.760011474609374,-0.3023780584335327,0.02306014485657215,-0.02718348242342472
1751223264850838000,13.778838134765625,-0.2877173125743866,0.009621120058000088,-0.02718348242342472
1751223264869664300,13.797664306640625,-0.2816086709499359,0.004734201822429895,-0.031001387163996696
1751223264888490800,13.81649072265625,-0.2926042377948761,-0.0062613640911877155,-0.029626941308379173
1751223264907317000,13.83531689453125,-0.31459537148475647,0.002290742937475443,-0.03451386094093323
1751223264926143500,13.8541435546875,-0.3536907136440277,0.007177661173045635,-0.03451386094093323
1751223264944969700,13.8729697265625,-0.4221075773239136,0.010842849500477314,-0.035735588520765305
1751223264963796000,13.8917958984375,-0.4880809485912323,0.01695149764418602,-0.04428769648075104
1751223264982622500,13.91062255859375,-0.500298261642456,0.015729768201708794,-0.04673115536570549
1751223265001448700,13.92944873046875,-0.4526508152484894,0.005955931730568409,-0.051618073135614395
1751223265020275200,13.948275146484375,-0.3903425931930542,-0.007483093533664942,-0.04550942778587341
1751223265039101400,13.967101318359376,-0.34636032581329346,-0.0062613640911877155,-0.03940077871084213
1751223265057928000,13.985927978515624,-0.32681265473365784,-0.0025961752980947495,-0.03329212963581085
1751223265076754200,14.004754150390625,-0.3536907136440277,0.004734201822429895,-0.035735588520765305
1751223265095580400,14.023580322265625,-0.38301220536231995,0.009621120058000088,-0.03695731982588768
1751223265114407000,14.042406982421875,-0.40255987644195557,0.018173227086663246,-0.03940077871084213
1751223265133233200,14.061233154296875,-0.38301220536231995,0.02779434807598591,-0.03451386094093323
1751223265152059600,14.0800595703125,-0.32192572951316833,0.030390523374080658,-0.023518294095993042
1751223265170886000,14.098885986328124,-0.2620609998703003,0.032681263983249664,-0.016340631991624832
1751223265189712100,14.117712158203124,-0.24862197041511536,0.03390299528837204,-0.011453714221715927
1751223265208538600,14.13653857421875,-0.24862197041511536,0.025503603741526604,-0.011453714221715927
1751223265227364900,14.15536474609375,-0.22296564280986786,0.029016077518463135,-0.012675444595515728
1751223265246191400,14.17419140625,-0.17776164412498474,0.02306014485657215,-0.007788525894284248
1751223265265017600,14.193017578125,-0.13622283935546875,0.0206166859716177,-0.009010255336761475
1751223265283843800,14.21184375,-0.1178968995809555,0.01206457894295454,-0.004123337101191282
1751223265302670300,14.23067041015625,-0.10445787757635117,0.008399390615522861,-0.002901607658714056
1751223265321496600,14.24949658203125,-0.10201441496610641,0.010842849500477314,-0.007788525894284248
1751223265340323000,14.268322998046875,-0.1337793916463852,0.009621120058000088,-0.006566796451807022
1751223265359149300,14.2871494140625,-0.16187916696071625,0.009621120058000088,-0.0102319847792387
1751223265377975800,14.305975830078125,-0.17043127119541168,0.005955931730568409,-0.012675444595515728
1751223265396802000,14.324802001953126,-0.1692095398902893,0.004734201822429895,-0.016340631991624832
1751223265415628300,14.343628173828124,-0.18631376326084137,-0.0038179049734026194,-0.021227551624178886
1751223265434454800,14.362454833984375,-0.23273947834968567,-0.008704823441803455,-0.028405211865901947
1751223265453281000,14.381281005859375,-0.2828303873538971,-0.0038179049734026194,-0.031001387163996696
1751223265472107500,14.400107421875,-0.3231474757194519,0.008399390615522861,-0.02718348242342472
1751223265490933800,14.418933837890625,-0.37323838472366333,0.019394956529140472,-0.028405211865901947
1751223265509760000,14.437760009765626,-0.42455101013183594,0.02779434807598591,-0.031001387163996696
1751223265528586500,14.45658642578125,-0.4453204274177551,0.03145953640341759,-0.03695731982588768
1751223265547412700,14.475412841796874,-0.4416552484035492,0.03390299528837204,-0.03451386094093323
1751223265566239200,14.4942392578125,-0.38667741417884827,0.02306014485657215,-0.03695731982588768
1751223265585065500,14.5130654296875,-0.2889390289783478,0.009621120058000088,-0.028405211865901947
1751223265603892000,14.53189208984375,-0.17898337543010712,0.003512472379952669,-0.01740964688360691
1751223265622718200,14.55071826171875,-0.11667517572641373,0.003512472379952669,-0.009010255336761475
1751223265641544400,14.56954443359375,-0.1288924664258957,0.008399390615522861,-0.006566796451807022
1751223265660371000,14.588370849609374,-0.17653992772102356,0.018173227086663246,-0.007788525894284248
1751223265679197200,14.607197265625,-0.19364413619041443,0.01695149764418602,-0.016340631991624832
1751223265698023700,14.626023681640625,-0.185092031955719,0.013286309316754341,-0.016340631991624832
1751223265716850000,14.644849853515625,-0.164322629570961,0.021838415414094925,-0.012675444595515728
1751223265735676200,14.66367626953125,-0.15699224174022675,0.030390523374080658,-0.004123337101191282
1751223265754502700,14.682502685546876,-0.18753549456596375,0.03527744114398956,-0.004123337101191282
1751223265773329000,14.701328857421874,-0.2889390289783478,0.0412333719432354,-0.0102319847792387
1751223265792155400,14.7201552734375,-0.41844236850738525,0.04367683082818985,-0.018631376326084137
1751223265810981600,14.738981689453125,-0.4685332775115967,0.03634645417332649,-0.03329212963581085
1751223265829807900,14.757807861328125,-0.4050033390522003,0.024281874299049377,-0.03451386094093323
1751223265848634400,14.77663427734375,-0.27916520833969116,0.024281874299049377,-0.021227551624178886
1751223265867460600,14.795460693359376,-0.164322629570961,0.02306014485657215,-0.006566796451807022
1751223265886287000,14.814287109375,-0.09712749719619751,0.014508038759231567,0.0007635809597559273
1751223265905113300,14.83311328125,-0.07024945318698883,0.008399390615522861,0.0019853105768561363
1751223265923939600,14.851939697265625,-0.029932374134659767,0.003512472379952669,-0.002901607658714056
1751223265942766000,14.87076611328125,-0.007941242307424545,0.005955931730568409,0.0007635809597559273
1751223265961592300,14.88959228515625,-0.011606430634856224,0.009621120058000088,0.004428769461810589
1751223265980418800,14.908418701171875,-0.02260199747979641,0.009621120058000088,0.006872228812426329
1751223265999245000,14.9272451171875,-0.047036588191986084,0.008399390615522861,-0.00045814859913662076
1751223266018071300,14.9460712890625,-0.1130099818110466,0.008399390615522861,-0.011453714221715927
1751223266036897800,14.964897705078124,-0.2205221801996231,0.004734201822429895,-0.021227551624178886
1751223266055724000,14.98372412109375,-0.34147340059280396,0.015729768201708794,-0.02718348242342472
1751223266074550500,15.002550537109375,-0.43432486057281494,0.024281874299049377,-0.03329212963581085
1751223266093376800,15.021376708984375,-0.4880809485912323,0.026572618633508682,-0.03817904740571976
1751223266112203000,15.040203125,-0.5027416944503784,0.01695149764418602,-0.04306596517562866
1751223266131029500,15.059029541015626,-0.4783071279525757,0.008399390615522861,-0.04550942778587341
1751223266149855700,15.077855712890624,-0.4196641147136688,0.0010690133785828948,-0.04428769648075104
1751223266168682200,15.09668212890625,-0.3610210716724396,0.003512472379952669,-0.03817904740571976
1751223266187508500,15.115508544921875,-0.3341430425643921,0.002290742937475443,-0.03329212963581085
1751223266206335000,15.1343349609375,-0.32192572951316833,0.007177661173045635,-0.02718348242342472
1751223266225161200,15.1531611328125,-0.31459537148475647,0.019394956529140472,-0.02718348242342472
1751223266243987500,15.171987548828126,-0.3194822669029236,0.024281874299049377,-0.021227551624178886
1751223266262814000,15.19081396484375,-0.33658650517463684,0.024281874299049377,-0.024740023538470268
1751223266281640200,15.20964013671875,-0.3634645342826843,0.029016077518463135,-0.02718348242342472
1751223266300466700,15.228466796875,-0.379347026348114,0.02306014485657215,-0.024740023538470268
1751223266319293000,15.24729296875,-0.35613417625427246,0.013286309316754341,-0.029626941308379173
1751223266338119200,15.266119140625,-0.2828303873538971,0.004734201822429895,-0.024740023538470268
1751223266356945700,15.284945556640626,-0.20952661335468292,-0.0062613640911877155,-0.023518294095993042
1751223266375772000,15.30377197265625,-0.16554436087608337,-0.0001527161948615685,-0.01511890348047018
1751223266394598400,15.322598388671874,-0.1386663019657135,0.003512472379952669,-0.009010255336761475
1751223266413424600,15.341424560546875,-0.09834922850131989,0.003512472379952669,-0.006566796451807022
1751223266432251000,15.3602509765625,-0.0616973415017128,0.0010690133785828948,-0.005345067009329796
1751223266451077400,15.379077392578125,-0.05192350596189499,-0.0001527161948615685,-0.004123337101191282
1751223266469903600,15.397903564453125,-0.05803215503692627,-0.0025961752980947495,-0.005345067009329796
1751223266488730000,15.416730224609376,-0.08979712426662445,0.005955931730568409,-0.004123337101191282
1751223266507556400,15.435556396484374,-0.1178968995809555,0.014508038759231567,-0.002901607658714056
1751223266526382600,15.454382568359375,-0.13988803327083588,0.019394956529140472,-0.004123337101191282
1751223266545209000,15.473208984375,-0.143553227186203,0.013286309316754341,-0.006566796451807022
1751223266564035300,15.492035400390625,-0.1337793916463852,0.005955931730568409,-0.011453714221715927
1751223266582861800,15.51086181640625,-0.12644900381565094,0.0010690133785828948,-0.011453714221715927
1751223266601688000,15.52968798828125,-0.13622283935546875,0.0010690133785828948,-0.006566796451807022
1751223266620514300,15.548514404296874,-0.15088360011577606,0.007177661173045635,-0.009010255336761475
1751223266639340800,15.5673408203125,-0.13011419773101807,0.010842849500477314,-0.0102319847792387
1751223266658167000,15.5861669921875,-0.10323614627122879,0.015729768201708794,-0.012675444595515728
1751223266676993300,15.6049931640625,-0.09101885557174683,0.0206166859716177,-0.004123337101191282
1751223266695819800,15.62381982421875,-0.11667517572641373,0.032681263983249664,-0.00045814859913662076
1751223266714646000,15.64264599609375,-0.17653992772102356,0.03527744114398956,-0.00045814859913662076
1751223266733472500,15.661472412109376,-0.23884813487529755,0.03390299528837204,-0.011453714221715927
1751223266752298800,15.680298828125,-0.28038692474365234,0.026572618633508682,-0.01740964688360691
1751223266771125000,15.699125,-0.30604326725006104,0.025503603741526604,-0.016340631991624832
1751223266789951500,15.717951416015625,-0.32559093832969666,0.024281874299049377,-0.019853105768561363
1751223266808777700,15.73677783203125,-0.3341430425643921,0.018173227086663246,-0.022296564653515816
1751223266827604200,15.755604248046875,-0.32070401310920715,0.013286309316754341,-0.02611446939408779
1751223266846430500,15.774430419921876,-0.2828303873538971,0.010842849500477314,-0.021227551624178886
1751223266865256700,15.793256591796874,-0.22174391150474548,0.009621120058000088,-0.01740964688360691
1751223266884083200,15.812083251953124,-0.17898337543010712,0.007177661173045635,-0.009010255336761475
1751223266902909400,15.830909423828125,-0.14599667489528656,0.007177661173045635,-0.007788525894284248
1751223266921736000,15.84973583984375,-0.1130099818110466,-0.0013744457392022014,-0.011453714221715927
1751223266940562200,15.868562255859375,-0.09590577334165573,-0.0013744457392022014,-0.0102319847792387
1751223266959388400,15.887388427734376,-0.0922405794262886,0.003512472379952669,-0.006566796451807022
1751223266978215000,15.90621484375,-0.09101885557174683,0.008399390615522861,-0.001679878099821508
1751223266997041200,15.925041259765624,-0.11056652665138245,0.009621120058000088,-0.005345067009329796
1751223267015867600,15.94386767578125,-0.13744457066059113,0.009621120058000088,-0.007788525894284248
1751223267034694000,15.96269384765625,-0.16676609218120575,0.007177661173045635,-0.012675444595515728
1751223267053520100,15.98152001953125,-0.19242240488529205,0.003512472379952669,-0.016340631991624832
1751223267072346600,16.0003466796875,-0.20708316564559937,-0.0001527161948615685,-0.01511890348047018
1751223267091172900,16.0191728515625,-0.22785256803035736,0.009621120058000088,-0.016340631991624832
1751223267109999000,16.0379990234375,-0.2510654330253601,0.01206457894295454,-0.013744457624852657
1751223267128825600,16.05682568359375,-0.2620609998703003,0.013286309316754341,-0.01740964688360691
1751223267147651800,16.07565185546875,-0.258395791053772,0.005955931730568409,-0.022296564653515816
1751223267166478300,16.094478271484373,-0.23518294095993042,-0.0001527161948615685,-0.022296564653515816
1751223267185304600,16.1133046875,-0.22296564280986786,0.005955931730568409,-0.01740964688360691
1751223267204130800,16.132130859375,-0.22663083672523499,0.0206166859716177,-0.012675444595515728
1751223267222957300,16.150957275390624,-0.23762640357017517,0.029016077518463135,-0.006566796451807022
1751223267241783600,16.169783447265626,-0.21930044889450073,0.026572618633508682,-0.011453714221715927
1751223267260610000,16.188610107421876,-0.185092031955719,0.02306014485657215,-0.011453714221715927
1751223267279436300,16.207436279296875,-0.1484401375055313,0.019394956529140472,-0.009010255336761475
1751223267298262500,16.226262451171873,-0.1337793916463852,0.021838415414094925,-0.005345067009329796
1751223267317089000,16.245089111328124,-0.15210533142089844,0.02306014485657215,-0.002901607658714056
1751223267335915300,16.263915283203126,-0.19242240488529205,0.018173227086663246,-0.011453714221715927
1751223267354741500,16.282741455078124,-0.21319180727005005,0.01695149764418602,-0.01740964688360691
1751223267373568000,16.301568115234375,-0.20341797173023224,0.014508038759231567,-0.01740964688360691
1751223267392394200,16.320394287109377,-0.1948658674955368,0.018173227086663246,-0.013744457624852657
1751223267411220700,16.339220703125,-0.22296564280986786,0.019394956529140472,-0.011453714221715927
1751223267430047000,16.358046875,-0.28038692474365234,0.0206166859716177,-0.016340631991624832
1751223267448873200,16.376873291015624,-0.33169957995414734,0.01695149764418602,-0.02611446939408779
1751223267467699700,16.39569970703125,-0.35613417625427246,0.003512472379952669,-0.03451386094093323
1751223267486526000,16.41452587890625,-0.3646862804889679,-0.0001527161948615685,-0.03817904740571976
1751223267505352400,16.4333525390625,-0.35124725103378296,0.003512472379952669,-0.03451386094093323
1751223267524178700,16.4521787109375,-0.3439168632030487,0.0010690133785828948,-0.03222311660647392
1751223267543005000,16.4710048828125,-0.3280344009399414,-0.009926552884280682,-0.031001387163996696
1751223267561831400,16.48983154296875,-0.29993459582328796,-0.020922118797898293,-0.03695731982588768
1751223267580657700,16.50865771484375,-0.2632827162742615,-0.02458730712532997,-0.03451386094093323
1751223267599484000,16.52748388671875,-0.22907429933547974,-0.012370011769235134,-0.02718348242342472
1751223267618310400,16.546310302734376,-0.20341797173023224,0.002290742937475443,-0.0102319847792387
1751223267637136600,16.56513671875,-0.1802051067352295,0.014508038759231567,-0.007788525894284248
1751223267655963100,16.583963134765625,-0.14721840620040894,0.025503603741526604,-0.004123337101191282
1751223267674789400,16.602789306640624,-0.12278381735086441,0.026572618633508682,-0.007788525894284248
1751223267693615600,16.62161572265625,-0.10201441496610641,0.02306014485657215,-0.004123337101191282
1751223267712442000,16.640442138671876,-0.10567960888147354,0.021838415414094925,-0.004123337101191282
1751223267731268400,16.659268310546874,-0.13744457066059113,0.026572618633508682,-0.002901607658714056
1751223267750094800,16.6780947265625,-0.1692095398902893,0.02306014485657215,-0.007788525894284248
1751223267768921000,16.696921142578127,-0.21319180727005005,0.021838415414094925,-0.0102319847792387
1751223267787747300,16.715747314453125,-0.28405213356018066,0.026572618633508682,-0.01511890348047018
1751223267806573800,16.73457373046875,-0.35124725103378296,0.03390299528837204,-0.019853105768561363
1751223267825400000,16.753400146484374,-0.39278605580329895,0.0461202897131443,-0.021227551624178886
1751223267844226300,16.772226318359376,-0.4147771894931793,0.05222893878817558,-0.016340631991624832
1751223267863052800,16.791052734375,-0.42821621894836426,0.05711585655808449,-0.016340631991624832
1751223267881879000,16.809879150390625,-0.4318813979625702,0.04734202101826668,-0.022296564653515816
1751223267900705500,16.82870556640625,-0.4257727563381195,0.03145953640341759,-0.031001387163996696
1751223267919531800,16.84753173828125,-0.389120876789093,0.029016077518463135,-0.028405211865901947
1751223267938358000,16.86635791015625,-0.32070401310920715,0.021838415414094925,-0.018631376326084137
1751223267957184500,16.8851845703125,-0.24862197041511536,0.0206166859716177,-0.011453714221715927
1751223267976010800,16.9040107421875,-0.1948658674955368,0.014508038759231567,-0.0102319847792387
1751223267994837000,16.9228369140625,-0.19120067358016968,0.018173227086663246,-0.011453714221715927
1751223268013663500,16.94166357421875,-0.20341797173023224,0.025503603741526604,-0.007788525894284248
1751223268032489700,16.96048974609375,-0.20341797173023224,0.018173227086663246,-0.0102319847792387
1751223268051316200,16.979316162109374,-0.18875721096992493,0.004734201822429895,-0.01511890348047018
1751223268070142500,16.998142578125,-0.17776164412498474,0.003512472379952669,-0.018631376326084137
1751223268088968700,17.01696875,-0.16310089826583862,0.002290742937475443,-0.01740964688360691
1751223268107795200,17.035795166015625,-0.16065743565559387,-0.0038179049734026194,-0.018631376326084137
1751223268126621400,17.054621337890627,-0.15577052533626556,-0.0038179049734026194,-0.01740964688360691
1751223268145447700,17.07344775390625,-0.15577052533626556,0.003512472379952669,-0.013744457624852657
1751223268164274200,17.092274169921875,-0.164322629570961,0.008399390615522861,-0.011453714221715927
1751223268183100400,17.111100341796874,-0.17287473380565643,0.004734201822429895,-0.012675444595515728
1751223268201926700,17.1299267578125,-0.18631376326084137,0.002290742937475443,-0.01511890348047018
1751223268220753200,17.148753173828126,-0.20341797173023224,-0.0025961752980947495,-0.021227551624178886
1751223268239579400,17.167579345703125,-0.22418737411499023,-0.0025961752980947495,-0.022296564653515816
1751223268258406000,17.186406005859375,-0.24984370172023773,0.002290742937475443,-0.022296564653515816
1751223268277232000,17.205232177734374,-0.268169641494751,0.010842849500477314,-0.019853105768561363
1751223268296058400,17.224058349609376,-0.2669478952884674,0.007177661173045635,-0.018631376326084137
1751223268314884900,17.242884765625,-0.28038692474365234,0.007177661173045635,-0.022296564653515816
1751223268333711000,17.261711181640624,-0.2974911332130432,0.010842849500477314,-0.019853105768561363
1751223268352537600,17.28053759765625,-0.31093016266822815,0.014508038759231567,-0.019853105768561363
1751223268371363800,17.29936376953125,-0.3084867000579834,0.010842849500477314,-0.024740023538470268
1751223268390190000,17.318190185546875,-0.28405213356018066,0.010842849500477314,-0.023518294095993042
1751223268409016600,17.3370166015625,-0.23884813487529755,-0.0001527161948615685,-0.022296564653515816
1751223268427842800,17.3558427734375,-0.19120067358016968,-0.008704823441803455,-0.019853105768561363
1751223268446669000,17.3746689453125,-0.16187916696071625,-0.01359174121171236,-0.01740964688360691
1751223268465495600,17.39349560546875,-0.1545487940311432,-0.012370011769235134,-0.016340631991624832
1751223268484321800,17.41232177734375,-0.14477495849132538,-0.019700389355421066,-0.021227551624178886
1751223268503148300,17.431148193359373,-0.14110976457595825,-0.027030766010284424,-0.023518294095993042
1751223268521974500,17.449974609375,-0.1386663019657135,-0.029474224895238876,-0.022296564653515816
1751223268540800800,17.46880078125,-0.14477495849132538,-0.03436114266514778,-0.02611446939408779
1751223268559627300,17.487627197265624,-0.17776164412498474,-0.02825249545276165,-0.02611446939408779
1751223268578453500,17.50645361328125,-0.2254091054201126,-0.01359174121171236,-0.022296564653515816
1751223268597279700,17.52527978515625,-0.2669478952884674,-0.0013744457392022014,-0.023518294095993042
1751223268616106200,17.544106201171875,-0.31459537148475647,0.014508038759231567,-0.022296564653515816
1751223268634932500,17.562932373046873,-0.35735589265823364,0.0206166859716177,-0.023518294095993042
1751223268653759000,17.581759033203124,-0.37201663851737976,0.0206166859716177,-0.02718348242342472
1751223268672585200,17.600585205078126,-0.3500255048274994,0.010842849500477314,-0.03222311660647392
1751223268691411500,17.619411376953124,-0.3133736252784729,0.004734201822429895,-0.02718348242342472
1751223268710238000,17.638238037109375,-0.25961753726005554,0.002290742937475443,-0.023518294095993042
1751223268729064200,17.657064208984377,-0.21685700118541718,0.002290742937475443,-0.016340631991624832
1751223268747890400,17.675890380859375,-0.18753549456596375,-0.0025961752980947495,-0.01511890348047018
1751223268766717000,17.694717041015625,-0.164322629570961,-0.007483093533664942,-0.016340631991624832
1751223268785543200,17.713543212890624,-0.1496618688106537,-0.005039634648710489,-0.018631376326084137
1751223268804369700,17.73236962890625,-0.13988803327083588,-0.0001527161948615685,-0.01511890348047018
1751223268823196000,17.75119580078125,-0.14233149588108063,0.007177661173045635,-0.011453714221715927
1751223268842022100,17.770022216796875,-0.15577052533626556,0.0206166859716177,-0.002901607658714056
1751223268860848600,17.7888486328125,-0.15088360011577606,0.024281874299049377,-0.001679878099821508
1751223268879675000,17.8076748046875,-0.16310089826583862,0.02779434807598591,0.0007635809597559273
1751223268898501000,17.826501220703125,-0.18631376326084137,0.030390523374080658,-0.005345067009329796
1751223268917327600,17.84532763671875,-0.21197007596492767,0.026572618633508682,-0.012675444595515728
1751223268936153900,17.86415380859375,-0.2364046722650528,0.03145953640341759,-0.0102319847792387
1751223268954980000,17.88297998046875,-0.23396120965480804,0.03756818547844887,-0.006566796451807022
1751223268973806600,17.901806640625,-0.24373504519462585,0.0412333719432354,-0.005345067009329796
1751223268992632800,17.9206328125,-0.2608392536640167,0.048563748598098755,-0.005345067009329796
1751223269011459300,17.939459228515624,-0.2779434621334076,0.04505127668380737,-0.011453714221715927
1751223269030285600,17.95828564453125,-0.2767217457294464,0.04016435891389847,-0.013744457624852657
1751223269049111800,17.97711181640625,-0.2632827162742615,0.03527744114398956,-0.012675444595515728
1751223269067938300,17.995938232421874,-0.2571740746498108,0.03527744114398956,-0.0102319847792387
1751223269086764500,18.0147646484375,-0.2816086709499359,0.0412333719432354,-0.009010255336761475
1751223269105590800,18.0335908203125,-0.32681265473365784,0.04734202101826668,-0.012675444595515728
1751223269124417300,18.052417236328125,-0.35613417625427246,0.04734202101826668,-0.018631376326084137
1751223269143243500,18.071243408203124,-0.3610210716724396,0.04245510324835777,-0.019853105768561363
1751223269162070000,18.090070068359374,-0.3597993552684784,0.04367683082818985,-0.01740964688360691
1751223269180896300,18.108896240234376,-0.35735589265823364,0.04978547990322113,-0.013744457624852657
1751223269199722500,18.127722412109375,-0.3390299379825592,0.04245510324835777,-0.01511890348047018
1751223269218549000,18.146549072265625,-0.29993459582328796,0.02306014485657215,-0.021227551624178886
1751223269237375200,18.165375244140623,-0.2730565667152405,0.008399390615522861,-0.023518294095993042
1751223269256201500,18.184201416015625,-0.2730565667152405,-0.007483093533664942,-0.02611446939408779
1751223269275028000,18.203028076171876,-0.2877173125743866,-0.0013744457392022014,-0.02611446939408779
1751223269293854200,18.221854248046874,-0.3035998046398163,-0.007483093533664942,-0.028405211865901947
1751223269312680700,18.2406806640625,-0.31581708788871765,-0.007483093533664942,-0.029626941308379173
1751223269331507000,18.2595068359375,-0.33169957995414734,-0.0062613640911877155,-0.029626941308379173
1751223269350333200,18.278333251953125,-0.3549124300479889,-0.0013744457392022014,-0.031001387163996696
1751223269369159700,18.29715966796875,-0.3695732057094574,0.008399390615522861,-0.02611446939408779
1751223269387986000,18.31598583984375,-0.3744601011276245,0.02306014485657215,-0.019853105768561363
1751223269406812200,18.334812255859376,-0.35246896743774414,0.025503603741526604,-0.019853105768561363
1751223269425638700,18.353638671875,-0.3231474757194519,0.008399390615522861,-0.022296564653515816
1751223269444465000,18.37246484375,-0.2987128794193268,-0.011148282326757908,-0.029626941308379173
1751223269463291100,18.391291015625,-0.2877173125743866,-0.025809036567807198,-0.03940077871084213
1751223269482117600,18.41011767578125,-0.2828303873538971,-0.027030766010284424,-0.04306596517562866
1751223269500944000,18.42894384765625,-0.258395791053772,-0.02214384824037552,-0.03451386094093323
1751223269519770400,18.447770263671874,-0.21441353857517242,-0.016035201027989388,-0.023518294095993042
1751223269538596600,18.4665966796875,-0.1899789422750473,-0.0062613640911877155,-0.016340631991624832
1751223269557422800,18.4854228515625,-0.18631376326084137,0.003512472379952669,-0.009010255336761475
1751223269576249300,18.504249267578125,-0.1899789422750473,0.008399390615522861,-0.012675444595515728
1751223269595075600,18.52307568359375,-0.2156352698802948,0.009621120058000088,-0.01511890348047018
1751223269613901800,18.54190185546875,-0.24984370172023773,0.015729768201708794,-0.018631376326084137
1751223269632728300,18.560728271484376,-0.2877173125743866,0.014508038759231567,-0.019853105768561363
1751223269651554600,18.579554443359374,-0.3133736252784729,0.029016077518463135,-0.018631376326084137
1751223269670380800,18.598380859375,-0.32192572951316833,0.03527744114398956,-0.01511890348047018
1751223269689207300,18.617207275390626,-0.3072649836540222,0.03145953640341759,-0.01511890348047018
1751223269708033500,18.636033447265625,-0.29016077518463135,0.01695149764418602,-0.018631376326084137
1751223269726859800,18.65485986328125,-0.28405213356018066,0.005955931730568409,-0.021227551624178886
1751223269745686300,18.673686279296874,-0.2816086709499359,0.007177661173045635,-0.022296564653515816
1751223269764512500,18.692512451171876,-0.2779434621334076,0.010842849500477314,-0.019853105768561363
1751223269783339000,18.711339111328126,-0.2608392536640167,0.009621120058000088,-0.019853105768561363
1751223269802165200,18.730165283203124,-0.2461785078048706,0.007177661173045635,-0.021227551624178886
1751223269820991500,18.748991455078126,-0.2461785078048706,-0.008704823441803455,-0.02611446939408779
1751223269839818000,18.76781787109375,-0.2632827162742615,-0.0062613640911877155,-0.02718348242342472
1751223269858644200,18.786644287109375,-0.2864955961704254,0.002290742937475443,-0.022296564653515816
1751223269877470500,18.805470458984374,-0.30482152104377747,0.003512472379952669,-0.02611446939408779
1751223269896297000,18.824296875,-0.3194822669029236,0.002290742937475443,-0.028405211865901947
1751223269915123200,18.843123291015626,-0.3329212963581085,0.0010690133785828948,-0.031001387163996696
1751223269933949700,18.86194970703125,-0.347582072019577,0.004734201822429895,-0.03222311660647392
1751223269952776000,18.88077587890625,-0.3536907136440277,0.014508038759231567,-0.024740023538470268
1751223269971602200,18.899602294921873,-0.3402516841888428,0.014508038759231567,-0.022296564653515816
1751223269990428700,18.9184287109375,-0.337808221578598,0.013286309316754341,-0.022296564653515816
1751223270009255000,18.9372548828125,-0.34636032581329346,0.007177661173045635,-0.028405211865901947
1751223270028081200,18.9560810546875,-0.35613417625427246,0.002290742937475443,-0.03329212963581085
1751223270046907600,18.97490771484375,-0.3549124300479889,0.004734201822429895,-0.03329212963581085
1751223270065734000,18.99373388671875,-0.35246896743774414,0.008399390615522861,-0.031001387163996696
1751223270084560400,19.012560302734375,-0.33169957995414734,0.01206457894295454,-0.023518294095993042
1751223270103386600,19.03138671875,-0.3133736252784729,0.014508038759231567,-0.021227551624178886
1751223270122212900,19.050212890625,-0.2974911332130432,0.008399390615522861,-0.021227551624178886
1751223270141039400,19.069039306640626,-0.2864955961704254,0.0010690133785828948,-0.023518294095993042
1751223270159865600,19.087865478515624,-0.28405213356018066,0.002290742937475443,-0.024740023538470268
1751223270178691800,19.10669189453125,-0.27916520833969116,0.004734201822429895,-0.022296564653515816
1751223270197518300,19.125518310546877,-0.2657261788845062,0.009621120058000088,-0.018631376326084137
1751223270216344600,19.144344482421875,-0.24862197041511536,0.015729768201708794,-0.01740964688360691
1751223270235170800,19.1631708984375,-0.23029601573944092,0.005955931730568409,-0.016340631991624832
1751223270253997300,19.181997314453124,-0.24495677649974823,-0.0025961752980947495,-0.02611446939408779
1751223270272823600,19.200823486328126,-0.2718348205089569,0.002290742937475443,-0.024740023538470268
1751223270291649800,19.21964990234375,-0.2877173125743866,0.010842849500477314,-0.024740023538470268
1751223270310476300,19.238476318359375,-0.2889390289783478,0.021838415414094925,-0.018631376326084137
1751223270329302500,19.257302490234373,-0.28405213356018066,0.026572618633508682,-0.013744457624852657
1751223270348129000,19.27612890625,-0.27916520833969116,0.0206166859716177,-0.01740964688360691
1751223270366955300,19.294955322265626,-0.27427828311920166,0.018173227086663246,-0.018631376326084137
1751223270385781500,19.313781494140624,-0.2657261788845062,0.010842849500477314,-0.021227551624178886
1751223270404608000,19.33260791015625,-0.24984370172023773,0.0010690133785828948,-0.023518294095993042
1751223270423434200,19.351434326171876,-0.22663083672523499,-0.0013744457392022014,-0.021227551624178886
1751223270442260500,19.370260498046875,-0.20341797173023224,-0.0001527161948615685,-0.01511890348047018
1751223270461087000,19.3890869140625,-0.19120067358016968,-0.007483093533664942,-0.01740964688360691
1751223270479913200,19.407913330078124,-0.19730933010578156,-0.009926552884280682,-0.023518294095993042
1751223270498739700,19.42673974609375,-0.21930044889450073,0.0010690133785828948,-0.019853105768561363
1751223270517566000,19.44556591796875,-0.22785256803035736,0.005955931730568409,-0.01740964688360691
1751223270536392200,19.46439208984375,-0.23396120965480804,0.007177661173045635,-0.018631376326084137
1751223270555218700,19.48321875,-0.23396120965480804,0.007177661173045635,-0.018631376326084137
1751223270574045000,19.502044921875,-0.24984370172023773,-0.0038179049734026194,-0.024740023538470268
1751223270592871200,19.52087109375,-0.28527384996414185,-0.005039634648710489,-0.029626941308379173
1751223270611697700,19.53969775390625,-0.3194822669029236,0.0010690133785828948,-0.029626941308379173
1751223270630524000,19.55852392578125,-0.3426951467990875,0.013286309316754341,-0.02611446939408779
1751223270649350100,19.57735009765625,-0.3536907136440277,0.01206457894295454,-0.024740023538470268
1751223270668176600,19.5961767578125,-0.3585776388645172,0.014508038759231567,-0.02718348242342472
1751223270687003000,19.6150029296875,-0.36712974309921265,0.01206457894295454,-0.028405211865901947
1751223270705829400,19.633829345703123,-0.3756818473339081,0.002290742937475443,-0.035735588520765305
1751223270724655600,19.652655517578125,-0.39767298102378845,0.0010690133785828948,-0.041844237595796585
1751223270743481900,19.67148193359375,-0.41844236850738525,0.008399390615522861,-0.03695731982588768
1751223270762308400,19.690308349609374,-0.4221075773239136,0.005955931730568409,-0.04062250629067421
1751223270781134600,19.709134521484376,-0.4196641147136688,-0.0025961752980947495,-0.04428769648075104
1751223270799960800,19.7279609375,-0.41355544328689575,-0.005039634648710489,-0.04428769648075104
1751223270818787300,19.746787353515625,-0.39767298102378845,-0.0025961752980947495,-0.03817904740571976
1751223270837613600,19.765613525390624,-0.37201663851737976,0.007177661173045635,-0.029626941308379173
1751223270856439800,19.784439697265626,-0.33047783374786377,0.008399390615522861,-0.023518294095993042
1751223270875266300,19.803266357421876,-0.29016077518463135,0.003512472379952669,-0.021227551624178886
1751223270894092500,19.822092529296874,-0.2559523284435272,0.0010690133785828948,-0.018631376326084137
1751223270912919000,19.8409189453125,-0.2205221801996231,-0.0038179049734026194,-0.018631376326084137
1751223270931745300,19.859745361328127,-0.18875721096992493,-0.019700389355421066,-0.023518294095993042
1751223270950571500,19.878571533203125,-0.16798780858516693,-0.019700389355421066,-0.018631376326084137
1751223270969398000,19.89739794921875,-0.15821397304534912,-0.027030766010284424,-0.019853105768561363
1751223270988224300,19.916224365234374,-0.164322629570961,-0.027030766010284424,-0.022296564653515816
1751223271007050500,19.935050537109376,-0.18387030065059662,-0.020922118797898293,-0.023518294095993042
1751223271025877000,19.953876953125,-0.19364413619041443,-0.01359174121171236,-0.022296564653515816
1751223271044703200,19.972703125,-0.19364413619041443,-0.012370011769235134,-0.024740023538470268
1751223271063529500,19.991529541015623,-0.19730933010578156,-0.025809036567807198,-0.03222311660647392
1751223271082356000,20.01035595703125,-0.21930044889450073,-0.027030766010284424,-0.03329212963581085
1751223271101182200,20.02918212890625,-0.258395791053772,-0.005039634648710489,-0.02611446939408779
1751223271120008700,20.0480087890625,-0.2926042377948761,0.007177661173045635,-0.022296564653515816
1751223271138835000,20.0668349609375,-0.3084867000579834,0.01206457894295454,-0.021227551624178886
1751223271157661200,20.0856611328125,-0.3121519088745117,0.004734201822429895,-0.02611446939408779
1751223271176487700,20.10448779296875,-0.3072649836540222,-0.0013744457392022014,-0.028405211865901947
1751223271195314000,20.12331396484375,-0.3072649836540222,-0.0025961752980947495,-0.03222311660647392
1751223271214140200,20.14214013671875,-0.30970844626426697,-0.0025961752980947495,-0.03329212963581085
1751223271232966700,20.160966552734376,-0.3170388340950012,0.009621120058000088,-0.03222311660647392
1751223271251793000,20.17979296875,-0.3231474757194519,0.01206457894295454,-0.031001387163996696
1751223271270619100,20.198619140625,-0.32192572951316833,0.009621120058000088,-0.029626941308379173
1751223271289445600,20.217445556640627,-0.30482152104377747,0.005955931730568409,-0.028405211865901947
1751223271308271900,20.23627197265625,-0.2828303873538971,-0.008704823441803455,-0.03451386094093323
1751223271327098000,20.25509814453125,-0.2657261788845062,-0.017256930470466614,-0.035735588520765305
1751223271345924600,20.273924560546874,-0.258395791053772,-0.005039634648710489,-0.023518294095993042
1751223271364750800,20.292750732421876,-0.24984370172023773,-0.007483093533664942,-0.019853105768561363
1751223271383577300,20.311577392578126,-0.2608392536640167,-0.027030766010284424,-0.031001387163996696
1751223271402403600,20.330403564453125,-0.27427828311920166,-0.025809036567807198,-0.028405211865901947
1751223271430643200,20.358643310546874,-0.27916520833969116,-0.011148282326757908,-0.02718348242342472
1751223271449469400,20.377469482421876,-0.27550002932548523,-0.01847865991294384,-0.03329212963581085
1751223271468295700,20.396295654296875,-0.2718348205089569,-0.0025961752980947495,-0.029626941308379173
1751223271487122200,20.4151220703125,-0.27427828311920166,0.015729768201708794,-0.02611446939408779
1751223271505948400,20.433948486328124,-0.27427828311920166,0.021838415414094925,-0.01740964688360691
1751223271524774700,20.452774658203126,-0.27427828311920166,0.03145953640341759,-0.013744457624852657
1751223271543601200,20.47160107421875,-0.2608392536640167,0.007177661173045635,-0.018631376326084137
1751223271571840500,20.499840576171874,-0.3023780584335327,-0.039248060435056686,-0.05283980444073677
1751223271590667000,20.5186669921875,-0.35613417625427246,-0.01359174121171236,-0.03940077871084213
1751223271609493200,20.5374931640625,-0.3756818473339081,0.003512472379952669,-0.04428769648075104
1751223271628319500,20.556319580078124,-0.36224281787872314,-0.0001527161948615685,-0.03817904740571976
1751223271647146000,20.57514599609375,-0.3292561173439026,0.003512472379952669,-0.03940077871084213
1751223271665972200,20.59397216796875,-0.2864955961704254,0.019394956529140472,-0.03222311660647392
1751223271684798700,20.612798828125,-0.2522871494293213,0.013286309316754341,-0.021227551624178886
1751223271703625000,20.631625,-0.22663083672523499,0.03145953640341759,-0.011453714221715927
1751223271722451200,20.650451171875,-0.2009745091199875,0.0206166859716177,-0.005345067009329796
1751223271741277400,20.66927734375,-0.19608759880065918,0.007177661173045635,-0.016340631991624832
1751223271760104000,20.68810400390625,-0.2156352698802948,-0.012370011769235134,-0.028405211865901947
1751223271778930200,20.70693017578125,-0.2632827162742615,-0.009926552884280682,-0.035735588520765305
1751223271797756700,20.725756591796873,-0.30970844626426697,-0.0038179049734026194,-0.035735588520765305
1751223271816583000,20.7445830078125,-0.3439168632030487,0.010842849500477314,-0.041844237595796585
1751223271835409200,20.7634091796875,-0.3549124300479889,0.03756818547844887,-0.024740023538470268
1751223271854235600,20.782235595703124,-0.34636032581329346,0.024281874299049377,-0.02611446939408779
1751223271873062000,20.801061767578126,-0.3329212963581085,-0.0013744457392022014,-0.03695731982588768
1751223271891888000,20.81988818359375,-0.33169957995414734,0.019394956529140472,-0.023518294095993042
1751223271910714600,20.838714599609375,-0.3170388340950012,0.03145953640341759,-0.018631376326084137
1751223271929540900,20.857540771484373,-0.3035998046398163,0.032681263983249664,-0.016340631991624832
1751223271948367400,20.876367431640624,-0.2938259541988373,0.008399390615522861,-0.023518294095993042
1751223271967193600,20.895193603515626,-0.3133736252784729,-0.0025961752980947495,-0.03695731982588768
1751223271986019800,20.914019775390624,-0.33047783374786377,0.010842849500477314,-0.029626941308379173
1751223272004846300,20.932846435546875,-0.337808221578598,0.026572618633508682,-0.024740023538470268
1751223272023672600,20.951672607421877,-0.33536475896835327,0.030390523374080658,-0.022296564653515816
1751223272042498800,20.970498779296875,-0.32559093832969666,0.030390523374080658,-0.02718348242342472
1751223272061325300,20.9893251953125,-0.33047783374786377,0.0206166859716177,-0.029626941308379173
1751223272080151600,21.008151611328124,-0.3243691921234131,0.02779434807598591,-0.028405211865901947
1751223272098978000,21.02697802734375,-0.2926042377948761,0.030390523374080658,-0.01511890348047018
1751223272117804300,21.04580419921875,-0.258395791053772,0.018173227086663246,-0.01740964688360691
1751223272136630500,21.064630615234375,-0.23518294095993042,0.008399390615522861,-0.019853105768561363
1751223272155457000,21.08345703125,-0.23884813487529755,0.010842849500477314,-0.023518294095993042
1751223272174283300,21.102283203125,-0.258395791053772,0.009621120058000088,-0.023518294095993042
1751223272193109500,21.121109619140626,-0.2828303873538971,0.008399390615522861,-0.02611446939408779
1751223272211936000,21.13993603515625,-0.2877173125743866,0.02306014485657215,-0.019853105768561363
1751223272230762200,21.15876220703125,-0.2632827162742615,0.0206166859716177,-0.018631376326084137
1751223272249588500,21.17758837890625,-0.2315177470445633,0.008399390615522861,-0.01740964688360691
1751223272268415000,21.1964150390625,-0.2009745091199875,-0.0013744457392022014,-0.018631376326084137
1751223272287241200,21.2152412109375,-0.19730933010578156,-0.007483093533664942,-0.021227551624178886
1751223272306067700,21.234067626953124,-0.23396120965480804,0.010842849500477314,-0.019853105768561363
1751223272324894000,21.25289404296875,-0.2816086709499359,0.02779434807598591,-0.013744457624852657
1751223272343720200,21.27172021484375,-0.32192572951316833,0.021838415414094925,-0.024740023538470268
1751223272362546700,21.290546630859374,-0.3597993552684784,0.003512472379952669,-0.035735588520765305
1751223272381373000,21.309373046875,-0.38179048895835876,-0.0013744457392022014,-0.04306596517562866
1751223272400199200,21.32819921875,-0.37201663851737976,0.002290742937475443,-0.03940077871084213
1751223272419025700,21.347025634765625,-0.37812530994415283,-0.0013744457392022014,-0.04550942778587341
1751223272437852000,21.365851806640624,-0.41233372688293457,0.030390523374080658,-0.03695731982588768
1751223272456678400,21.384678466796874,-0.4416552484035492,0.0766635313630104,-0.01740964688360691
1751223272475504600,21.403504638671876,-0.42943793535232544,0.08765909820795059,-0.005345067009329796
1751223272494331000,21.422330810546875,-0.379347026348114,0.038789913058280945,-0.01511890348047018
1751223272513157400,21.441157470703125,-0.30482152104377747,0.014508038759231567,-0.018631376326084137
1751223272531983600,21.459983642578123,-0.2364046722650528,-0.009926552884280682,-0.021227551624178886
1751223272550810000,21.47881005859375,-0.20952661335468292,-0.019700389355421066,-0.028405211865901947
1751223272569636400,21.49763623046875,-0.2364046722650528,0.004734201822429895,-0.02611446939408779
1751223272588462600,21.516462646484374,-0.27427828311920166,0.01695149764418602,-0.023518294095993042
1751223272607289000,21.5352890625,-0.2877173125743866,0.019394956529140472,-0.02718348242342472
1751223272626115300,21.554115234375,-0.2669478952884674,0.008399390615522861,-0.02611446939408779
1751223272644941600,21.572941650390625,-0.24006985127925873,0.029016077518463135,-0.01740964688360691
1751223272663768000,21.59176806640625,-0.22663083672523499,0.0412333719432354,-0.007788525894284248
1751223272682594300,21.61059423828125,-0.2254091054201126,0.03390299528837204,-0.006566796451807022
1751223272701420800,21.6294208984375,-0.20952661335468292,0.021838415414094925,-0.012675444595515728
1751223272720247000,21.6482470703125,-0.1899789422750473,0.005955931730568409,-0.01740964688360691
1751223272739073300,21.6670732421875,-0.18387030065059662,-0.0062613640911877155,-0.024740023538470268
1751223272757899800,21.685899658203127,-0.18387030065059662,-0.012370011769235134,-0.024740023538470268
1751223272776726000,21.70472607421875,-0.21807873249053955,0.02779434807598591,-0.0102319847792387
1751223272795552300,21.72355224609375,-0.25961753726005554,0.0412333719432354,-0.009010255336761475
1751223272814378800,21.742378662109374,-0.28405213356018066,0.03756818547844887,-0.0102319847792387
1751223272833205000,21.761205078125,-0.29138249158859253,0.0412333719432354,-0.013744457624852657
1751223272852031500,21.780031494140626,-0.2864955961704254,0.024281874299049377,-0.019853105768561363
1751223272870857700,21.798857666015625,-0.268169641494751,0.02306014485657215,-0.023518294095993042
1751223272889684000,21.81768408203125,-0.23762640357017517,0.01695149764418602,-0.023518294095993042
1751223272908510500,21.836510498046874,-0.23029601573944092,0.002290742937475443,-0.03222311660647392
1751223272927336700,21.855336669921876,-0.23273947834968567,0.03527744114398956,-0.0102319847792387
1751223272946163200,21.8741630859375,-0.25350889563560486,0.07055488228797913,0.011759147047996521
1751223272964989400,21.892989501953124,-0.2669478952884674,0.002290742937475443,-0.016340631991624832
1751223272983815700,21.911815673828126,-0.2364046722650528,-0.0746782198548317,-0.04673115536570549
1751223273002642200,21.93064208984375,-0.21685700118541718,-0.06368265300989151,-0.04428769648075104
1751223273021468400,21.949468505859375,-0.20830489695072174,-0.11866047978401184,-0.0772743970155716
1751223273040295000,21.968294921875,-0.20830489695072174,0.02306014485657215,-0.018631376326084137
1751223273059121200,21.98712109375,-0.2938259541988373,0.05833758786320686,0.009315688163042068
1751223273077947400,22.005947509765626,-0.37690356373786926,-0.0025961752980947495,-0.051618073135614395
1751223273096774000,22.02477392578125,-0.3646862804889679,0.05711585655808449,-0.002901607658714056
1751223273115600100,22.04360009765625,-0.2889390289783478,0.030390523374080658,-0.021227551624178886
1751223273134426400,22.06242626953125,-0.2205221801996231,-0.09666935354471207,-0.08582650125026703
1751223273153252900,22.0812529296875,-0.2205221801996231,-0.020922118797898293,-0.05528326332569122
1751223273172079000,22.1000791015625,-0.2987128794193268,0.07422006875276566,0.0032070400193333626
1751223273190905600,22.118905517578124,-0.337808221578598,0.054672397673130035,-0.013744457624852657
1751223273209731800,22.13773193359375,-0.27550002932548523,0.0206166859716177,-0.011453714221715927
1751223273228558000,22.15655810546875,-0.1899789422750473,0.002290742937475443,-0.01511890348047018
1751223273247384600,22.175384521484375,-0.13011419773101807,-0.036804601550102234,-0.02718348242342472
1751223273266210800,22.1942109375,-0.11911863088607788,-0.04535670951008797,-0.024740023538470268
1751223273285037300,22.213037353515624,-0.15821397304534912,-0.0025961752980947495,-0.006566796451807022
1751223273303863600,22.231863525390626,-0.19242240488529205,0.004734201822429895,-0.011453714221715927
1751223273322689800,22.250689697265624,-0.1496618688106537,0.02306014485657215,-0.006566796451807022
1751223273341516300,22.269516357421875,-0.09590577334165573,-0.0001527161948615685,-0.007788525894284248
1751223273360342500,22.288342529296877,-0.09834922850131989,-0.0062613640911877155,-0.01511890348047018
1751223273379169000,22.3071689453125,-0.1692095398902893,0.005955931730568409,-0.011453714221715927
1751223273397995300,22.325995361328125,-0.21930044889450073,0.03390299528837204,-0.004123337101191282
1751223273416821500,22.344821533203124,-0.23273947834968567,0.038789913058280945,-0.009010255336761475
1751223273435648000,22.36364794921875,-0.19853104650974274,0.01206457894295454,-0.031001387163996696
1751223273454474200,22.38247412109375,-0.16798780858516693,-0.027030766010284424,-0.04062250629067421
1751223273473300700,22.40130078125,-0.15577052533626556,-0.027030766010284424,-0.03222311660647392
1751223273492127000,22.420126953125,-0.16798780858516693,0.003512472379952669,-0.007788525894284248
1751223273510953200,22.438953125,-0.15699224174022675,0.002290742937475443,0.0019853105768561363
1751223273529779700,22.45777978515625,-0.16310089826583862,-0.03191768378019333,-0.019853105768561363
1751223273548606000,22.47660595703125,-0.2315177470445633,-0.008704823441803455,-0.021227551624178886
1751223273567432400,22.495432373046874,-0.2779434621334076,0.02779434807598591,-0.019853105768561363
1751223273586258700,22.5142587890625,-0.24984370172023773,0.01695149764418602,-0.016340631991624832
1751223273605085000,22.5330849609375,-0.20708316564559937,-0.025809036567807198,-0.03329212963581085
1751223273623911400,22.551911376953125,-0.24984370172023773,-0.029474224895238876,-0.04306596517562866
1751223273642737700,22.570737548828124,-0.3390299379825592,0.04734202101826668,-0.01740964688360691
1751223273661564200,22.589564208984374,-0.3659079968929291,0.0717766135931015,-0.005345067009329796
1751223273680390400,22.608390380859376,-0.30970844626426697,0.014508038759231567,-0.024740023538470268
1751223273699217000,22.627216796875,-0.2364046722650528,-0.04535670951008797,-0.04062250629067421
1751223273718043100,22.646043212890625,-0.23518294095993042,-0.05513054504990578,-0.047952886670827866
1751223273736869400,22.664869384765623,-0.3023780584335327,0.010842849500477314,-0.02611446939408779
1751223273755695900,22.68369580078125,-0.3549124300479889,0.048563748598098755,-0.012675444595515728
1751223273774522000,22.702522216796876,-0.32192572951316833,0.026572618633508682,-0.024740023538470268
