time,seconds_elapsed,z,y,x
1751223251305253600,0.233253662109375,-0.0010690133785828948,0.00045814859913662076,-0.000305432389723137
1751223251324080000,0.252080078125,0.0001527161948615685,0.00045814859913662076,-0.000305432389723137
1751223251342906400,0.27090625,0.0001527161948615685,-0.0007635809597559273,-0.000305432389723137
1751223251371146000,0.29914599609375,0.0001527161948615685,0.00045814859913662076,-0.000305432389723137
1751223251399385900,0.3273857421875,0.0001527161948615685,-0.0007635809597559273,-0.000305432389723137
1751223251418212000,0.346212158203125,0.0013744457392022014,-0.0007635809597559273,-0.000305432389723137
1751223251437038600,0.36503857421875,0.0001527161948615685,-0.0007635809597559273,-0.000305432389723137
1751223251455864800,0.38386474609375,0.0001527161948615685,-0.0007635809597559273,-0.000305432389723137
1751223251474691300,0.40269140625,0.0001527161948615685,0.00045814859913662076,-0.000305432389723137
1751223251493517800,0.421517822265625,0.0013744457392022014,-0.0007635809597559273,-0.000305432389723137
1751223251512344000,0.440343994140625,0.0013744457392022014,0.00045814859913662076,-0.000305432389723137
1751223251531170600,0.459170654296875,0.0001527161948615685,-0.0007635809597559273,-0.000305432389723137
1751223251549997000,0.4779970703125,0.0001527161948615685,-0.0007635809597559273,-0.000305432389723137
1751223251568823600,0.496823486328125,0.0001527161948615685,0.00045814859913662076,-0.000305432389723137
1751223251587649800,0.51564990234375,0.0001527161948615685,-0.0007635809597559273,-0.000305432389723137
1751223251606476300,0.534476318359375,0.0001527161948615685,-0.0007635809597559273,-0.000305432389723137
1751223251625302800,0.553302734375,0.0001527161948615685,-0.0007635809597559273,-0.000305432389723137
1751223251644129000,0.57212890625,0.0001527161948615685,-0.0007635809597559273,-0.000305432389723137
1751223251662955500,0.59095556640625,0.0001527161948615685,-0.0007635809597559273,-0.000305432389723137
1751223251681782000,0.609781982421875,0.0013744457392022014,0.00045814859913662076,-0.000305432389723137
1751223251700608300,0.628608154296875,0.0001527161948615685,-0.0007635809597559273,-0.000305432389723137
1751223251719434800,0.647434814453125,0.0001527161948615685,-0.0007635809597559273,-0.000305432389723137
1751223251738261200,0.66626123046875,0.0001527161948615685,-0.0007635809597559273,-0.000305432389723137
1751223251757087500,0.68508740234375,0.0001527161948615685,-0.0007635809597559273,-0.000305432389723137
1751223251775914000,0.7039140625,0.0001527161948615685,-0.0007635809597559273,-0.000305432389723137
1751223251794740500,0.722740478515625,0.0001527161948615685,-0.0007635809597559273,-0.000305432389723137
1751223251813567000,0.74156689453125,0.0013744457392022014,-0.0007635809597559273,-0.000305432389723137
1751223251832393200,0.760393310546875,0.0013744457392022014,-0.0007635809597559273,-0.000305432389723137
1751223251851219700,0.7792197265625,0.0001527161948615685,0.00045814859913662076,-0.000305432389723137
1751223251870046200,0.798046142578125,0.0001527161948615685,-0.0007635809597559273,-0.000305432389723137
1751223251888872400,0.81687255859375,0.0013744457392022014,-0.0007635809597559273,-0.000305432389723137
1751223251907699000,0.835698974609375,0.0001527161948615685,-0.0007635809597559273,-0.000305432389723137
1751223251926525400,0.854525390625,0.0013744457392022014,0.00045814859913662076,-0.000305432389723137
1751223251945351700,0.8733515625,0.0001527161948615685,-0.0007635809597559273,-0.000305432389723137
1751223251964178200,0.89217822265625,0.0001527161948615685,-0.0007635809597559273,-0.000305432389723137
1751223251983004700,0.911004638671875,0.0001527161948615685,0.00045814859913662076,-0.000305432389723137
1751223252001831200,0.9298310546875,0.0001527161948615685,-0.0007635809597559273,-0.000305432389723137
1751223252020657400,0.948657470703125,0.0001527161948615685,0.00045814859913662076,-0.000305432389723137
1751223252039484000,0.96748388671875,0.0013744457392022014,-0.0007635809597559273,-0.000305432389723137
1751223252058310400,0.986310302734375,0.0013744457392022014,-0.0007635809597559273,-0.000305432389723137
1751223252077136600,1.00513671875,0.0013744457392022014,-0.0007635809597559273,-0.000305432389723137
1751223252095963100,1.023963134765625,0.0001527161948615685,-0.0007635809597559273,-0.000305432389723137
1751223252114789600,1.04278955078125,0.0001527161948615685,-0.0007635809597559273,-0.000305432389723137
1751223252133615900,1.061615966796875,0.0013744457392022014,-0.0007635809597559273,-0.000305432389723137
1751223252152442400,1.0804423828125,0.0001527161948615685,0.00045814859913662076,-0.000305432389723137
1751223252171268900,1.099268798828125,0.0001527161948615685,-0.0007635809597559273,-0.000305432389723137
1751223252190095000,1.11809521484375,0.0001527161948615685,0.00045814859913662076,-0.000305432389723137
1751223252208921600,1.136921630859375,0.0001527161948615685,-0.0007635809597559273,-0.000305432389723137
1751223252227748000,1.155748046875,0.0001527161948615685,-0.0007635809597559273,-0.000305432389723137
1751223252246574600,1.17457470703125,0.0001527161948615685,0.00045814859913662076,-0.000305432389723137
1751223252265400800,1.19340087890625,0.0001527161948615685,-0.0007635809597559273,-0.000305432389723137
1751223252284227300,1.212227294921875,0.0013744457392022014,-0.0007635809597559273,-0.000305432389723137
1751223252303053800,1.2310537109375,0.0013744457392022014,0.00045814859913662076,-0.000305432389723137
1751223252321880000,1.249880126953125,0.0001527161948615685,-0.0007635809597559273,-0.000305432389723137
1751223252340706600,1.26870654296875,0.0001527161948615685,-0.0007635809597559273,-0.000305432389723137
1751223252359533000,1.287532958984375,0.0001527161948615685,-0.0007635809597559273,-0.000305432389723137
1751223252378359600,1.306359619140625,0.0001527161948615685,-0.0007635809597559273,-0.000305432389723137
1751223252397185800,1.325185791015625,0.0013744457392022014,0.002901607658714056,-0.0015271619195118546
1751223252416012300,1.34401220703125,0.0001527161948615685,0.009010255336761475,0.0021380267571657896
1751223252434838800,1.3628388671875,0.0001527161948615685,-0.017867794260382652,-0.000305432389723137
1751223252453665000,1.3816650390625,0.0001527161948615685,0.004123337101191282,-0.006414080038666725
1751223252472491500,1.400491455078125,-0.0010690133785828948,0.005345067009329796,0.007024944759905338
1751223252491318000,1.419318115234375,0.0013744457392022014,-0.0007635809597559273,-0.0027488914784044027
1751223252510144300,1.438144287109375,0.0013744457392022014,-0.009315688163042068,-0.0027488914784044027
1751223252528970800,1.456970703125,0.0001527161948615685,0.005345067009329796,0.0021380267571657896
1751223252547797200,1.47579736328125,0.0001527161948615685,0.00045814859913662076,0.0009162971982732415
1751223252566623500,1.49462353515625,0.0001527161948615685,-0.004428769461810589,-0.0027488914784044027
1751223252585450000,1.513449951171875,0.0025961752980947495,-0.004428769461810589,-0.005192350596189499
1751223252604276500,1.5322763671875,-0.0010690133785828948,0.012675444595515728,0.004581485874950886
1751223252623103000,1.55110302734375,0.0025961752980947495,-0.02153298258781433,-0.0015271619195118546
1751223252641929200,1.56992919921875,0.0013744457392022014,-0.0032070400193333626,-0.010079269297420979
1751223252660755700,1.588755615234375,0.0001527161948615685,0.0102319847792387,0.0021380267571657896
1751223252679582200,1.607582275390625,0.0001527161948615685,-0.016646064817905426,-0.007635809946805239
1751223252698408400,1.626408447265625,-0.002290742937475443,-0.010537417605519295,-0.003970621153712273
1751223252717235000,1.64523486328125,-0.004734201822429895,0.031001387163996696,0.010690134018659592
1751223252736061400,1.6640615234375,-0.007177661173045635,0.0591011680662632,0.011911863461136818
1751223252754887700,1.6828876953125,-0.004734201822429895,0.0383317656815052,0.015577051788568497
1751223252773714200,1.701714111328125,-0.0010690133785828948,0.005345067009329796,0.00946840364485979
1751223252792540700,1.720540771484375,-0.003512472379952669,-0.04474584385752678,-0.010079269297420979
1751223252811367000,1.739366943359375,-0.02672533318400383,-0.03741546720266342,-0.022296564653515816
1751223252830193400,1.758193359375,-0.03649916872382164,-0.028863361105322838,0.0021380267571657896
1751223252849020000,1.77702001953125,-0.037720900028944016,-0.022754713892936707,-0.012522728182375431
1751223252867846400,1.795846435546875,-0.037720900028944016,-0.01908952370285988,-0.012522728182375431
1751223252886672600,1.814672607421875,-0.02672533318400383,-0.010537417605519295,-0.0015271619195118546
1751223252905499100,1.8334990234375,-0.005955931730568409,-0.006872228812426329,-0.006414080038666725
1751223252924325600,1.85232568359375,-0.005955931730568409,-0.009315688163042068,-0.005192350596189499
1751223252943151900,1.87115185546875,-0.01206457894295454,-0.012980876490473747,-0.006414080038666725
1751223252961978400,1.889978271484375,-0.01206457894295454,-0.014202605932950974,-0.006414080038666725
1751223252980804900,1.908804931640625,-0.02306014485657215,0.001679878099821508,0.0021380267571657896
1751223252999631400,1.92763134765625,-0.043829549103975296,0.0102319847792387,-0.000305432389723137
1751223253018457600,1.94645751953125,-0.03527744114398956,0.024892739951610565,-0.007635809946805239
1751223253037284000,1.9652841796875,-0.009621120058000088,0.03588830679655075,0.0009162971982732415
1751223253056110600,1.984110595703125,-0.003512472379952669,0.0383317656815052,-0.000305432389723137
1751223253074936800,2.002936767578125,-0.0010690133785828948,0.007788525894284248,-0.0027488914784044027
1751223253093763300,2.021763427734375,-0.002290742937475443,-0.008093958720564842,0.0009162971982732415
1751223253112589800,2.04058984375,-0.003512472379952669,-0.0019853105768561363,0.003359756199643016
1751223253131416000,2.059416015625,-0.005955931730568409,0.011453714221715927,0.0021380267571657896
1751223253150242600,2.07824267578125,-0.002290742937475443,0.013897174037992954,0.0009162971982732415
1751223253169069000,2.097069091796875,-0.003512472379952669,0.007788525894284248,0.0021380267571657896
1751223253187895300,2.115895263671875,-0.003512472379952669,0.009010255336761475,-0.005192350596189499
1751223253206721800,2.1347216796875,-0.009621120058000088,0.013897174037992954,-0.0027488914784044027
1751223253225548300,2.15354833984375,-0.024281874299049377,0.021227551624178886,-0.0015271619195118546
1751223253244374500,2.17237451171875,-0.053603384643793106,0.016340631991624832,-0.0015271619195118546
1751223253263201000,2.191200927734375,-0.08170316368341446,0.001679878099821508,-0.005192350596189499
1751223253282027500,2.210027587890625,-0.10125083476305008,-0.0032070400193333626,-0.008857538923621178
1751223253300854000,2.22885400390625,-0.1207985132932663,-0.0019853105768561363,-0.01740964688360691
1751223253319680300,2.24768017578125,-0.15989385545253754,0.006566796451807022,-0.01740964688360691
1751223253338506800,2.2665068359375,-0.18921536207199097,0.022449281066656113,-0.023518294095993042
1751223253357333200,2.285333251953125,-0.20021092891693115,0.04199695214629173,-0.008857538923621178
1751223253376159500,2.304159423828125,-0.2026543915271759,0.018784092739224434,-0.012522728182375431
1751223253394986000,2.322986083984375,-0.2075413018465042,0.007788525894284248,-0.02718348242342472
1751223253413812500,2.3418125,-0.22586725652217865,0.009010255336761475,-0.02107483521103859
1751223253432639000,2.360638916015625,-0.2808450758457184,0.009010255336761475,-0.028405211865901947
1751223253451465200,2.37946533203125,-0.35537058115005493,0.007788525894284248,-0.03940077871084213
1751223253470291700,2.398291748046875,-0.4189005196094513,0.011453714221715927,-0.047952886670827866
1751223253489118200,2.4171181640625,-0.43600472807884216,0.01511890348047018,-0.04673115536570549
1751223253507944400,2.4359443359375,-0.4030180275440216,0.013897174037992954,-0.04428769648075104
1751223253526771000,2.45477099609375,-0.33337944746017456,0.012675444595515728,-0.03817904740571976
1751223253545597400,2.473597412109375,-0.26740604639053345,0.002901607658714056,-0.028405211865901947
1751223253564423700,2.492423583984375,-0.1977674663066864,-0.0032070400193333626,-0.02718348242342472
1751223253592663300,2.520663330078125,-0.09147699922323227,0.001679878099821508,-0.010079269297420979
1751223253611489800,2.53948974609375,-0.02306014485657215,0.011453714221715927,-0.0027488914784044027
1751223253630316300,2.55831640625,-0.0010690133785828948,0.022449281066656113,0.003359756199643016
1751223253649142500,2.577142578125,-0.002290742937475443,0.01511890348047018,-0.000305432389723137
1751223253667969000,2.595968994140625,-0.003512472379952669,-0.008093958720564842,0.0021380267571657896
1751223253686795500,2.61479541015625,-0.004734201822429895,-0.026419902220368385,-0.005192350596189499
1751223253705621800,2.633621826171875,-0.015729768201708794,-0.028863361105322838,-0.010079269297420979
1751223253724448300,2.6524482421875,-0.064598947763443,-0.004428769461810589,-0.003970621153712273
1751223253743274800,2.671274658203125,-0.14401137828826904,0.007788525894284248,-0.011300998739898205
1751223253762101200,2.690101318359375,-0.18432845175266266,-0.005650499369949102,-0.029626941308379173
1751223253780927500,2.708927490234375,-0.15745039284229279,-0.014202605932950974,-0.024740023538470268
1751223253799754000,2.72775390625,-0.09269873052835464,-0.016646064817905426,-0.016187917441129684
1751223253818580500,2.74658056640625,-0.04505127668380737,-0.008093958720564842,-0.010079269297420979
1751223253837406700,2.76540673828125,-0.02916879393160343,0.00045814859913662076,-0.003970621153712273
1751223253856233200,2.784233154296875,-0.02306014485657215,-0.0032070400193333626,-0.005192350596189499
1751223253875059700,2.803059814453125,-0.013286309316754341,-0.006872228812426329,-0.0027488914784044027
1751223253893886000,2.821885986328125,0.0001527161948615685,-0.009315688163042068,-0.000305432389723137
1751223253912712400,2.84071240234375,-0.003512472379952669,-0.009315688163042068,-0.0027488914784044027
1751223253931539000,2.8595390625,-0.004734201822429895,-0.0032070400193333626,-0.0015271619195118546
1751223253950365200,2.878365234375,0.0013744457392022014,0.00045814859913662076,-0.0027488914784044027
1751223253969191700,2.897191650390625,0.0025961752980947495,-0.0007635809597559273,-0.0027488914784044027
1751223253988018200,2.91601806640625,-0.0010690133785828948,0.001679878099821508,0.0009162971982732415
1751223254006844400,2.934844482421875,-0.002290742937475443,0.001679878099821508,0.0021380267571657896
1751223254025671000,2.9536708984375,0.0001527161948615685,0.007788525894284248,-0.0027488914784044027
1751223254044497400,2.972497314453125,0.0001527161948615685,0.0102319847792387,0.003359756199643016
1751223254063323600,2.99132373046875,0.0013744457392022014,0.005345067009329796,-0.000305432389723137
1751223254082150100,3.010150146484375,0.0001527161948615685,0.001679878099821508,-0.000305432389723137
1751223254100976600,3.0289765625,0.0013744457392022014,0.007788525894284248,0.0009162971982732415
1751223254119803000,3.047802978515625,0.0025961752980947495,0.011453714221715927,0.0021380267571657896
1751223254138629400,3.06662939453125,0.0025961752980947495,0.009010255336761475,0.0009162971982732415
1751223254157456000,3.085455810546875,0.0038179049734026194,0.004123337101191282,0.0021380267571657896
1751223254176282400,3.104282470703125,0.008704823441803455,0.006566796451807022,0.0021380267571657896
1751223254195108600,3.123108642578125,0.0025961752980947495,0.018784092739224434,0.004581485874950886
1751223254213935000,3.14193505859375,0.0038179049734026194,0.02367101050913334,-0.005192350596189499
1751223254232761300,3.16076123046875,0.023365577682852745,0.007788525894284248,-0.005192350596189499
1751223254251587800,3.179587890625,0.07834340631961823,0.0102319847792387,0.007024944759905338
1751223254270414300,3.198414306640625,0.1052214577794075,0.007788525894284248,0.01435532234609127
1751223254289240600,3.217240478515625,0.11499529331922531,0.012675444595515728,0.010690134018659592
1751223254308067000,3.236067138671875,0.15897755324840546,-0.0032070400193333626,0.016798781231045723
1751223254326893600,3.2548935546875,0.2701549530029297,-0.010537417605519295,0.026572618633508682
1751223254345720000,3.273719970703125,0.4045451879501343,-0.020311253145337105,0.04367683082818985
1751223254364546300,3.29254638671875,0.5071704983711243,-0.036193739622831345,0.05100720748305321
1751223254383372800,3.311372802734375,0.5914698243141174,-0.05329795181751251,0.05222893878817558
1751223254402199300,3.33019921875,0.725860059261322,-0.0386371985077858,0.07910698652267456
1751223254421025500,3.349025634765625,0.8468112945556641,-0.0386371985077858,0.09010255336761475
1751223254439852000,3.36785205078125,0.8455895781517029,-0.02153298258781433,0.08765909820795059
1751223254458678300,3.38667822265625,0.6855430006980896,-0.0032070400193333626,0.07544180005788803
1751223254477504800,3.4055048828125,0.49739664793014526,-0.016646064817905426,0.04367683082818985
1751223254496331300,3.424331298828125,0.3764454126358032,-0.016646064817905426,0.03634645417332649
1751223254515157500,3.443157470703125,0.25793763995170593,-0.011759147047996521,0.032681263983249664
1751223254533984000,3.46198388671875,0.08323032408952713,0.004123337101191282,0.013133592903614044
1751223254552810500,3.480810546875,-0.014508038759231567,0.012675444595515728,0.008246674202382565
1751223254571637000,3.499636962890625,-0.005955931730568409,0.006566796451807022,-0.003970621153712273
1751223254590463200,3.518463134765625,-0.007177661173045635,-0.0032070400193333626,0.004581485874950886
1751223254609289700,3.537289794921875,-0.0206166859716177,0.006566796451807022,0.0021380267571657896
1751223254628116200,3.5561162109375,-0.051159925758838654,0.011453714221715927,0.0021380267571657896
1751223254646942500,3.5749423828125,-0.051159925758838654,-0.0019853105768561363,-0.008857538923621178
1751223254665769000,3.59376904296875,-0.02672533318400383,-0.0007635809597559273,0.0021380267571657896
1751223254684595200,3.61259521484375,-0.02672533318400383,-0.0007635809597559273,0.004581485874950886
1751223254703421700,3.631421630859375,-0.04993819445371628,-0.004428769461810589,-0.010079269297420979
1751223254722248200,3.650248291015625,-0.08781181275844574,0.009010255336761475,-0.007635809946805239
1751223254741074400,3.669074462890625,-0.11224640160799026,0.012675444595515728,-0.013744457624852657
1751223254759901000,3.68790087890625,-0.14278964698314667,0.005345067009329796,-0.01740964688360691
1751223254778727400,3.7067275390625,-0.15500694513320923,0.005345067009329796,-0.01740964688360691
1751223254797553700,3.7255537109375,-0.15012001991271973,0.007788525894284248,-0.01740964688360691
1751223254816380200,3.744380126953125,-0.1611155867576599,0.013897174037992954,-0.016187917441129684
1751223254835206700,3.76320654296875,-0.21120649576187134,0.017562363296747208,-0.018631376326084137
1751223254854033000,3.782032958984375,-0.3016144931316376,-0.0019853105768561363,-0.035735588520765305
1751223254872859400,3.800859375,-0.37858346104621887,-0.0007635809597559273,-0.041844237595796585
1751223254891686000,3.819685791015625,-0.3981311321258545,0.009010255336761475,-0.04428769648075104
1751223254910512000,3.83851220703125,-0.3712530732154846,0.012675444595515728,-0.03695731982588768
1751223254929338600,3.857338623046875,-0.35537058115005493,0.012675444595515728,-0.03329212963581085
1751223254948165000,3.8761650390625,-0.36392268538475037,-0.0032070400193333626,-0.04428769648075104
1751223254966991400,3.894991455078125,-0.351705402135849,-0.01908952370285988,-0.05039634555578232
1751223254985817900,3.91381787109375,-0.2906189262866974,-0.020311253145337105,-0.04306596517562866
1751223255004644400,3.932644287109375,-0.21487168967723846,-0.012980876490473747,-0.032070402055978775
1751223255023470600,3.951470703125,-0.15989385545253754,-0.008093958720564842,-0.012522728182375431
1751223255042297000,3.970297119140625,-0.14523309469223022,-0.008093958720564842,-0.019853105768561363
1751223255061123300,3.989123291015625,-0.15745039284229279,-0.0019853105768561363,-0.01740964688360691
1751223255079949800,4.00794970703125,-0.18066325783729553,0.004123337101191282,-0.019853105768561363
1751223255098776300,4.0267763671875,-0.20387612283229828,0.011453714221715927,-0.022296564653515816
1751223255117602600,4.0456025390625,-0.24174973368644714,0.006566796451807022,-0.01740964688360691
1751223255136429000,4.064428955078125,-0.3065013885498047,0.00045814859913662076,-0.03451386094093323
1751223255155255600,4.083255615234375,-0.3969093859195709,-0.005650499369949102,-0.04306596517562866
1751223255174081800,4.102081787109375,-0.4812087416648865,-0.006872228812426329,-0.05894844979047775
1751223255192908300,4.120908203125,-0.5154171586036682,0.005345067009329796,-0.061391908675432205
1751223255211734800,4.13973486328125,-0.5093085169792175,0.009010255336761475,-0.057726722210645676
1751223255230561000,4.15856103515625,-0.4995346665382385,0.011453714221715927,-0.05283980444073677
1751223255249387500,4.177387451171875,-0.5007563829421997,0.001679878099821508,-0.06017018109560013
1751223255268214000,4.196214111328125,-0.5056433081626892,0.001679878099821508,-0.06505709886550903
1751223255287040300,4.215040283203125,-0.504421591758728,0.0102319847792387,-0.05528326332569122
1751223255305866800,4.23386669921875,-0.4848739206790924,0.016340631991624832,-0.051618073135614395
1751223255324693200,4.252693359375,-0.45066550374031067,0.016340631991624832,-0.04673115536570549
1751223255343519500,4.27151953125,-0.3871355652809143,0.011453714221715927,-0.03329212963581085
1751223255362346000,4.290345947265625,-0.33948808908462524,0.001679878099821508,-0.04306596517562866
1751223255381172200,4.309172119140625,-0.33948808908462524,0.006566796451807022,-0.041844237595796585
1751223255399998700,4.327998779296875,-0.351705402135849,0.02367101050913334,-0.03329212963581085
1751223255418825200,4.3468251953125,-0.36514443159103394,0.02367101050913334,-0.03817904740571976
1751223255437651500,4.3656513671875,-0.3761399984359741,0.01511890348047018,-0.04306596517562866
1751223255456478000,4.38447802734375,-0.3761399984359741,0.006566796451807022,-0.03940077871084213
1751223255475304400,4.403304443359375,-0.3565923273563385,-0.0007635809597559273,-0.03817904740571976
1751223255494130700,4.422130615234375,-0.35903576016426086,0.001679878099821508,-0.035735588520765305
1751223255512957200,4.440957275390625,-0.3981311321258545,0.009010255336761475,-0.03451386094093323
1751223255531783700,4.45978369140625,-0.43722647428512573,-0.0032070400193333626,-0.05406153202056885
1751223255550610000,4.47860986328125,-0.47265663743019104,-0.009315688163042068,-0.05894844979047775
1751223255569436400,4.4974365234375,-0.49342602491378784,-0.009315688163042068,-0.061391908675432205
1751223255588262700,4.5162626953125,-0.5264127254486084,-0.0019853105768561363,-0.06627883017063141
1751223255607089200,4.535089111328125,-0.5532907843589783,0.005345067009329796,-0.061391908675432205
1751223255625915600,4.55391552734375,-0.5716167092323303,0.011453714221715927,-0.06261363625526428
1751223255644742000,4.572741943359375,-0.5850557684898376,0.007788525894284248,-0.06505709886550903
1751223255663568400,4.591568359375,-0.6119337677955627,0.011453714221715927,-0.07483093440532684
1751223255682395000,4.610394775390625,-0.6302597522735596,0.02367101050913334,-0.06505709886550903
1751223255701221000,4.62922119140625,-0.6265945434570312,0.02611446939408779,-0.06750056147575378
1751223255720047600,4.648047607421875,-0.6046034097671509,0.027336198836565018,-0.06750056147575378
1751223255738874000,4.6668740234375,-0.5606211423873901,0.02000582218170166,-0.06017018109560013
1751223255757700400,4.685700439453125,-0.5190823674201965,0.017562363296747208,-0.051618073135614395
1751223255776526800,4.70452685546875,-0.5190823674201965,0.02367101050913334,-0.05283980444073677
1751223255795353000,4.72335302734375,-0.5765036344528198,0.016340631991624832,-0.06627883017063141
1751223255814179600,4.7421796875,-0.6681333780288696,0.02000582218170166,-0.07849612087011337
1751223255833006000,4.761006103515625,-0.7609847784042358,0.012675444595515728,-0.08338304609060287
1751223255851832300,4.779832275390625,-0.8232930302619934,0.005345067009329796,-0.09560033679008484
1751223255870658800,4.798658935546875,-0.8318451046943665,0.012675444595515728,-0.0870482325553894
1751223255889485300,4.8174853515625,-0.7951932549476624,0.0102319847792387,-0.09193515032529831
1751223255908311600,4.8363115234375,-0.7170025110244751,0.012675444595515728,-0.08826996386051178
1751223255927138000,4.855137939453125,-0.5936078429222107,0.016340631991624832,-0.06994401663541794
1751223255945964300,4.87396435546875,-0.4604393243789673,0.02000582218170166,-0.05528326332569122
1751223255964790800,4.892790771484375,-0.34437501430511475,0.022449281066656113,-0.035735588520765305
1751223255983617300,4.9116171875,-0.27107125520706177,0.03222311660647392,-0.022296564653515816
1751223256002443500,4.930443603515625,-0.2380845546722412,0.031001387163996696,-0.019853105768561363
1751223256021270000,4.94927001953125,-0.22708898782730103,0.02977965772151947,-0.019853105768561363
1751223256040096500,4.968096435546875,-0.21609342098236084,0.021227551624178886,-0.024740023538470268
1751223256058922800,4.9869228515625,-0.19654574990272522,0.013897174037992954,-0.018631376326084137
1751223256077749200,5.005749267578125,-0.17944152653217316,0.01511890348047018,-0.014966187067329884
1751223256096575500,5.024575439453125,-0.16966769099235535,0.018784092739224434,-0.01740964688360691
1751223256115402000,5.043402099609375,-0.1879936307668686,0.02000582218170166,-0.018631376326084137
1751223256134228500,5.062228515625,-0.19410228729248047,0.016340631991624832,-0.01740964688360691
1751223256153054700,5.0810546875,-0.1879936307668686,0.005345067009329796,-0.019853105768561363
1751223256171881200,5.099881103515625,-0.18310672044754028,0.00045814859913662076,-0.022296564653515816
1751223256190707700,5.118707763671875,-0.1928805559873581,-0.0032070400193333626,-0.022296564653515816
1751223256209534000,5.137533935546875,-0.20021092891693115,-0.0007635809597559273,-0.024740023538470268
1751223256228360400,5.1563603515625,-0.20387612283229828,0.00045814859913662076,-0.025961752980947495
1751223256247186700,5.175186767578125,-0.2136499583721161,0.001679878099821508,-0.022296564653515816
1751223256266013200,5.19401318359375,-0.2283107042312622,0.004123337101191282,-0.028405211865901947
1751223256284839700,5.212839599609375,-0.2503018379211426,0.016340631991624832,-0.022296564653515816
1751223256303666000,5.231666015625,-0.2759581506252289,0.017562363296747208,-0.024740023538470268
1751223256322492400,5.250492431640625,-0.2796233594417572,0.0102319847792387,-0.03329212963581085
1751223256341318700,5.269318603515625,-0.25152358412742615,0.011453714221715927,-0.025961752980947495
1751223256360145200,5.288145263671875,-0.2136499583721161,0.006566796451807022,-0.023518294095993042
1751223256378971600,5.3069716796875,-0.17821979522705078,0.002901607658714056,-0.025961752980947495
1751223256397798000,5.3257978515625,-0.1366809904575348,0.005345067009329796,-0.014966187067329884
1751223256416624400,5.344624267578125,-0.09636391699314117,0.002901607658714056,-0.011300998739898205
1751223256435451000,5.363450927734375,-0.060933761298656464,-0.0032070400193333626,-0.006414080038666725
1751223256454277000,5.382277099609375,-0.03283398225903511,-0.0032070400193333626,-0.005192350596189499
1751223256473103600,5.401103515625,-0.0206166859716177,0.005345067009329796,0.0009162971982732415
1751223256491929900,5.419929931640625,-0.02306014485657215,0.0102319847792387,-0.0027488914784044027
1751223256510756400,5.43875634765625,-0.01695149764418602,0.013897174037992954,0.0009162971982732415
1751223256529582800,5.457582763671875,-0.015729768201708794,0.011453714221715927,0.003359756199643016
1751223256548409000,5.4764091796875,-0.027947064489126205,0.007788525894284248,-0.000305432389723137
1751223256567235600,5.495235595703125,-0.07559451460838318,0.004123337101191282,-0.0027488914784044027
1751223256586061800,5.514061767578125,-0.17088942229747772,-0.0007635809597559273,-0.02107483521103859
1751223256604888300,5.532888427734375,-0.25152358412742615,-0.004428769461810589,-0.032070402055978775
1751223256623714800,5.55171484375,-0.2906189262866974,-0.008093958720564842,-0.03695731982588768
1751223256642541000,5.570541015625,-0.300392746925354,-0.004428769461810589,-0.035735588520765305
1751223256661367600,5.589367431640625,-0.29184064269065857,0.001679878099821508,-0.03451386094093323
1751223256680193800,5.60819384765625,-0.2759581506252289,0.004123337101191282,-0.032070402055978775
1751223256699020300,5.627020263671875,-0.24785839021205902,0.004123337101191282,-0.032070402055978775
1751223256717846800,5.6458466796875,-0.22464552521705627,0.009010255336761475,-0.025961752980947495
1751223256736673000,5.664673095703125,-0.21731515228748322,0.004123337101191282,-0.024740023538470268
1751223256755499500,5.68349951171875,-0.23197589814662933,0.004123337101191282,-0.024740023538470268
1751223256774326000,5.702325927734375,-0.25274530053138733,0.005345067009329796,-0.029626941308379173
1751223256793152300,5.72115234375,-0.2551887631416321,0.009010255336761475,-0.0308486707508564
1751223256811978800,5.739978759765625,-0.22953243553638458,0.01511890348047018,-0.02107483521103859
1751223256830805000,5.758804931640625,-0.2075413018465042,0.011453714221715927,-0.02107483521103859
1751223256849631500,5.777631591796875,-0.20387612283229828,0.0102319847792387,-0.019853105768561363
1751223256868458000,5.7964580078125,-0.2283107042312622,0.002901607658714056,-0.023518294095993042
1751223256887284200,5.8152841796875,-0.2637408673763275,-0.0007635809597559273,-0.029626941308379173
1751223256906110700,5.83411083984375,-0.29306238889694214,-0.0019853105768561363,-0.029626941308379173
1751223256924937000,5.85293701171875,-0.310166597366333,-0.0032070400193333626,-0.03817904740571976
1751223256943763500,5.871763427734375,-0.30283620953559875,-0.0007635809597559273,-0.03940077871084213
1751223256962590000,5.89058984375,-0.2955058515071869,0.011453714221715927,-0.032070402055978775
1751223256981416200,5.909416259765625,-0.2942841053009033,0.01511890348047018,-0.03329212963581085
1751223257000242700,5.92824267578125,-0.2906189262866974,0.012675444595515728,-0.02718348242342472
1751223257019069000,5.94706884765625,-0.2857320010662079,0.006566796451807022,-0.028405211865901947
1751223257037895400,5.9658955078125,-0.2600756883621216,0.006566796451807022,-0.02718348242342472
1751223257056722000,5.984721923828125,-0.23197589814662933,0.012675444595515728,-0.025961752980947495
1751223257075548200,6.003548095703125,-0.19898919761180878,0.02367101050913334,-0.019853105768561363
1751223257094374700,6.022374755859375,-0.17455461621284485,0.02000582218170166,-0.016187917441129684
1751223257113201000,6.041200927734375,-0.16844595968723297,0.007788525894284248,-0.01740964688360691
1751223257132027400,6.06002734375,-0.19043709337711334,0.00045814859913662076,-0.01740964688360691
1751223257150853600,6.078853515625,-0.22098033130168915,0.005345067009329796,-0.022296564653515816
1751223257169680100,6.09768017578125,-0.26740604639053345,0.013897174037992954,-0.029626941308379173
1751223257188506600,6.116506591796875,-0.2845102846622467,0.012675444595515728,-0.03329212963581085
1751223257207332900,6.135332763671875,-0.2747364342212677,-0.0007635809597559273,-0.028405211865901947
1751223257226159400,6.154159423828125,-0.2551887631416321,-0.008093958720564842,-0.024740023538470268
1751223257244985900,6.17298583984375,-0.24541492760181427,-0.006872228812426329,-0.025961752980947495
1751223257263812000,6.19181201171875,-0.27229297161102295,0.0102319847792387,-0.025961752980947495
1751223257282638600,6.210638671875,-0.30283620953559875,0.02611446939408779,-0.032070402055978775
1751223257301464800,6.22946484375,-0.33948808908462524,0.03955349326133728,-0.03451386094093323
1751223257320291300,6.248291259765625,-0.38591381907463074,0.04199695214629173,-0.03329212963581085
1751223257339117600,6.26711767578125,-0.425009161233902,0.0334448479115963,-0.04428769648075104
1751223257357944000,6.285944091796875,-0.44577857851982117,0.024892739951610565,-0.05283980444073677
1751223257376770600,6.3047705078125,-0.47754353284835815,0.012675444595515728,-0.057726722210645676
1751223257395596800,6.3235966796875,-0.5288561582565308,0.01511890348047018,-0.061391908675432205
1751223257414423300,6.34242333984375,-0.58749920129776,0.03711003437638283,-0.061391908675432205
1751223257433249500,6.36124951171875,-0.6351466774940491,0.05177079141139984,-0.07116574794054031
1751223257452076000,6.380075927734375,-0.6595812439918518,0.04566214233636856,-0.08093958348035812
1751223257470902500,6.398902587890625,-0.6644681692123413,0.03222311660647392,-0.07483093440532684
1751223257489728800,6.417728759765625,-0.6717985272407532,0.005345067009329796,-0.0772743970155716
1751223257508555300,6.43655517578125,-0.6656898856163025,0.004123337101191282,-0.07971785217523575
1751223257527381500,6.455381591796875,-0.6388118267059326,0.012675444595515728,-0.07238747924566269
1751223257546208000,6.4742080078125,-0.567951500415802,0.024892739951610565,-0.06383536756038666
1751223257565034500,6.493034423828125,-0.45799586176872253,0.02367101050913334,-0.04306596517562866
1751223257583860700,6.51186083984375,-0.34193155169487,0.024892739951610565,-0.028405211865901947
1751223257602687200,6.530687255859375,-0.22098033130168915,0.011453714221715927,-0.02107483521103859
1751223257621513500,6.549513427734375,-0.08903354406356812,0.012675444595515728,-0.010079269297420979
1751223257640340000,6.568340087890625,-0.0010690133785828948,0.007788525894284248,0.007024944759905338
1751223257659166200,6.587166259765625,-0.003512472379952669,0.005345067009329796,0.004581485874950886
1751223257677992700,6.60599267578125,-0.003512472379952669,0.00045814859913662076,0.005803215317428112
1751223257696819200,6.624819091796875,-0.002290742937475443,0.011453714221715927,0.004581485874950886
1751223257715645400,6.6436455078125,-0.002290742937475443,0.031001387163996696,0.011911863461136818
1751223257734472000,6.662471923828125,-0.004734201822429895,0.03222311660647392,0.011911863461136818
1751223257753298200,6.681298095703125,-0.01206457894295454,0.03711003437638283,0.008246674202382565
1751223257772124700,6.700124755859375,-0.04016435891389847,0.04321868345141411,0.015577051788568497
1751223257790951200,6.718951171875,-0.1049160286784172,0.02977965772151947,0.0009162971982732415
1751223257809777400,6.73777734375,-0.16600249707698822,0.001679878099821508,-0.01740964688360691
1751223257828604000,6.75660400390625,-0.23075416684150696,-0.017867794260382652,-0.025961752980947495
1751223257847430100,6.77543017578125,-0.2893971800804138,-0.02153298258781433,-0.0308486707508564
1751223257866256600,6.794256591796875,-0.3174969553947449,-0.017867794260382652,-0.041844237595796585
1751223257885083000,6.813082763671875,-0.29184064269065857,-0.006872228812426329,-0.035735588520765305
1751223257903909400,6.831909423828125,-0.2441931962966919,-0.004428769461810589,-0.025961752980947495
1751223257922735600,6.850735595703125,-0.17944152653217316,-0.011759147047996521,-0.025961752980947495
1751223257941562000,6.86956201171875,-0.11224640160799026,-0.0007635809597559273,-0.013744457624852657
1751223257960388600,6.888388671875,-0.06337722390890121,0.006566796451807022,-0.0027488914784044027
1751223257979214800,6.90721484375,-0.03283398225903511,0.01511890348047018,-0.0015271619195118546
1751223257998041300,6.926041259765625,-0.02672533318400383,0.011453714221715927,0.0021380267571657896
1751223258016867600,6.94486767578125,-0.031612250953912735,0.006566796451807022,-0.0027488914784044027
1751223258035694000,6.963694091796875,-0.051159925758838654,0.009010255336761475,-0.0015271619195118546
1751223258054520600,6.9825205078125,-0.0951421856880188,0.007788525894284248,-0.007635809946805239
1751223258073346800,7.001346923828125,-0.14278964698314667,0.001679878099821508,-0.02107483521103859
1751223258092173300,7.02017333984375,-0.19165882468223572,-0.005650499369949102,-0.025961752980947495
1751223258110999600,7.03899951171875,-0.23075416684150696,-0.009315688163042068,-0.02718348242342472
1751223258129826000,7.057825927734375,-0.2503018379211426,-0.010537417605519295,-0.024740023538470268
1751223258148652300,7.07665234375,-0.25763222575187683,-0.011759147047996521,-0.029626941308379173
1751223258167478800,7.095478759765625,-0.2380845546722412,-0.017867794260382652,-0.03451386094093323
1751223258186305300,7.11430517578125,-0.21120649576187134,-0.008093958720564842,-0.0308486707508564
1751223258205131500,7.133131591796875,-0.18432845175266266,0.009010255336761475,-0.016187917441129684
1751223258223958000,7.1519580078125,-0.17577634751796722,0.013897174037992954,-0.012522728182375431
1751223258242784300,7.1707841796875,-0.1672242283821106,0.0102319847792387,-0.016187917441129684
1751223258261610800,7.18961083984375,-0.1464548259973526,0.006566796451807022,-0.016187917441129684
1751223258280437000,7.20843701171875,-0.12324196845293045,0.01511890348047018,-0.010079269297420979
1751223258299263500,7.227263427734375,-0.08659008145332336,0.013897174037992954,-0.007635809946805239
1751223258318089700,7.24608984375,-0.051159925758838654,0.017562363296747208,-0.0015271619195118546
1751223258336916200,7.264916259765625,-0.053603384643793106,0.017562363296747208,0.0021380267571657896
1751223258355742700,7.28374267578125,-0.0792597085237503,0.013897174037992954,-0.007635809946805239
1751223258374569000,7.30256884765625,-0.12446369975805283,0.00045814859913662076,-0.014966187067329884
1751223258393395500,7.3213955078125,-0.1562286615371704,-0.0154243353754282,-0.02107483521103859
1751223258412221700,7.3402216796875,-0.17455461621284485,-0.02153298258781433,-0.024740023538470268
1751223258431048200,7.359048095703125,-0.18677189946174622,-0.026419902220368385,-0.023518294095993042
1751223258449874400,7.37787451171875,-0.19898919761180878,-0.020311253145337105,-0.02107483521103859
1751223258468701000,7.396700927734375,-0.21120649576187134,-0.0154243353754282,-0.02718348242342472
1751223258487527400,7.41552734375,-0.20143266022205353,0.001679878099821508,-0.025961752980947495
1751223258506353700,7.434353759765625,-0.1672242283821106,0.018784092739224434,-0.012522728182375431
1751223258525180200,7.45318017578125,-0.11591159552335739,0.024892739951610565,-0.008857538923621178
1751223258544006400,7.47200634765625,-0.08048143237829208,0.018784092739224434,-0.000305432389723137
1751223258562833000,7.4908330078125,-0.0487164668738842,0.01511890348047018,-0.0015271619195118546
1751223258581659100,7.5096591796875,-0.03405570983886719,0.013897174037992954,0.0009162971982732415
1751223258600485600,7.528485595703125,-0.03527744114398956,0.013897174037992954,-0.0027488914784044027
1751223258619311900,7.547311767578125,-0.03649916872382164,0.012675444595515728,-0.005192350596189499
1751223258638138400,7.566138427734375,-0.05971203371882439,0.011453714221715927,-0.0027488914784044027
1751223258656964900,7.58496484375,-0.1000291109085083,-0.0019853105768561363,-0.012522728182375431
1751223258675791000,7.603791015625,-0.16844595968723297,-0.0154243353754282,-0.022296564653515816
1751223258694617600,7.62261767578125,-0.2136499583721161,-0.022754713892936707,-0.02718348242342472
1751223258713443800,7.64144384765625,-0.23686282336711884,-0.01908952370285988,-0.029626941308379173
1751223258732270300,7.660270263671875,-0.24663665890693665,-0.012980876490473747,-0.029626941308379173
1751223258751096600,7.6790966796875,-0.21609342098236084,-0.0007635809597559273,-0.02718348242342472
1751223258769923000,7.697923095703125,-0.16600249707698822,0.0102319847792387,-0.01740964688360691
1751223258788749300,7.716749267578125,-0.1366809904575348,0.004123337101191282,-0.016187917441129684
1751223258807575800,7.735575927734375,-0.11224640160799026,-0.0019853105768561363,-0.016187917441129684
1751223258826402300,7.75440234375,-0.10369429737329483,0.0102319847792387,-0.006414080038666725
1751223258845228500,7.773228515625,-0.10613775253295898,0.011453714221715927,-0.005192350596189499
1751223258864055000,7.792054931640625,-0.11713331937789917,0.005345067009329796,-0.014966187067329884
1751223258882881300,7.81088134765625,-0.11468986421823502,0.001679878099821508,-0.014966187067329884
1751223258901707800,7.829707763671875,-0.1049160286784172,-0.0019853105768561363,-0.012522728182375431
1751223258920534000,7.848533935546875,-0.09636391699314117,-0.004428769461810589,-0.012522728182375431
1751223258939360500,7.867360595703125,-0.08659008145332336,-0.0032070400193333626,-0.007635809946805239
1751223258958186800,7.886186767578125,-0.08781181275844574,-0.0019853105768561363,-0.011300998739898205
1751223258977013200,7.90501318359375,-0.08170316368341446,-0.0032070400193333626,-0.010079269297420979
1751223258995839500,7.923839599609375,-0.08903354406356812,0.001679878099821508,-0.005192350596189499
1751223259014666000,7.942666015625,-0.0951421856880188,0.00045814859913662076,-0.008857538923621178
1751223259033492200,7.9614921875,-0.08903354406356812,0.001679878099821508,-0.011300998739898205
1751223259052318700,7.980318603515625,-0.08903354406356812,0.011453714221715927,-0.005192350596189499
1751223259071145200,7.999145263671875,-0.09636391699314117,0.009010255336761475,-0.007635809946805239
1751223259089971500,8.017971435546874,-0.13912445306777954,0.00045814859913662076,-0.014966187067329884
1751223259108798000,8.0367978515625,-0.18066325783729553,-0.005650499369949102,-0.02107483521103859
1751223259127624200,8.055624267578125,-0.17455461621284485,0.00045814859913662076,-0.02107483521103859
1751223259146450700,8.07445068359375,-0.14767655730247498,0.012675444595515728,-0.01740964688360691
1751223259165277000,8.09327685546875,-0.12812888622283936,0.0102319847792387,-0.012522728182375431
1751223259184103400,8.112103515625,-0.14034618437290192,0.007788525894284248,-0.013744457624852657
1751223259202929700,8.1309296875,-0.1672242283821106,-0.005650499369949102,-0.022296564653515816
1751223259221756200,8.149756103515625,-0.18066325783729553,-0.0032070400193333626,-0.022296564653515816
1751223259240582400,8.16858251953125,-0.1721111536026001,0.002901607658714056,-0.01740964688360691
1751223259259409000,8.187408935546875,-0.14034618437290192,0.004123337101191282,-0.019853105768561363
1751223259278235400,8.2062353515625,-0.07681624591350555,0.007788525894284248,-0.008857538923621178
1751223259297061600,8.2250615234375,-0.02306014485657215,0.005345067009329796,-0.0027488914784044027
1751223259315888000,8.24388818359375,-0.002290742937475443,-0.008093958720564842,-0.003970621153712273
1751223259334714400,8.26271435546875,-0.008399390615522861,-0.0007635809597559273,-0.005192350596189499
1751223259353540900,8.281540771484375,-0.0206166859716177,0.0102319847792387,-0.0027488914784044027
1751223259372367000,8.3003671875,-0.053603384643793106,0.03588830679655075,0.007024944759905338
1751223259391193600,8.319193603515625,-0.1256854236125946,0.05543597787618637,-0.000305432389723137
1751223259410019800,8.338019775390626,-0.1769980639219284,0.040775224566459656,-0.012522728182375431
1751223259428846300,8.356846435546874,-0.21120649576187134,0.040775224566459656,-0.012522728182375431
1751223259447672600,8.375672607421874,-0.25152358412742615,0.021227551624178886,-0.018631376326084137
1751223259466499000,8.3944990234375,-0.28328853845596313,0.002901607658714056,-0.032070402055978775
1751223259485325300,8.4133251953125,-0.300392746925354,-0.0007635809597559273,-0.03329212963581085
1751223259504151800,8.43215185546875,-0.3309359848499298,0.005345067009329796,-0.035735588520765305
1751223259522978000,8.45097802734375,-0.3223838806152344,-0.0007635809597559273,-0.03817904740571976
1751223259541804500,8.469804443359376,-0.2845102846622467,-0.0007635809597559273,-0.03329212963581085
1751223259560630800,8.488630859375,-0.24052800238132477,-0.0032070400193333626,-0.02718348242342472
1751223259579457300,8.507457275390625,-0.1928805559873581,-0.0019853105768561363,-0.025961752980947495
1751223259598283800,8.52628369140625,-0.17455461621284485,-0.0032070400193333626,-0.01740964688360691
1751223259617110000,8.545110107421875,-0.18066325783729553,-0.004428769461810589,-0.02107483521103859
1751223259635936500,8.5639365234375,-0.1977674663066864,-0.009315688163042068,-0.024740023538470268
1751223259654762800,8.5827626953125,-0.23197589814662933,-0.011759147047996521,-0.02718348242342472
1751223259673589200,8.60158935546875,-0.23441936075687408,-0.011759147047996521,-0.025961752980947495
1751223259692415500,8.62041552734375,-0.2087630331516266,-0.014202605932950974,-0.025961752980947495
1751223259711242000,8.639241943359375,-0.17821979522705078,-0.0032070400193333626,-0.018631376326084137
1751223259730068200,8.658068115234375,-0.18555018305778503,-0.0019853105768561363,-0.02107483521103859
1751223259748894700,8.676894775390625,-0.19532401859760284,-0.0019853105768561363,-0.028405211865901947
1751223259767721000,8.695720947265626,-0.18921536207199097,0.001679878099821508,-0.023518294095993042
1751223259786547500,8.71454736328125,-0.1415679156780243,0.00045814859913662076,-0.014966187067329884
1751223259805373700,8.733373779296874,-0.11468986421823502,-0.0032070400193333626,-0.007635809946805239
1751223259824200200,8.7522001953125,-0.11102467030286789,-0.009315688163042068,-0.01740964688360691
1751223259843026400,8.7710263671875,-0.11224640160799026,0.00045814859913662076,-0.012522728182375431
1751223259861853000,8.78985302734375,-0.1000291109085083,0.011453714221715927,-0.008857538923621178
1751223259880679200,8.80867919921875,-0.07803797721862793,0.011453714221715927,-0.005192350596189499
1751223259899505700,8.827505615234376,-0.0743727833032608,0.005345067009329796,-0.003970621153712273
1751223259918332000,8.846331787109374,-0.08414662629365921,0.005345067009329796,-0.005192350596189499
1751223259937158400,8.865158447265625,-0.10247256606817245,0.006566796451807022,-0.010079269297420979
1751223259955984600,8.883984619140625,-0.13545925915241241,0.01511890348047018,-0.012522728182375431
1751223259974811100,8.90281103515625,-0.1721111536026001,0.024892739951610565,-0.013744457624852657
1751223259993637600,8.9216376953125,-0.2124282270669937,0.017562363296747208,-0.019853105768561363
1751223260012463900,8.9404638671875,-0.2441931962966919,0.01511890348047018,-0.024740023538470268
1751223260031290000,8.9592900390625,-0.27229297161102295,0.009010255336761475,-0.028405211865901947
1751223260050116600,8.97811669921875,-0.28817546367645264,0.0102319847792387,-0.025961752980947495
1751223260068942800,8.99694287109375,-0.29672756791114807,0.005345067009329796,-0.03329212963581085
1751223260087769300,9.015769287109375,-0.30894485116004944,0.01511890348047018,-0.032070402055978775
1751223260106595800,9.034595947265625,-0.31261005997657776,0.017562363296747208,-0.03451386094093323
1751223260125422000,9.053422119140626,-0.310166597366333,0.02977965772151947,-0.0308486707508564
1751223260144248300,9.072248291015624,-0.300392746925354,0.031001387163996696,-0.02718348242342472
1751223260163074800,9.09107470703125,-0.27229297161102295,0.024892739951610565,-0.028405211865901947
1751223260181901300,9.1099013671875,-0.24785839021205902,0.024892739951610565,-0.02107483521103859
1751223260200727600,9.1287275390625,-0.2234237939119339,0.024892739951610565,-0.019853105768561363
1751223260219554000,9.147553955078125,-0.19898919761180878,0.017562363296747208,-0.019853105768561363
1751223260247793400,9.17579345703125,-0.2075413018465042,0.03955349326133728,-0.008857538923621178
1751223260266620000,9.194619873046875,-0.24785839021205902,0.031001387163996696,-0.018631376326084137
1751223260285446100,9.213446044921875,-0.2649625837802887,0.02367101050913334,-0.025961752980947495
1751223260304272600,9.232272705078126,-0.24663665890693665,0.011453714221715927,-0.024740023538470268
1751223260323099000,9.251098876953124,-0.2185368686914444,-0.004428769461810589,-0.024740023538470268
1751223260341925400,9.26992529296875,-0.1879936307668686,-0.014202605932950974,-0.024740023538470268
1751223260360751600,9.288751708984375,-0.16355904936790466,-0.009315688163042068,-0.022296564653515816
1751223260379578000,9.307578125,-0.17455461621284485,-0.008093958720564842,-0.022296564653515816
1751223260398404400,9.326404296875,-0.1977674663066864,-0.014202605932950974,-0.02718348242342472
1751223260417230800,9.34523095703125,-0.2075413018465042,-0.014202605932950974,-0.024740023538470268
1751223260436057000,9.36405712890625,-0.19898919761180878,-0.011759147047996521,-0.02107483521103859
1751223260454883600,9.382883544921874,-0.18921536207199097,-0.008093958720564842,-0.022296564653515816
1751223260473709800,9.401709716796875,-0.1977674663066864,-0.004428769461810589,-0.022296564653515816
1751223260492536300,9.420536376953125,-0.2075413018465042,0.007788525894284248,-0.025961752980947495
1751223260511362600,9.439362548828125,-0.20387612283229828,0.0102319847792387,-0.019853105768561363
1751223260530189000,9.45818896484375,-0.1977674663066864,0.012675444595515728,-0.018631376326084137
1751223260549015300,9.477015380859376,-0.20021092891693115,0.011453714221715927,-0.01740964688360691
1751223260567841800,9.495841796875,-0.21609342098236084,0.007788525894284248,-0.022296564653515816
1751223260586668000,9.51466796875,-0.24052800238132477,0.001679878099821508,-0.028405211865901947
1751223260605494500,9.53349462890625,-0.26129740476608276,0.00045814859913662076,-0.03329212963581085
1751223260624320800,9.55232080078125,-0.26740604639053345,-0.0019853105768561363,-0.0308486707508564
1751223260643147300,9.571147216796875,-0.2637408673763275,0.004123337101191282,-0.02718348242342472
1751223260661973500,9.589973388671876,-0.2283107042312622,0.007788525894284248,-0.02718348242342472
1751223260680800000,9.608800048828124,-0.1562286615371704,0.017562363296747208,-0.018631376326084137
1751223260699626200,9.627626220703124,-0.05971203371882439,0.03222311660647392,-0.0027488914784044027
1751223260718452700,9.64645263671875,-0.030390523374080658,0.03588830679655075,0.007024944759905338
1751223260737279000,9.665279052734375,-0.04993819445371628,0.02977965772151947,0.003359756199643016
1751223260756105500,9.68410546875,-0.10613775253295898,0.024892739951610565,-0.006414080038666725
1751223260774931700,9.702931640625,-0.1818849891424179,0.009010255336761475,-0.019853105768561363
1751223260793758200,9.72175830078125,-0.22953243553638458,-0.008093958720564842,-0.032070402055978775
1751223260812584400,9.74058447265625,-0.27107125520706177,0.005345067009329796,-0.024740023538470268
1751223260831411000,9.759410888671875,-0.3248273432254791,-0.0019853105768561363,-0.03451386094093323
1751223260850237200,9.7782373046875,-0.35903576016426086,0.006566796451807022,-0.04550942778587341
1751223260869063700,9.797063720703125,-0.351705402135849,0.01511890348047018,-0.03329212963581085
1751223260887890000,9.815889892578125,-0.31261005997657776,0.005345067009329796,-0.03817904740571976
1751223260906716400,9.83471630859375,-0.2649625837802887,-0.0007635809597559273,-0.0308486707508564
1751223260925542700,9.853542724609374,-0.1977674663066864,0.00045814859913662076,-0.024740023538470268
1751223260944369200,9.872369140625,-0.1464548259973526,0.002901607658714056,-0.01740964688360691
1751223260963195400,9.8911953125,-0.14034618437290192,-0.0007635809597559273,-0.014966187067329884
1751223260982022000,9.91002197265625,-0.15745039284229279,-0.0019853105768561363,-0.018631376326084137
1751223261000848100,9.92884814453125,-0.18921536207199097,0.004123337101191282,-0.023518294095993042
1751223261019674600,9.947674560546876,-0.22708898782730103,0.0102319847792387,-0.02107483521103859
1751223261038500900,9.9665009765625,-0.258853942155838,0.004123337101191282,-0.028405211865901947
1751223261057327400,9.985327392578125,-0.2698495090007782,-0.004428769461810589,-0.0308486707508564
1751223261076153600,10.004153564453125,-0.2637408673763275,0.001679878099821508,-0.028405211865901947
1751223261094980000,10.02297998046875,-0.24663665890693665,0.0102319847792387,-0.022296564653515816
1751223261113806300,10.041806396484375,-0.21975859999656677,0.028557928279042244,-0.016187917441129684
1751223261132632800,10.0606328125,-0.19898919761180878,0.013897174037992954,-0.018631376326084137
1751223261151459000,10.079458984375,-0.15256348252296448,-0.0007635809597559273,-0.023518294095993042
1751223261170285600,10.09828564453125,-0.11224640160799026,0.00045814859913662076,-0.014966187067329884
1751223261189111800,10.11711181640625,-0.11468986421823502,0.001679878099821508,-0.007635809946805239
1751223261207938300,10.135938232421875,-0.16478078067302704,0.002901607658714056,-0.018631376326084137
1751223261226764500,10.1547646484375,-0.2283107042312622,0.005345067009329796,-0.025961752980947495
1751223261245590800,10.1735908203125,-0.2600756883621216,0.009010255336761475,-0.029626941308379173
1751223261264417300,10.192417236328126,-0.26740604639053345,0.012675444595515728,-0.024740023538470268
1751223261283243800,10.211243896484374,-0.2759581506252289,0.013897174037992954,-0.025961752980947495
1751223261302070000,10.230070068359375,-0.30772313475608826,0.004123337101191282,-0.028405211865901947
1751223261320896300,10.248896240234375,-0.33948808908462524,-0.0019853105768561363,-0.04062250629067421
1751223261339722800,10.26772265625,-0.3627009689807892,-0.006872228812426329,-0.04062250629067421
1751223261358549000,10.286549072265625,-0.3578140437602997,-0.012980876490473747,-0.04306596517562866
1751223261377375500,10.30537548828125,-0.32849252223968506,-0.004428769461810589,-0.035735588520765305
1751223261396201700,10.32420166015625,-0.310166597366333,-0.0019853105768561363,-0.029626941308379173
1751223261415028200,10.3430283203125,-0.31383177638053894,-0.006872228812426329,-0.03940077871084213
1751223261433854500,10.3618544921875,-0.29672756791114807,-0.004428769461810589,-0.04062250629067421
1751223261452681000,10.380680908203125,-0.25641047954559326,0.001679878099821508,-0.029626941308379173
1751223261471507200,10.399507080078125,-0.20509785413742065,0.02000582218170166,-0.014966187067329884
1751223261490333700,10.418333740234376,-0.1769980639219284,0.012675444595515728,-0.016187917441129684
1751223261509160000,10.437159912109376,-0.1818849891424179,0.013897174037992954,-0.01740964688360691
1751223261527986400,10.455986328125,-0.18677189946174622,0.009010255336761475,-0.022296564653515816
1751223261546812700,10.474812744140625,-0.17333288490772247,0.006566796451807022,-0.023518294095993042
1751223261565639200,10.49363916015625,-0.1366809904575348,0.0102319847792387,-0.013744457624852657
1751223261584465400,10.51246533203125,-0.1000291109085083,0.01511890348047018,-0.005192350596189499
1751223261603292000,10.5312919921875,-0.08659008145332336,0.011453714221715927,-0.008857538923621178
1751223261622118100,10.5501181640625,-0.08903354406356812,0.02000582218170166,-0.007635809946805239
1751223261640944400,10.5689443359375,-0.09269873052835464,0.02000582218170166,-0.005192350596189499
1751223261659771000,10.58777099609375,-0.06826414167881012,0.028557928279042244,-0.005192350596189499
1751223261678597000,10.60659716796875,-0.05849030241370201,0.03711003437638283,0.010690134018659592
1751223261697423600,10.625423583984375,-0.08536835014820099,0.02367101050913334,-0.005192350596189499
1751223261716249900,10.644249755859375,-0.14889828860759735,0.007788525894284248,-0.018631376326084137
1751223261735076400,10.663076416015626,-0.20509785413742065,0.012675444595515728,-0.01740964688360691
1751223261753902600,10.681902587890624,-0.24052800238132477,0.007788525894284248,-0.028405211865901947
1751223261772729000,10.70072900390625,-0.24052800238132477,0.005345067009329796,-0.0308486707508564
1751223261791555300,10.719555419921875,-0.2234237939119339,-0.0007635809597559273,-0.025961752980947495
1751223261810381800,10.7383818359375,-0.2026543915271759,-0.005650499369949102,-0.025961752980947495
1751223261829208000,10.7572080078125,-0.2087630331516266,-0.012980876490473747,-0.02718348242342472
1751223261848034600,10.77603466796875,-0.23075416684150696,-0.014202605932950974,-0.028405211865901947
1751223261866860800,10.79486083984375,-0.24174973368644714,-0.006872228812426329,-0.028405211865901947
1751223261885687300,10.813687255859374,-0.2380845546722412,-0.004428769461810589,-0.028405211865901947
1751223261904513500,10.832513427734375,-0.24297146499156952,-0.005650499369949102,-0.02718348242342472
1751223261923339800,10.85133984375,-0.2600756883621216,-0.011759147047996521,-0.03451386094093323
1751223261942166300,10.870166259765625,-0.27840161323547363,-0.008093958720564842,-0.03451386094093323
1751223261960992500,10.888992431640625,-0.28695371747016907,0.006566796451807022,-0.029626941308379173
1751223261979819000,10.907819091796876,-0.2698495090007782,0.018784092739224434,-0.025961752980947495
1751223261998645200,10.926645263671874,-0.25641047954559326,0.01511890348047018,-0.02107483521103859
1751223262017471700,10.9454716796875,-0.2649625837802887,0.005345067009329796,-0.029626941308379173
1751223262036298000,10.964298095703125,-0.2637408673763275,0.007788525894284248,-0.02718348242342472
1751223262055124500,10.98312451171875,-0.24785839021205902,0.007788525894284248,-0.028405211865901947
1751223262073950700,11.00195068359375,-0.2490801066160202,0.011453714221715927,-0.025961752980947495
1751223262092777200,11.020777099609376,-0.25152358412742615,0.013897174037992954,-0.024740023538470268
1751223262111603500,11.039603515625,-0.2380845546722412,0.02000582218170166,-0.028405211865901947
1751223262130430000,11.058429931640624,-0.21731515228748322,0.034666575491428375,-0.013744457624852657
1751223262149256200,11.077256103515625,-0.2393062710762024,0.017562363296747208,-0.016187917441129684
1751223262168082400,11.09608251953125,-0.2808450758457184,-0.009315688163042068,-0.03940077871084213
1751223262186909000,11.114908935546875,-0.30894485116004944,-0.008093958720564842,-0.03329212963581085
1751223262205735200,11.133735107421876,-0.29794928431510925,-0.0007635809597559273,-0.03451386094093323
1751223262224561700,11.152561767578124,-0.28328853845596313,0.00045814859913662076,-0.03451386094093323
1751223262243388000,11.171387939453124,-0.2759581506252289,0.005345067009329796,-0.02718348242342472
1751223262262214400,11.19021435546875,-0.2637408673763275,0.007788525894284248,-0.0308486707508564
1751223262281040600,11.20904052734375,-0.2331976294517517,0.016340631991624832,-0.024740023538470268
1751223262299867100,11.2278671875,-0.18432845175266266,0.028557928279042244,-0.01740964688360691
1751223262318693400,11.246693359375,-0.1464548259973526,0.03222311660647392,-0.013744457624852657
1751223262337519900,11.265519775390626,-0.11713331937789917,0.04932733252644539,0.0009162971982732415
1751223262356346000,11.28434619140625,-0.11957678198814392,0.040775224566459656,-0.003970621153712273
1751223262375172600,11.303172607421875,-0.1366809904575348,0.03222311660647392,-0.014966187067329884
1751223262393998800,11.321998779296875,-0.13179408013820648,0.0102319847792387,-0.011300998739898205
1751223262412825000,11.3408251953125,-0.10613775253295898,-0.010537417605519295,-0.018631376326084137
1751223262431651600,11.359651611328125,-0.09880737960338593,-0.009315688163042068,-0.005192350596189499
1751223262450477800,11.378477783203126,-0.12324196845293045,-0.0154243353754282,-0.012522728182375431
1751223262469304300,11.39730419921875,-0.16478078067302704,-0.009315688163042068,-0.024740023538470268
1751223262488130600,11.416130615234374,-0.17821979522705078,0.004123337101191282,-0.019853105768561363
1751223262506957000,11.43495703125,-0.18066325783729553,0.009010255336761475,-0.01740964688360691
1751223262525783300,11.453783203125,-0.1769980639219284,0.009010255336761475,-0.02107483521103859
1751223262544609800,11.47260986328125,-0.17333288490772247,0.017562363296747208,-0.008857538923621178
1751223262563436000,11.49143603515625,-0.16966769099235535,0.024892739951610565,-0.01740964688360691
1751223262582262500,11.510262451171876,-0.16966769099235535,0.040775224566459656,-0.011300998739898205
1751223262601088800,11.5290888671875,-0.1721111536026001,0.0383317656815052,-0.006414080038666725
1751223262619915300,11.547915283203125,-0.1513417512178421,0.02611446939408779,-0.012522728182375431
1751223262638741500,11.566741455078125,-0.12202023714780807,0.009010255336761475,-0.013744457624852657
1751223262657567700,11.585567626953125,-0.10735948383808136,-0.0154243353754282,-0.019853105768561363
1751223262676394200,11.604394287109375,-0.10125083476305008,-0.012980876490473747,-0.018631376326084137
1751223262695220500,11.623220458984376,-0.12446369975805283,-0.0019853105768561363,-0.006414080038666725
1751223262714047000,11.642046875,-0.15012001991271973,-0.0019853105768561363,-0.022296564653515816
1751223262732873200,11.660873291015625,-0.19410228729248047,0.002901607658714056,-0.018631376326084137
1751223262751699700,11.67969970703125,-0.2441931962966919,0.00045814859913662076,-0.028405211865901947
1751223262770526000,11.69852587890625,-0.25274530053138733,-0.010537417605519295,-0.03451386094093323
1751223262789352400,11.7173525390625,-0.24052800238132477,-0.006872228812426329,-0.022296564653515816
1751223262808178700,11.7361787109375,-0.21975859999656677,-0.0154243353754282,-0.032070402055978775
1751223262827005200,11.755005126953124,-0.17944152653217316,-0.023976443335413933,-0.0308486707508564
1751223262845831400,11.77383154296875,-0.1415679156780243,-0.011759147047996521,-0.019853105768561363
1751223262864657700,11.79265771484375,-0.09392046183347702,0.001679878099821508,-0.010079269297420979
1751223262883484200,11.811484130859375,-0.06826414167881012,0.01511890348047018,-0.005192350596189499
1751223262902310400,11.830310302734375,-0.05482511222362518,0.02367101050913334,-0.0027488914784044027
1751223262921137000,11.849136962890626,-0.047494735568761826,0.031001387163996696,-0.000305432389723137
1751223262939963100,11.867963134765626,-0.03649916872382164,0.021227551624178886,-0.000305432389723137
1751223262958789600,11.88678955078125,-0.027947064489126205,0.001679878099821508,0.004581485874950886
1751223262977616000,11.905615966796875,-0.005955931730568409,-0.009315688163042068,0.010690134018659592
1751223262996442400,11.9244423828125,0.007483093533664942,-0.049632761627435684,0.008246674202382565
1751223263015268600,11.9432685546875,0.0062613640911877155,-0.010537417605519295,0.01435532234609127
1751223263034095000,11.96209521484375,0.052687086164951324,0.028557928279042244,-0.006414080038666725
1751223263052921300,11.98092138671875,0.01847865991294384,-0.16447533667087555,-0.05894844979047775
1751223263071747800,11.999747802734374,0.0062613640911877155,0.02000582218170166,0.010690134018659592
1751223263090574000,12.018573974609374,-0.002290742937475443,0.06643154472112656,0.029016077518463135
1751223263109400300,12.037400390625,0.005039634648710489,-0.05329795181751251,-0.018631376326084137
1751223263128226800,12.056226806640625,0.0038179049734026194,-0.008093958720564842,-0.013744457624852657
1751223263147053000,12.075052978515625,-0.0010690133785828948,0.024892739951610565,0.021685699000954628
1751223263165879600,12.093879638671876,0.0025961752980947495,-0.010537417605519295,-0.008857538923621178
1751223263184705800,12.112705810546874,0.0025961752980947495,-0.016646064817905426,-0.006414080038666725
1751223263203532300,12.1315322265625,0.0001527161948615685,0.013897174037992954,0.008246674202382565
1751223263222358500,12.150358642578125,0.0013744457392022014,-0.0007635809597559273,-0.0027488914784044027
1751223263241185000,12.16918505859375,0.0013744457392022014,-0.009315688163042068,-0.003970621153712273
1751223263260011300,12.18801123046875,0.0001527161948615685,0.006566796451807022,0.0021380267571657896
1751223263278837500,12.20683740234375,0.0013744457392022014,-0.0007635809597559273,0.0009162971982732415
1751223263297664000,12.2256640625,0.0013744457392022014,-0.005650499369949102,-0.0027488914784044027
1751223263316490200,12.244490234375,0.0013744457392022014,0.001679878099821508,0.0009162971982732415
1751223263335316700,12.263316650390625,0.0013744457392022014,0.00045814859913662076,-0.000305432389723137
1751223263354143000,12.28214306640625,0.0013744457392022014,-0.0019853105768561363,-0.0015271619195118546
1751223263372969500,12.300969482421875,0.0013744457392022014,0.001679878099821508,0.0009162971982732415
1751223263391795700,12.319795654296875,0.0013744457392022014,0.00045814859913662076,-0.000305432389723137
1751223263410622200,12.338622314453126,0.0013744457392022014,-0.0032070400193333626,-0.0015271619195118546
1751223263429448400,12.357448486328124,0.0013744457392022014,-0.0007635809597559273,-0.000305432389723137
1751223263448274700,12.376274658203124,0.0013744457392022014,-0.0007635809597559273,-0.000305432389723137
1751223263467101200,12.39510107421875,0.0013744457392022014,-0.0019853105768561363,-0.0015271619195118546
1751223263485927400,12.413927490234375,0.0001527161948615685,0.00045814859913662076,-0.000305432389723137
1751223263504754000,12.43275390625,0.0013744457392022014,-0.0007635809597559273,0.0009162971982732415
1751223263523580200,12.451580078125,0.0001527161948615685,-0.0007635809597559273,-0.000305432389723137
1751223263542406700,12.47040673828125,0.0013744457392022014,-0.0007635809597559273,-0.000305432389723137
1751223263561233000,12.48923291015625,0.0013744457392022014,-0.0007635809597559273,-0.000305432389723137
1751223263580059400,12.508059326171875,0.0013744457392022014,-0.0007635809597559273,-0.000305432389723137
1751223263598885600,12.5268857421875,0.0001527161948615685,-0.0007635809597559273,-0.000305432389723137
1751223263617711900,12.5457119140625,0.0013744457392022014,0.00045814859913662076,-0.000305432389723137
1751223263636538400,12.564538330078125,0.0001527161948615685,0.00045814859913662076,-0.000305432389723137
1751223263655364600,12.583364501953126,0.0013744457392022014,-0.0007635809597559273,-0.000305432389723137
1751223263674191000,12.602191162109374,0.0013744457392022014,-0.0007635809597559273,-0.000305432389723137
1751223263693017300,12.621017333984375,0.0013744457392022014,-0.0007635809597559273,-0.000305432389723137
1751223263711843800,12.63984375,0.0013744457392022014,-0.0007635809597559273,0.0009162971982732415
1751223263730670000,12.658670166015625,0.0001527161948615685,-0.0007635809597559273,-0.000305432389723137
1751223263749496600,12.67749658203125,0.0013744457392022014,0.00045814859913662076,-0.000305432389723137
1751223263768322800,12.69632275390625,0.0013744457392022014,-0.0007635809597559273,-0.000305432389723137
1751223263787149000,12.715149169921874,0.0013744457392022014,-0.0007635809597559273,-0.000305432389723137
1751223263805975600,12.7339755859375,0.0001527161948615685,0.002901607658714056,0.0009162971982732415
1751223263824801800,12.7528017578125,-0.004734201822429895,0.05299251899123192,0.022907428443431854
1751223263843628300,12.771628173828125,-0.007177661173045635,0.07864884287118912,0.038789913058280945
1751223263862454500,12.79045458984375,-0.009621120058000088,0.08109229803085327,0.03634645417332649
1751223263881281000,12.809281005859376,-0.007177661173045635,-0.022754713892936707,-0.029626941308379173
1751223263900107300,12.828107177734376,-0.0010690133785828948,-0.06673697382211685,-0.04550942778587341
1751223263918933800,12.846933837890624,-0.0206166859716177,-0.0007635809597559273,0.019242240116000175
1751223263937760000,12.865760009765625,-0.051159925758838654,0.005345067009329796,0.011911863461136818
1751223263956586200,12.884586181640625,-0.11835505068302155,0.03955349326133728,0.019242240116000175
1751223263975412700,12.903412841796875,-0.13790272176265717,0.0383317656815052,-0.014966187067329884
1751223263994239000,12.922239013671875,-0.14401137828826904,0.006566796451807022,-0.025961752980947495
1751223264013065500,12.9410654296875,-0.2747364342212677,-0.004428769461810589,-0.024740023538470268
1751223264031891700,12.9598916015625,-0.46776971220970154,-0.009315688163042068,-0.05283980444073677
1751223264050718200,12.97871826171875,-0.6449204683303833,-0.009315688163042068,-0.08582650125026703
1751223264069544400,12.99754443359375,-0.7292198538780212,-0.008093958720564842,-0.07849612087011337
1751223264088370700,13.01637060546875,-0.7170025110244751,-0.005650499369949102,-0.09071341902017593
1751223264107197200,13.035197265625,-0.6253728270530701,-0.009315688163042068,-0.07971785217523575
1751223264126023400,13.0540234375,-0.5031998753547668,-0.010537417605519295,-0.06505709886550903
1751223264144850000,13.072849853515624,-0.35048365592956543,-0.012980876490473747,-0.04917461425065994
1751223264163676200,13.09167626953125,-0.24174973368644714,-0.022754713892936707,-0.04306596517562866
1751223264182502700,13.110502685546875,-0.24785839021205902,-0.008093958720564842,-0.04550942778587341
1751223264201329000,13.129328857421875,-0.34193155169487,0.012675444595515728,-0.032070402055978775
1751223264220155400,13.1481552734375,-0.3993528485298157,0.005345067009329796,-0.04306596517562866
1751223264238981600,13.166981689453126,-0.4237874448299408,0.004123337101191282,-0.047952886670827866
1751223264257808000,13.185807861328126,-0.476321816444397,-0.005650499369949102,-0.06505709886550903
1751223264276634400,13.20463427734375,-0.607046902179718,-0.0019853105768561363,-0.07238747924566269
1751223264295460600,13.223460693359375,-0.7451022863388062,0.02367101050913334,-0.0772743970155716
1751223264314287000,13.242287109375,-0.781754195690155,0.024892739951610565,-0.08460476994514465
1751223264333113300,13.26111328125,-0.7389936447143555,0.016340631991624832,-0.08460476994514465
1751223264351939800,13.27993994140625,-0.6461422443389893,0.004123337101191282,-0.07238747924566269
1751223264370766000,13.29876611328125,-0.5337430834770203,0.012675444595515728,-0.06505709886550903
1751223264389592300,13.31759228515625,-0.45066550374031067,0.012675444595515728,-0.04917461425065994
1751223264408418800,13.336418701171874,-0.4030180275440216,0.01511890348047018,-0.04306596517562866
1751223264427245000,13.3552451171875,-0.3724747896194458,0.007788525894284248,-0.04062250629067421
1751223264446071600,13.374071533203125,-0.35903576016426086,0.005345067009329796,-0.041844237595796585
1751223264464897800,13.392897705078125,-0.3455967605113983,0.009010255336761475,-0.03817904740571976
1751223264483724300,13.411724365234376,-0.3199404180049896,0.012675444595515728,-0.03329212963581085
1751223264502550500,13.430550537109376,-0.27229297161102295,0.009010255336761475,-0.02718348242342472
1751223264521376800,13.449376708984374,-0.2185368686914444,0.011453714221715927,-0.024740023538470268
1751223264540203300,13.468203369140625,-0.17821979522705078,0.013897174037992954,-0.01740964688360691
1751223264559029500,13.487029541015625,-0.17088942229747772,0.02000582218170166,-0.011300998739898205
1751223264577856000,13.50585595703125,-0.18432845175266266,0.02000582218170166,-0.014966187067329884
1751223264596682200,13.52468212890625,-0.17944152653217316,0.024892739951610565,-0.013744457624852657
1751223264615508700,13.5435087890625,-0.17821979522705078,0.02977965772151947,-0.007635809946805239
1751223264634335000,13.5623349609375,-0.1879936307668686,0.024892739951610565,-0.006414080038666725
1751223264653161200,13.5811611328125,-0.19410228729248047,0.031001387163996696,-0.014966187067329884
1751223264671987700,13.59998779296875,-0.22098033130168915,0.03222311660647392,-0.007635809946805239
1751223264690814000,13.61881396484375,-0.21609342098236084,0.03222311660647392,-0.010079269297420979
1751223264709640400,13.637640380859375,-0.2136499583721161,0.0334448479115963,-0.010079269297420979
1751223264728466700,13.656466796875,-0.19898919761180878,0.027336198836565018,-0.007635809946805239
1751223264747293200,13.675293212890624,-0.1928805559873581,0.016340631991624832,-0.008857538923621178
1751223264766119400,13.694119384765624,-0.19898919761180878,0.016340631991624832,-0.012522728182375431
1751223264784945700,13.712945556640625,-0.21731515228748322,0.017562363296747208,-0.014966187067329884
1751223264803772200,13.731772216796875,-0.25641047954559326,0.017562363296747208,-0.016187917441129684
1751223264822598400,13.750598388671875,-0.29306238889694214,0.022449281066656113,-0.028405211865901947
1751223264841425000,13.7694248046875,-0.2942841053009033,0.012675444595515728,-0.0308486707508564
1751223264860251100,13.788251220703126,-0.27717989683151245,0.002901607658714056,-0.0308486707508564
1751223264879077600,13.80707763671875,-0.2808450758457184,-0.004428769461810589,-0.03451386094093323
1751223264897903900,13.82590380859375,-0.2991710305213928,-0.006872228812426329,-0.03451386094093323
1751223264916730000,13.844730224609375,-0.3248273432254791,0.004123337101191282,-0.04062250629067421
1751223264935556600,13.863556640625,-0.37980517745018005,0.004123337101191282,-0.03695731982588768
1751223264954382800,13.8823828125,-0.4543306827545166,0.011453714221715927,-0.04428769648075104
1751223264973209300,13.901209228515626,-0.49831295013427734,0.01511890348047018,-0.047952886670827866
1751223264992035600,13.92003564453125,-0.476321816444397,0.0102319847792387,-0.05406153202056885
1751223265010861800,13.93886181640625,-0.41523534059524536,-0.004428769461810589,-0.05406153202056885
1751223265029688300,13.957688232421875,-0.35903576016426086,-0.010537417605519295,-0.04550942778587341
1751223265048514600,13.9765146484375,-0.32849252223968506,-0.009315688163042068,-0.03817904740571976
1751223265067341000,13.995341064453125,-0.3321577310562134,-0.0007635809597559273,-0.035735588520765305
1751223265086167300,14.014167236328126,-0.36514443159103394,0.006566796451807022,-0.03817904740571976
1751223265104993500,14.03299365234375,-0.39080074429512024,0.009010255336761475,-0.04306596517562866
1751223265123820000,14.051820068359374,-0.39446592330932617,0.017562363296747208,-0.041844237595796585
1751223265142646300,14.070646240234375,-0.351705402135849,0.02611446939408779,-0.03329212963581085
1751223265161472800,14.08947265625,-0.28328853845596313,0.02977965772151947,-0.024740023538470268
1751223265180299000,14.108299072265625,-0.24541492760181427,0.02977965772151947,-0.016187917441129684
1751223265199125500,14.12712548828125,-0.24297146499156952,0.024892739951610565,-0.012522728182375431
1751223265217951700,14.14595166015625,-0.2380845546722412,0.02611446939408779,-0.018631376326084137
1751223265236778200,14.1647783203125,-0.19654574990272522,0.02000582218170166,-0.012522728182375431
1751223265255604500,14.1836044921875,-0.14889828860759735,0.018784092739224434,-0.012522728182375431
1751223265274430700,14.2024306640625,-0.11957678198814392,0.013897174037992954,-0.010079269297420979
1751223265293257200,14.22125732421875,-0.10858121514320374,0.006566796451807022,-0.006414080038666725
1751223265312083500,14.24008349609375,-0.09636391699314117,0.005345067009329796,-0.008857538923621178
1751223265330910000,14.258909912109376,-0.10858121514320374,0.007788525894284248,-0.010079269297420979
1751223265349736200,14.277736083984376,-0.14523309469223022,0.007788525894284248,-0.010079269297420979
1751223265368562400,14.2965625,-0.16478078067302704,0.006566796451807022,-0.01740964688360691
1751223265387389000,14.315388916015625,-0.16600249707698822,0.001679878099821508,-0.01740964688360691
1751223265406215200,14.334215087890625,-0.16844595968723297,-0.0007635809597559273,-0.022296564653515816
1751223265425041700,14.353041748046875,-0.2026543915271759,-0.010537417605519295,-0.025961752980947495
1751223265443868000,14.371867919921876,-0.25641047954559326,-0.010537417605519295,-0.035735588520765305
1751223265462694400,14.3906943359375,-0.29794928431510925,-0.0019853105768561363,-0.032070402055978775
1751223265481520600,14.409520751953124,-0.34193155169487,0.011453714221715927,-0.03329212963581085
1751223265500347000,14.428346923828125,-0.3969093859195709,0.02000582218170166,-0.032070402055978775
1751223265519173400,14.44717333984375,-0.43233954906463623,0.028557928279042244,-0.03940077871084213
1751223265537999600,14.46599951171875,-0.4445568323135376,0.03222311660647392,-0.03940077871084213
1751223265556826000,14.484826171875,-0.41523534059524536,0.02611446939408779,-0.04062250629067421
1751223265575652400,14.50365234375,-0.3370446562767029,0.012675444595515728,-0.035735588520765305
1751223265594478600,14.522478515625,-0.22953243553638458,0.004123337101191282,-0.025961752980947495
1751223265613305000,14.54130517578125,-0.13301581144332886,-0.0007635809597559273,-0.016187917441129684
1751223265632131300,14.56013134765625,-0.10980294644832611,0.001679878099821508,-0.012522728182375431
1751223265650957800,14.578957763671875,-0.15012001991271973,0.0102319847792387,-0.008857538923621178
1751223265669784000,14.5977841796875,-0.18555018305778503,0.01511890348047018,-0.014966187067329884
1751223265688610300,14.6166103515625,-0.18555018305778503,0.011453714221715927,-0.019853105768561363
1751223265707436800,14.635436767578126,-0.17088942229747772,0.013897174037992954,-0.018631376326084137
1751223265726263000,14.654262939453124,-0.15378521382808685,0.02367101050913334,-0.012522728182375431
1751223265745089500,14.673089599609375,-0.15867212414741516,0.02977965772151947,-0.005192350596189499
1751223265763915800,14.691915771484375,-0.22708898782730103,0.03588830679655075,-0.011300998739898205
1751223265782742000,14.710741943359375,-0.3529271185398102,0.040775224566459656,-0.018631376326084137
1751223265801568500,14.729568603515625,-0.45188722014427185,0.03711003437638283,-0.028405211865901947
1751223265820394800,14.748394775390626,-0.44577857851982117,0.024892739951610565,-0.03817904740571976
1751223265839221200,14.76722119140625,-0.3407098352909088,0.022449281066656113,-0.03451386094093323
1751223265858047500,14.786047607421875,-0.21120649576187134,0.021227551624178886,-0.016187917441129684
1751223265876874000,14.8048740234375,-0.11835505068302155,0.017562363296747208,-0.006414080038666725
1751223265895700200,14.8237001953125,-0.0792597085237503,0.007788525894284248,-0.000305432389723137
1751223265914526500,14.8425263671875,-0.047494735568761826,0.001679878099821508,-0.003970621153712273
1751223265933353000,14.86135302734375,-0.007177661173045635,0.00045814859913662076,-0.005192350596189499
1751223265952179200,14.88017919921875,-0.005955931730568409,0.005345067009329796,-0.000305432389723137
1751223265971005700,14.899005615234374,-0.01206457894295454,0.006566796451807022,0.0021380267571657896
1751223265989832000,14.91783203125,-0.025503603741526604,0.006566796451807022,0.0009162971982732415
1751223266008658200,14.936658203125,-0.0694858655333519,0.004123337101191282,-0.010079269297420979
1751223266027484700,14.955484619140625,-0.1611155867576599,0.002901607658714056,-0.018631376326084137
1751223266046311000,14.974310791015625,-0.27717989683151245,0.006566796451807022,-0.029626941308379173
1751223266065137400,14.993137451171876,-0.39080074429512024,0.017562363296747208,-0.032070402055978775
1751223266083963600,15.011963623046874,-0.46166107058525085,0.024892739951610565,-0.04062250629067421
1751223266102790000,15.030789794921875,-0.494647741317749,0.018784092739224434,-0.04428769648075104
1751223266121616400,15.049616455078125,-0.49220430850982666,0.009010255336761475,-0.04917461425065994
1751223266140442600,15.068442626953125,-0.44700029492378235,0.002901607658714056,-0.04917461425065994
1751223266159269000,15.08726904296875,-0.3822486400604248,-0.0032070400193333626,-0.04428769648075104
1751223266178095400,15.106095458984376,-0.34193155169487,0.00045814859913662076,-0.03817904740571976
1751223266196921600,15.124921630859374,-0.3199404180049896,0.002901607658714056,-0.03451386094093323
1751223266215748000,15.143748046875,-0.31383177638053894,0.007788525894284248,-0.029626941308379173
1751223266234574300,15.16257421875,-0.310166597366333,0.021227551624178886,-0.029626941308379173
1751223266253400800,15.18140087890625,-0.3248273432254791,0.021227551624178886,-0.025961752980947495
1751223266272227000,15.20022705078125,-0.3455967605113983,0.02367101050913334,-0.029626941308379173
1751223266291053300,15.21905322265625,-0.36880961060523987,0.024892739951610565,-0.02718348242342472
1751223266309879800,15.2378798828125,-0.3675878942012787,0.01511890348047018,-0.03329212963581085
1751223266328706000,15.2567060546875,-0.3199404180049896,0.007788525894284248,-0.032070402055978775
1751223266347532500,15.275532470703125,-0.2380845546722412,-0.006872228812426329,-0.02718348242342472
1751223266366358800,15.29435888671875,-0.18066325783729553,-0.005650499369949102,-0.023518294095993042
1751223266385185000,15.31318505859375,-0.14523309469223022,-0.0019853105768561363,-0.014966187067329884
1751223266404011500,15.332011474609375,-0.11591159552335739,-0.0007635809597559273,-0.010079269297420979
1751223266422837800,15.350837646484376,-0.0743727833032608,-0.0007635809597559273,-0.007635809946805239
1751223266441664000,15.3696640625,-0.047494735568761826,-0.0019853105768561363,-0.008857538923621178
1751223266460490500,15.388490478515624,-0.047494735568761826,-0.005650499369949102,-0.007635809946805239
1751223266479316700,15.407316650390625,-0.06704241037368774,-0.0007635809597559273,-0.007635809946805239
1751223266498143200,15.426143310546875,-0.09880737960338593,0.006566796451807022,-0.007635809946805239
1751223266516969500,15.444969482421875,-0.12690715491771698,0.013897174037992954,-0.005192350596189499
1751223266535795700,15.463795654296876,-0.13790272176265717,0.013897174037992954,-0.008857538923621178
1751223266554622200,15.482622314453126,-0.13545925915241241,0.005345067009329796,-0.013744457624852657
1751223266573448400,15.501448486328124,-0.12446369975805283,0.00045814859913662076,-0.014966187067329884
1751223266592275000,15.52027490234375,-0.12324196845293045,-0.0032070400193333626,-0.011300998739898205
1751223266611101200,15.53910107421875,-0.1415679156780243,0.001679878099821508,-0.010079269297420979
1751223266629927700,15.557927734375,-0.14034618437290192,0.005345067009329796,-0.012522728182375431
1751223266648754000,15.57675390625,-0.11224640160799026,0.009010255336761475,-0.014966187067329884
1751223266667580200,15.595580078125,-0.09147699922323227,0.013897174037992954,-0.012522728182375431
1751223266686406700,15.61440673828125,-0.09269873052835464,0.022449281066656113,-0.005192350596189499
1751223266705233000,15.63323291015625,-0.13912445306777954,0.0334448479115963,-0.0027488914784044027
1751223266724059400,15.652059326171875,-0.20387612283229828,0.03222311660647392,-0.007635809946805239
1751223266742885600,15.6708857421875,-0.25763222575187683,0.02611446939408779,-0.019853105768561363
1751223266761711900,15.6897119140625,-0.2893971800804138,0.022449281066656113,-0.019853105768561363
1751223266780538400,15.708538330078126,-0.3113883137702942,0.024892739951610565,-0.022296564653515816
1751223266799364600,15.727364501953126,-0.3260490894317627,0.02000582218170166,-0.023518294095993042
1751223266818190800,15.74619091796875,-0.3272708058357239,0.012675444595515728,-0.029626941308379173
1751223266837017300,15.765017333984375,-0.29794928431510925,0.009010255336761475,-0.028405211865901947
1751223266855843600,15.783843505859375,-0.2490801066160202,0.009010255336761475,-0.023518294095993042
1751223266874670000,15.802670166015625,-0.1928805559873581,0.005345067009329796,-0.01740964688360691
1751223266893496300,15.821496337890625,-0.15867212414741516,0.004123337101191282,-0.010079269297420979
1751223266912322600,15.840322509765626,-0.12202023714780807,0.00045814859913662076,-0.013744457624852657
1751223266931149000,15.859149169921874,-0.09880737960338593,-0.005650499369949102,-0.014966187067329884
1751223266949975300,15.877975341796875,-0.08781181275844574,-0.0019853105768561363,-0.013744457624852657
1751223266968801800,15.8968017578125,-0.08659008145332336,0.002901607658714056,-0.006414080038666725
1751223266987628000,15.9156279296875,-0.09269873052835464,0.005345067009329796,-0.006414080038666725
1751223267006454300,15.934454345703125,-0.11835505068302155,0.006566796451807022,-0.010079269297420979
1751223267025280800,15.95328076171875,-0.14889828860759735,0.006566796451807022,-0.014966187067329884
1751223267044107000,15.97210693359375,-0.17577634751796722,0.001679878099821508,-0.01740964688360691
1751223267062933500,15.99093359375,-0.19532401859760284,-0.0019853105768561363,-0.019853105768561363
1751223267081759700,16.009759765625,-0.2136499583721161,0.001679878099821508,-0.018631376326084137
1751223267100586000,16.0285859375,-0.23564109206199646,0.007788525894284248,-0.01740964688360691
1751223267119412500,16.04741259765625,-0.2539670467376709,0.0102319847792387,-0.019853105768561363
1751223267138238700,16.06623876953125,-0.25763222575187683,0.006566796451807022,-0.022296564653515816
1751223267157065000,16.08506494140625,-0.2441931962966919,0.00045814859913662076,-0.025961752980947495
1751223267175891500,16.103891357421876,-0.22220206260681152,-0.0019853105768561363,-0.024740023538470268
1751223267194717700,16.1227177734375,-0.21609342098236084,0.0102319847792387,-0.019853105768561363
1751223267213544200,16.141544189453125,-0.22953243553638458,0.022449281066656113,-0.012522728182375431
1751223267232370400,16.160370361328123,-0.22708898782730103,0.02611446939408779,-0.012522728182375431
1751223267251196700,16.17919677734375,-0.20143266022205353,0.021227551624178886,-0.014966187067329884
1751223267270023200,16.198023193359376,-0.15989385545253754,0.016340631991624832,-0.013744457624852657
1751223267288849400,16.216849365234374,-0.12935061752796173,0.017562363296747208,-0.010079269297420979
1751223267307676000,16.235676025390624,-0.1366809904575348,0.021227551624178886,-0.006414080038666725
1751223267326502100,16.254502197265627,-0.16600249707698822,0.016340631991624832,-0.010079269297420979
1751223267345328400,16.273328369140625,-0.20387612283229828,0.013897174037992954,-0.01740964688360691
1751223267364155000,16.29215478515625,-0.20509785413742065,0.012675444595515728,-0.022296564653515816
1751223267382981000,16.310981201171874,-0.19410228729248047,0.012675444595515728,-0.01740964688360691
1751223267401807400,16.329807373046876,-0.20021092891693115,0.01511890348047018,-0.016187917441129684
1751223267420633900,16.3486337890625,-0.24541492760181427,0.016340631991624832,-0.016187917441129684
1751223267439460000,16.367460205078125,-0.3040579557418823,0.017562363296747208,-0.022296564653515816
1751223267458286600,16.38628662109375,-0.34193155169487,0.009010255336761475,-0.03451386094093323
1751223267477112800,16.40511279296875,-0.36025750637054443,-0.0019853105768561363,-0.04062250629067421
1751223267495939000,16.42393896484375,-0.35414886474609375,-0.005650499369949102,-0.041844237595796585
1751223267514765600,16.442765625,-0.34315329790115356,0.002901607658714056,-0.035735588520765305
1751223267533591800,16.461591796875,-0.33337944746017456,-0.006872228812426329,-0.03329212963581085
1751223267552418300,16.480418212890626,-0.310166597366333,-0.01908952370285988,-0.03940077871084213
1751223267571244500,16.49924462890625,-0.27840161323547363,-0.026419902220368385,-0.04062250629067421
1751223267590070800,16.51807080078125,-0.2380845546722412,-0.022754713892936707,-0.035735588520765305
1751223267608897300,16.536897216796874,-0.21120649576187134,-0.008093958720564842,-0.02107483521103859
1751223267627723500,16.5557236328125,-0.18921536207199097,0.005345067009329796,-0.012522728182375431
1751223267646549800,16.5745498046875,-0.15989385545253754,0.017562363296747208,-0.010079269297420979
1751223267665376300,16.593376220703124,-0.12935061752796173,0.02367101050913334,-0.010079269297420979
1751223267684202500,16.612202392578126,-0.10735948383808136,0.022449281066656113,-0.008857538923621178
1751223267712442000,16.640442138671876,-0.10125083476305008,0.018784092739224434,-0.007635809946805239
1751223267731268400,16.659268310546874,-0.13301581144332886,0.02367101050913334,-0.006414080038666725
1751223267750094800,16.6780947265625,-0.16478078067302704,0.02000582218170166,-0.011300998739898205
1751223267768921000,16.696921142578127,-0.2087630331516266,0.018784092739224434,-0.013744457624852657
1751223267787747300,16.715747314453125,-0.2796233594417572,0.02367101050913334,-0.018631376326084137
1751223267806573800,16.73457373046875,-0.3468184769153595,0.031001387163996696,-0.023518294095993042
1751223267825400000,16.753400146484374,-0.3883572816848755,0.04321868345141411,-0.024740023538470268
1751223267844226300,16.772226318359376,-0.41034841537475586,0.04932733252644539,-0.019853105768561363
1751223267863052800,16.791052734375,-0.4237874448299408,0.054214250296354294,-0.019853105768561363
1751223267881879000,16.809879150390625,-0.42745262384414673,0.044440411031246185,-0.025961752980947495
1751223267900705500,16.82870556640625,-0.42134398221969604,0.028557928279042244,-0.03451386094093323
1751223267919531800,16.84753173828125,-0.38469210267066956,0.02611446939408779,-0.032070402055978775
1751223267938358000,16.86635791015625,-0.3162752389907837,0.018784092739224434,-0.022296564653515816
1751223267957184500,16.8851845703125,-0.2441931962966919,0.017562363296747208,-0.014966187067329884
1751223267976010800,16.9040107421875,-0.19043709337711334,0.011453714221715927,-0.013744457624852657
1751223267994837000,16.9228369140625,-0.18677189946174622,0.01511890348047018,-0.014966187067329884
1751223268013663500,16.94166357421875,-0.19898919761180878,0.022449281066656113,-0.011300998739898205
1751223268032489700,16.96048974609375,-0.19898919761180878,0.01511890348047018,-0.013744457624852657
1751223268051316200,16.979316162109374,-0.18432845175266266,0.001679878099821508,-0.018631376326084137
1751223268070142500,16.998142578125,-0.17333288490772247,0.00045814859913662076,-0.022296564653515816
1751223268088968700,17.01696875,-0.15867212414741516,-0.0007635809597559273,-0.02107483521103859
1751223268107795200,17.035795166015625,-0.1562286615371704,-0.006872228812426329,-0.022296564653515816
1751223268145447700,17.07344775390625,-0.1513417512178421,0.00045814859913662076,-0.01740964688360691
1751223268164274200,17.092274169921875,-0.15989385545253754,0.005345067009329796,-0.014966187067329884
1751223268183100400,17.111100341796874,-0.16844595968723297,0.001679878099821508,-0.016187917441129684
1751223268201926700,17.1299267578125,-0.1818849891424179,-0.0007635809597559273,-0.018631376326084137
1751223268220753200,17.148753173828126,-0.19898919761180878,-0.005650499369949102,-0.024740023538470268
1751223268239579400,17.167579345703125,-0.21975859999656677,-0.005650499369949102,-0.025961752980947495
1751223268258406000,17.186406005859375,-0.24541492760181427,-0.0007635809597559273,-0.025961752980947495
1751223268277232000,17.205232177734374,-0.2637408673763275,0.007788525894284248,-0.023518294095993042
1751223268296058400,17.224058349609376,-0.26251915097236633,0.004123337101191282,-0.022296564653515816
1751223268314884900,17.242884765625,-0.2759581506252289,0.004123337101191282,-0.025961752980947495
1751223268333711000,17.261711181640624,-0.29306238889694214,0.007788525894284248,-0.023518294095993042
1751223268352537600,17.28053759765625,-0.3065013885498047,0.011453714221715927,-0.023518294095993042
1751223268371363800,17.29936376953125,-0.3040579557418823,0.007788525894284248,-0.028405211865901947
1751223268390190000,17.318190185546875,-0.2796233594417572,0.007788525894284248,-0.02718348242342472
1751223268409016600,17.3370166015625,-0.23441936075687408,-0.0032070400193333626,-0.025961752980947495
1751223268427842800,17.3558427734375,-0.18677189946174622,-0.011759147047996521,-0.023518294095993042
1751223268446669000,17.3746689453125,-0.15745039284229279,-0.016646064817905426,-0.02107483521103859
1751223268465495600,17.39349560546875,-0.15012001991271973,-0.0154243353754282,-0.019853105768561363
1751223268484321800,17.41232177734375,-0.14034618437290192,-0.022754713892936707,-0.024740023538470268
1751223268503148300,17.431148193359373,-0.1366809904575348,-0.030085090547800064,-0.02718348242342472
1751223268521974500,17.449974609375,-0.13423752784729004,-0.03252854943275452,-0.025961752980947495
1751223268540800800,17.46880078125,-0.14034618437290192,-0.03741546720266342,-0.029626941308379173
1751223268559627300,17.487627197265624,-0.17333288490772247,-0.03130681812763214,-0.029626941308379173
1751223268578453500,17.50645361328125,-0.22098033130168915,-0.016646064817905426,-0.025961752980947495
1751223268597279700,17.52527978515625,-0.26251915097236633,-0.004428769461810589,-0.02718348242342472
1751223268616106200,17.544106201171875,-0.310166597366333,0.011453714221715927,-0.025961752980947495
1751223268634932500,17.562932373046873,-0.3529271185398102,0.017562363296747208,-0.02718348242342472
1751223268653759000,17.581759033203124,-0.3675878942012787,0.017562363296747208,-0.0308486707508564
1751223268672585200,17.600585205078126,-0.3455967605113983,0.007788525894284248,-0.035735588520765305
1751223268691411500,17.619411376953124,-0.30894485116004944,0.001679878099821508,-0.0308486707508564
1751223268710238000,17.638238037109375,-0.2551887631416321,-0.0007635809597559273,-0.02718348242342472
1751223268729064200,17.657064208984377,-0.2124282270669937,-0.0007635809597559273,-0.019853105768561363
1751223268747890400,17.675890380859375,-0.18310672044754028,-0.005650499369949102,-0.018631376326084137
1751223268766717000,17.694717041015625,-0.15989385545253754,-0.010537417605519295,-0.019853105768561363
1751223268785543200,17.713543212890624,-0.14523309469223022,-0.008093958720564842,-0.022296564653515816
1751223268804369700,17.73236962890625,-0.13545925915241241,-0.0032070400193333626,-0.018631376326084137
1751223268823196000,17.75119580078125,-0.13790272176265717,0.004123337101191282,-0.014966187067329884
1751223268842022100,17.770022216796875,-0.1513417512178421,0.017562363296747208,-0.006414080038666725
1751223268860848600,17.7888486328125,-0.1464548259973526,0.021227551624178886,-0.005192350596189499
1751223268879675000,17.8076748046875,-0.15867212414741516,0.024892739951610565,-0.0027488914784044027
1751223268898501000,17.826501220703125,-0.1818849891424179,0.027336198836565018,-0.008857538923621178
1751223268917327600,17.84532763671875,-0.2075413018465042,0.02367101050913334,-0.016187917441129684
1751223268936153900,17.86415380859375,-0.23197589814662933,0.028557928279042244,-0.013744457624852657
1751223268954980000,17.88297998046875,-0.22953243553638458,0.034666575491428375,-0.010079269297420979
1751223268973806600,17.901806640625,-0.2393062710762024,0.0383317656815052,-0.008857538923621178
1751223268992632800,17.9206328125,-0.25641047954559326,0.04566214233636856,-0.008857538923621178
1751223269011459300,17.939459228515624,-0.2735147178173065,0.04199695214629173,-0.014966187067329884
1751223269030285600,17.95828564453125,-0.27229297161102295,0.03711003437638283,-0.01740964688360691
1751223269049111800,17.97711181640625,-0.258853942155838,0.03222311660647392,-0.016187917441129684
1751223269067938300,17.995938232421874,-0.25274530053138733,0.03222311660647392,-0.013744457624852657
1751223269086764500,18.0147646484375,-0.27717989683151245,0.0383317656815052,-0.012522728182375431
1751223269105590800,18.0335908203125,-0.3223838806152344,0.044440411031246185,-0.016187917441129684
1751223269124417300,18.052417236328125,-0.351705402135849,0.044440411031246185,-0.022296564653515816
1751223269143243500,18.071243408203124,-0.3565923273563385,0.03955349326133728,-0.023518294095993042
1751223269162070000,18.090070068359374,-0.35537058115005493,0.040775224566459656,-0.02107483521103859
1751223269180896300,18.108896240234376,-0.3529271185398102,0.046883873641490936,-0.01740964688360691
1751223269199722500,18.127722412109375,-0.33460119366645813,0.03955349326133728,-0.018631376326084137
1751223269218549000,18.146549072265625,-0.2955058515071869,0.02000582218170166,-0.024740023538470268
1751223269237375200,18.165375244140623,-0.268627792596817,0.005345067009329796,-0.02718348242342472
1751223269256201500,18.184201416015625,-0.268627792596817,-0.010537417605519295,-0.029626941308379173
1751223269275028000,18.203028076171876,-0.28328853845596313,-0.004428769461810589,-0.029626941308379173
1751223269293854200,18.221854248046874,-0.2991710305213928,-0.010537417605519295,-0.032070402055978775
1751223269312680700,18.2406806640625,-0.3113883137702942,-0.010537417605519295,-0.03329212963581085
1751223269331507000,18.2595068359375,-0.3272708058357239,-0.009315688163042068,-0.03329212963581085
1751223269350333200,18.278333251953125,-0.35048365592956543,-0.004428769461810589,-0.03451386094093323
1751223269369159700,18.29715966796875,-0.36514443159103394,0.005345067009329796,-0.029626941308379173
1751223269387986000,18.31598583984375,-0.37003132700920105,0.02000582218170166,-0.023518294095993042
1751223269406812200,18.334812255859376,-0.3480401933193207,0.022449281066656113,-0.023518294095993042
1751223269425638700,18.353638671875,-0.31871870160102844,0.005345067009329796,-0.025961752980947495
1751223269444465000,18.37246484375,-0.2942841053009033,-0.014202605932950974,-0.03329212963581085
1751223269463291100,18.391291015625,-0.28328853845596313,-0.028863361105322838,-0.04306596517562866
1751223269482117600,18.41011767578125,-0.27840161323547363,-0.030085090547800064,-0.04673115536570549
1751223269500944000,18.42894384765625,-0.2539670467376709,-0.02519817277789116,-0.03817904740571976
1751223269519770400,18.447770263671874,-0.20998476445674896,-0.01908952370285988,-0.02718348242342472
1751223269538596600,18.4665966796875,-0.18555018305778503,-0.009315688163042068,-0.019853105768561363
1751223269557422800,18.4854228515625,-0.1818849891424179,0.00045814859913662076,-0.012522728182375431
1751223269576249300,18.504249267578125,-0.18555018305778503,0.005345067009329796,-0.016187917441129684
1751223269595075600,18.52307568359375,-0.21120649576187134,0.006566796451807022,-0.018631376326084137
1751223269613901800,18.54190185546875,-0.24541492760181427,0.012675444595515728,-0.022296564653515816
1751223269632728300,18.560728271484376,-0.28328853845596313,0.011453714221715927,-0.023518294095993042
1751223269651554600,18.579554443359374,-0.30894485116004944,0.02611446939408779,-0.022296564653515816
1751223269670380800,18.598380859375,-0.3174969553947449,0.03222311660647392,-0.018631376326084137
1751223269689207300,18.617207275390626,-0.30283620953559875,0.028557928279042244,-0.018631376326084137
1751223269708033500,18.636033447265625,-0.2857320010662079,0.013897174037992954,-0.022296564653515816
1751223269726859800,18.65485986328125,-0.2796233594417572,0.002901607658714056,-0.024740023538470268
1751223269745686300,18.673686279296874,-0.27717989683151245,0.004123337101191282,-0.025961752980947495
1751223269764512500,18.692512451171876,-0.2735147178173065,0.007788525894284248,-0.023518294095993042
1751223269783339000,18.711339111328126,-0.25641047954559326,0.006566796451807022,-0.023518294095993042
1751223269802165200,18.730165283203124,-0.24174973368644714,0.004123337101191282,-0.024740023538470268
1751223269820991500,18.748991455078126,-0.24174973368644714,-0.011759147047996521,-0.029626941308379173
1751223269839818000,18.76781787109375,-0.258853942155838,-0.009315688163042068,-0.0308486707508564
1751223269858644200,18.786644287109375,-0.28206682205200195,-0.0007635809597559273,-0.025961752980947495
1751223269877470500,18.805470458984374,-0.300392746925354,0.00045814859913662076,-0.029626941308379173
1751223269896297000,18.824296875,-0.3150535225868225,-0.0007635809597559273,-0.032070402055978775
1751223269915123200,18.843123291015626,-0.32849252223968506,-0.0019853105768561363,-0.03451386094093323
1751223269933949700,18.86194970703125,-0.34315329790115356,0.001679878099821508,-0.035735588520765305
1751223269952776000,18.88077587890625,-0.34926193952560425,0.011453714221715927,-0.028405211865901947
1751223269971602200,18.899602294921873,-0.3358229100704193,0.011453714221715927,-0.025961752980947495
1751223269990428700,18.9184287109375,-0.33337944746017456,0.0102319847792387,-0.025961752980947495
1751223270009255000,18.9372548828125,-0.34193155169487,0.004123337101191282,-0.032070402055978775
1751223270028081200,18.9560810546875,-0.351705402135849,-0.0007635809597559273,-0.03695731982588768
1751223270046907600,18.97490771484375,-0.35048365592956543,0.001679878099821508,-0.03695731982588768
1751223270065734000,18.99373388671875,-0.3480401933193207,0.005345067009329796,-0.03451386094093323
1751223270084560400,19.012560302734375,-0.3272708058357239,0.009010255336761475,-0.02718348242342472
1751223270103386600,19.03138671875,-0.30894485116004944,0.011453714221715927,-0.024740023538470268
1751223270122212900,19.050212890625,-0.29306238889694214,0.005345067009329796,-0.024740023538470268
1751223270141039400,19.069039306640626,-0.28206682205200195,-0.0019853105768561363,-0.02718348242342472
1751223270159865600,19.087865478515624,-0.2796233594417572,-0.0007635809597559273,-0.028405211865901947
1751223270178691800,19.10669189453125,-0.2747364342212677,0.001679878099821508,-0.025961752980947495
1751223270197518300,19.125518310546877,-0.26129740476608276,0.006566796451807022,-0.022296564653515816
1751223270216344600,19.144344482421875,-0.2441931962966919,0.012675444595515728,-0.02107483521103859
1751223270235170800,19.1631708984375,-0.22586725652217865,0.002901607658714056,-0.019853105768561363
1751223270253997300,19.181997314453124,-0.24052800238132477,-0.005650499369949102,-0.029626941308379173
1751223270272823600,19.200823486328126,-0.26740604639053345,-0.0007635809597559273,-0.028405211865901947
1751223270291649800,19.21964990234375,-0.28328853845596313,0.007788525894284248,-0.028405211865901947
1751223270310476300,19.238476318359375,-0.2845102846622467,0.018784092739224434,-0.022296564653515816
1751223270329302500,19.257302490234373,-0.2796233594417572,0.02367101050913334,-0.01740964688360691
1751223270348129000,19.27612890625,-0.2747364342212677,0.017562363296747208,-0.02107483521103859
1751223270366955300,19.294955322265626,-0.2698495090007782,0.01511890348047018,-0.022296564653515816
1751223270385781500,19.313781494140624,-0.26129740476608276,0.007788525894284248,-0.024740023538470268
1751223270404608000,19.33260791015625,-0.24541492760181427,-0.0019853105768561363,-0.02718348242342472
1751223270423434200,19.351434326171876,-0.22220206260681152,-0.004428769461810589,-0.024740023538470268
1751223270442260500,19.370260498046875,-0.19898919761180878,-0.0032070400193333626,-0.018631376326084137
1751223270461087000,19.3890869140625,-0.18677189946174622,-0.010537417605519295,-0.02107483521103859
1751223270479913200,19.407913330078124,-0.1928805559873581,-0.012980876490473747,-0.02718348242342472
1751223270498739700,19.42673974609375,-0.21487168967723846,-0.0019853105768561363,-0.023518294095993042
1751223270517566000,19.44556591796875,-0.2234237939119339,0.002901607658714056,-0.02107483521103859
1751223270536392200,19.46439208984375,-0.22953243553638458,0.004123337101191282,-0.022296564653515816
1751223270555218700,19.48321875,-0.22953243553638458,0.004123337101191282,-0.022296564653515816
1751223270574045000,19.502044921875,-0.24541492760181427,-0.006872228812426329,-0.028405211865901947
1751223270592871200,19.52087109375,-0.2808450758457184,-0.008093958720564842,-0.03329212963581085
1751223270611697700,19.53969775390625,-0.3150535225868225,-0.0019853105768561363,-0.03329212963581085
1751223270630524000,19.55852392578125,-0.33826637268066406,0.0102319847792387,-0.029626941308379173
1751223270649350100,19.57735009765625,-0.34926193952560425,0.009010255336761475,-0.028405211865901947
1751223270668176600,19.5961767578125,-0.35414886474609375,0.011453714221715927,-0.0308486707508564
1751223270687003000,19.6150029296875,-0.3627009689807892,0.009010255336761475,-0.032070402055978775
1751223270705829400,19.633829345703123,-0.3712530732154846,-0.0007635809597559273,-0.03940077871084213
1751223270724655600,19.652655517578125,-0.393244206905365,-0.0019853105768561363,-0.04550942778587341
1751223270743481900,19.67148193359375,-0.4140135943889618,0.005345067009329796,-0.04062250629067421
1751223270762308400,19.690308349609374,-0.4176788032054901,0.002901607658714056,-0.04428769648075104
1751223270781134600,19.709134521484376,-0.41523534059524536,-0.005650499369949102,-0.047952886670827866
1751223270799960800,19.7279609375,-0.4091266989707947,-0.008093958720564842,-0.047952886670827866
1751223270818787300,19.746787353515625,-0.393244206905365,-0.005650499369949102,-0.041844237595796585
1751223270837613600,19.765613525390624,-0.3675878942012787,0.004123337101191282,-0.03329212963581085
1751223270856439800,19.784439697265626,-0.3260490894317627,0.005345067009329796,-0.02718348242342472
1751223270875266300,19.803266357421876,-0.2857320010662079,0.00045814859913662076,-0.024740023538470268
1751223270894092500,19.822092529296874,-0.25152358412742615,-0.0019853105768561363,-0.022296564653515816
1751223270912919000,19.8409189453125,-0.21609342098236084,-0.006872228812426329,-0.022296564653515816
1751223270931745300,19.859745361328127,-0.18432845175266266,-0.022754713892936707,-0.02718348242342472
1751223270950571500,19.878571533203125,-0.16355904936790466,-0.022754713892936707,-0.022296564653515816
1751223270969398000,19.89739794921875,-0.15378521382808685,-0.030085090547800064,-0.023518294095993042
1751223270988224300,19.916224365234374,-0.15989385545253754,-0.030085090547800064,-0.025961752980947495
1751223271007050500,19.935050537109376,-0.17944152653217316,-0.023976443335413933,-0.02718348242342472
1751223271025877000,19.953876953125,-0.18921536207199097,-0.016646064817905426,-0.025961752980947495
1751223271044703200,19.972703125,-0.18921536207199097,-0.0154243353754282,-0.028405211865901947
1751223271063529500,19.991529541015623,-0.1928805559873581,-0.028863361105322838,-0.035735588520765305
1751223271082356000,20.01035595703125,-0.21487168967723846,-0.030085090547800064,-0.03695731982588768
1751223271101182200,20.02918212890625,-0.2539670467376709,-0.008093958720564842,-0.029626941308379173
1751223271120008700,20.0480087890625,-0.28817546367645264,0.004123337101191282,-0.025961752980947495
1751223271138835000,20.0668349609375,-0.3040579557418823,0.009010255336761475,-0.024740023538470268
1751223271157661200,20.0856611328125,-0.30772313475608826,0.001679878099821508,-0.029626941308379173
1751223271176487700,20.10448779296875,-0.30283620953559875,-0.004428769461810589,-0.032070402055978775
1751223271195314000,20.12331396484375,-0.30283620953559875,-0.005650499369949102,-0.035735588520765305
1751223271214140200,20.14214013671875,-0.3052796721458435,-0.005650499369949102,-0.03695731982588768
1751223271232966700,20.160966552734376,-0.31261005997657776,0.006566796451807022,-0.035735588520765305
1751223271251793000,20.17979296875,-0.31871870160102844,0.009010255336761475,-0.03451386094093323
1751223271270619100,20.198619140625,-0.3174969553947449,0.006566796451807022,-0.03329212963581085
1751223271289445600,20.217445556640627,-0.300392746925354,0.002901607658714056,-0.032070402055978775
1751223271308271900,20.23627197265625,-0.27840161323547363,-0.011759147047996521,-0.03817904740571976
1751223271327098000,20.25509814453125,-0.26129740476608276,-0.020311253145337105,-0.03940077871084213
1751223271345924600,20.273924560546874,-0.2539670467376709,-0.008093958720564842,-0.02718348242342472
1751223271364750800,20.292750732421876,-0.24541492760181427,-0.010537417605519295,-0.023518294095993042
1751223271383577300,20.311577392578126,-0.25641047954559326,-0.030085090547800064,-0.03451386094093323
1751223271402403600,20.330403564453125,-0.2698495090007782,-0.028863361105322838,-0.032070402055978775
1751223271430643200,20.358643310546874,-0.2747364342212677,-0.014202605932950974,-0.0308486707508564
1751223271449469400,20.377469482421876,-0.27107125520706177,-0.02153298258781433,-0.03695731982588768
1751223271468295700,20.396295654296875,-0.26740604639053345,-0.005650499369949102,-0.03329212963581085
1751223271487122200,20.4151220703125,-0.2698495090007782,0.012675444595515728,-0.029626941308379173
1751223271505948400,20.433948486328124,-0.2698495090007782,0.018784092739224434,-0.02107483521103859
1751223271524774700,20.452774658203126,-0.2698495090007782,0.028557928279042244,-0.01740964688360691
1751223271543601200,20.47160107421875,-0.25641047954559326,0.004123337101191282,-0.022296564653515816
1751223271571840500,20.499840576171874,-0.29794928431510925,-0.04230238497257233,-0.0565049909055233
1751223271590667000,20.5186669921875,-0.351705402135849,-0.016646064817905426,-0.04306596517562866
1751223271609493200,20.5374931640625,-0.3712530732154846,0.00045814859913662076,-0.047952886670827866
1751223271628319500,20.556319580078124,-0.3578140437602997,-0.0032070400193333626,-0.041844237595796585
1751223271647146000,20.57514599609375,-0.3248273432254791,0.00045814859913662076,-0.04306596517562866
1751223271665972200,20.59397216796875,-0.28206682205200195,0.016340631991624832,-0.035735588520765305
1751223271684798700,20.612798828125,-0.24785839021205902,0.0102319847792387,-0.024740023538470268
1751223271703625000,20.631625,-0.22220206260681152,0.028557928279042244,-0.014966187067329884
1751223271722451200,20.650451171875,-0.19654574990272522,0.017562363296747208,-0.008857538923621178
1751223271741277400,20.66927734375,-0.19165882468223572,0.004123337101191282,-0.019853105768561363
1751223271760104000,20.68810400390625,-0.21120649576187134,-0.0154243353754282,-0.032070402055978775
1751223271778930200,20.70693017578125,-0.258853942155838,-0.012980876490473747,-0.03940077871084213
1751223271797756700,20.725756591796873,-0.3052796721458435,-0.006872228812426329,-0.03940077871084213
1751223271816583000,20.7445830078125,-0.33948808908462524,0.007788525894284248,-0.04550942778587341
1751223271835409200,20.7634091796875,-0.35048365592956543,0.034666575491428375,-0.028405211865901947
1751223271854235600,20.782235595703124,-0.34193155169487,0.021227551624178886,-0.029626941308379173
1751223271873062000,20.801061767578126,-0.32849252223968506,-0.004428769461810589,-0.04062250629067421
1751223271891888000,20.81988818359375,-0.3272708058357239,0.016340631991624832,-0.02718348242342472
1751223271910714600,20.838714599609375,-0.31261005997657776,0.028557928279042244,-0.022296564653515816
1751223271929540900,20.857540771484373,-0.2991710305213928,0.02977965772151947,-0.019853105768561363
1751223271948367400,20.876367431640624,-0.2893971800804138,0.005345067009329796,-0.02718348242342472
1751223271967193600,20.895193603515626,-0.30894485116004944,-0.005650499369949102,-0.04062250629067421
1751223271986019800,20.914019775390624,-0.3260490894317627,0.007788525894284248,-0.03329212963581085
1751223272004846300,20.932846435546875,-0.33337944746017456,0.02367101050913334,-0.028405211865901947
1751223272023672600,20.951672607421877,-0.3309359848499298,0.027336198836565018,-0.025961752980947495
1751223272042498800,20.970498779296875,-0.3211621642112732,0.027336198836565018,-0.0308486707508564
1751223272061325300,20.9893251953125,-0.3260490894317627,0.017562363296747208,-0.03329212963581085
1751223272080151600,21.008151611328124,-0.3199404180049896,0.024892739951610565,-0.032070402055978775
1751223272098978000,21.02697802734375,-0.28817546367645264,0.027336198836565018,-0.018631376326084137
1751223272117804300,21.04580419921875,-0.2539670467376709,0.01511890348047018,-0.02107483521103859
1751223272136630500,21.064630615234375,-0.23075416684150696,0.005345067009329796,-0.023518294095993042
1751223272155457000,21.08345703125,-0.23441936075687408,0.007788525894284248,-0.02718348242342472
1751223272174283300,21.102283203125,-0.2539670467376709,0.006566796451807022,-0.02718348242342472
1751223272193109500,21.121109619140626,-0.27840161323547363,0.005345067009329796,-0.029626941308379173
1751223272211936000,21.13993603515625,-0.28328853845596313,0.02000582218170166,-0.023518294095993042
1751223272230762200,21.15876220703125,-0.258853942155838,0.017562363296747208,-0.022296564653515816
1751223272249588500,21.17758837890625,-0.22708898782730103,0.005345067009329796,-0.02107483521103859
1751223272268415000,21.1964150390625,-0.19654574990272522,-0.004428769461810589,-0.022296564653515816
1751223272287241200,21.2152412109375,-0.1928805559873581,-0.010537417605519295,-0.024740023538470268
1751223272306067700,21.234067626953124,-0.22953243553638458,0.007788525894284248,-0.023518294095993042
1751223272324894000,21.25289404296875,-0.27717989683151245,0.024892739951610565,-0.01740964688360691
1751223272343720200,21.27172021484375,-0.3174969553947449,0.018784092739224434,-0.028405211865901947
1751223272362546700,21.290546630859374,-0.35537058115005493,0.00045814859913662076,-0.03940077871084213
1751223272381373000,21.309373046875,-0.3773617148399353,-0.004428769461810589,-0.04673115536570549
1751223272400199200,21.32819921875,-0.3675878942012787,-0.0007635809597559273,-0.04306596517562866
1751223272419025700,21.347025634765625,-0.37369653582572937,-0.004428769461810589,-0.04917461425065994
1751223272437852000,21.365851806640624,-0.4079049527645111,0.027336198836565018,-0.04062250629067421
1751223272456678400,21.384678466796874,-0.43722647428512573,0.07376192510128021,-0.02107483521103859
1751223272475504600,21.403504638671876,-0.425009161233902,0.0847574844956398,-0.008857538923621178
1751223272494331000,21.422330810546875,-0.37491825222969055,0.03588830679655075,-0.018631376326084137
1751223272513157400,21.441157470703125,-0.300392746925354,0.011453714221715927,-0.022296564653515816
1751223272531983600,21.459983642578123,-0.23197589814662933,-0.012980876490473747,-0.024740023538470268
1751223272550810000,21.47881005859375,-0.20509785413742065,-0.022754713892936707,-0.032070402055978775
1751223272569636400,21.49763623046875,-0.23197589814662933,0.001679878099821508,-0.029626941308379173
1751223272588462600,21.516462646484374,-0.2698495090007782,0.013897174037992954,-0.02718348242342472
1751223272607289000,21.5352890625,-0.28328853845596313,0.016340631991624832,-0.0308486707508564
1751223272626115300,21.554115234375,-0.26251915097236633,0.005345067009329796,-0.029626941308379173
1751223272644941600,21.572941650390625,-0.23564109206199646,0.02611446939408779,-0.02107483521103859
1751223272663768000,21.59176806640625,-0.22220206260681152,0.0383317656815052,-0.011300998739898205
1751223272682594300,21.61059423828125,-0.22098033130168915,0.031001387163996696,-0.010079269297420979
1751223272701420800,21.6294208984375,-0.20509785413742065,0.018784092739224434,-0.016187917441129684
1751223272720247000,21.6482470703125,-0.18555018305778503,0.002901607658714056,-0.02107483521103859
1751223272739073300,21.6670732421875,-0.17944152653217316,-0.009315688163042068,-0.028405211865901947
1751223272757899800,21.685899658203127,-0.17944152653217316,-0.0154243353754282,-0.028405211865901947
1751223272776726000,21.70472607421875,-0.2136499583721161,0.024892739951610565,-0.013744457624852657
1751223272795552300,21.72355224609375,-0.2551887631416321,0.0383317656815052,-0.012522728182375431
1751223272814378800,21.742378662109374,-0.2796233594417572,0.034666575491428375,-0.013744457624852657
1751223272833205000,21.761205078125,-0.28695371747016907,0.0383317656815052,-0.01740964688360691
1751223272852031500,21.780031494140626,-0.28206682205200195,0.021227551624178886,-0.023518294095993042
1751223272870857700,21.798857666015625,-0.2637408673763275,0.02000582218170166,-0.02718348242342472
1751223272889684000,21.81768408203125,-0.2331976294517517,0.013897174037992954,-0.02718348242342472
1751223272917923600,21.845923583984376,-0.22586725652217865,0.004123337101191282,-0.0308486707508564
1751223272936749800,21.864749755859375,-0.23686282336711884,0.056657709181308746,0.0021380267571657896
1751223272955576300,21.883576416015625,-0.26251915097236633,0.050549060106277466,0.0009162971982732415
1751223272974402600,21.902402587890624,-0.24785839021205902,-0.05329795181751251,-0.041844237595796585
1751223272993228800,21.921228759765626,-0.22098033130168915,-0.0642935186624527,-0.047952886670827866
1751223273012055300,21.94005517578125,-0.20998476445674896,-0.12293653935194016,-0.07238747924566269
1751223273030881500,21.958881591796874,-0.19654574990272522,-0.049632761627435684,-0.05894844979047775
1751223273049708000,21.9777080078125,-0.2380845546722412,0.06154462695121765,0.010690134018659592
1751223273068534300,21.9965341796875,-0.3370446562767029,0.02000582218170166,-0.03451386094093323
1751223273087360500,22.015360595703125,-0.37858346104621887,0.013897174037992954,-0.03695731982588768
1751223273106187000,22.03418701171875,-0.3260490894317627,0.07009673118591309,-0.000305432389723137
1751223273125013200,22.05301318359375,-0.24663665890693665,-0.05329795181751251,-0.06505709886550903
1751223273143839700,22.07183984375,-0.2026543915271759,-0.0850629210472107,-0.08949168771505356
1751223273162666000,22.090666015625,-0.25152358412742615,0.03955349326133728,-0.019853105768561363
1751223273181492200,22.1094921875,-0.32971426844596863,0.06887500733137131,-0.006414080038666725
1751223273200318700,22.128318603515623,-0.30894485116004944,0.031001387163996696,-0.01740964688360691
1751223273219145000,22.14714501953125,-0.2283107042312622,0.009010255336761475,-0.014966187067329884
1751223273237971500,22.165971435546876,-0.1513417512178421,-0.01908952370285988,-0.024740023538470268
1751223273256797700,22.184797607421874,-0.11224640160799026,-0.05329795181751251,-0.03329212963581085
1751223273275624000,22.2036240234375,-0.1305723488330841,-0.023976443335413933,-0.016187917441129684
1751223273294450400,22.222450439453127,-0.18066325783729553,-0.006872228812426329,-0.013744457624852657
1751223273313276700,22.241276611328125,-0.1721111536026001,0.022449281066656113,-0.012522728182375431
1751223273332103200,22.260103271484375,-0.11591159552335739,0.007788525894284248,-0.007635809946805239
1751223273350929400,22.278929443359374,-0.0792597085237503,-0.004428769461810589,-0.014966187067329884
1751223273369755600,22.297755615234376,-0.12690715491771698,-0.012980876490473747,-0.019853105768561363
1751223273388582100,22.31658203125,-0.1928805559873581,0.021227551624178886,-0.010079269297420979
1751223273407408400,22.335408447265625,-0.2283107042312622,0.03588830679655075,-0.006414080038666725
1751223273426234600,22.354234619140627,-0.2124282270669937,0.027336198836565018,-0.022296564653515816
1751223273445061000,22.37306103515625,-0.17577634751796722,-0.014202605932950974,-0.04062250629067421
1751223273463887400,22.391887451171876,-0.15378521382808685,-0.03252854943275452,-0.04306596517562866
1751223273482713900,22.4107138671875,-0.15867212414741516,-0.017867794260382652,-0.024740023538470268
1751223273501540000,22.4295400390625,-0.1623373180627823,0.0102319847792387,0.0009162971982732415
1751223273520366600,22.44836669921875,-0.1464548259973526,-0.022754713892936707,-0.014966187067329884
1751223273539192800,22.46719287109375,-0.19043709337711334,-0.028863361105322838,-0.025961752980947495
1751223273558019000,22.48601904296875,-0.2600756883621216,0.007788525894284248,-0.024740023538470268
1751223273576845600,22.504845458984374,-0.2649625837802887,0.028557928279042244,-0.02107483521103859
1751223273595671800,22.523671875,-0.22098033130168915,-0.005650499369949102,-0.025961752980947495
1751223273614498300,22.542498291015626,-0.2124282270669937,-0.04841103404760361,-0.04550942778587341
1751223273633324500,22.561324462890624,-0.29184064269065857,0.005345067009329796,-0.035735588520765305
1751223273652150800,22.58015087890625,-0.3614792227745056,0.06887500733137131,-0.010079269297420979
