time,seconds_elapsed,z,y,x
1751223251346135600,0.274135498046875,119.32500457763672,-3.3000001907348633,7.181250095367432
1751223251376135400,0.304135498046875,119.26875305175781,-3.9562501907348633,7.575000286102295
1751223251386135600,0.314135498046875,119.41875457763672,-3.8625001907348633,7.462500095367432
1751223251406135600,0.334135498046875,119.08125305175781,-3.6000001430511475,7.818750381469727
1751223251416135400,0.344135498046875,119.36250305175781,-3.6187500953674316,7.912500381469727
1751223251426135600,0.354135498046875,119.5875015258789,-3.6750001907348633,7.912500381469727
1751223251436135400,0.364135498046875,119.38125610351562,-3.562500238418579,7.968750476837158
1751223251446135600,0.374135498046875,119.3062515258789,-3.450000047683716,7.950000286102295
1751223251456135400,0.384135498046875,119.41875457763672,-3.281250238418579,7.950000286102295
1751223251466135600,0.394135498046875,119.28750610351562,-3.2437500953674316,8.0625
1751223251476135400,0.404135498046875,119.45625305175781,-3.3000001907348633,8.0625
1751223251486135600,0.414135498046875,119.73750305175781,-3.3000001907348633,7.837500095367432
1751223251496135400,0.424135498046875,119.34375762939453,-3.4125001430511475,8.006250381469727
1751223251506135600,0.434135498046875,119.28750610351562,-3.4125001430511475,8.081250190734863
1751223251516135400,0.444135498046875,119.36250305175781,-3.5062501430511475,8.231250762939453
1751223251526135600,0.454135498046875,119.56875610351562,-3.5062501430511475,8.268750190734863
1751223251536135400,0.464135498046875,119.4000015258789,-3.543750047683716,8.100000381469727
1751223251546135600,0.474135498046875,119.36250305175781,-3.543750047683716,7.950000286102295
1751223251556135400,0.484135498046875,119.3062515258789,-3.637500047683716,7.912500381469727
1751223251566135600,0.494135498046875,119.00625610351562,-3.750000238418579,8.02500057220459
1751223251576135400,0.504135498046875,118.91250610351562,-3.6000001430511475,7.856250286102295
1751223251586135600,0.514135498046875,118.70625305175781,-3.6187500953674316,7.950000286102295
1751223251596135400,0.524135498046875,118.8375015258789,-3.731250047683716,8.006250381469727
1751223251606135600,0.534135498046875,118.68750762939453,-3.843750238418579,8.0625
1751223251616135400,0.544135498046875,118.68750762939453,-3.843750238418579,8.15625
1751223251626135600,0.554135498046875,118.96875762939453,-3.918750047683716,8.4375
1751223251636135400,0.564135498046875,118.96875762939453,-3.9750001430511475,8.362500190734863
1751223251646135600,0.574135498046875,118.9312515258789,-3.9562501907348633,8.418750762939453
1751223251656135400,0.584135498046875,119.15625762939453,-3.8625001907348633,8.40000057220459
1751223251666135600,0.594135498046875,119.3062515258789,-3.825000047683716,8.30625057220459
1751223251676135400,0.604135498046875,119.25000762939453,-3.731250047683716,8.362500190734863
1751223251686135600,0.614135498046875,119.3062515258789,-3.6187500953674316,8.325000762939453
1751223251696135400,0.624135498046875,119.5875015258789,-3.7875001430511475,8.100000381469727
1751223251706135600,0.634135498046875,119.43750762939453,-3.6000001430511475,7.987500190734863
1751223251716135400,0.644135498046875,119.41875457763672,-3.5812501907348633,8.0625
1751223251726135600,0.654135498046875,119.55000305175781,-3.5250000953674316,8.11875057220459
1751223251736135400,0.664135498046875,119.5875015258789,-3.5812501907348633,7.856250286102295
1751223251746135600,0.674135498046875,119.60625457763672,-3.656250238418579,7.781250476837158
1751223251756135400,0.684135498046875,119.53125762939453,-3.637500047683716,7.706250190734863
1751223251766135600,0.694135498046875,119.4937515258789,-3.6937501430511475,7.687500476837158
1751223251776135400,0.704135498046875,119.34375762939453,-3.543750047683716,7.781250476837158
1751223251786135600,0.714135498046875,119.10000610351562,-3.8812501430511475,7.950000286102295
1751223251796135400,0.724135498046875,119.17500305175781,-3.6000001430511475,8.006250381469727
1751223251806135600,0.734135498046875,119.13750457763672,-3.6187500953674316,7.968750476837158
1751223251816135400,0.744135498046875,119.1187515258789,-3.5812501907348633,8.081250190734863
1751223251826135600,0.754135498046875,119.00625610351562,-3.4875001907348633,8.081250190734863
1751223251836135400,0.764135498046875,119.19375610351562,-3.5062501430511475,8.15625
1751223251846135600,0.774135498046875,119.1187515258789,-3.3937501907348633,8.15625
1751223251856135400,0.784135498046875,119.00625610351562,-3.2250001430511475,8.287500381469727
1751223251866135600,0.794135498046875,119.26875305175781,-3.0562500953674316,8.21250057220459
1751223251876135400,0.804135498046875,119.15625762939453,-3.262500047683716,8.100000381469727
1751223251886135600,0.814135498046875,119.15625762939453,-3.375000238418579,7.912500381469727
1751223251896135400,0.824135498046875,119.04375457763672,-3.4125001430511475,8.137500762939453
1751223251906135600,0.834135498046875,118.7437515258789,-3.5812501907348633,8.175000190734863
1751223251916135400,0.844135498046875,118.81875610351562,-3.5812501907348633,8.137500762939453
1751223251926135600,0.854135498046875,118.85625457763672,-3.750000238418579,8.231250762939453
1751223251936135400,0.864135498046875,118.81875610351562,-4.012500286102295,8.11875057220459
1751223251946135600,0.874135498046875,118.57500457763672,-3.937500238418579,8.175000190734863
1751223251956135400,0.884135498046875,118.78125762939453,-3.937500238418579,8.193750381469727
1751223251966135600,0.894135498046875,118.9312515258789,-3.7875001430511475,8.4375
1751223251976135400,0.904135498046875,118.91250610351562,-3.7687501907348633,8.381250381469727
1751223251986135600,0.914135498046875,119.06250762939453,-3.6937501430511475,8.58750057220459
1751223251996135400,0.924135498046875,118.85625457763672,-3.656250238418579,8.550000190734863
1751223252006135600,0.934135498046875,118.78125762939453,-3.6750001907348633,8.40000057220459
1751223252016135400,0.944135498046875,118.85625457763672,-3.543750047683716,8.456250190734863
1751223252026135600,0.954135498046875,119.19375610351562,-3.656250238418579,8.58750057220459
1751223252036135400,0.964135498046875,118.9312515258789,-3.6937501430511475,8.4375
1751223252046135600,0.974135498046875,118.85625457763672,-3.5250000953674316,8.34375
1751223252056135400,0.984135498046875,118.9312515258789,-3.4875001907348633,8.550000190734863
1751223252066135600,0.994135498046875,119.10000610351562,-3.356250047683716,8.418750762939453
1751223252076135400,1.004135498046875,119.1187515258789,-3.356250047683716,8.49375057220459
1751223252086135600,1.014135498046875,119.1187515258789,-3.262500047683716,8.58750057220459
1751223252096135400,1.024135498046875,119.10000610351562,-3.2062501907348633,8.71875
1751223252106135600,1.034135498046875,118.76250457763672,-3,8.40000057220459
1751223252116135400,1.044135498046875,118.89375305175781,-3.075000047683716,8.381250381469727
1751223252126135600,1.054135498046875,118.87500762939453,-3.3187501430511475,8.381250381469727
1751223252136135400,1.064135498046875,118.91250610351562,-3.4125001430511475,8.137500762939453
1751223252146135600,1.074135498046875,118.81875610351562,-3.5250000953674316,8.15625
1751223252156135400,1.084135498046875,118.63125610351562,-3.3187501430511475,8.02500057220459
1751223252166135600,1.094135498046875,118.57500457763672,-2.981250047683716,7.987500190734863
1751223252176135400,1.104135498046875,118.70625305175781,-2.981250047683716,7.818750381469727
1751223252186135600,1.114135498046875,118.70625305175781,-3.1125001907348633,7.725000381469727
1751223252196135400,1.124135498046875,118.81875610351562,-3.1125001907348633,7.912500381469727
1751223252206135600,1.134135498046875,118.78125762939453,-2.9437501430511475,7.893750190734863
1751223252216135400,1.144135498046875,118.80000305175781,-2.8125,7.912500381469727
1751223252226135600,1.154135498046875,118.78125762939453,-2.700000047683716,8.0625
1751223252236135400,1.164135498046875,119.00625610351562,-2.887500047683716,8.11875057220459
1751223252246135600,1.174135498046875,119.06250762939453,-3.187500238418579,8.287500381469727
1751223252256135400,1.184135498046875,118.96875762939453,-3.2437500953674316,8.30625057220459
1751223252266135600,1.194135498046875,119.19375610351562,-3.262500047683716,8.34375
1751223252276135400,1.204135498046875,119.36250305175781,-3.075000047683716,8.268750190734863
1751223252286135600,1.214135498046875,119.5875015258789,-3.168750047683716,8.193750381469727
1751223252296135400,1.224135498046875,119.60625457763672,-3.468750238418579,8.175000190734863
1751223252306135600,1.234135498046875,119.9625015258789,-3.731250047683716,7.931250095367432
1751223252316135400,1.244135498046875,120.16875457763672,-3.656250238418579,7.875000476837158
1751223252326135600,1.254135498046875,120.1500015258789,-3.5812501907348633,7.725000381469727
1751223252336135400,1.264135498046875,120.26250457763672,-3.543750047683716,7.781250476837158
1751223252346135600,1.274135498046875,120.54375457763672,-3.543750047683716,7.931250095367432
1751223252356135400,1.284135498046875,120.30000305175781,-3.543750047683716,7.987500190734863
1751223252366135600,1.294135498046875,120.11250305175781,-3.5812501907348633,8.21250057220459
1751223252376135400,1.304135498046875,119.9625015258789,-3.3187501430511475,8.325000762939453
1751223252386135600,1.314135498046875,119.85000610351562,-3.0375001430511475,8.381250381469727
1751223252396135400,1.324135498046875,119.4000015258789,-3.1312501430511475,8.456250190734863
1751223252406135600,1.334135498046875,119.70000457763672,-3.2437500953674316,8.49375057220459
1751223252416135400,1.344135498046875,119.53125762939453,-3.356250047683716,8.58750057220459
1751223252426135600,1.354135498046875,119.1187515258789,-3.450000047683716,8.49375057220459
1751223252436135400,1.364135498046875,119.00625610351562,-3.3937501907348633,8.475000381469727
1751223252446135600,1.374135498046875,119.08125305175781,-3.2062501907348633,8.21250057220459
1751223252456135400,1.384135498046875,119.26875305175781,-3.075000047683716,8.11875057220459
1751223252466135600,1.394135498046875,119.1187515258789,-3.1312501430511475,8.49375057220459
1751223252476135400,1.404135498046875,119.4000015258789,-3.0562500953674316,8.268750190734863
1751223252486135600,1.414135498046875,119.13750457763672,-3.093750238418579,8.21250057220459
1751223252496135400,1.424135498046875,119.2125015258789,-3.1312501430511475,7.912500381469727
1751223252516135400,1.444135498046875,119.34375762939453,-2.8500001430511475,7.762500286102295
1751223252526135600,1.454135498046875,118.98750305175781,-2.9625000953674316,7.818750381469727
1751223252536135400,1.464135498046875,119.25000762939453,-3.187500238418579,7.800000190734863
1751223252546135600,1.474135498046875,119.34375762939453,-3.3000001907348633,7.781250476837158
1751223252556135400,1.484135498046875,119.19375610351562,-3.3937501907348633,8.02500057220459
1751223252566135600,1.494135498046875,119.32500457763672,-3.450000047683716,7.987500190734863
1751223252576135400,1.504135498046875,119.36250305175781,-3.3375000953674316,8.175000190734863
1751223252586135600,1.514135498046875,119.43750762939453,-3.375000238418579,8.4375
1751223252596135400,1.524135498046875,119.4937515258789,-3.7125000953674316,8.4375
1751223252606135600,1.534135498046875,119.92500305175781,-3.7125000953674316,8.325000762939453
1751223252616135400,1.544135498046875,119.64375305175781,-3.8625001907348633,8.21250057220459
1751223252626135600,1.554135498046875,119.4937515258789,-3.6937501430511475,7.912500381469727
1751223252636135400,1.564135498046875,119.7750015258789,-3.637500047683716,7.893750190734863
1751223252646135600,1.574135498046875,119.6812515258789,-3.450000047683716,7.968750476837158
1751223252656135400,1.584135498046875,119.6812515258789,-3.3937501907348633,7.818750381469727
1751223252666135600,1.594135498046875,119.83125305175781,-3.356250047683716,7.781250476837158
1751223252676135400,1.604135498046875,119.60625457763672,-3.168750047683716,7.818750381469727
1751223252686135600,1.614135498046875,119.45625305175781,-3.1125001907348633,7.968750476837158
1751223252696135400,1.624135498046875,119.4000015258789,-2.8687500953674316,7.912500381469727
1751223252706135600,1.634135498046875,119.38125610351562,-3.1125001907348633,7.893750190734863
1751223252716135400,1.644135498046875,119.43750762939453,-3.1125001907348633,7.837500095367432
1751223252726135600,1.654135498046875,119.55000305175781,-3.262500047683716,7.668750286102295
1751223252736135400,1.664135498046875,119.36250305175781,-3.356250047683716,7.837500095367432
1751223252746135600,1.674135498046875,119.1187515258789,-3.450000047683716,7.856250286102295
1751223252756135400,1.684135498046875,119.25000762939453,-3.3187501430511475,7.781250476837158
1751223252766135600,1.694135498046875,119.06250762939453,-3.3375000953674316,7.875000476837158
1751223252776135400,1.704135498046875,119.13750457763672,-3.5062501430511475,7.800000190734863
1751223252786135600,1.714135498046875,119.34375762939453,-3.3000001907348633,7.612500190734863
1751223252796135400,1.724135498046875,119.19375610351562,-3.375000238418579,7.743750095367432
1751223252806135600,1.734135498046875,119.06250762939453,-3.375000238418579,7.987500190734863
1751223252816135400,1.744135498046875,119.25000762939453,-3.356250047683716,7.987500190734863
1751223252826135600,1.754135498046875,119.13750457763672,-3.3000001907348633,8.02500057220459
1751223252836135400,1.764135498046875,119.0250015258789,-3.3937501907348633,8.15625
1751223252846135600,1.774135498046875,119.19375610351562,-3.3937501907348633,8.0625
1751223252856135400,1.784135498046875,119.17500305175781,-3.3187501430511475,8.362500190734863
1751223252866135600,1.794135498046875,118.7437515258789,-3.3375000953674316,8.700000762939453
1751223252876135400,1.804135498046875,118.57500457763672,-3.262500047683716,8.568750381469727
1751223252886135600,1.814135498046875,118.68750762939453,-3.1312501430511475,8.4375
1751223252896135400,1.824135498046875,118.40625762939453,-3.0187501907348633,8.53125
1751223252906135600,1.834135498046875,118.61250305175781,-3.1125001907348633,8.34375
1751223252916135400,1.844135498046875,118.81875610351562,-3.2250001430511475,8.02500057220459
1751223252926135600,1.854135498046875,118.76250457763672,-3.6187500953674316,8.043750762939453
1751223252936135400,1.864135498046875,118.63125610351562,-3.4875001907348633,8.02500057220459
1751223252946135600,1.874135498046875,118.91250610351562,-3.6937501430511475,7.818750381469727
1751223252956135400,1.884135498046875,119.08125305175781,-3.6937501430511475,7.912500381469727
1751223252966135600,1.894135498046875,119.10000610351562,-3.750000238418579,7.931250095367432
1751223252976135400,1.904135498046875,119.34375762939453,-3.8625001907348633,7.650000095367432
1751223252986135600,1.914135498046875,119.28750610351562,-3.918750047683716,7.800000190734863
1751223252996135400,1.924135498046875,119.19375610351562,-3.918750047683716,8.100000381469727
1751223253006135600,1.934135498046875,119.23125457763672,-3.6750001907348633,8.0625
1751223253016135400,1.944135498046875,119.32500457763672,-3.7687501907348633,8.006250381469727
1751223253026135600,1.954135498046875,119.60625457763672,-3.6000001430511475,8.006250381469727
1751223253036135400,1.964135498046875,119.71875762939453,-3.562500238418579,7.968750476837158
1751223253046135600,1.974135498046875,119.66250610351562,-3.6187500953674316,7.968750476837158
1751223253056135400,1.984135498046875,119.8687515258789,-3.5062501430511475,8.043750762939453
1751223253066135600,1.994135498046875,119.90625762939453,-3.468750238418579,8.006250381469727
1751223253076135400,2.004135498046875,120.00000762939453,-3.3937501907348633,7.931250095367432
1751223253086135600,2.014135498046875,119.90625762939453,-3.2062501907348633,8.15625
1751223253096135400,2.024135498046875,120.00000762939453,-2.9625000953674316,8.34375
1751223253106135600,2.034135498046875,119.62500762939453,-3,8.512500762939453
1751223253116135400,2.044135498046875,119.1187515258789,-2.9625000953674316,8.643750190734863
1751223253126135600,2.054135498046875,119.1187515258789,-2.793750047683716,8.90625
1751223253136135400,2.064135498046875,118.7437515258789,-2.6625001430511475,9.15000057220459
1751223253146135600,2.074135498046875,118.7437515258789,-2.793750047683716,9.037500381469727
1751223253156135400,2.084135498046875,118.87500762939453,-2.90625,9.05625057220459
1751223253166135600,2.094135498046875,118.9312515258789,-2.90625,8.981250762939453
1751223253176135400,2.104135498046875,118.87500762939453,-3.168750047683716,8.77500057220459
1751223253186135600,2.114135498046875,119.0250015258789,-3.1500000953674316,8.700000762939453
1751223253196135400,2.124135498046875,119.4937515258789,-3.375000238418579,8.325000762939453
1751223253206135600,2.134135498046875,119.5875015258789,-3.5250000953674316,7.968750476837158
1751223253216135400,2.144135498046875,119.62500762939453,-3.825000047683716,7.856250286102295
1751223253226135600,2.154135498046875,119.43750762939453,-3.731250047683716,8.02500057220459
1751223253236135400,2.164135498046875,119.26875305175781,-3.825000047683716,8.02500057220459
1751223253246135600,2.174135498046875,119.43750762939453,-3.937500238418579,7.912500381469727
1751223253256135400,2.184135498046875,119.36250305175781,-3.8625001907348633,7.950000286102295
1751223253266135600,2.194135498046875,119.32500457763672,-3.8812501430511475,8.006250381469727
1751223253276135400,2.204135498046875,119.08125305175781,-3.6187500953674316,8.381250381469727
1751223253286135600,2.214135498046875,119.19375610351562,-3.656250238418579,8.550000190734863
1751223253296135400,2.224135498046875,119.41875457763672,-3.7687501907348633,8.475000381469727
1751223253306135600,2.234135498046875,119.47500610351562,-3.637500047683716,8.475000381469727
1751223253316135400,2.244135498046875,119.55000305175781,-3.450000047683716,8.550000190734863
1751223253336135400,2.264135498046875,119.73750305175781,-3.281250238418579,8.700000762939453
1751223253346135600,2.274135498046875,119.88750457763672,-3.3000001907348633,8.887500762939453
1751223253356135400,2.284135498046875,119.98125457763672,-3.3937501907348633,8.793750762939453
1751223253366135600,2.294135498046875,119.90625762939453,-3.3000001907348633,8.90625
1751223253376135400,2.304135498046875,119.85000610351562,-2.90625,9.018750190734863
1751223253386135600,2.314135498046875,119.88750457763672,-3.093750238418579,9.018750190734863
1751223253396135400,2.324135498046875,119.83125305175781,-3.2062501907348633,9.09375
1751223253406135600,2.334135498046875,119.62500762939453,-3,9.206250190734863
1751223253416135400,2.344135498046875,119.53125762939453,-3.1312501430511475,9.487500190734863
1751223253426135600,2.354135498046875,119.47500610351562,-2.9437501430511475,9.543750762939453
1751223253436135400,2.364135498046875,119.45625305175781,-2.8125,9.75
1751223253446135600,2.374135498046875,119.4937515258789,-2.7375001907348633,9.65625
1751223253456135400,2.384135498046875,119.36250305175781,-2.793750047683716,9.768750190734863
1751223253466135600,2.394135498046875,119.4000015258789,-2.4375,9.881250381469727
1751223253476135400,2.404135498046875,119.5875015258789,-2.0250000953674316,9.99375057220459
1751223253486135600,2.414135498046875,119.5875015258789,-2.2125000953674316,10.03125
1751223253496135400,2.424135498046875,119.62500762939453,-2.34375,9.975000381469727
1751223253506135600,2.434135498046875,119.4000015258789,-2.4375,9.956250190734863
1751223253516135400,2.444135498046875,119.43750762939453,-2.6437501907348633,9.9375
1751223253526135600,2.454135498046875,118.98750305175781,-2.5875000953674316,10.27500057220459
1751223253536135400,2.464135498046875,119.08125305175781,-2.8125,10.331250190734863
1751223253546135600,2.474135498046875,119.08125305175781,-2.887500047683716,10.800000190734863
1751223253556135400,2.484135498046875,118.72500610351562,-3.1500000953674316,10.83750057220459
1751223253566135600,2.494135498046875,118.61250305175781,-3.1125001907348633,11.02500057220459
1751223253576135400,2.504135498046875,118.61250305175781,-2.9437501430511475,11.137500762939453
1751223253586135600,2.514135498046875,118.76250457763672,-2.9250001907348633,11.175000190734863
1751223253596135400,2.524135498046875,118.91250610351562,-2.606250047683716,11.456250190734863
1751223253606135600,2.534135498046875,119.10000610351562,-2.625,11.456250190734863
1751223253616135400,2.544135498046875,119.10000610351562,-2.34375,11.737500190734863
1751223253626135600,2.554135498046875,119.15625762939453,-2.3062500953674316,11.550000190734863
1751223253636135400,2.564135498046875,119.43750762939453,-2.137500047683716,11.625
1751223253646135600,2.574135498046875,119.47500610351562,-2.0062501430511475,11.756250381469727
1751223253656135400,2.584135498046875,119.38125610351562,-1.9687501192092896,11.662500381469727
1751223253666135600,2.594135498046875,119.66250610351562,-1.8562500476837158,11.58750057220459
1751223253676135400,2.604135498046875,119.51250457763672,-1.912500023841858,11.418750762939453
1751223253686135600,2.614135498046875,120.01875305175781,-1.8375000953674316,11.49375057220459
1751223253696135400,2.624135498046875,120.09375762939453,-1.8375000953674316,11.325000762939453
1751223253706135600,2.634135498046875,120.16875457763672,-1.8750001192092896,11.21250057220459
1751223253716135400,2.644135498046875,120.22500610351562,-2.1000001430511475,11.30625057220459
1751223253726135600,2.654135498046875,120.35625457763672,-2.1187500953674316,11.268750190734863
1751223253736135400,2.664135498046875,120.3375015258789,-2.0812501907348633,11.381250381469727
1751223253746135600,2.674135498046875,120.11250305175781,-2.3062500953674316,11.418750762939453
1751223253756135400,2.684135498046875,120.03750610351562,-2.2875001430511475,11.643750190734863
1751223253766135600,2.694135498046875,119.64375305175781,-2.2125000953674316,11.625
1751223253776135400,2.704135498046875,119.5875015258789,-2.3062500953674316,11.793750762939453
1751223253786135600,2.714135498046875,119.26875305175781,-2.4000000953674316,11.831250190734863
1751223253796135400,2.724135498046875,119.36250305175781,-2.2125000953674316,11.756250381469727
1751223253806135600,2.734135498046875,119.41875457763672,-2.1750001907348633,11.662500381469727
1751223253816135400,2.744135498046875,119.64375305175781,-2.2875001430511475,11.550000190734863
1751223253826135600,2.754135498046875,119.75625610351562,-2.0812501907348633,11.96250057220459
1751223253836135400,2.764135498046875,119.90625762939453,-2.137500047683716,11.86875057220459
1751223253846135600,2.774135498046875,120.0562515258789,-2.1000001430511475,11.831250190734863
1751223253856135400,2.784135498046875,119.85000610351562,-1.9312500953674316,11.793750762939453
1751223253866135600,2.794135498046875,120.09375762939453,-1.7625000476837158,11.86875057220459
1751223253876135400,2.804135498046875,119.83125305175781,-1.7437500953674316,11.96250057220459
1751223253886135600,2.814135498046875,119.66250610351562,-1.8562500476837158,11.981250762939453
1751223253896135400,2.824135498046875,119.73750305175781,-1.7062500715255737,12.281250953674316
1751223253906135600,2.834135498046875,119.38125610351562,-1.8750001192092896,11.90625
1751223253916135400,2.844135498046875,119.62500762939453,-2.0250000953674316,11.943750381469727
1751223253926135600,2.854135498046875,119.38125610351562,-1.9875000715255737,12.05625057220459
1751223253936135400,2.864135498046875,119.60625457763672,-2.1000001430511475,12.037500381469727
1751223253946135600,2.874135498046875,119.56875610351562,-2.15625,12.206250190734863
1751223253956135400,2.884135498046875,119.45625305175781,-2.137500047683716,12.300000190734863
1751223253966135600,2.894135498046875,119.66250610351562,-2.15625,12.450000762939453
1751223253976135400,2.904135498046875,119.56875610351562,-2.137500047683716,12.375000953674316
1751223253986135600,2.914135498046875,120.09375762939453,-2.0062501430511475,12.24375057220459
1751223253996135400,2.924135498046875,119.92500305175781,-1.631250023841858,12.187500953674316
1751223254006135600,2.934135498046875,119.83125305175781,-1.818750023841858,11.981250762939453
1751223254016135400,2.944135498046875,119.81250762939453,-1.818750023841858,12.037500381469727
1751223254026135600,2.954135498046875,119.8687515258789,-1.7625000476837158,11.662500381469727
1751223254036135400,2.964135498046875,120.13125610351562,-1.8562500476837158,11.793750762939453
1751223254046135600,2.974135498046875,120.1500015258789,-1.8000000715255737,11.625
1751223254056135400,2.984135498046875,120.35625457763672,-1.8937500715255737,11.700000762939453
1751223254066135600,2.994135498046875,119.98125457763672,-2.0062501430511475,11.925000190734863
1751223254076135400,3.004135498046875,119.5875015258789,-2.25,12.131250381469727
1751223254086135600,3.014135498046875,120.1500015258789,-2.2125000953674316,12.356250762939453
1751223254096135400,3.024135498046875,120.1500015258789,-2.231250047683716,12.131250381469727
1751223254106135600,3.034135498046875,120.1500015258789,-2.3062500953674316,12.281250953674316
1751223254116135400,3.044135498046875,120.28125762939453,-2.4000000953674316,11.925000190734863
1751223254126135600,3.054135498046875,120.03750610351562,-2.5875000953674316,11.8125
1751223254136135400,3.064135498046875,119.64375305175781,-2.4937500953674316,11.53125
1751223254146135600,3.074135498046875,119.45625305175781,-2.325000047683716,11.53125
1751223254156135400,3.084135498046875,119.45625305175781,-2.2875001430511475,11.456250190734863
1751223254166135600,3.094135498046875,119.13750457763672,-2.3812501430511475,11.40000057220459
1751223254176135400,3.104135498046875,119.00625610351562,-2.4750001430511475,11.53125
1751223254186135600,3.114135498046875,119.08125305175781,-2.3625001907348633,11.71875
1751223254196135400,3.124135498046875,118.85625457763672,-2.231250047683716,11.793750762939453
1751223254206135600,3.134135498046875,119.06250762939453,-2.1000001430511475,11.943750381469727
1751223254216135400,3.144135498046875,119.13750457763672,-2.1000001430511475,12.131250381469727
1751223254226135600,3.154135498046875,119.17500305175781,-2.15625,12.206250190734863
1751223254236135400,3.164135498046875,119.41875457763672,-2.2875001430511475,11.887500762939453
1751223254246135600,3.174135498046875,119.06250762939453,-2.34375,11.793750762939453
1751223254256135400,3.184135498046875,118.96875762939453,-2.418750047683716,11.737500190734863
1751223254266135600,3.194135498046875,118.81875610351562,-2.625,11.53125
1751223254276135400,3.204135498046875,118.57500457763672,-2.4750001430511475,11.700000762939453
1751223254286135600,3.214135498046875,118.5562515258789,-2.4375,11.606250762939453
1751223254296135400,3.224135498046875,118.59375762939453,-2.625,11.58750057220459
1751223254306135600,3.234135498046875,118.66875457763672,-2.53125,11.53125
1751223254316135400,3.244135498046875,118.61250305175781,-2.625,11.756250381469727
1751223254326135600,3.254135498046875,118.91250610351562,-2.606250047683716,11.86875057220459
1751223254336135400,3.264135498046875,119.13750457763672,-2.4562501907348633,11.887500762939453
1751223254346135600,3.274135498046875,119.15625762939453,-2.512500047683716,12
1751223254356135400,3.284135498046875,119.47500610351562,-2.7562501430511475,11.71875
1751223254366135600,3.294135498046875,119.45625305175781,-2.981250047683716,11.662500381469727
1751223254376135400,3.304135498046875,119.4000015258789,-2.9625000953674316,11.68125057220459
1751223254386135600,3.314135498046875,119.28750610351562,-3.356250047683716,11.362500190734863
1751223254396135400,3.324135498046875,119.26875305175781,-3.262500047683716,11.081250190734863
1751223254406135600,3.334135498046875,119.26875305175781,-3.1125001907348633,10.78125
1751223254416135400,3.344135498046875,119.04375457763672,-3.2250001430511475,10.55625057220459
1751223254426135600,3.354135498046875,119.26875305175781,-3.093750238418579,10.21875
1751223254436135400,3.364135498046875,118.95000457763672,-3.187500238418579,10.012500762939453
1751223254446135600,3.374135498046875,118.72500610351562,-3.1125001907348633,9.71250057220459
1751223254456135400,3.384135498046875,118.68750762939453,-3.1125001907348633,9.225000381469727
1751223254466135600,3.394135498046875,118.87500762939453,-3.0187501907348633,9.05625057220459
1751223254476135400,3.404135498046875,118.98750305175781,-3.168750047683716,8.8125
1751223254486135600,3.414135498046875,119.0250015258789,-3.262500047683716,8.643750190734863
1751223254496135400,3.424135498046875,119.0250015258789,-3.356250047683716,8.512500762939453
1751223254506135600,3.434135498046875,118.96875762939453,-3.3375000953674316,8.325000762939453
1751223254516135400,3.444135498046875,119.17500305175781,-3.3375000953674316,8.231250762939453
1751223254526135600,3.454135498046875,119.04375457763672,-3.356250047683716,8.081250190734863
1751223254536135400,3.464135498046875,119.00625610351562,-3.468750238418579,7.912500381469727
1751223254546135600,3.474135498046875,119.10000610351562,-3.450000047683716,8.0625
1751223254556135400,3.484135498046875,119.06250762939453,-3.4875001907348633,8.043750762939453
1751223254566135600,3.494135498046875,119.00625610351562,-3.562500238418579,7.931250095367432
1751223254576135400,3.504135498046875,119.10000610351562,-3.4875001907348633,7.706250190734863
1751223254586135600,3.514135498046875,119.0250015258789,-3.6750001907348633,7.668750286102295
1751223254596135400,3.524135498046875,119.15625762939453,-3.731250047683716,7.725000381469727
1751223254616135400,3.544135498046875,119.51250457763672,-3.6187500953674316,7.875000476837158
1751223254626135600,3.554135498046875,119.4000015258789,-3.6937501430511475,7.518750190734863
1751223254636135400,3.564135498046875,119.26875305175781,-3.6937501430511475,7.181250095367432
1751223254646135600,3.574135498046875,119.4000015258789,-3.7687501907348633,7.106250286102295
1751223254656135400,3.584135498046875,119.55000305175781,-4.012500286102295,6.975000381469727
1751223254666135600,3.594135498046875,119.32500457763672,-3.9937500953674316,6.900000095367432
1751223254676135400,3.604135498046875,119.23125457763672,-3.9750001430511475,6.975000381469727
1751223254686135600,3.614135498046875,119.4937515258789,-3.9750001430511475,7.031250476837158
1751223254696135400,3.624135498046875,119.51250457763672,-3.9937500953674316,7.200000286102295
1751223254706135600,3.634135498046875,119.62500762939453,-4.03125,7.350000381469727
1751223254716135400,3.644135498046875,119.83125305175781,-3.9937500953674316,7.687500476837158
1751223254726135600,3.654135498046875,119.85000610351562,-4.03125,7.875000476837158
1751223254736135400,3.664135498046875,119.6812515258789,-3.9000000953674316,8.175000190734863
1751223254746135600,3.674135498046875,120.03750610351562,-3.5812501907348633,8.287500381469727
1751223254756135400,3.684135498046875,119.90625762939453,-3.5250000953674316,8.006250381469727
1751223254766135600,3.694135498046875,119.83125305175781,-3.6750001907348633,7.893750190734863
1751223254776135400,3.704135498046875,119.9625015258789,-3.637500047683716,7.612500190734863
1751223254786135600,3.714135498046875,120.00000762939453,-3.281250238418579,7.762500286102295
1751223254796135400,3.724135498046875,119.79375457763672,-3.2062501907348633,7.800000190734863
1751223254806135600,3.734135498046875,119.47500610351562,-3.1125001907348633,7.800000190734863
1751223254816135400,3.744135498046875,119.62500762939453,-2.90625,7.706250190734863
1751223254826135600,3.754135498046875,119.4937515258789,-3.3000001907348633,7.631250381469727
1751223254836135400,3.764135498046875,119.62500762939453,-3.2062501907348633,7.668750286102295
1751223254846135600,3.774135498046875,119.45625305175781,-3.2250001430511475,7.837500095367432
1751223254856135400,3.784135498046875,119.41875457763672,-3.187500238418579,7.950000286102295
1751223254866135600,3.794135498046875,119.4000015258789,-3.3187501430511475,8.100000381469727
1751223254876135400,3.804135498046875,119.17500305175781,-3.3000001907348633,8.100000381469727
1751223254886135600,3.814135498046875,119.43750762939453,-3.281250238418579,7.968750476837158
1751223254896135400,3.824135498046875,119.34375762939453,-3.4125001430511475,8.043750762939453
1751223254906135600,3.834135498046875,119.23125457763672,-3.3375000953674316,8.175000190734863
1751223254916135400,3.844135498046875,119.26875305175781,-3.3187501430511475,8.58750057220459
1751223254926135600,3.854135498046875,119.2125015258789,-3.262500047683716,8.68125057220459
1751223254936135400,3.864135498046875,119.13750457763672,-3.1500000953674316,8.943750381469727
1751223254946135600,3.874135498046875,119.08125305175781,-3.168750047683716,8.86875057220459
1751223254956135400,3.884135498046875,119.28750610351562,-3.075000047683716,9
1751223254966135600,3.894135498046875,119.36250305175781,-3.0375001430511475,9.356250762939453
1751223254976135400,3.904135498046875,119.2125015258789,-2.9625000953674316,9.731250762939453
1751223254986135600,3.914135498046875,119.23125457763672,-2.7750000953674316,9.918750762939453
1751223254996135400,3.924135498046875,119.19375610351562,-2.7375001907348633,9.862500190734863
1751223255006135600,3.934135498046875,119.2125015258789,-2.418750047683716,10.143750190734863
1751223255016135400,3.944135498046875,119.10000610351562,-2.2875001430511475,10.425000190734863
1751223255026135600,3.954135498046875,119.04375457763672,-2.2125000953674316,10.5
1751223255036135400,3.964135498046875,119.25000762939453,-2.4000000953674316,10.762500762939453
1751223255046135600,3.974135498046875,119.13750457763672,-2.4562501907348633,10.706250190734863
1751223255056135400,3.984135498046875,119.32500457763672,-2.4750001430511475,10.725000381469727
1751223255066135600,3.994135498046875,119.28750610351562,-2.53125,11.006250381469727
1751223255076135400,4.004135498046875,119.32500457763672,-2.606250047683716,11.175000190734863
1751223255086135600,4.014135498046875,119.34375762939453,-2.90625,10.950000762939453
1751223255096135400,4.024135498046875,119.5875015258789,-3,10.800000190734863
1751223255106135600,4.034135498046875,119.5875015258789,-3.093750238418579,10.950000762939453
1751223255116135400,4.044135498046875,119.3062515258789,-2.7562501430511475,11.006250381469727
1751223255126135600,4.054135498046875,119.36250305175781,-2.7750000953674316,11.15625
1751223255136135400,4.064135498046875,119.4000015258789,-2.793750047683716,11.02500057220459
1751223255146135600,4.074135498046875,119.38125610351562,-2.6625001430511475,11.0625
1751223255156135400,4.084135498046875,119.26875305175781,-2.5500001907348633,10.875
1751223255166135600,4.094135498046875,119.10000610351562,-2.4000000953674316,11.081250190734863
1751223255176135400,4.104135498046875,118.91250610351562,-2.2875001430511475,11.100000381469727
1751223255186135600,4.114135498046875,119.04375457763672,-2.0625,11.15625
1751223255196135400,4.124135498046875,119.41875457763672,-2.1000001430511475,11.287500381469727
1751223255206135600,4.134135498046875,119.4937515258789,-1.8562500476837158,11.606250762939453
1751223255216135400,4.144135498046875,119.34375762939453,-1.631250023841858,11.625
1751223255226135600,4.154135498046875,119.34375762939453,-1.5750000476837158,11.68125057220459
1751223255236135400,4.164135498046875,119.53125762939453,-1.6125000715255737,12.037500381469727
1751223255246135600,4.174135498046875,119.6812515258789,-1.537500023841858,12.225000381469727
1751223255256135400,4.184135498046875,119.70000457763672,-1.6125000715255737,12.487500190734863
1751223255266135600,4.194135498046875,119.60625457763672,-1.7062500715255737,12.80625057220459
1751223255276135400,4.204135498046875,119.3062515258789,-1.5,12.99375057220459
1751223255286135600,4.214135498046875,119.00625610351562,-1.350000023841858,12.937500953674316
1751223255296135400,4.224135498046875,119.17500305175781,-1.2000000476837158,13.162500381469727
1751223255306135600,4.234135498046875,119.19375610351562,-1.4250000715255737,13.331250190734863
1751223255316135400,4.244135498046875,119.10000610351562,-1.2000000476837158,13.481250762939453
1751223255326135600,4.254135498046875,119.3062515258789,-0.956250011920929,13.481250762939453
1751223255336135400,4.264135498046875,119.2125015258789,-0.862500011920929,13.706250190734863
1751223255346135600,4.274135498046875,119.0250015258789,-0.65625,13.725000381469727
1751223255356135400,4.284135498046875,119.04375457763672,-0.6937500238418579,13.893750190734863
1751223255366135600,4.294135498046875,119.0250015258789,-0.8250000476837158,14.062500953674316
1751223255376135400,4.304135498046875,118.8375015258789,-0.65625,14.456250190734863
1751223255386135600,4.314135498046875,118.63125610351562,-0.35625001788139343,14.700000762939453
1751223255396135400,4.324135498046875,118.72500610351562,-0.4125000238418579,14.68125057220459
1751223255406135600,4.334135498046875,118.53750610351562,-0.5250000357627869,15.112500190734863
1751223255416135400,4.344135498046875,118.78125762939453,-0.5062500238418579,14.981250762939453
1751223255426135600,4.354135498046875,118.81875610351562,-0.4312500059604645,15.05625057220459
1751223255436135400,4.364135498046875,119.0250015258789,-0.5062500238418579,15.187500953674316
1751223255446135600,4.374135498046875,119.32500457763672,-0.22500000894069672,15.356250762939453
1751223255456135400,4.384135498046875,119.38125610351562,-0.4687500298023224,15.543750762939453
1751223255466135600,4.394135498046875,119.66250610351562,-0.45000001788139343,15.768750190734863
1751223255476135400,4.404135498046875,119.53125762939453,-0.39375001192092896,15.937500953674316
1751223255486135600,4.414135498046875,119.51250457763672,-0.5062500238418579,15.843750953674316
1751223255496135400,4.424135498046875,119.56875610351562,-0.6375000476837158,16.106250762939453
1751223255506135600,4.434135498046875,119.66250610351562,-0.5625,16.443750381469727
1751223255516135400,4.444135498046875,119.64375305175781,-0.24375000596046448,16.5
1751223255526135600,4.454135498046875,119.38125610351562,-0.3375000059604645,16.61250114440918
1751223255536135400,4.464135498046875,119.38125610351562,-0.16875000298023224,16.59375
1751223255546135600,4.474135498046875,119.23125457763672,-0.11250000447034836,16.40625
1751223255556135400,4.484135498046875,119.36250305175781,0.03750000149011612,16.80000114440918
1751223255566135600,4.494135498046875,119.1187515258789,0.26250001788139343,16.96875
1751223255576135400,4.504135498046875,118.87500762939453,0.675000011920929,17.25
1751223255586135600,4.514135498046875,119.00625610351562,0.7312500476837158,17.325000762939453
1751223255596135400,4.524135498046875,119.04375457763672,0.65625,17.681251525878906
1751223255606135600,4.534135498046875,119.0250015258789,0.862500011920929,17.83125114440918
1751223255616135400,4.544135498046875,118.81875610351562,1.068750023841858,18.11250114440918
1751223255626135600,4.554135498046875,118.81875610351562,1.2750000953674316,18.450000762939453
1751223255636135400,4.564135498046875,118.57500457763672,1.2937500476837158,18.375
1751223255646135600,4.574135498046875,118.9312515258789,1.6125000715255737,19.05000114440918
1751223255656135400,4.584135498046875,118.85625457763672,1.5,19.181251525878906
1751223255666135600,4.594135498046875,118.95000457763672,1.4812500476837158,19.42500114440918
1751223255676135400,4.604135498046875,118.81875610351562,1.7437500953674316,19.443750381469727
1751223255686135600,4.614135498046875,119.04375457763672,1.7625000476837158,19.78125
1751223255696135400,4.624135498046875,119.23125457763672,1.8937500715255737,19.96875
1751223255706135600,4.634135498046875,119.10000610351562,2.0250000953674316,20.193750381469727
1751223255716135400,4.644135498046875,119.10000610351562,2.2125000953674316,20.83125114440918
1751223255726135600,4.654135498046875,119.2125015258789,2.1000001430511475,20.64375114440918
1751223255736135400,4.664135498046875,119.32500457763672,2.4375,21.075000762939453
1751223255746135600,4.674135498046875,118.96875762939453,2.7750000953674316,21.225000381469727
1751223255756135400,4.684135498046875,118.96875762939453,2.71875,21.543750762939453
1751223255766135600,4.694135498046875,118.95000457763672,2.8500001430511475,21.806251525878906
1751223255776135400,4.704135498046875,118.85625457763672,2.8687500953674316,21.9375
1751223255786135600,4.714135498046875,119.08125305175781,2.981250047683716,22.350000381469727
1751223255796135400,4.724135498046875,119.25000762939453,3.2437500953674316,22.387500762939453
1751223255806135600,4.734135498046875,119.15625762939453,3.4125001430511475,22.537500381469727
1751223255816135400,4.744135498046875,119.23125457763672,3.6937501430511475,22.668750762939453
1751223255826135600,4.754135498046875,119.34375762939453,3.8062500953674316,23.025001525878906
1751223255836135400,4.764135498046875,119.2125015258789,4.331250190734863,23.34375
1751223255846135600,4.774135498046875,119.08125305175781,4.612500190734863,23.493751525878906
1751223255856135400,4.784135498046875,119.1187515258789,4.743750095367432,23.962501525878906
1751223255866135600,4.794135498046875,119.1187515258789,4.950000286102295,24.30000114440918
1751223255876135400,4.804135498046875,119.17500305175781,5.137500286102295,24.881250381469727
1751223255886135600,4.814135498046875,118.9312515258789,5.362500190734863,25.293750762939453
1751223255896135400,4.824135498046875,118.70625305175781,5.4375,25.368751525878906
1751223255906135600,4.834135498046875,118.91250610351562,5.700000286102295,25.650001525878906
1751223255916135400,4.844135498046875,119.04375457763672,5.756250381469727,25.950000762939453
1751223255926135600,4.854135498046875,118.85625457763672,6.112500190734863,26.437501907348633
1751223255936135400,4.864135498046875,118.8375015258789,6.562500476837158,26.625001907348633
1751223255946135600,4.874135498046875,118.95000457763672,7.031250476837158,26.775001525878906
1751223255956135400,4.884135498046875,118.68750762939453,7.275000095367432,26.681251525878906
1751223255966135600,4.894135498046875,118.7437515258789,7.725000381469727,26.887500762939453
1751223255976135400,4.904135498046875,118.76250457763672,8.006250381469727,27.450000762939453
1751223255986135600,4.914135498046875,118.59375762939453,8.11875057220459,27.843751907348633
1751223255996135400,4.924135498046875,118.48125457763672,8.231250762939453,28.031251907348633
1751223256006135600,4.934135498046875,118.57500457763672,8.418750762939453,28.125001907348633
1751223256016135400,4.944135498046875,118.38750457763672,8.58750057220459,28.406251907348633
1751223256026135600,4.954135498046875,118.23750305175781,8.643750190734863,28.462501525878906
1751223256036135400,4.964135498046875,118.29375457763672,8.58750057220459,28.575000762939453
1751223256046135600,4.974135498046875,118.29375457763672,8.606250762939453,28.725000381469727
1751223256056135400,4.984135498046875,118.42500305175781,8.606250762939453,28.650001525878906
1751223256066135600,4.994135498046875,118.0875015258789,8.700000762939453,28.668750762939453
1751223256076135400,5.004135498046875,118.01250457763672,8.850000381469727,28.762500762939453
1751223256086135600,5.014135498046875,117.75000762939453,8.737500190734863,28.818750381469727
1751223256096135400,5.024135498046875,117.78750610351562,8.831250190734863,28.818750381469727
1751223256106135600,5.034135498046875,117.69375610351562,8.90625,28.968751907348633
1751223256116135400,5.044135498046875,117.78750610351562,9.131250381469727,29.287500381469727
1751223256126135600,5.054135498046875,117.6187515258789,9.24375057220459,29.400001525878906
1751223256136135400,5.064135498046875,117.35625457763672,9.1875,29.493751525878906
1751223256146135600,5.074135498046875,117.78750610351562,9.412500381469727,29.793750762939453
1751223256156135400,5.084135498046875,117.76875305175781,9.450000762939453,29.943750381469727
1751223256166135600,5.094135498046875,117.93750762939453,9.75,29.793750762939453
1751223256176135400,5.104135498046875,118.0875015258789,9.693750381469727,29.887500762939453
1751223256186135600,5.114135498046875,118.20000457763672,9.80625057220459,29.962501525878906
1751223256196135400,5.124135498046875,118.0875015258789,9.918750762939453,29.850000381469727
1751223256206135600,5.134135498046875,118.35000610351562,10.050000190734863,29.700000762939453
1751223256216135400,5.144135498046875,118.57500457763672,10.518750190734863,29.662500381469727
1751223256226135600,5.154135498046875,118.4625015258789,10.443750381469727,29.306251525878906
1751223256236135400,5.164135498046875,118.63125610351562,10.481250762939453,29.306251525878906
1751223256246135600,5.174135498046875,118.85625457763672,10.5,29.662500381469727
1751223256256135400,5.184135498046875,118.91250610351562,10.631250381469727,29.718751907348633
1751223256266135600,5.194135498046875,118.80000305175781,10.631250381469727,29.718751907348633
1751223256276135400,5.204135498046875,118.85625457763672,10.612500190734863,29.887500762939453
1751223256286135600,5.214135498046875,118.76250457763672,10.856250762939453,30.187501907348633
1751223256296135400,5.224135498046875,118.70625305175781,10.800000190734863,30.468751907348633
1751223256306135600,5.234135498046875,118.51875305175781,10.96875,30.806251525878906
1751223256316135400,5.244135498046875,118.31250762939453,11.100000381469727,30.975000381469727
1751223256326135600,5.254135498046875,118.25625610351562,11.137500762939453,30.825000762939453
1751223256336135400,5.264135498046875,118.16250610351562,11.30625057220459,30.806251525878906
1751223256346135600,5.274135498046875,118.03125762939453,11.418750762939453,31.068750381469727
1751223256356135400,5.284135498046875,118.0875015258789,11.381250381469727,30.993751525878906
1751223256366135600,5.294135498046875,117.97500610351562,11.11875057220459,31.275001525878906
1751223256376135400,5.304135498046875,118.20000457763672,11.231250762939453,31.33125114440918
1751223256386135600,5.314135498046875,118.1812515258789,11.362500190734863,31.500001907348633
1751223256396135400,5.324135498046875,118.21875762939453,11.475000381469727,31.406251907348633
1751223256406135600,5.334135498046875,118.12500762939453,11.625,31.70625114440918
1751223256416135400,5.344135498046875,118.1812515258789,11.68125057220459,31.89375114440918
1751223256426135600,5.354135498046875,118.31250762939453,11.71875,31.837501525878906
1751223256436135400,5.364135498046875,118.16250610351562,12.15000057220459,31.89375114440918
1751223256446135600,5.374135498046875,117.95625305175781,12.375000953674316,31.725000381469727
1751223256456135400,5.384135498046875,117.5250015258789,12.487500190734863,31.837501525878906
1751223256466135600,5.394135498046875,117.76875305175781,12.61875057220459,31.837501525878906
1751223256476135400,5.404135498046875,117.84375762939453,12.787500381469727,31.856250762939453
1751223256486135600,5.414135498046875,117.84375762939453,12.918750762939453,31.912500381469727
1751223256496135400,5.424135498046875,117.86250305175781,12.90000057220459,31.98750114440918
1751223256506135600,5.434135498046875,117.6187515258789,13.068750381469727,32.08125305175781
1751223256516135400,5.444135498046875,117.50625610351562,12.937500953674316,32.25
1751223256526135600,5.454135498046875,117.41250610351562,12.862500190734863,32.25
1751223256536135400,5.464135498046875,117.56250762939453,12.80625057220459,32.36250305175781
1751223256546135600,5.474135498046875,117.0562515258789,12.693750381469727,32.17500305175781
1751223256556135400,5.484135498046875,117.13125610351562,12.768750190734863,32.25
1751223256566135600,5.494135498046875,117.01875305175781,12.675000190734863,32.15625
1751223256576135400,5.504135498046875,117.1500015258789,12.656250953674316,32.17500305175781
1751223256586135600,5.514135498046875,117.41250610351562,12.543750762939453,32.08125305175781
1751223256596135400,5.524135498046875,117.41250610351562,12.656250953674316,32.23125076293945
1751223256606135600,5.534135498046875,117.69375610351562,12.881250381469727,32.28750228881836
1751223256616135400,5.544135498046875,117.86250305175781,12.99375057220459,32.38125228881836
1751223256626135600,5.554135498046875,118.0875015258789,13.162500381469727,32.493751525878906
1751223256636135400,5.564135498046875,117.93750762939453,13.050000190734863,32.56875228881836
1751223256646135600,5.574135498046875,118.16250610351562,13.27500057220459,32.83125305175781
1751223256656135400,5.584135498046875,117.84375762939453,13.481250762939453,32.85000228881836
1751223256666135600,5.594135498046875,117.75000762939453,13.687500953674316,33.09375
1751223256676135400,5.604135498046875,117.60000610351562,13.74375057220459,33.07500076293945
1751223256686135600,5.614135498046875,117.4312515258789,13.950000762939453,33.09375
1751223256696135400,5.624135498046875,117.18750762939453,14.137500762939453,32.98125076293945
1751223256706135600,5.634135498046875,117.1500015258789,14.418750762939453,33.07500076293945
1751223256716135400,5.644135498046875,117.09375762939453,14.718750953674316,33.20625305175781
1751223256726135600,5.654135498046875,117.11250305175781,14.643750190734863,33
1751223256736135400,5.664135498046875,116.98125457763672,14.96250057220459,33.11250305175781
1751223256746135600,5.674135498046875,117.01875305175781,15.131250381469727,33.431251525878906
1751223256756135400,5.684135498046875,117.16875457763672,15.450000762939453,33.65625
1751223256766135600,5.694135498046875,117.46875762939453,15.375000953674316,33.88125228881836
1751223256776135400,5.704135498046875,117.60000610351562,15.52500057220459,34.16250228881836
1751223256786135600,5.714135498046875,117.63750457763672,15.562500953674316,34.33125305175781
1751223256796135400,5.724135498046875,117.84375762939453,15.600000381469727,34.48125076293945
1751223256806135600,5.734135498046875,117.35625457763672,15.80625057220459,34.78125
1751223256816135400,5.744135498046875,117.63750457763672,15.750000953674316,34.875
1751223256826135600,5.754135498046875,117.67500305175781,15.881250381469727,34.89375305175781
1751223256836135400,5.764135498046875,117.69375610351562,15.881250381469727,35.00625228881836
1751223256846135600,5.774135498046875,117.58125305175781,16.293750762939453,35.25
1751223256856135400,5.784135498046875,117.31875610351562,16.23750114440918,35.118751525878906
1751223256866135600,5.794135498046875,117.28125762939453,16.350000381469727,35.13750076293945
1751223256876135400,5.804135498046875,117.20625305175781,16.5,35.0625
1751223256886135600,5.814135498046875,117.63750457763672,16.743751525878906,35.23125076293945
1751223256896135400,5.824135498046875,117.48750305175781,16.762500762939453,35.32500076293945
1751223256906135600,5.834135498046875,117.56250762939453,16.837501525878906,35.32500076293945
1751223256916135400,5.844135498046875,117.50625610351562,17.100000381469727,35.26875305175781
1751223256926135600,5.854135498046875,117.39375305175781,17.0625,35.212501525878906
1751223256936135400,5.864135498046875,117.75000762939453,17.381250381469727,35.53125
1751223256946135600,5.874135498046875,117.9000015258789,17.493751525878906,35.71875
1751223256956135400,5.884135498046875,117.82500457763672,17.64375114440918,36.11250305175781
1751223256966135600,5.894135498046875,117.46875762939453,17.73750114440918,36.31875228881836
1751223256976135400,5.904135498046875,117.28125762939453,18.075000762939453,36.525001525878906
1751223256986135600,5.914135498046875,117.13125610351562,18.318750381469727,36.525001525878906
1751223256996135400,5.924135498046875,117.09375762939453,18.412500381469727,36.67500305175781
1751223257006135600,5.934135498046875,117.13125610351562,18.693750381469727,36.75
1751223257016135400,5.944135498046875,116.79375457763672,18.806251525878906,36.9375
1751223257026135600,5.954135498046875,116.47500610351562,19.14375114440918,37.16250228881836
1751223257036135400,5.964135498046875,116.64375305175781,19.350000381469727,37.05000305175781
1751223257046135600,5.974135498046875,116.71875762939453,19.481250762939453,37.14375305175781
1751223257056135400,5.984135498046875,117.00000762939453,19.743751525878906,37.20000076293945
1751223257066135600,5.994135498046875,116.90625762939453,19.98750114440918,37.29375076293945
1751223257076135400,6.004135498046875,117.0562515258789,20.137500762939453,37.3125
1751223257086135600,6.014135498046875,116.88750457763672,20.306251525878906,37.63125228881836
1751223257096135400,6.024135498046875,117.07500457763672,20.53125,37.6875
1751223257106135600,6.034135498046875,117.5250015258789,20.625,37.78125
1751223257116135400,6.044135498046875,117.5250015258789,20.868751525878906,38.025001525878906
1751223257126135600,6.054135498046875,117.50625610351562,21.075000762939453,38.10000228881836
1751223257136135400,6.064135498046875,117.3375015258789,21.131250381469727,38.118751525878906
1751223257146135600,6.074135498046875,117.54375457763672,21.30000114440918,38.23125076293945
1751223257156135400,6.084135498046875,117.48750305175781,21.375,38.28750228881836
1751223257166135600,6.094135498046875,117.7125015258789,21.5625,38.17500305175781
1751223257176135400,6.104135498046875,117.60000610351562,21.787500381469727,38.306251525878906
1751223257186135600,6.114135498046875,117.30000305175781,21.84375,38.118751525878906
1751223257196135400,6.124135498046875,117.0562515258789,21.900001525878906,38.0625
1751223257206135600,6.134135498046875,117.09375762939453,22.087501525878906,38.025001525878906
1751223257216135400,6.144135498046875,117.16875457763672,22.387500762939453,38.25
1751223257226135600,6.154135498046875,117.0562515258789,22.556251525878906,38.36250305175781
1751223257236135400,6.164135498046875,117.11250305175781,22.89375114440918,38.45625305175781
1751223257246135600,6.174135498046875,116.85000610351562,23.08125114440918,38.587501525878906
1751223257256135400,6.184135498046875,116.71875762939453,23.25,38.41875076293945
1751223257266135600,6.194135498046875,116.7750015258789,23.568750381469727,38.625
1751223257276135400,6.204135498046875,116.92500305175781,23.887500762939453,38.75625228881836
1751223257286135600,6.214135498046875,116.88750457763672,24.20625114440918,38.66250228881836
1751223257296135400,6.224135498046875,116.81250762939453,24.431251525878906,38.64375305175781
1751223257306135600,6.234135498046875,116.55000305175781,24.48750114440918,38.775001525878906
1751223257316135400,6.244135498046875,116.19375610351562,24.843751907348633,38.88750076293945
1751223257326135600,6.254135498046875,116.53125762939453,25.012500762939453,38.98125076293945
1751223257336135400,6.264135498046875,116.83125305175781,25.200000762939453,39.09375
1751223257346135600,6.274135498046875,117.01875305175781,25.481250762939453,39.375
1751223257366135600,6.294135498046875,116.81250762939453,25.80000114440918,39.712501525878906
1751223257376135400,6.304135498046875,116.73750305175781,26.137500762939453,39.97500228881836
1751223257386135600,6.314135498046875,116.7750015258789,26.55000114440918,40.087501525878906
1751223257396135400,6.324135498046875,117.0562515258789,26.700000762939453,40.21875
1751223257406135600,6.334135498046875,116.83125305175781,26.981250762939453,40.3125
1751223257416135400,6.344135498046875,116.64375305175781,27.318750381469727,40.368751525878906
1751223257426135600,6.354135498046875,116.47500610351562,27.750001907348633,40.40625
1751223257436135400,6.364135498046875,116.62500762939453,28.14375114440918,40.33125305175781
1751223257446135600,6.374135498046875,116.81250762939453,28.481250762939453,40.556251525878906
1751223257456135400,6.384135498046875,117.00000762939453,28.875001907348633,40.59375
1751223257466135600,6.394135498046875,117.09375762939453,29.493751525878906,40.61250305175781
1751223257476135400,6.404135498046875,117.18750762939453,30.037500381469727,40.78125
1751223257486135600,6.414135498046875,117.28125762939453,30.656251907348633,41.15625
1751223257496135400,6.424135498046875,117.11250305175781,31.05000114440918,41.400001525878906
1751223257506135600,6.434135498046875,117.1500015258789,31.668750762939453,41.4375
1751223257516135400,6.444135498046875,117.39375305175781,32.493751525878906,41.71875
1751223257526135600,6.454135498046875,117.45000457763672,33.28125,41.94375228881836
1751223257536135400,6.464135498046875,117.48750305175781,33.86250305175781,42.01875305175781
1751223257546135600,6.474135498046875,117.50625610351562,34.5,42.22500228881836
1751223257556135400,6.484135498046875,117.41250610351562,35.23125076293945,42.35625076293945
1751223257566135600,6.494135498046875,117.69375610351562,36,42.375
1751223257576135400,6.504135498046875,117.9937515258789,36.91875076293945,42.30000305175781
1751223257586135600,6.514135498046875,118.2750015258789,37.33125305175781,42.50625228881836
1751223257596135400,6.524135498046875,118.06875610351562,37.80000305175781,42.60000228881836
1751223257606135600,6.534135498046875,117.93750762939453,38.118751525878906,42.39375305175781
1751223257616135400,6.544135498046875,117.9000015258789,38.56875228881836,42.35625076293945
1751223257626135600,6.554135498046875,118.10625457763672,38.625,42.375
1751223257636135400,6.564135498046875,118.31250762939453,38.79375076293945,42.1875
1751223257646135600,6.574135498046875,118.16250610351562,38.94375228881836,42.07500076293945
1751223257656135400,6.584135498046875,118.3687515258789,38.85000228881836,42.375
1751223257666135600,6.594135498046875,118.01250457763672,38.962501525878906,42.056251525878906
1751223257676135400,6.604135498046875,118.03125762939453,38.71875,41.71875
1751223257686135600,6.614135498046875,118.25625610351562,38.868751525878906,41.92500305175781
1751223257696135400,6.624135498046875,118.42500305175781,38.71875,41.8125
1751223257706135600,6.634135498046875,118.4625015258789,38.85000228881836,41.587501525878906
1751223257716135400,6.644135498046875,118.23750305175781,38.75625228881836,41.66250228881836
1751223257726135600,6.654135498046875,118.21875762939453,38.775001525878906,41.71875
1751223257736135400,6.664135498046875,117.88125610351562,38.83125305175781,41.681251525878906
1751223257746135600,6.674135498046875,117.93750762939453,38.85000228881836,41.73750305175781
1751223257756135400,6.684135498046875,117.88125610351562,39.09375,41.94375228881836
1751223257766135600,6.694135498046875,117.97500610351562,39.13125228881836,41.868751525878906
1751223257776135400,6.704135498046875,117.9000015258789,39.09375,42.150001525878906
1751223257786135600,6.714135498046875,117.86250305175781,38.94375228881836,42.30000305175781
1751223257796135400,6.724135498046875,117.9937515258789,39.22500228881836,42.41250228881836
1751223257806135600,6.734135498046875,117.76875305175781,39.16875076293945,42.46875
1751223257816135400,6.744135498046875,117.86250305175781,39.26250076293945,42.431251525878906
1751223257826135600,6.754135498046875,118.0875015258789,39.50625228881836,42.67500305175781
1751223257836135400,6.764135498046875,118.0875015258789,39.63750076293945,42.88125228881836
1751223257846135600,6.774135498046875,117.88125610351562,39.78750228881836,43.03125
1751223257856135400,6.784135498046875,117.93750762939453,40.16250228881836,42.91875076293945
1751223257866135600,6.794135498046875,117.8062515258789,40.650001525878906,42.95625305175781
1751223257876135400,6.804135498046875,117.73125457763672,40.72500228881836,42.712501525878906
1751223257886135600,6.814135498046875,118.23750305175781,40.98750305175781,42.5625
1751223257896135400,6.824135498046875,118.38750457763672,41.08125305175781,42.48750305175781
1751223257906135600,6.834135498046875,118.29375457763672,41.32500076293945,42.50625228881836
1751223257916135400,6.844135498046875,118.5562515258789,41.51250076293945,42.48750305175781
1751223257926135600,6.854135498046875,118.66875457763672,41.71875,42.60000228881836
1751223257936135400,6.864135498046875,118.61250305175781,41.94375228881836,42.60000228881836
1751223257946135600,6.874135498046875,118.87500762939453,41.94375228881836,42.5625
1751223257956135400,6.884135498046875,118.78125762939453,42.150001525878906,42.58125305175781
1751223257966135600,6.894135498046875,118.38750457763672,42.31875228881836,42.50625228881836
1751223257976135400,6.904135498046875,118.40625762939453,42.65625,42.525001525878906
1751223257986135600,6.914135498046875,118.57500457763672,42.67500305175781,42.30000305175781
1751223257996135400,6.924135498046875,118.5562515258789,42.806251525878906,41.98125076293945
1751223258006135600,6.934135498046875,118.5562515258789,43.01250076293945,41.90625
1751223258016135400,6.944135498046875,118.91250610351562,43.16250228881836,42.09375
1751223258026135600,6.954135498046875,118.70625305175781,43.21875,42.16875076293945
1751223258036135400,6.964135498046875,119.06250762939453,43.38750076293945,42.1875
1751223258046135600,6.974135498046875,119.17500305175781,43.5,42.09375
1751223258056135400,6.984135498046875,119.13750457763672,43.48125076293945,42.056251525878906
1751223258066135600,6.994135498046875,119.0250015258789,43.556251525878906,42.243751525878906
1751223258076135400,7.004135498046875,118.9312515258789,43.61250305175781,42.26250076293945
1751223258086135600,7.014135498046875,119.0250015258789,43.53750228881836,42.16875076293945
1751223258096135400,7.024135498046875,118.87500762939453,43.48125076293945,42.1875
1751223258106135600,7.034135498046875,118.6500015258789,43.743751525878906,42.056251525878906
1751223258116135400,7.044135498046875,118.68750762939453,43.70625305175781,42.1875
1751223258126135600,7.054135498046875,118.81875610351562,43.81875228881836,42.41250228881836
1751223258136135400,7.064135498046875,118.85625457763672,44.08125305175781,42.28125
1751223258146135600,7.074135498046875,118.98750305175781,44.53125,42.11250305175781
1751223258156135400,7.084135498046875,119.04375457763672,44.681251525878906,42.03750228881836
1751223258166135600,7.094135498046875,118.96875762939453,45.01875305175781,41.962501525878906
1751223258176135400,7.104135498046875,119.00625610351562,45.30000305175781,41.587501525878906
1751223258186135600,7.114135498046875,119.60625457763672,45.337501525878906,41.64375305175781
1751223258196135400,7.124135498046875,119.6812515258789,45.63750076293945,41.45625305175781
1751223258206135600,7.134135498046875,119.7750015258789,45.82500076293945,41.13750076293945
1751223258216135400,7.144135498046875,119.75625610351562,45.86250305175781,41.15625
1751223258226135600,7.154135498046875,119.6812515258789,45.78750228881836,41.15625
1751223258236135400,7.164135498046875,119.9625015258789,46.06875228881836,41.38125228881836
1751223258246135600,7.174135498046875,120.31875610351562,46.16250228881836,41.4375
1751223258256135400,7.184135498046875,120.37500762939453,46.38750076293945,41.587501525878906
1751223258266135600,7.194135498046875,120.2437515258789,46.66875076293945,41.47500228881836
1751223258276135400,7.204135498046875,120.31875610351562,46.85625076293945,41.64375305175781
1751223258286135600,7.214135498046875,120.26250457763672,47.10000228881836,41.85000228881836
1751223258296135400,7.224135498046875,120.30000305175781,47.4375,41.90625
1751223258306135600,7.234135498046875,120.54375457763672,47.64375305175781,42.01875305175781
1751223258316135400,7.244135498046875,120.50625610351562,47.625,41.83125305175781
1751223258326135600,7.254135498046875,120.1500015258789,47.75625228881836,41.75625228881836
1751223258336135400,7.264135498046875,120.16875457763672,47.92500305175781,41.70000076293945
1751223258346135600,7.274135498046875,119.98125457763672,48.20625305175781,41.83125305175781
1751223258356135400,7.284135498046875,119.94375610351562,48.337501525878906,41.66250228881836
1751223258366135600,7.294135498046875,120.07500457763672,48.468753814697266,41.625
1751223258376135400,7.304135498046875,119.94375610351562,48.63750076293945,41.775001525878906
1751223258386135600,7.314135498046875,119.79375457763672,48.86250305175781,41.64375305175781
1751223258396135400,7.324135498046875,119.6812515258789,49.01250076293945,41.71875
1751223258406135600,7.334135498046875,119.92500305175781,49.031253814697266,41.79375076293945
1751223258416135400,7.344135498046875,119.7750015258789,48.937503814697266,41.83125305175781
1751223258426135600,7.354135498046875,120.1500015258789,48.937503814697266,41.64375305175781
1751223258436135400,7.364135498046875,120.37500762939453,49.06875228881836,41.85000228881836
1751223258446135600,7.374135498046875,120.16875457763672,49.33125305175781,41.71875
1751223258456135400,7.384135498046875,120.58125305175781,49.462501525878906,41.53125
1751223258466135600,7.394135498046875,120.69375610351562,49.51875305175781,41.4375
1751223258476135400,7.404135498046875,120.7125015258789,49.81875228881836,41.38125228881836
1751223258486135600,7.414135498046875,120.86250305175781,50.23125076293945,41.36250305175781
1751223258496135400,7.424135498046875,120.9937515258789,50.56875228881836,41.26875305175781
1751223258506135600,7.434135498046875,120.97500610351562,50.92500305175781,41.212501525878906
1751223258516135400,7.444135498046875,120.9937515258789,51.13125228881836,41.0625
1751223258526135600,7.454135498046875,121.48125457763672,51.26250076293945,41.23125076293945
1751223258536135400,7.464135498046875,121.38750457763672,51.337501525878906,40.96875
1751223258546135600,7.474135498046875,121.50000762939453,51.48750305175781,40.98750305175781
1751223258556135400,7.484135498046875,121.7437515258789,51.656253814697266,40.91250228881836
1751223258566135600,7.494135498046875,121.40625762939453,51.806251525878906,40.81875228881836
1751223258576135400,7.504135498046875,121.50000762939453,51.993751525878906,40.875
1751223258586135600,7.514135498046875,121.40625762939453,52.05000305175781,41.10000228881836
1751223258596135400,7.524135498046875,121.20000457763672,52.06875228881836,41.025001525878906
1751223258606135600,7.534135498046875,121.03125762939453,52.14375305175781,40.875
1751223258616135400,7.544135498046875,121.2750015258789,52.312503814697266,41.13750076293945
1751223258626135600,7.554135498046875,121.12500762939453,52.42500305175781,41.34375
1751223258636135400,7.564135498046875,120.95625305175781,52.53750228881836,41.47500228881836
1751223258646135600,7.574135498046875,121.0875015258789,52.462501525878906,41.400001525878906
1751223258656135400,7.584135498046875,121.14375305175781,52.29375076293945,41.32500076293945
1751223258666135600,7.594135498046875,121.03125762939453,52.23750305175781,41.13750076293945
1751223258676135400,7.604135498046875,121.1812515258789,52.406253814697266,41.400001525878906
1751223258686135600,7.614135498046875,121.35000610351562,52.312503814697266,41.15625
1751223258696135400,7.624135498046875,121.25625610351562,52.23750305175781,41.23125076293945
1751223258706135600,7.634135498046875,121.61250305175781,52.275001525878906,40.80000305175781
1751223258716135400,7.644135498046875,121.63125610351562,52.48125076293945,40.6875
1751223258726135600,7.654135498046875,121.91250610351562,52.593753814697266,40.80000305175781
1751223258736135400,7.664135498046875,121.8375015258789,53.118751525878906,40.931251525878906
1751223258746135600,7.674135498046875,122.17500305175781,53.41875076293945,41.00625228881836
1751223258756135400,7.684135498046875,122.13750457763672,53.625003814697266,40.78125
1751223258766135600,7.694135498046875,122.28750610351562,53.73750305175781,40.875
1751223258776135400,7.704135498046875,122.3062515258789,54.13125228881836,40.59375
1751223258786135600,7.714135498046875,122.10000610351562,54.41250228881836,40.85625076293945
1751223258796135400,7.724135498046875,122.15625762939453,54.45000076293945,40.70625305175781
1751223258806135600,7.734135498046875,121.91250610351562,54.806251525878906,40.63125228881836
1751223258816135400,7.744135498046875,122.0250015258789,54.86250305175781,40.38750076293945
1751223258826135600,7.754135498046875,122.0250015258789,54.95625305175781,40.20000076293945
1751223258836135400,7.764135498046875,122.19375610351562,55.14375305175781,40.29375076293945
1751223258846135600,7.774135498046875,121.98750305175781,55.42500305175781,40.3125
1751223258856135400,7.784135498046875,121.98750305175781,55.51875305175781,40.38750076293945
1751223258866135600,7.794135498046875,121.98750305175781,55.51875305175781,40.33125305175781
1751223258876135400,7.804135498046875,122.26875305175781,55.593753814697266,40.23750305175781
1751223258886135600,7.814135498046875,122.41875457763672,55.593753814697266,40.087501525878906
1751223258896135400,7.824135498046875,122.51250457763672,55.66875076293945,40.16250228881836
1751223258906135600,7.834135498046875,122.64375305175781,55.72500228881836,40.16250228881836
1751223258916135400,7.844135498046875,122.53125762939453,55.743751525878906,40.01250076293945
1751223258926135600,7.854135498046875,122.81250762939453,55.743751525878906,39.9375
1751223258936135400,7.864135498046875,122.98125457763672,55.837501525878906,39.712501525878906
1751223258946135600,7.874135498046875,123.26250457763672,56.250003814697266,39.73125076293945
1751223258966135600,7.894135498046875,123.20625305175781,56.493751525878906,39.65625
1751223258976135400,7.904135498046875,123.39375305175781,56.64375305175781,39.58125305175781
1751223258986135600,7.914135498046875,123.07500457763672,56.775001525878906,39.48750305175781
1751223258996135400,7.924135498046875,123.20625305175781,56.718753814697266,39.41250228881836
1751223259006135600,7.934135498046875,123.2437515258789,56.962501525878906,39.60000228881836
1751223259016135400,7.944135498046875,123.22500610351562,57.093753814697266,39.900001525878906
1751223259026135600,7.954135498046875,123.09375762939453,57.056251525878906,39.65625
1751223259036135400,7.964135498046875,123.09375762939453,57.31875228881836,39.73125076293945
1751223259046135600,7.974135498046875,123.31875610351562,57.48750305175781,39.712501525878906
1751223259056135400,7.984135498046875,123.20625305175781,57.431251525878906,39.5625
1751223259066135600,7.994135498046875,123.4312515258789,57.45000076293945,39.60000228881836
1751223259076135400,8.004135498046875,123.58125305175781,57.58125305175781,39.30000305175781
1751223259086135600,8.014135498046874,123.20625305175781,57.712501525878906,39.11250305175781
1751223259096135400,8.024135498046874,123.30000305175781,57.76875305175781,39.056251525878906
1751223259106135600,8.034135498046876,123.54375457763672,57.54375076293945,38.94375228881836
1751223259116135400,8.044135498046876,123.7125015258789,57.58125305175781,38.8125
1751223259126135600,8.054135498046875,123.58125305175781,57.60000228881836,38.775001525878906
1751223259136135400,8.064135498046875,123.60000610351562,57.937503814697266,38.587501525878906
1751223259146135600,8.074135498046875,123.69375610351562,58.218753814697266,38.51250076293945
1751223259156135400,8.084135498046875,123.37500762939453,58.462501525878906,38.66250228881836
1751223259166135600,8.094135498046874,123.5250015258789,58.312503814697266,38.60625076293945
1751223259176135400,8.104135498046874,123.76875305175781,58.42500305175781,38.53125
1751223259186135600,8.114135498046876,123.63750457763672,58.781253814697266,38.45625305175781
1751223259196135400,8.124135498046876,123.5250015258789,58.931251525878906,38.26875305175781
1751223259206135600,8.134135498046875,123.86250305175781,59.04375076293945,38.15625
1751223259216135400,8.144135498046875,123.8062515258789,58.98750305175781,38.19375228881836
1751223259226135600,8.154135498046875,123.97500610351562,59.00625228881836,38.36250305175781
1751223259236135400,8.164135498046875,124.16250610351562,59.23125076293945,38.25
1751223259246135600,8.174135498046875,124.53750610351562,59.493751525878906,38.17500305175781
1751223259256135400,8.184135498046874,124.42500305175781,59.83125305175781,38.00625228881836
1751223259266135600,8.194135498046874,124.25625610351562,59.906253814697266,38.025001525878906
1751223259276135400,8.204135498046876,124.31250762939453,60.07500076293945,38.25
1751223259286135600,8.214135498046875,124.2750015258789,60.22500228881836,38.38125228881836
1751223259296135400,8.224135498046875,124.21875762939453,60.63750076293945,38.51250076293945
1751223259306135600,8.234135498046875,124.10625457763672,60.69375228881836,38.17500305175781
1751223259316135400,8.244135498046875,124.35000610351562,60.67500305175781,38.04375076293945
1751223259326135600,8.254135498046875,124.31250762939453,60.843753814697266,38.025001525878906
1751223259336135400,8.264135498046874,124.25625610351562,60.843753814697266,37.96875
1751223259346135600,8.274135498046874,124.6500015258789,61.087501525878906,38.00625228881836
1751223259356135400,8.284135498046876,124.72500610351562,61.05000305175781,37.85625076293945
1751223259366135600,8.294135498046876,124.9312515258789,60.937503814697266,37.72500228881836
1751223259376135400,8.304135498046875,125.26875305175781,60.806251525878906,37.5
1751223259386135600,8.314135498046875,125.25000762939453,60.900001525878906,37.40625
1751223259396135400,8.324135498046875,125.15625762939453,60.900001525878906,37.462501525878906
1751223259406135600,8.334135498046875,125.19375610351562,60.97500228881836,37.5
1751223259416135400,8.344135498046874,125.19375610351562,61.031253814697266,37.368751525878906
1751223259436135400,8.364135498046876,125.2125015258789,60.900001525878906,37.38750076293945
1751223259446135600,8.374135498046876,124.89375305175781,61.23750305175781,37.20000076293945
1751223259456135400,8.384135498046875,124.78125762939453,61.33125305175781,37.10625076293945
1751223259466135600,8.394135498046875,125.13750457763672,61.57500076293945,37.16250228881836
1751223259476135400,8.404135498046875,125.25000762939453,61.931251525878906,36.993751525878906
1751223259486135600,8.414135498046875,124.91250610351562,62.156253814697266,37.01250076293945
1751223259496135400,8.424135498046875,125.23125457763672,62.38125228881836,36.806251525878906
1751223259506135600,8.434135498046874,125.32500457763672,62.94375228881836,36.73125076293945
1751223259516135400,8.444135498046874,125.60625457763672,63.243751525878906,36.58125305175781
1751223259526135600,8.454135498046876,125.94375610351562,63.35625076293945,36.50625228881836
1751223259536135400,8.464135498046875,126.30000305175781,63.76875305175781,36.58125305175781
1751223259546135600,8.474135498046875,126.20625305175781,63.86250305175781,36.45000076293945
1751223259566135600,8.494135498046875,126.86250305175781,64.33125305175781,36.16875076293945
1751223259576135400,8.504135498046875,126.65625762939453,64.6500015258789,36.16875076293945
1751223259586135600,8.514135498046874,126.93750762939453,64.70625305175781,35.775001525878906
1751223259596135400,8.524135498046874,127.2750015258789,65.04375457763672,35.73750305175781
1751223259606135600,8.534135498046876,127.42500305175781,65.51250457763672,35.64375305175781
1751223259616135400,8.544135498046876,127.53750610351562,65.79375457763672,35.60625076293945
1751223259626135600,8.554135498046875,127.53750610351562,66.09375,35.55000305175781
1751223259636135400,8.564135498046875,127.89375305175781,66.41250610351562,35.34375
1751223259646135600,8.574135498046875,127.85625457763672,66.60000610351562,35.19375228881836
1751223259656135400,8.584135498046875,128.0812530517578,66.60000610351562,35.04375076293945
1751223259666135600,8.594135498046874,128.10000610351562,66.86250305175781,34.98750305175781
1751223259676135400,8.604135498046874,127.76250457763672,66.84375,34.63125228881836
1751223259686135600,8.614135498046876,127.6500015258789,66.84375,34.556251525878906
1751223259696135400,8.624135498046876,127.7437515258789,67.03125,34.35000228881836
1751223259706135600,8.634135498046875,128.13751220703125,67.42500305175781,34.125
1751223259716135400,8.644135498046875,128.1750030517578,67.76250457763672,34.10625076293945
1751223259726135600,8.654135498046875,128.40000915527344,68.00625610351562,34.087501525878906
1751223259736135400,8.664135498046875,128.51251220703125,68.28750610351562,34.01250076293945
1751223259746135600,8.674135498046875,128.51251220703125,68.56875610351562,33.95625305175781
1751223259756135400,8.684135498046874,128.71875,68.8125,34.14375305175781
1751223259766135600,8.694135498046874,128.88751220703125,68.9625015258789,33.900001525878906
1751223259776135400,8.704135498046876,128.70001220703125,69.16875457763672,33.69375228881836
1751223259786135600,8.714135498046875,128.77500915527344,69.39375305175781,33.69375228881836
1751223259796135400,8.724135498046875,128.79376220703125,69.41250610351562,33.45000076293945
1751223259806135600,8.734135498046875,128.70001220703125,69.5625,33.41250228881836
1751223259816135400,8.744135498046875,129.07501220703125,69.9000015258789,33.375
1751223259826135600,8.754135498046875,129.1125030517578,69.9937515258789,33.337501525878906
1751223259836135400,8.764135498046874,129.15000915527344,70.20000457763672,32.98125076293945
1751223259846135600,8.774135498046874,129.54376220703125,70.4625015258789,33.150001525878906
1751223259856135400,8.784135498046876,129.50625610351562,70.42500305175781,33.22500228881836
1751223259866135600,8.794135498046876,129.63751220703125,70.4625015258789,33.07500076293945
1751223259876135400,8.804135498046875,129.4875030517578,70.4625015258789,33.03750228881836
1751223259886135600,8.814135498046875,129.73126220703125,70.5,32.92500305175781
1751223259896135400,8.824135498046875,129.43125915527344,70.44375610351562,32.625
1751223259906135600,8.834135498046875,129.43125915527344,70.53750610351562,32.64375305175781
1751223259916135400,8.844135498046874,129.375,70.6875,32.70000076293945
1751223259926135600,8.854135498046874,129.1875,70.6500015258789,32.587501525878906
1751223259936135400,8.864135498046876,129.43125915527344,70.61250305175781,32.28750228881836
1751223259946135600,8.874135498046876,129.375,70.63125610351562,32.60625076293945
1751223259956135400,8.884135498046875,129.31875610351562,70.7437515258789,32.625
1751223259966135600,8.894135498046875,129.33750915527344,70.78125,32.36250305175781
1751223259976135400,8.904135498046875,129.28125,70.8375015258789,32.400001525878906
1751223259986135600,8.914135498046875,129.35626220703125,71.0250015258789,32.38125228881836
1751223259996135400,8.924135498046875,129.63751220703125,70.96875,32.10000228881836
1751223260006135600,8.934135498046874,129.7687530517578,71.04375457763672,31.931251525878906
1751223260016135400,8.944135498046874,130.0500030517578,71.32500457763672,31.80000114440918
1751223260026135600,8.954135498046876,130.3312530517578,71.4375,31.200000762939453
1751223260036135400,8.964135498046875,130.65000915527344,71.70000457763672,31.106250762939453
1751223260046135600,8.974135498046875,131.04376220703125,72.09375,31.068750381469727
1751223260056135400,8.984135498046875,131.10000610351562,72.35625457763672,30.975000381469727
1751223260066135600,8.994135498046875,131.30625915527344,72.5250015258789,30.750001907348633
1751223260076135400,9.004135498046875,131.4562530517578,72.95625305175781,30.900001525878906
1751223260086135600,9.014135498046874,131.66250610351562,73.40625,30.937501907348633
1751223260096135400,9.024135498046874,131.8312530517578,73.7437515258789,30.937501907348633
1751223260106135600,9.034135498046876,131.79376220703125,74.13750457763672,30.937501907348633
1751223260116135400,9.044135498046876,131.98126220703125,74.28750610351562,30.48750114440918
1751223260126135600,9.054135498046875,131.98126220703125,74.53125,30.356250762939453
1751223260136135400,9.064135498046875,132.4875030517578,74.7750015258789,30.243751525878906
1751223260146135600,9.074135498046875,133.10626220703125,75.1500015258789,29.793750762939453
1751223260156135400,9.084135498046875,133.2375030517578,75.5250015258789,29.625001907348633
1751223260166135600,9.094135498046874,133.4250030517578,75.73125457763672,29.250001907348633
1751223260176135400,9.104135498046874,133.48126220703125,75.97500610351562,28.875001907348633
1751223260186135600,9.114135498046876,133.59375,76.14375305175781,28.650001525878906
1751223260196135400,9.124135498046876,133.5187530517578,76.35000610351562,28.725000381469727
1751223260206135600,9.134135498046875,133.53750610351562,76.35000610351562,28.61250114440918
1751223260216135400,9.144135498046875,133.44375610351562,76.7437515258789,28.556251525878906
1751223260226135600,9.154135498046875,133.1437530517578,76.8375015258789,28.668750762939453
1751223260236135400,9.164135498046875,133.25625610351562,76.85625457763672,28.406251907348633
1751223260256135400,9.184135498046874,133.5187530517578,77.08125305175781,28.275001525878906
1751223260266135600,9.194135498046874,133.6125030517578,77.15625,28.031251907348633
1751223260276135400,9.204135498046876,134.13751220703125,77.38125610351562,27.750001907348633
1751223260286135600,9.214135498046875,134.71875,77.71875,27.243751525878906
1751223260296135400,9.224135498046875,135.0187530517578,77.73750305175781,26.83125114440918
1751223260306135600,9.234135498046875,135.22500610351562,77.85000610351562,26.512500762939453
1751223260316135400,9.244135498046875,135.31875610351562,78.11250305175781,25.968751907348633
1751223260326135600,9.254135498046875,135.41250610351562,78.35625457763672,26.08125114440918
1751223260336135400,9.264135498046874,135.4875030517578,78.69375610351562,25.70625114440918
1751223260346135600,9.274135498046874,135.69375610351562,78.88125610351562,25.668750762939453
1751223260356135400,9.284135498046876,135.5812530517578,79.05000305175781,25.256250381469727
1751223260366135600,9.294135498046876,135.3937530517578,79.0875015258789,25.181251525878906
1751223260376135400,9.304135498046875,135.63751220703125,79.14375305175781,24.843751907348633
1751223260386135600,9.314135498046875,135.8625030517578,79.35000610351562,24.637500762939453
1751223260396135400,9.324135498046875,136.20001220703125,79.29375457763672,24.693750381469727
1751223260406135600,9.334135498046875,136.44375610351562,79.29375457763672,24.150001525878906
1751223260416135400,9.344135498046874,136.29376220703125,79.44375610351562,23.793750762939453
1751223260426135600,9.354135498046874,136.44375610351562,79.57500457763672,23.475000381469727
1751223260436135400,9.364135498046876,136.53750610351562,79.96875,23.756250381469727
1751223260446135600,9.374135498046876,136.53750610351562,80.23125457763672,23.53125
1751223260456135400,9.384135498046875,136.3312530517578,80.47500610351562,23.493751525878906
1751223260466135600,9.394135498046875,136.10626220703125,80.73750305175781,23.493751525878906
1751223260476135400,9.404135498046875,136.25625610351562,80.75625610351562,23.287500381469727
1751223260486135600,9.414135498046875,136.44375610351562,80.94375610351562,23.193750381469727
1751223260496135400,9.424135498046875,136.7062530517578,80.79375457763672,23.17500114440918
1751223260506135600,9.434135498046874,136.53750610351562,80.8125,22.98750114440918
1751223260516135400,9.444135498046874,136.95001220703125,80.73750305175781,22.59375
1751223260526135600,9.454135498046876,136.83750915527344,80.8687515258789,22.5
1751223260536135400,9.464135498046875,137.25,81,22.293750762939453
1751223260546135600,9.474135498046875,137.49375915527344,81.16875457763672,22.03125
1751223260556135400,9.484135498046875,137.25,81.41250610351562,21.975000381469727
1751223260566135600,9.494135498046875,137.30625915527344,81.60000610351562,21.76875114440918
1751223260576135400,9.504135498046875,137.41876220703125,81.95625305175781,21.67500114440918
1751223260586135600,9.514135498046874,137.6437530517578,82.33125305175781,21.637500762939453
1751223260596135400,9.524135498046874,137.41876220703125,82.6500015258789,21.525001525878906
1751223260606135600,9.534135498046876,137.79376220703125,82.95000457763672,21.337501525878906
1751223260616135400,9.544135498046876,137.60626220703125,83.26875305175781,21.225000381469727
1751223260626135600,9.554135498046875,137.79376220703125,83.47500610351562,20.962501525878906
1751223260636135400,9.564135498046875,137.79376220703125,83.6812515258789,20.662500381469727
1751223260646135600,9.574135498046875,137.86875915527344,84.07500457763672,20.71875
1751223260656135400,9.584135498046875,138.15000915527344,84.375,20.475000381469727
1751223260666135600,9.594135498046874,138.28125,84.67500305175781,20.15625
1751223260676135400,9.604135498046874,138.3937530517578,84.73125457763672,19.837501525878906
1751223260686135600,9.614135498046876,138.46875,84.7125015258789,19.6875
1751223260696135400,9.624135498046876,138.84375,84.78750610351562,19.256250381469727
1751223260706135600,9.634135498046875,138.9375,84.95625305175781,19.03125
1751223260716135400,9.644135498046875,139.40625,85.06875610351562,18.787500381469727
1751223260726135600,9.654135498046875,139.6125030517578,84.86250305175781,18.337501525878906
1751223260736135400,9.664135498046875,139.63125610351562,84.84375,18.037500381469727
1751223260746135600,9.674135498046875,139.85626220703125,84.8062515258789,17.90625
1751223260756135400,9.684135498046874,140.32501220703125,84.82500457763672,17.90625
1751223260766135600,9.694135498046874,140.40000915527344,85.05000305175781,17.662500381469727
1751223260776135400,9.704135498046876,140.38125610351562,84.9937515258789,17.662500381469727
1751223260786135600,9.714135498046875,140.41876220703125,84.84375,17.53125
1751223260796135400,9.724135498046875,140.21250915527344,85.05000305175781,17.26875114440918
1751223260806135600,9.734135498046875,139.96875,85.29375457763672,17.400001525878906
1751223260816135400,9.744135498046875,139.95001220703125,85.29375457763672,17.287500381469727
1751223260826135600,9.754135498046875,140.04376220703125,85.3687515258789,17.118751525878906
1751223260836135400,9.764135498046874,139.9875030517578,85.57500457763672,16.912500381469727
1751223260846135600,9.774135498046874,140.13751220703125,85.6500015258789,16.856250762939453
1751223260856135400,9.784135498046876,140.38125610351562,85.98750305175781,16.575000762939453
1751223260866135600,9.794135498046876,140.4562530517578,86.36250305175781,16.443750381469727
1751223260876135400,9.804135498046875,140.68125915527344,86.4937515258789,16.275001525878906
1751223260886135600,9.814135498046875,140.86875915527344,86.7750015258789,16.012500762939453
1751223260896135400,9.824135498046875,141,87.11250305175781,15.581250190734863
1751223260906135600,9.834135498046875,140.98126220703125,87.375,15.281250953674316
1751223260916135400,9.844135498046874,140.96250915527344,87.375,14.737500190734863
1751223260926135600,9.854135498046874,141.1875,87.45000457763672,14.40000057220459
1751223260936135400,9.864135498046876,141.15000915527344,87.5625,14.081250190734863
1751223260946135600,9.874135498046876,141.24375915527344,87.63750457763672,13.65000057220459
1751223260956135400,9.884135498046875,141.65625,87.7125015258789,13.312500953674316
1751223260966135600,9.894135498046875,141.88125610351562,87.7125015258789,12.918750762939453
1751223260976135400,9.904135498046875,141.8625030517578,87.9000015258789,12.750000953674316
1751223260986135600,9.914135498046875,141.9562530517578,88.01250457763672,12.43125057220459
1751223260996135400,9.924135498046875,142.06875610351562,88.33125305175781,12.468750953674316
1751223261006135600,9.934135498046874,141.99375915527344,88.61250305175781,12.300000190734863
1751223261016135400,9.944135498046874,142.18125915527344,88.78125,12.187500953674316
1751223261026135600,9.954135498046876,142.4250030517578,88.96875,12.093750953674316
1751223261036135400,9.964135498046875,142.1437530517578,89.19375610351562,12.206250190734863
1751223261046135600,9.974135498046875,142.38751220703125,89.47500610351562,12.187500953674316
1751223261056135400,9.984135498046875,142.83750915527344,89.5875015258789,11.925000190734863
1751223261066135600,9.994135498046875,142.76251220703125,89.8125,11.643750190734863
1751223261076135400,10.004135498046875,142.95001220703125,89.94375610351562,11.418750762939453
1751223261086135600,10.014135498046874,143.10000610351562,90.03750610351562,11.193750381469727
1751223261096135400,10.024135498046874,143.13751220703125,90.11250305175781,11.100000381469727
1751223261106135600,10.034135498046876,143.25,90.22500610351562,10.6875
1751223261116135400,10.044135498046876,143.4562530517578,90.4312515258789,10.256250381469727
1751223261126135600,10.054135498046875,143.58750915527344,90.3375015258789,9.975000381469727
1751223261136135400,10.064135498046875,143.41876220703125,90.31875610351562,9.787500381469727
1751223261146135600,10.074135498046875,143.98126220703125,90.35625457763672,9.787500381469727
1751223261156135400,10.084135498046875,144.15000915527344,90.48750305175781,9.450000762939453
1751223261166135600,10.094135498046874,144.3000030517578,90.35625457763672,8.887500762939453
1751223261176135400,10.104135498046874,144.63751220703125,90.45000457763672,8.58750057220459
1751223261186135600,10.114135498046876,144.84375,90.39375305175781,8.53125
1751223261196135400,10.124135498046876,144.82501220703125,90.4312515258789,8.58750057220459
1751223261206135600,10.134135498046875,144.9562530517578,90.58125305175781,8.21250057220459
1751223261216135400,10.144135498046875,145.16250610351562,90.73125457763672,8.11875057220459
1751223261226135600,10.154135498046875,145.20001220703125,90.88125610351562,8.0625
1751223261236135400,10.164135498046875,144.99375915527344,90.9937515258789,7.987500190734863
1751223261246135600,10.174135498046875,145.10626220703125,91.25625610351562,8.193750381469727
1751223261256135400,10.184135498046874,144.84375,91.38750457763672,7.875000476837158
1751223261266135600,10.194135498046874,144.78750610351562,91.57500457763672,7.668750286102295
1751223261276135400,10.204135498046876,145.125,91.48125457763672,7.218750476837158
1751223261286135600,10.214135498046875,145.08750915527344,91.53750610351562,6.975000381469727
1751223261296135400,10.224135498046875,145.03125,91.61250305175781,6.675000190734863
1751223261306135600,10.234135498046875,144.9375,91.72500610351562,6.393750190734863
1751223261316135400,10.244135498046875,145.08750915527344,91.85625457763672,6.187500476837158
1751223261326135600,10.254135498046875,145.21875,91.98750305175781,5.831250190734863
1751223261336135400,10.264135498046874,145.2375030517578,92.15625,5.681250095367432
1751223261346135600,10.274135498046874,145.40625,92.34375,5.381250381469727
1751223261356135400,10.284135498046876,145.38751220703125,92.4937515258789,5.212500095367432
1751223261366135600,10.294135498046876,145.5187530517578,92.8125,4.837500095367432
1751223261376135400,10.304135498046875,145.72500610351562,92.98125457763672,4.481250286102295
1751223261386135600,10.314135498046875,145.81875610351562,93.01875305175781,4.162500381469727
1751223261396135400,10.324135498046875,146.1750030517578,93.0562515258789,3.4875001907348633
1751223261406135600,10.334135498046875,146.30625915527344,93.22500610351562,3.075000047683716
1751223261416135400,10.344135498046874,146.70001220703125,93.26250457763672,2.71875
1751223261426135600,10.354135498046874,146.75625610351562,93.5625,2.2875001430511475
1751223261436135400,10.364135498046876,146.96250915527344,93.84375,1.8375000953674316
1751223261446135600,10.374135498046876,147.03750610351562,93.82500457763672,1.5562500953674316
1751223261456135400,10.384135498046875,147.22500610351562,94.16250610351562,1.1437500715255737
1751223261466135600,10.394135498046875,147.60000610351562,94.3687515258789,0.65625
1751223261476135400,10.404135498046875,147.50625610351562,94.4625015258789,0.1875
1751223261486135600,10.414135498046875,147.65625,94.4625015258789,-0.24375000596046448
1751223261496135400,10.424135498046875,147.5812530517578,94.59375,-0.768750011920929
1751223261506135600,10.434135498046874,147.8625030517578,94.42500305175781,-1.03125
1751223261516135400,10.444135498046874,147.90000915527344,94.57500457763672,-1.4250000715255737
1751223261526135600,10.454135498046876,148.03125,94.7437515258789,-1.725000023841858
1751223261536135400,10.464135498046875,148.06875610351562,94.57500457763672,-2.137500047683716
1751223261546135600,10.474135498046875,147.9562530517578,94.44375610351562,-2.5875000953674316
1751223261556135400,10.484135498046875,147.91876220703125,94.5,-2.53125
1751223261566135600,10.494135498046875,148.08750915527344,94.59375,-2.9437501430511475
1751223261576135400,10.504135498046875,148.53750610351562,94.5,-2.9625000953674316
1751223261586135600,10.514135498046874,148.16250610351562,94.63125610351562,-3.1500000953674316
1751223261596135400,10.524135498046874,148.3312530517578,94.5562515258789,-3.3375000953674316
1751223261606135600,10.534135498046876,148.44375610351562,94.66875457763672,-3.6000001430511475
1751223261616135400,10.544135498046876,148.44375610351562,94.61250305175781,-3.6937501430511475
1751223261626135600,10.554135498046875,148.63125610351562,94.7437515258789,-3.937500238418579
1751223261636135400,10.564135498046875,148.93125915527344,94.85625457763672,-4.3125
1751223261646135600,10.574135498046875,148.78125,94.98750305175781,-4.143750190734863
1751223261656135400,10.584135498046875,148.53750610351562,95.15625,-4.293750286102295
1751223261666135600,10.594135498046874,148.7062530517578,95.2125015258789,-4.256250381469727
1751223261676135400,10.604135498046874,148.57501220703125,95.25,-4.143750190734863
1751223261686135600,10.614135498046876,148.7062530517578,95.34375,-4.3125
1751223261696135400,10.624135498046876,149.00625610351562,95.79375457763672,-4.293750286102295
1751223261706135600,10.634135498046875,148.95001220703125,95.85000610351562,-4.387500286102295
1751223261716135400,10.644135498046875,148.8937530517578,95.85000610351562,-4.425000190734863
1751223261726135600,10.654135498046875,149.25,95.79375457763672,-4.556250095367432
1751223261736135400,10.664135498046875,149.58750915527344,95.83125305175781,-4.725000381469727
1751223261746135600,10.674135498046875,149.58750915527344,95.73750305175781,-5.100000381469727
1751223261756135400,10.684135498046874,149.77500915527344,95.8687515258789,-5.325000286102295
1751223261766135600,10.694135498046874,149.70001220703125,95.60625457763672,-5.306250095367432
1751223261776135400,10.704135498046876,149.38125610351562,95.4000015258789,-5.568750381469727
1751223261786135600,10.714135498046875,149.49375915527344,95.4375,-5.737500190734863
1751223261796135400,10.724135498046875,149.7375030517578,95.4000015258789,-6.150000095367432
1751223261806135600,10.734135498046875,149.51251220703125,95.64375305175781,-6.281250476837158
1751223261816135400,10.744135498046875,149.41876220703125,95.75625610351562,-6.675000190734863
1751223261826135600,10.754135498046875,149.85000610351562,95.8125,-7.031250476837158
1751223261836135400,10.764135498046874,150.13125610351562,95.8125,-7.331250190734863
1751223261846135600,10.774135498046874,150.07501220703125,95.94375610351562,-7.650000095367432
1751223261856135400,10.784135498046876,150.3000030517578,95.90625,-7.837500095367432
1751223261866135600,10.794135498046876,150.15000915527344,96.03750610351562,-8.02500057220459
1751223261876135400,10.804135498046875,149.98126220703125,96.20625305175781,-7.912500381469727
1751223261886135600,10.814135498046875,149.8125,96.0562515258789,-8.475000381469727
1751223261896135400,10.824135498046875,149.98126220703125,96,-8.737500190734863
1751223261906135600,10.834135498046875,149.77500915527344,96.22500610351562,-8.756250381469727
1751223261916135400,10.844135498046874,149.66250610351562,96.11250305175781,-9.112500190734863
1751223261926135600,10.854135498046874,149.71875,96.18750762939453,-9.262500762939453
1751223261936135400,10.864135498046876,149.77500915527344,96.39375305175781,-9.637500762939453
1751223261946135600,10.874135498046876,150.15000915527344,96.09375762939453,-10.012500762939453
1751223261956135400,10.884135498046875,150.50625610351562,96.01875305175781,-10.36875057220459
1751223261966135600,10.894135498046875,150.99375915527344,96.11250305175781,-10.6875
1751223261976135400,10.904135498046875,151.01251220703125,96.31875610351562,-10.83750057220459
1751223261986135600,10.914135498046875,151.20001220703125,96.39375305175781,-11.0625
1751223261996135400,10.924135498046875,151.36875915527344,96.46875762939453,-11.71875
1751223262006135600,10.934135498046874,151.66876220703125,96.56250762939453,-12.225000381469727
1751223262016135400,10.944135498046874,152.02500915527344,96.4312515258789,-12.61875057220459
1751223262026135600,10.954135498046876,152.0812530517578,96.7125015258789,-12.862500190734863
1751223262036135400,10.964135498046875,152.0625,96.78750610351562,-13.162500381469727
1751223262046135600,10.974135498046875,152.10000610351562,96.9000015258789,-13.387500762939453
1751223262056135400,10.984135498046875,152.25,96.75000762939453,-13.912500381469727
1751223262066135600,10.994135498046875,152.66250610351562,96.5250015258789,-14.568750381469727
1751223262076135400,11.004135498046875,152.75625610351562,96.50625610351562,-14.86875057220459
1751223262086135600,11.014135498046874,152.5500030517578,96.46875762939453,-15.15000057220459
1751223262096135400,11.024135498046874,152.4562530517578,96.45000457763672,-15.33750057220459
1751223262106135600,11.034135498046876,152.625,96.45000457763672,-15.881250381469727
1751223262116135400,11.044135498046876,152.79376220703125,96.37500762939453,-16.387500762939453
1751223262126135600,11.054135498046875,152.77500915527344,96.35625457763672,-16.668750762939453
1751223262136135400,11.064135498046875,153.09375,96.31875610351562,-16.856250762939453
1751223262146135600,11.074135498046875,152.94375610351562,96.54375457763672,-17.08125114440918
1751223262156135400,11.084135498046875,153.03750610351562,96.56250762939453,-17.325000762939453
1751223262166135600,11.094135498046874,153.45001220703125,96.54375457763672,-17.90625
1751223262176135400,11.104135498046874,153.52500915527344,96.7125015258789,-18.168750762939453
1751223262186135600,11.114135498046876,153.4875030517578,96.65625762939453,-18.30000114440918
1751223262196135400,11.124135498046876,153.75,96.78750610351562,-18.693750381469727
1751223262206135600,11.134135498046875,153.88125610351562,96.8062515258789,-19.012500762939453
1751223262216135400,11.144135498046875,153.5812530517578,96.86250305175781,-19.275001525878906
1751223262226135600,11.154135498046875,153.63751220703125,96.75000762939453,-19.462501525878906
1751223262236135400,11.164135498046875,153.69375610351562,96.93750762939453,-19.368751525878906
1751223262246135600,11.174135498046875,153.5625,97.10625457763672,-19.368751525878906
1751223262256135400,11.184135498046874,153.65625,97.10625457763672,-19.856250762939453
1751223262266135600,11.194135498046874,153.7687530517578,97.25625610351562,-20.325000762939453
1751223262276135400,11.204135498046876,153.60000610351562,97.10625457763672,-20.512500762939453
1751223262286135600,11.214135498046875,153.46875,96.91875457763672,-21.075000762939453
1751223262296135400,11.224135498046875,153.61875915527344,96.95625305175781,-21.450000762939453
1751223262306135600,11.234135498046875,153.9375,96.86250305175781,-21.9375
1751223262316135400,11.244135498046875,154.08750915527344,96.50625610351562,-22.59375
1751223262326135600,11.254135498046875,154.5,96.31875610351562,-22.818750381469727
1751223262336135400,11.264135498046874,154.57501220703125,96.07500457763672,-23.08125114440918
1751223262346135600,11.274135498046874,154.72500610351562,95.92500305175781,-23.325000762939453
1751223262356135400,11.284135498046876,155.04376220703125,95.88750457763672,-23.775001525878906
1751223262366135600,11.294135498046876,155.49375915527344,95.8125,-23.943750381469727
1751223262376135400,11.304135498046875,155.34375,95.66250610351562,-24.39375114440918
1751223262386135600,11.314135498046875,154.83750915527344,95.64375305175781,-24.693750381469727
1751223262396135400,11.324135498046875,154.63125610351562,95.92500305175781,-25.031251907348633
1751223262406135600,11.334135498046875,154.40625,95.88750457763672,-25.42500114440918
1751223262416135400,11.344135498046874,154.5187530517578,96.0562515258789,-25.837501525878906
1751223262426135600,11.354135498046874,154.44375610351562,96.0562515258789,-25.912500381469727
1751223262436135400,11.364135498046876,154.1437530517578,96.2437515258789,-25.762500762939453
1751223262446135600,11.374135498046876,153.90000915527344,96.35625457763672,-25.98750114440918
1751223262456135400,11.384135498046875,154.25625610351562,96.2437515258789,-25.856250762939453
1751223262466135600,11.394135498046875,154.38751220703125,96.35625457763672,-25.912500381469727
1751223262476135400,11.404135498046875,154.40625,96.37500762939453,-25.89375114440918
1751223262486135600,11.414135498046875,154.38751220703125,96.31875610351562,-26.006250381469727
1751223262496135400,11.424135498046875,154.25625610351562,96.22500610351562,-26.043750762939453
1751223262506135600,11.434135498046874,154.16250610351562,96.2437515258789,-26.118751525878906
1751223262516135400,11.444135498046874,154.29376220703125,95.9625015258789,-26.568750381469727
1751223262526135600,11.454135498046876,154.35000610351562,95.6812515258789,-26.793750762939453
1751223262536135400,11.464135498046875,154.40625,95.8125,-27.000001907348633
1751223262546135600,11.474135498046875,154.4250030517578,95.7750015258789,-27.225000381469727
1751223262556135400,11.484135498046875,154.55625915527344,95.70000457763672,-27.39375114440918
1751223262566135600,11.494135498046875,154.81875610351562,95.60625457763672,-27.67500114440918
1751223262576135400,11.504135498046875,154.81875610351562,95.5875015258789,-27.76875114440918
1751223262586135600,11.514135498046874,155.10000610351562,95.45625305175781,-28.087501525878906
1751223262596135400,11.524135498046874,154.9875030517578,95.53125,-28.350000381469727
1751223262606135600,11.534135498046876,155.23126220703125,95.85000610351562,-28.575000762939453
1751223262616135400,11.544135498046876,155.1750030517578,95.85000610351562,-28.950000762939453
1751223262626135600,11.554135498046875,155.40000915527344,95.73750305175781,-29.025001525878906
1751223262636135400,11.564135498046875,155.2687530517578,95.6812515258789,-29.325000762939453
1751223262646135600,11.574135498046875,155.15625,95.6812515258789,-29.493751525878906
1751223262656135400,11.584135498046875,155.38125610351562,95.70000457763672,-29.756250381469727
1751223262666135600,11.594135498046874,155.1750030517578,95.60625457763672,-30.037500381469727
1751223262676135400,11.604135498046874,155.51251220703125,95.625,-30.01875114440918
1751223262686135600,11.614135498046876,155.75625610351562,95.47500610351562,-30.01875114440918
1751223262696135400,11.624135498046876,155.77500915527344,95.34375,-30.318750381469727
1751223262706135600,11.634135498046875,155.7375030517578,95.4937515258789,-30.58125114440918
1751223262716135400,11.644135498046875,156.09375,95.34375,-30.693750381469727
1751223262726135600,11.654135498046875,156.35626220703125,95.4375,-30.975000381469727
1751223262736135400,11.664135498046875,156.50625610351562,95.38125610351562,-30.975000381469727
1751223262746135600,11.674135498046875,156.75,95.4000015258789,-31.181251525878906
1751223262756135400,11.684135498046874,156.61875915527344,95.53125,-31.368751525878906
1751223262766135600,11.694135498046874,156.43125915527344,95.41875457763672,-31.593751907348633
1751223262776135400,11.704135498046876,156.46875,95.47500610351562,-31.593751907348633
1751223262786135600,11.714135498046875,156.5812530517578,95.25,-31.818750381469727
1751223262796135400,11.724135498046875,156.43125915527344,95.0625,-32.0625
1751223262806135600,11.734135498046875,156.45001220703125,95.04375457763672,-32.25
1751223262816135400,11.744135498046875,156.2062530517578,94.91250610351562,-32.56875228881836
1751223262826135600,11.754135498046875,156.3000030517578,94.9312515258789,-32.493751525878906
1751223262836135400,11.764135498046874,156.3000030517578,94.66875457763672,-32.98125076293945
1751223262846135600,11.774135498046874,156.61875915527344,94.48125457763672,-33.525001525878906
1751223262856135400,11.784135498046876,156.5812530517578,94.38750457763672,-33.712501525878906
1751223262866135600,11.794135498046876,156.69375610351562,94.33125305175781,-33.993751525878906
1751223262876135400,11.804135498046875,156.52500915527344,94.51875305175781,-34.3125
1751223262886135600,11.814135498046875,156.43125915527344,94.4625015258789,-34.57500076293945
1751223262896135400,11.824135498046875,156.65625,94.38750457763672,-35.025001525878906
1751223262906135600,11.834135498046875,156.90000915527344,94.29375457763672,-35.41875076293945
1751223262916135400,11.844135498046874,157.03125,94.3125,-35.4375
1751223262926135600,11.854135498046874,156.73126220703125,94.29375457763672,-35.36250305175781
1751223262936135400,11.864135498046876,156.75,94.25625610351562,-35.53125
1751223262946135600,11.874135498046876,156.4875030517578,94.21875,-35.71875
1751223262956135400,11.884135498046875,156.71250915527344,94.16250610351562,-35.51250076293945
1751223262966135600,11.894135498046875,156.41250610351562,94.125,-35.493751525878906
1751223262976135400,11.904135498046875,156.375,94.21875,-35.26875305175781
1751223262986135600,11.914135498046875,156.26251220703125,94.3687515258789,-35.26875305175781
1751223262996135400,11.924135498046875,156.07501220703125,94.25625610351562,-35.25
1751223263006135600,11.934135498046874,155.94375610351562,94.40625,-35.212501525878906
1751223263016135400,11.944135498046874,156.09375,94.33125305175781,-35.212501525878906
1751223263026135600,11.954135498046876,156.15000915527344,94.25625610351562,-35.10000228881836
1751223263036135400,11.964135498046875,156.1125030517578,94.29375457763672,-35.13750076293945
1751223263046135600,11.974135498046875,156.28125,94.3687515258789,-35.025001525878906
1751223263056135400,11.984135498046875,156.33750915527344,94.05000305175781,-35.19375228881836
1751223263066135600,11.994135498046875,156.16876220703125,93.91875457763672,-35.08125305175781
1751223263076135400,12.004135498046875,156.28125,94.0875015258789,-34.96875
1751223263086135600,12.014135498046874,156.26251220703125,93.9375,-34.85625076293945
1751223263096135400,12.024135498046874,156.1125030517578,93.9000015258789,-34.931251525878906
1751223263106135600,12.034135498046876,156.28125,93.9375,-34.931251525878906
1751223263116135400,12.044135498046876,156.41250610351562,93.8062515258789,-35.15625
1751223263126135600,12.054135498046875,156.45001220703125,93.86250305175781,-35.28750228881836
1751223263136135400,12.064135498046875,156.45001220703125,93.97500610351562,-35.00625228881836
1751223263146135600,12.074135498046875,156.31875610351562,93.97500610351562,-35.17500305175781
1751223263156135400,12.084135498046875,156.41250610351562,93.82500457763672,-35.25
1751223263166135600,12.094135498046874,156.43125915527344,93.88125610351562,-35.36250305175781
1751223263176135400,12.104135498046874,156.3937530517578,94.05000305175781,-35.25
1751223263186135600,12.114135498046876,156.2062530517578,94.33125305175781,-35.04375076293945
1751223263196135400,12.124135498046876,156.2062530517578,94.5,-34.875
1751223263206135600,12.134135498046875,156.35626220703125,94.3687515258789,-34.89375305175781
1751223263216135400,12.144135498046875,156.31875610351562,94.59375,-35.04375076293945
1751223263226135600,12.154135498046875,156.54376220703125,94.53750610351562,-35.13750076293945
1751223263236135400,12.164135498046875,156.5812530517578,94.5562515258789,-35.17500305175781
1751223263246135600,12.174135498046875,156.73126220703125,94.72500610351562,-35.17500305175781
1751223263256135400,12.184135498046874,156.80625915527344,94.61250305175781,-35.118751525878906
1751223263266135600,12.194135498046874,156.75,94.33125305175781,-35.26875305175781
1751223263276135400,12.204135498046876,156.84375,94.33125305175781,-35.34375
1751223263286135600,12.214135498046875,156.78750610351562,94.21875,-35.34375
1751223263296135400,12.224135498046875,156.52500915527344,94.06875610351562,-35.45625305175781
1751223263306135600,12.234135498046875,156.3000030517578,94.14375305175781,-35.32500076293945
1751223263316135400,12.244135498046875,156.1125030517578,94.0875015258789,-35.32500076293945
1751223263326135600,12.254135498046875,156.15000915527344,94.05000305175781,-35.118751525878906
1751223263336135400,12.264135498046874,156.1125030517578,94.05000305175781,-35.118751525878906
1751223263346135600,12.274135498046874,156.35626220703125,94.06875610351562,-35.19375228881836
1751223263356135400,12.284135498046876,156.05625915527344,93.9937515258789,-35.025001525878906
1751223263366135600,12.294135498046876,155.98126220703125,94.25625610351562,-34.95000076293945
1751223263376135400,12.304135498046875,156.09375,94.3125,-35.04375076293945
1751223263386135600,12.314135498046875,156.22500610351562,94.29375457763672,-35.08125305175781
1751223263396135400,12.324135498046875,156.26251220703125,94.42500305175781,-35.17500305175781
1751223263406135600,12.334135498046875,156.41250610351562,94.42500305175781,-35.34375
1751223263416135400,12.344135498046874,156.5812530517578,94.5562515258789,-35.75625228881836
1751223263426135600,12.354135498046874,156.6750030517578,94.5562515258789,-35.83125305175781
1751223263436135400,12.364135498046876,156.8625030517578,94.66875457763672,-36.01875305175781
1751223263446135600,12.374135498046876,156.9375,94.59375,-35.92500305175781
1751223263456135400,12.384135498046875,157.03125,94.6500015258789,-35.775001525878906
1751223263466135600,12.394135498046875,157.01251220703125,94.7437515258789,-35.868751525878906
1751223263476135400,12.404135498046875,157.0500030517578,94.6500015258789,-35.75625228881836
1751223263486135600,12.414135498046875,156.90000915527344,94.66875457763672,-35.55000305175781
1751223263496135400,12.424135498046875,156.69375610351562,94.70625305175781,-35.10000228881836
1751223263506135600,12.434135498046874,156.5812530517578,94.72500610351562,-35.04375076293945
1751223263516135400,12.444135498046874,156.71250915527344,94.59375,-34.91250228881836
1751223263526135600,12.454135498046876,156.82501220703125,94.44375610351562,-34.91250228881836
1751223263536135400,12.464135498046875,156.69375610351562,94.3687515258789,-35.025001525878906
1751223263546135600,12.474135498046875,156.8625030517578,94.4625015258789,-34.72500228881836
1751223263556135400,12.484135498046875,156.9375,94.5562515258789,-34.66875076293945
1751223263566135600,12.494135498046875,156.78750610351562,94.59375,-34.931251525878906
1751223263576135400,12.504135498046875,156.84375,94.53750610351562,-35.025001525878906
1751223263586135600,12.514135498046874,156.91876220703125,94.63125610351562,-35.10000228881836
1751223263596135400,12.524135498046874,157.08750915527344,94.6875,-35.32500076293945
1751223263606135600,12.534135498046876,157.06875610351562,94.81875610351562,-35.493751525878906
1751223263616135400,12.544135498046876,157.10626220703125,94.9312515258789,-35.28750228881836
1751223263626135600,12.554135498046875,156.9562530517578,94.81875610351562,-35.47500228881836
1751223263636135400,12.564135498046875,156.71250915527344,94.72500610351562,-35.41875076293945
1751223263646135600,12.574135498046875,156.6750030517578,94.66875457763672,-35.53125
1751223263656135400,12.584135498046875,156.6750030517578,94.6500015258789,-35.55000305175781
1751223263666135600,12.594135498046874,156.5812530517578,94.4625015258789,-35.60625076293945
1751223263676135400,12.604135498046874,156.09375,94.3125,-35.53125
1751223263686135600,12.614135498046876,155.98126220703125,94.44375610351562,-35.45625305175781
1751223263696135400,12.624135498046876,156.05625915527344,94.23750305175781,-35.587501525878906
1751223263706135600,12.634135498046875,155.96250915527344,94.3687515258789,-35.64375305175781
1751223263716135400,12.644135498046875,156.13125610351562,94.29375457763672,-35.868751525878906
1751223263726135600,12.654135498046875,156.35626220703125,94.125,-35.70000076293945
1751223263736135400,12.664135498046875,156.45001220703125,94.21875,-35.79375076293945
1751223263746135600,12.674135498046875,156.31875610351562,94.21875,-35.90625
1751223263756135400,12.684135498046874,156.3000030517578,94.4625015258789,-35.90625
1751223263766135600,12.694135498046874,156.375,94.33125305175781,-35.962501525878906
1751223263776135400,12.704135498046876,156.43125915527344,94.53750610351562,-35.85000228881836
1751223263786135600,12.714135498046875,156.71250915527344,94.20000457763672,-35.85000228881836
1751223263796135400,12.724135498046875,156.71250915527344,94.2750015258789,-35.92500305175781
1751223263806135600,12.734135498046875,156.61875915527344,94.48125457763672,-35.94375228881836
1751223263816135400,12.744135498046875,156.2062530517578,94.44375610351562,-35.868751525878906
1751223263826135600,12.754135498046875,156.33750915527344,94.48125457763672,-35.64375305175781
1751223263836135400,12.764135498046874,156.5812530517578,94.53750610351562,-35.55000305175781
1751223263846135600,12.774135498046874,156.52500915527344,94.4625015258789,-35.56875228881836
1751223263856135400,12.784135498046876,156.52500915527344,94.23750305175781,-35.73750305175781
1751223263866135600,12.794135498046876,156.13125610351562,94.35000610351562,-35.625
1751223263876135400,12.804135498046875,156.26251220703125,94.33125305175781,-35.38125228881836
1751223263886135600,12.814135498046875,156.45001220703125,94.29375457763672,-35.26875305175781
1751223263896135400,12.824135498046875,156.88125610351562,94.3125,-35.36250305175781
1751223263906135600,12.834135498046875,156.54376220703125,94.21875,-35.493751525878906
1751223263916135400,12.844135498046874,156.43125915527344,94.06875610351562,-35.70000076293945
1751223263926135600,12.854135498046874,156.4875030517578,94.14375305175781,-35.71875
1751223263936135400,12.864135498046876,156.28125,94.48125457763672,-35.60625076293945
1751223263946135600,12.874135498046876,156.2062530517578,94.53750610351562,-35.66250228881836
1751223263956135400,12.884135498046875,155.75625610351562,94.7437515258789,-35.88750076293945
1751223263966135600,12.894135498046875,155.56875610351562,94.61250305175781,-36.150001525878906
1751223263976135400,12.904135498046875,155.49375915527344,94.6500015258789,-36.22500228881836
1751223263986135600,12.914135498046875,156.05625915527344,94.63125610351562,-36.13125228881836
1751223263996135400,12.924135498046875,155.9250030517578,94.35000610351562,-36.243751525878906
1751223264006135600,12.934135498046874,155.79376220703125,94.38750457763672,-36.13125228881836
1751223264016135400,12.944135498046874,155.88751220703125,94.125,-36.41250228881836
1751223264026135600,12.954135498046876,156.13125610351562,94.06875610351562,-36.618751525878906
1751223264036135400,12.964135498046875,156.52500915527344,93.8062515258789,-36.78750228881836
1751223264046135600,12.974135498046875,156.46875,93.6187515258789,-37.125
1751223264056135400,12.984135498046875,156.41250610351562,93.375,-37.44375228881836
1751223264066135600,12.994135498046875,156.07501220703125,93.41250610351562,-37.743751525878906
1751223264076135400,13.004135498046875,156.1125030517578,93.35625457763672,-38.212501525878906
1751223264086135600,13.014135498046874,156.2062530517578,92.94375610351562,-39
1751223264096135400,13.024135498046874,156.31875610351562,92.66250610351562,-39.58125305175781
1751223264106135600,13.034135498046876,156.54376220703125,92.28750610351562,-40.44375228881836
1751223264116135400,13.044135498046876,156.60000610351562,92.0625,-41.15625
1751223264126135600,13.054135498046875,156.90000915527344,91.8375015258789,-41.75625228881836
1751223264136135400,13.064135498046875,157.06875610351562,91.35000610351562,-42.58125305175781
1751223264146135600,13.074135498046875,157.4250030517578,90.84375,-43.70625305175781
1751223264156135400,13.084135498046875,157.72500610351562,90.5250015258789,-44.41875076293945
1751223264166135600,13.094135498046874,157.9875030517578,90.28125,-45
1751223264176135400,13.104135498046874,158.04376220703125,89.9625015258789,-45.58125305175781
1751223264186135600,13.114135498046876,157.875,89.7750015258789,-45.91875076293945
1751223264196135400,13.124135498046876,158.02500915527344,89.66250610351562,-46.3125
1751223264206135600,13.134135498046875,157.875,89.4937515258789,-46.63125228881836
1751223264216135400,13.144135498046875,158.02500915527344,89.51250457763672,-46.875
1751223264226135600,13.154135498046875,157.85626220703125,89.28750610351562,-47.26875305175781
1751223264236135400,13.164135498046875,157.96875,89.19375610351562,-47.60625076293945
1751223264246135600,13.174135498046875,158.00625610351562,89.0625,-48.20625305175781
1751223264256135400,13.184135498046874,158.13751220703125,89.00625610351562,-48.750003814697266
1751223264266135600,13.194135498046874,158.5500030517578,88.63125610351562,-49.23750305175781
1751223264276135400,13.204135498046876,158.68125915527344,88.14375305175781,-49.931251525878906
1751223264286135600,13.214135498046875,158.71875,87.8062515258789,-50.587501525878906
1751223264296135400,13.224135498046875,158.71875,87.3375015258789,-51.243751525878906
1751223264306135600,13.234135498046875,159.1125030517578,87.09375,-51.656253814697266
1751223264316135400,13.244135498046875,159.03750610351562,86.625,-52.25625228881836
1751223264326135600,13.254135498046875,159.0187530517578,86.13750457763672,-52.80000305175781
1751223264336135400,13.264135498046874,159.26251220703125,85.51875305175781,-53.212501525878906
1751223264346135600,13.274135498046874,158.98126220703125,85.2750015258789,-53.812503814697266
1751223264356135400,13.284135498046876,158.71875,84.9937515258789,-54.20625305175781
1751223264366135600,13.294135498046876,158.8125,84.5250015258789,-54.78750228881836
1751223264376135400,13.304135498046875,158.8125,84.1875,-55.275001525878906
1751223264386135600,13.314135498046875,158.56875610351562,83.88750457763672,-55.66875076293945
1751223264396135400,13.324135498046875,158.4375,83.41875457763672,-56.156253814697266
1751223264406135600,13.334135498046875,158.32501220703125,83.00625610351562,-56.85000228881836
1751223264416135400,13.344135498046874,158.32501220703125,82.38750457763672,-57.656253814697266
1751223264426135600,13.354135498046874,158.53125,81.78750610351562,-58.16250228881836
1751223264436135400,13.364135498046876,158.66250610351562,81.20625305175781,-58.72500228881836
1751223264446135600,13.374135498046876,158.68125915527344,80.75625610351562,-59.19375228881836
1751223264456135400,13.384135498046875,158.66250610351562,80.4000015258789,-59.60625076293945
1751223264466135600,13.394135498046875,158.7375030517578,79.78125,-60.056251525878906
1751223264476135400,13.404135498046875,159.15000915527344,79.20000457763672,-60.562503814697266
1751223264486135600,13.414135498046875,159,78.82500457763672,-60.60000228881836
1751223264496135400,13.424135498046875,158.88751220703125,78.69375610351562,-60.73125076293945
1751223264506135600,13.434135498046874,158.68125915527344,78.31875610351562,-61.20000076293945
1751223264516135400,13.444135498046874,158.79376220703125,78.03750610351562,-61.53750228881836
1751223264526135600,13.454135498046876,158.7375030517578,77.6812515258789,-61.81875228881836
1751223264536135400,13.464135498046875,158.88751220703125,77.32500457763672,-62.08125305175781
1751223264546135600,13.474135498046875,158.79376220703125,77.19375610351562,-62.47500228881836
1751223264556135400,13.484135498046875,158.47500610351562,77.13750457763672,-62.41875076293945
1751223264566135600,13.494135498046875,158.75625610351562,76.81875610351562,-62.531253814697266
1751223264576135400,13.504135498046875,158.51251220703125,76.6875,-62.625003814697266
1751223264586135600,13.514135498046874,158.68125915527344,76.63125610351562,-62.66250228881836
1751223264596135400,13.524135498046874,158.625,76.33125305175781,-62.775001525878906
1751223264606135600,13.534135498046876,158.4375,76.16250610351562,-62.868751525878906
1751223264616135400,13.544135498046876,158.19375610351562,75.9375,-63.056251525878906
1751223264626135600,13.554135498046875,157.96875,75.73125457763672,-63.03750228881836
1751223264636135400,13.564135498046875,157.8000030517578,75.69375610351562,-63.13125228881836
1751223264646135600,13.574135498046875,157.78125,75.54375457763672,-63.39375305175781
1751223264656135400,13.584135498046875,158.04376220703125,75.2437515258789,-63.78750228881836
1751223264666135600,13.594135498046874,157.95001220703125,75,-63.97500228881836
