time,seconds_elapsed,z,y,x
1751223251316135400,0.244135498046875,-31.818750381469727,-16.5,3.1500000953674316
1751223251336135400,0.264135498046875,-31.593751907348633,-17.4375,3.4875001907348633
1751223251346135600,0.274135498046875,-31.443750381469727,-17.55000114440918,3.2437500953674316
1751223251376135400,0.304135498046875,-31.275001525878906,-18.075000762939453,3.187500238418579
1751223251386135600,0.314135498046875,-31.162500381469727,-18.075000762939453,3.093750238418579
1751223251406135600,0.334135498046875,-31.218751907348633,-18.1875,3.2250001430511475
1751223251416135400,0.344135498046875,-30.95625114440918,-18.20625114440918,3.3187501430511475
1751223251426135600,0.354135498046875,-30.750001907348633,-18.262500762939453,3.3000001907348633
1751223251436135400,0.364135498046875,-30.937501907348633,-18.150001525878906,3.356250047683716
1751223251446135600,0.374135498046875,-31.012500762939453,-18.037500381469727,3.3375000953674316
1751223251456135400,0.384135498046875,-30.900001525878906,-17.868751525878906,3.3375000953674316
1751223251466135600,0.394135498046875,-31.031251907348633,-17.83125114440918,3.450000047683716
1751223251476135400,0.404135498046875,-30.86250114440918,-17.887500762939453,3.450000047683716
1751223251486135600,0.414135498046875,-30.600000381469727,-17.887500762939453,3.2250001430511475
1751223251496135400,0.424135498046875,-30.975000381469727,-18.01875114440918,3.3937501907348633
1751223251506135600,0.434135498046875,-31.05000114440918,-18,3.468750238418579
1751223251516135400,0.444135498046875,-30.975000381469727,-18.09375,3.6187500953674316
1751223251526135600,0.454135498046875,-30.750001907348633,-18.09375,3.656250238418579
1751223251536135400,0.464135498046875,-30.918750762939453,-18.131250381469727,3.4875001907348633
1751223251546135600,0.474135498046875,-30.95625114440918,-18.131250381469727,3.3375000953674316
1751223251556135400,0.484135498046875,-31.031251907348633,-18.225000381469727,3.3000001907348633
1751223251566135600,0.494135498046875,-31.312501907348633,-18.337501525878906,3.4125001430511475
1751223251576135400,0.504135498046875,-31.406251907348633,-18.1875,3.2437500953674316
1751223251586135600,0.514135498046875,-31.61250114440918,-18.20625114440918,3.3375000953674316
1751223251596135400,0.524135498046875,-31.481250762939453,-18.337501525878906,3.3937501907348633
1751223251606135600,0.534135498046875,-31.650001525878906,-18.431251525878906,3.450000047683716
1751223251616135400,0.544135498046875,-31.631250381469727,-18.431251525878906,3.543750047683716
1751223251626135600,0.554135498046875,-31.368751525878906,-18.506250381469727,3.825000047683716
1751223251636135400,0.564135498046875,-31.368751525878906,-18.5625,3.750000238418579
1751223251646135600,0.574135498046875,-31.387500762939453,-18.543750762939453,3.8062500953674316
1751223251656135400,0.584135498046875,-31.162500381469727,-18.450000762939453,3.7875001430511475
1751223251666135600,0.594135498046875,-31.031251907348633,-18.412500381469727,3.6937501430511475
1751223251676135400,0.604135498046875,-31.068750381469727,-18.318750381469727,3.750000238418579
1751223251686135600,0.614135498046875,-31.012500762939453,-18.225000381469727,3.7125000953674316
1751223251696135400,0.624135498046875,-30.731250762939453,-18.375,3.4875001907348633
1751223251706135600,0.634135498046875,-30.900001525878906,-18.1875,3.375000238418579
1751223251716135400,0.644135498046875,-30.900001525878906,-18.168750762939453,3.450000047683716
1751223251726135600,0.654135498046875,-30.76875114440918,-18.11250114440918,3.5062501430511475
1751223251736135400,0.664135498046875,-30.731250762939453,-18.168750762939453,3.2437500953674316
1751223251746135600,0.674135498046875,-30.712501525878906,-18.243751525878906,3.168750047683716
1751223251756135400,0.684135498046875,-30.806251525878906,-18.243751525878906,3.093750238418579
1751223251766135600,0.694135498046875,-30.825000762939453,-18.28125,3.075000047683716
1751223251776135400,0.704135498046875,-30.975000381469727,-18.131250381469727,3.168750047683716
1751223251786135600,0.714135498046875,-31.23750114440918,-18.46875,3.3375000953674316
1751223251796135400,0.724135498046875,-31.162500381469727,-18.1875,3.3937501907348633
1751223251806135600,0.734135498046875,-31.181251525878906,-18.20625114440918,3.356250047683716
1751223251816135400,0.744135498046875,-31.200000762939453,-18.168750762939453,3.468750238418579
1751223251826135600,0.754135498046875,-31.33125114440918,-18.075000762939453,3.468750238418579
1751223251836135400,0.764135498046875,-31.14375114440918,-18.09375,3.543750047683716
1751223251846135600,0.774135498046875,-31.200000762939453,-17.981250762939453,3.543750047683716
1751223251856135400,0.784135498046875,-31.33125114440918,-17.8125,3.6750001907348633
1751223251866135600,0.794135498046875,-31.05000114440918,-17.64375114440918,3.6000001430511475
1751223251876135400,0.804135498046875,-31.162500381469727,-17.868751525878906,3.4875001907348633
1751223251886135600,0.814135498046875,-31.162500381469727,-17.962501525878906,3.3000001907348633
1751223251896135400,0.824135498046875,-31.275001525878906,-18,3.5250000953674316
1751223251906135600,0.834135498046875,-31.575000762939453,-18.168750762939453,3.562500238418579
1751223251916135400,0.844135498046875,-31.500001907348633,-18.168750762939453,3.5250000953674316
1751223251926135600,0.854135498046875,-31.481250762939453,-18.337501525878906,3.6187500953674316
1751223251936135400,0.864135498046875,-31.500001907348633,-18.618751525878906,3.5062501430511475
1751223251946135600,0.874135498046875,-31.743751525878906,-18.525001525878906,3.562500238418579
1751223251956135400,0.884135498046875,-31.537500381469727,-18.525001525878906,3.5812501907348633
1751223251966135600,0.894135498046875,-31.406251907348633,-18.375,3.825000047683716
1751223251976135400,0.904135498046875,-31.42500114440918,-18.356250762939453,3.7687501907348633
1751223251986135600,0.914135498046875,-31.275001525878906,-18.30000114440918,3.9750001430511475
1751223251996135400,0.924135498046875,-31.462501525878906,-18.262500762939453,3.937500238418579
1751223252006135600,0.934135498046875,-31.537500381469727,-18.262500762939453,3.7875001430511475
1751223252016135400,0.944135498046875,-31.481250762939453,-18.150001525878906,3.843750238418579
1751223252026135600,0.954135498046875,-31.14375114440918,-18.243751525878906,3.9750001430511475
1751223252036135400,0.964135498046875,-31.387500762939453,-18.28125,3.825000047683716
1751223252046135600,0.974135498046875,-31.462501525878906,-18.11250114440918,3.731250047683716
1751223252056135400,0.984135498046875,-31.387500762939453,-18.075000762939453,3.937500238418579
1751223252066135600,0.994135498046875,-31.218751907348633,-17.943750381469727,3.8062500953674316
1751223252076135400,1.004135498046875,-31.200000762939453,-17.943750381469727,3.8812501430511475
1751223252086135600,1.014135498046875,-31.200000762939453,-17.850000381469727,3.9750001430511475
1751223252096135400,1.024135498046875,-31.23750114440918,-17.793750762939453,4.106250286102295
1751223252106135600,1.034135498046875,-31.556251525878906,-17.587501525878906,3.7875001430511475
1751223252116135400,1.044135498046875,-31.42500114440918,-17.662500381469727,3.7687501907348633
1751223252126135600,1.054135498046875,-31.443750381469727,-17.90625,3.7687501907348633
1751223252136135400,1.064135498046875,-31.406251907348633,-18,3.5250000953674316
1751223252146135600,1.074135498046875,-31.500001907348633,-18.11250114440918,3.543750047683716
1751223252156135400,1.084135498046875,-31.687501907348633,-17.90625,3.4125001430511475
1751223252166135600,1.094135498046875,-31.762500762939453,-17.568750381469727,3.375000238418579
1751223252176135400,1.104135498046875,-31.61250114440918,-17.568750381469727,3.2062501907348633
1751223252186135600,1.114135498046875,-31.61250114440918,-17.700000762939453,3.1125001907348633
1751223252196135400,1.124135498046875,-31.500001907348633,-17.700000762939453,3.3000001907348633
1751223252206135600,1.134135498046875,-31.537500381469727,-17.53125,3.281250238418579
1751223252216135400,1.144135498046875,-31.537500381469727,-17.400001525878906,3.3000001907348633
1751223252226135600,1.154135498046875,-31.556251525878906,-17.287500381469727,3.468750238418579
1751223252236135400,1.164135498046875,-31.33125114440918,-17.475000381469727,3.5062501430511475
1751223252246135600,1.174135498046875,-31.256250381469727,-17.775001525878906,3.6750001907348633
1751223252256135400,1.184135498046875,-31.350000381469727,-17.83125114440918,3.6937501430511475
1751223252266135600,1.194135498046875,-31.125001907348633,-17.850000381469727,3.731250047683716
1751223252276135400,1.204135498046875,-30.975000381469727,-17.681251525878906,3.656250238418579
1751223252286135600,1.214135498046875,-30.731250762939453,-17.756250381469727,3.5812501907348633
1751223252296135400,1.224135498046875,-30.731250762939453,-18.056251525878906,3.562500238418579
1751223252306135600,1.234135498046875,-30.356250762939453,-18.318750381469727,3.3187501430511475
1751223252316135400,1.244135498046875,-30.150001525878906,-18.243751525878906,3.262500047683716
1751223252326135600,1.254135498046875,-30.168750762939453,-18.168750762939453,3.1125001907348633
1751223252336135400,1.264135498046875,-30.056251525878906,-18.131250381469727,3.168750047683716
1751223252346135600,1.274135498046875,-29.793750762939453,-18.131250381469727,3.3187501430511475
1751223252356135400,1.284135498046875,-30.01875114440918,-18.131250381469727,3.375000238418579
1751223252366135600,1.294135498046875,-30.20625114440918,-18.168750762939453,3.6000001430511475
1751223252376135400,1.304135498046875,-30.356250762939453,-17.90625,3.7125000953674316
1751223252386135600,1.314135498046875,-30.468751907348633,-17.625,3.7687501907348633
1751223252396135400,1.324135498046875,-30.918750762939453,-17.71875,3.843750238418579
1751223252406135600,1.334135498046875,-30.618751525878906,-17.83125114440918,3.8812501430511475
1751223252416135400,1.344135498046875,-30.806251525878906,-17.943750381469727,3.9750001430511475
1751223252426135600,1.354135498046875,-31.218751907348633,-18.037500381469727,3.8812501430511475
1751223252436135400,1.364135498046875,-31.312501907348633,-17.981250762939453,3.8625001907348633
1751223252446135600,1.374135498046875,-31.23750114440918,-17.793750762939453,3.6000001430511475
1751223252456135400,1.384135498046875,-31.05000114440918,-17.681251525878906,3.5062501430511475
1751223252466135600,1.394135498046875,-31.200000762939453,-17.71875,3.8812501430511475
1751223252476135400,1.404135498046875,-30.918750762939453,-17.64375114440918,3.656250238418579
1751223252486135600,1.414135498046875,-31.181251525878906,-17.681251525878906,3.6000001430511475
1751223252496135400,1.424135498046875,-31.106250762939453,-17.71875,3.3000001907348633
1751223252516135400,1.444135498046875,-30.975000381469727,-17.4375,3.1500000953674316
1751223252526135600,1.454135498046875,-31.33125114440918,-17.55000114440918,3.2062501907348633
1751223252536135400,1.464135498046875,-31.068750381469727,-17.775001525878906,3.187500238418579
1751223252546135600,1.474135498046875,-30.975000381469727,-17.887500762939453,3.168750047683716
1751223252556135400,1.484135498046875,-31.125001907348633,-17.981250762939453,3.4125001430511475
1751223252566135600,1.494135498046875,-30.993751525878906,-18.037500381469727,3.375000238418579
1751223252576135400,1.504135498046875,-30.95625114440918,-17.92500114440918,3.562500238418579
1751223252586135600,1.514135498046875,-30.881250381469727,-17.962501525878906,3.825000047683716
1751223252596135400,1.524135498046875,-30.825000762939453,-18.30000114440918,3.825000047683716
1751223252606135600,1.534135498046875,-30.39375114440918,-18.30000114440918,3.7125000953674316
1751223252616135400,1.544135498046875,-30.67500114440918,-18.450000762939453,3.6000001430511475
1751223252626135600,1.554135498046875,-30.825000762939453,-18.28125,3.3000001907348633
1751223252636135400,1.564135498046875,-30.543750762939453,-18.225000381469727,3.281250238418579
1751223252646135600,1.574135498046875,-30.656251907348633,-18.056251525878906,3.356250047683716
1751223252656135400,1.584135498046875,-30.637500762939453,-17.981250762939453,3.2062501907348633
1751223252666135600,1.594135498046875,-30.48750114440918,-17.943750381469727,3.168750047683716
1751223252676135400,1.604135498046875,-30.712501525878906,-17.756250381469727,3.2062501907348633
1751223252686135600,1.614135498046875,-30.881250381469727,-17.700000762939453,3.356250047683716
1751223252696135400,1.624135498046875,-30.918750762939453,-17.45625114440918,3.3000001907348633
1751223252706135600,1.634135498046875,-30.937501907348633,-17.700000762939453,3.281250238418579
1751223252716135400,1.644135498046875,-30.881250381469727,-17.700000762939453,3.2250001430511475
1751223252726135600,1.654135498046875,-30.787500381469727,-17.868751525878906,3.0562500953674316
1751223252736135400,1.664135498046875,-30.95625114440918,-17.943750381469727,3.2250001430511475
1751223252746135600,1.674135498046875,-31.200000762939453,-18.037500381469727,3.2437500953674316
1751223252756135400,1.684135498046875,-31.068750381469727,-17.90625,3.187500238418579
1751223252766135600,1.694135498046875,-31.275001525878906,-17.92500114440918,3.262500047683716
1751223252776135400,1.704135498046875,-31.181251525878906,-18.11250114440918,3.187500238418579
1751223252786135600,1.714135498046875,-30.975000381469727,-17.887500762939453,3
1751223252796135400,1.724135498046875,-31.14375114440918,-17.981250762939453,3.1312501430511475
1751223252806135600,1.734135498046875,-31.256250381469727,-17.962501525878906,3.375000238418579
1751223252816135400,1.744135498046875,-31.087501525878906,-17.943750381469727,3.375000238418579
1751223252826135600,1.754135498046875,-31.181251525878906,-17.887500762939453,3.4125001430511475
1751223252836135400,1.764135498046875,-31.312501907348633,-17.981250762939453,3.543750047683716
1751223252846135600,1.774135498046875,-31.125001907348633,-17.981250762939453,3.450000047683716
1751223252856135400,1.784135498046875,-31.162500381469727,-17.90625,3.7687501907348633
1751223252866135600,1.794135498046875,-31.575000762939453,-17.92500114440918,4.106250286102295
1751223252876135400,1.804135498046875,-31.743751525878906,-17.850000381469727,3.9562501907348633
1751223252886135600,1.814135498046875,-31.631250381469727,-17.71875,3.825000047683716
1751223252896135400,1.824135498046875,-31.912500381469727,-17.625,3.937500238418579
1751223252906135600,1.834135498046875,-31.70625114440918,-17.700000762939453,3.731250047683716
1751223252916135400,1.844135498046875,-31.500001907348633,-17.8125,3.4125001430511475
1751223252926135600,1.854135498046875,-31.575000762939453,-18.20625114440918,3.4312500953674316
1751223252936135400,1.864135498046875,-31.687501907348633,-18.075000762939453,3.4125001430511475
1751223252946135600,1.874135498046875,-31.406251907348633,-18.28125,3.2062501907348633
1751223252956135400,1.884135498046875,-31.23750114440918,-18.28125,3.3000001907348633
1751223252966135600,1.894135498046875,-31.218751907348633,-18.337501525878906,3.3187501430511475
1751223252976135400,1.904135498046875,-30.975000381469727,-18.450000762939453,3.0375001430511475
1751223252986135600,1.914135498046875,-31.031251907348633,-18.506250381469727,3.187500238418579
1751223252996135400,1.924135498046875,-31.125001907348633,-18.506250381469727,3.4875001907348633
1751223253006135600,1.934135498046875,-31.087501525878906,-18.262500762939453,3.450000047683716
1751223253016135400,1.944135498046875,-30.993751525878906,-18.356250762939453,3.3937501907348633
1751223253026135600,1.954135498046875,-30.731250762939453,-18.1875,3.3937501907348633
1751223253036135400,1.964135498046875,-30.618751525878906,-18.168750762939453,3.356250047683716
1751223253046135600,1.974135498046875,-30.656251907348633,-18.20625114440918,3.356250047683716
1751223253056135400,1.984135498046875,-30.468751907348633,-18.09375,3.4312500953674316
1751223253066135600,1.994135498046875,-30.412500381469727,-18.056251525878906,3.3937501907348633
1751223253076135400,2.004135498046875,-30.318750381469727,-17.981250762939453,3.3187501430511475
1751223253086135600,2.014135498046875,-30.412500381469727,-17.793750762939453,3.543750047683716
1751223253096135400,2.024135498046875,-30.318750381469727,-17.55000114440918,3.731250047683716
1751223253106135600,2.034135498046875,-30.693750381469727,-17.587501525878906,3.9000000953674316
1751223253116135400,2.044135498046875,-31.200000762939453,-17.55000114440918,4.03125
1751223253126135600,2.054135498046875,-31.200000762939453,-17.381250381469727,4.293750286102295
1751223253136135400,2.064135498046875,-31.575000762939453,-17.25,4.537500381469727
1751223253146135600,2.074135498046875,-31.575000762939453,-17.400001525878906,4.425000190734863
1751223253156135400,2.084135498046875,-31.443750381469727,-17.493751525878906,4.443750381469727
1751223253166135600,2.094135498046875,-31.406251907348633,-17.493751525878906,4.368750095367432
1751223253176135400,2.104135498046875,-31.443750381469727,-17.756250381469727,4.162500381469727
1751223253186135600,2.114135498046875,-31.293750762939453,-17.73750114440918,4.087500095367432
1751223253196135400,2.124135498046875,-30.825000762939453,-17.962501525878906,3.7125000953674316
1751223253206135600,2.134135498046875,-30.731250762939453,-18.11250114440918,3.356250047683716
1751223253216135400,2.144135498046875,-30.712501525878906,-18.412500381469727,3.2437500953674316
1751223253226135600,2.154135498046875,-30.881250381469727,-18.318750381469727,3.4125001430511475
1751223253236135400,2.164135498046875,-31.05000114440918,-18.412500381469727,3.4125001430511475
1751223253246135600,2.174135498046875,-30.881250381469727,-18.525001525878906,3.3000001907348633
1751223253256135400,2.184135498046875,-30.975000381469727,-18.450000762939453,3.3375000953674316
1751223253266135600,2.194135498046875,-30.993751525878906,-18.46875,3.3937501907348633
1751223253276135400,2.204135498046875,-31.23750114440918,-18.20625114440918,3.7687501907348633
1751223253286135600,2.214135498046875,-31.14375114440918,-18.243751525878906,3.937500238418579
1751223253296135400,2.224135498046875,-30.900001525878906,-18.356250762939453,3.8625001907348633
1751223253306135600,2.234135498046875,-30.843751907348633,-18.225000381469727,3.8625001907348633
1751223253316135400,2.244135498046875,-30.787500381469727,-18.037500381469727,3.937500238418579
1751223253326135600,2.254135498046875,-30.67500114440918,-18.01875114440918,4.106250286102295
1751223253336135400,2.264135498046875,-30.58125114440918,-17.868751525878906,4.087500095367432
1751223253346135600,2.274135498046875,-30.450000762939453,-17.887500762939453,4.275000095367432
1751223253356135400,2.284135498046875,-30.337501525878906,-17.981250762939453,4.181250095367432
1751223253366135600,2.294135498046875,-30.431251525878906,-17.90625,4.293750286102295
1751223253376135400,2.304135498046875,-30.468751907348633,-17.493751525878906,4.40625
1751223253386135600,2.314135498046875,-30.431251525878906,-17.700000762939453,4.40625
1751223253396135400,2.324135498046875,-30.48750114440918,-17.8125,4.481250286102295
1751223253406135600,2.334135498046875,-30.693750381469727,-17.587501525878906,4.59375
1751223253416135400,2.344135498046875,-30.787500381469727,-17.71875,4.875
1751223253426135600,2.354135498046875,-30.843751907348633,-17.53125,4.931250095367432
1751223253436135400,2.364135498046875,-30.86250114440918,-17.400001525878906,5.137500286102295
1751223253446135600,2.374135498046875,-30.843751907348633,-17.325000762939453,5.043750286102295
1751223253456135400,2.384135498046875,-30.95625114440918,-17.381250381469727,5.15625
1751223253466135600,2.394135498046875,-30.918750762939453,-17.025001525878906,5.268750190734863
1751223253476135400,2.404135498046875,-30.731250762939453,-16.61250114440918,5.381250381469727
1751223253486135600,2.414135498046875,-30.750001907348633,-16.80000114440918,5.418750286102295
1751223253496135400,2.424135498046875,-30.693750381469727,-16.931251525878906,5.362500190734863
1751223253506135600,2.434135498046875,-30.918750762939453,-17.025001525878906,5.34375
1751223253516135400,2.444135498046875,-30.881250381469727,-17.231250762939453,5.325000286102295
1751223253526135600,2.454135498046875,-31.33125114440918,-17.17500114440918,5.662500381469727
1751223253536135400,2.464135498046875,-31.23750114440918,-17.400001525878906,5.71875
1751223253546135600,2.474135498046875,-31.23750114440918,-17.475000381469727,6.187500476837158
1751223253556135400,2.484135498046875,-31.593751907348633,-17.73750114440918,6.225000381469727
1751223253566135600,2.494135498046875,-31.70625114440918,-17.700000762939453,6.412500381469727
1751223253576135400,2.504135498046875,-31.70625114440918,-17.53125,6.525000095367432
1751223253586135600,2.514135498046875,-31.556251525878906,-17.512500762939453,6.562500476837158
1751223253596135400,2.524135498046875,-31.406251907348633,-17.212501525878906,6.843750476837158
1751223253606135600,2.534135498046875,-31.23750114440918,-17.212501525878906,6.843750476837158
1751223253616135400,2.544135498046875,-31.218751907348633,-16.931251525878906,7.125000476837158
1751223253626135600,2.554135498046875,-31.181251525878906,-16.89375114440918,6.937500476837158
1751223253636135400,2.564135498046875,-30.881250381469727,-16.743751525878906,7.012500286102295
1751223253646135600,2.574135498046875,-30.843751907348633,-16.59375,7.143750190734863
1751223253656135400,2.584135498046875,-30.95625114440918,-16.556251525878906,7.050000190734863
1751223253666135600,2.594135498046875,-30.656251907348633,-16.462501525878906,6.975000381469727
1751223253676135400,2.604135498046875,-30.806251525878906,-16.5,6.806250095367432
1751223253686135600,2.614135498046875,-30.30000114440918,-16.42500114440918,6.881250381469727
1751223253696135400,2.624135498046875,-30.243751525878906,-16.42500114440918,6.712500095367432
1751223253706135600,2.634135498046875,-30.150001525878906,-16.462501525878906,6.600000381469727
1751223253716135400,2.644135498046875,-30.093751907348633,-16.6875,6.693750381469727
1751223253726135600,2.654135498046875,-29.962501525878906,-16.70625114440918,6.675000190734863
1751223253736135400,2.664135498046875,-30.000001907348633,-16.668750762939453,6.787500381469727
1751223253746135600,2.674135498046875,-30.225000381469727,-16.89375114440918,6.806250095367432
1751223253756135400,2.684135498046875,-30.30000114440918,-16.875,7.031250476837158
1751223253766135600,2.694135498046875,-30.67500114440918,-16.80000114440918,7.012500286102295
1751223253776135400,2.704135498046875,-30.731250762939453,-16.89375114440918,7.181250095367432
1751223253786135600,2.714135498046875,-31.068750381469727,-17.006250381469727,7.218750476837158
1751223253796135400,2.724135498046875,-30.95625114440918,-16.80000114440918,7.143750190734863
1751223253806135600,2.734135498046875,-30.918750762939453,-16.762500762939453,7.050000190734863
1751223253816135400,2.744135498046875,-30.67500114440918,-16.89375114440918,6.937500476837158
1751223253826135600,2.754135498046875,-30.58125114440918,-16.668750762939453,7.350000381469727
1751223253836135400,2.764135498046875,-30.431251525878906,-16.725000381469727,7.256250381469727
1751223253846135600,2.774135498046875,-30.262500762939453,-16.6875,7.218750476837158
1751223253856135400,2.784135498046875,-30.468751907348633,-16.537500381469727,7.181250095367432
1751223253866135600,2.794135498046875,-30.243751525878906,-16.350000381469727,7.256250381469727
1751223253876135400,2.804135498046875,-30.48750114440918,-16.33125114440918,7.350000381469727
1751223253886135600,2.814135498046875,-30.656251907348633,-16.443750381469727,7.368750095367432
1751223253896135400,2.824135498046875,-30.600000381469727,-16.293750762939453,7.668750286102295
1751223253906135600,2.834135498046875,-30.937501907348633,-16.481250762939453,7.293750286102295
1751223253916135400,2.844135498046875,-30.712501525878906,-16.61250114440918,7.331250190734863
1751223253926135600,2.854135498046875,-30.937501907348633,-16.575000762939453,7.443750381469727
1751223253936135400,2.864135498046875,-30.712501525878906,-16.6875,7.425000190734863
1751223253946135600,2.874135498046875,-30.76875114440918,-16.743751525878906,7.593750476837158
1751223253956135400,2.884135498046875,-30.881250381469727,-16.725000381469727,7.687500476837158
1751223253966135600,2.894135498046875,-30.656251907348633,-16.743751525878906,7.837500095367432
1751223253976135400,2.904135498046875,-30.750001907348633,-16.725000381469727,7.762500286102295
1751223253986135600,2.914135498046875,-30.243751525878906,-16.61250114440918,7.631250381469727
1751223253996135400,2.924135498046875,-30.39375114440918,-16.21875,7.575000286102295
1751223254006135600,2.934135498046875,-30.506250381469727,-16.40625,7.368750095367432
1751223254016135400,2.944135498046875,-30.506250381469727,-16.40625,7.425000190734863
1751223254026135600,2.954135498046875,-30.468751907348633,-16.350000381469727,7.050000190734863
1751223254036135400,2.964135498046875,-30.187501907348633,-16.443750381469727,7.181250095367432
1751223254046135600,2.974135498046875,-30.187501907348633,-16.387500762939453,7.012500286102295
1751223254056135400,2.984135498046875,-29.981250762939453,-16.481250762939453,7.087500095367432
1751223254066135600,2.994135498046875,-30.337501525878906,-16.59375,7.312500476837158
1751223254076135400,3.004135498046875,-30.750001907348633,-16.837501525878906,7.518750190734863
1751223254096135400,3.024135498046875,-30.187501907348633,-16.818750381469727,7.518750190734863
1751223254106135600,3.034135498046875,-30.168750762939453,-16.89375114440918,7.668750286102295
1751223254116135400,3.044135498046875,-30.056251525878906,-16.98750114440918,7.312500476837158
1751223254126135600,3.054135498046875,-30.281251907348633,-17.17500114440918,7.200000286102295
1751223254136135400,3.064135498046875,-30.693750381469727,-17.08125114440918,6.918750286102295
1751223254146135600,3.074135498046875,-30.881250381469727,-16.912500381469727,6.918750286102295
1751223254156135400,3.084135498046875,-30.86250114440918,-16.875,6.843750476837158
1751223254166135600,3.094135498046875,-31.200000762939453,-16.96875,6.787500381469727
1751223254176135400,3.104135498046875,-31.312501907348633,-17.0625,6.918750286102295
1751223254186135600,3.114135498046875,-31.256250381469727,-16.950000762939453,7.106250286102295
1751223254196135400,3.124135498046875,-31.462501525878906,-16.818750381469727,7.181250095367432
1751223254206135600,3.134135498046875,-31.275001525878906,-16.6875,7.331250190734863
1751223254216135400,3.144135498046875,-31.181251525878906,-16.6875,7.518750190734863
1751223254226135600,3.154135498046875,-31.14375114440918,-16.743751525878906,7.593750476837158
1751223254236135400,3.164135498046875,-30.900001525878906,-16.875,7.275000095367432
1751223254246135600,3.174135498046875,-31.256250381469727,-16.931251525878906,7.200000286102295
1751223254256135400,3.184135498046875,-31.368751525878906,-17.006250381469727,7.125000476837158
1751223254266135600,3.194135498046875,-31.51875114440918,-17.212501525878906,6.918750286102295
1751223254276135400,3.204135498046875,-31.743751525878906,-17.08125114440918,7.087500095367432
1751223254286135600,3.214135498046875,-31.762500762939453,-17.025001525878906,6.993750095367432
1751223254296135400,3.224135498046875,-31.725000381469727,-17.212501525878906,6.975000381469727
1751223254306135600,3.234135498046875,-31.668750762939453,-17.118751525878906,6.918750286102295
1751223254316135400,3.244135498046875,-31.725000381469727,-17.212501525878906,7.143750190734863
1751223254326135600,3.254135498046875,-31.42500114440918,-17.193750381469727,7.256250381469727
1751223254336135400,3.264135498046875,-31.200000762939453,-17.043750762939453,7.275000095367432
1751223254346135600,3.274135498046875,-31.162500381469727,-17.118751525878906,7.387500286102295
1751223254356135400,3.284135498046875,-30.86250114440918,-17.36250114440918,7.106250286102295
1751223254366135600,3.294135498046875,-30.86250114440918,-17.568750381469727,7.050000190734863
1751223254376135400,3.304135498046875,-30.937501907348633,-17.55000114440918,7.068750381469727
1751223254386135600,3.314135498046875,-31.05000114440918,-17.943750381469727,6.750000476837158
1751223254396135400,3.324135498046875,-31.05000114440918,-17.850000381469727,6.468750476837158
1751223254406135600,3.334135498046875,-31.05000114440918,-17.700000762939453,6.168750286102295
1751223254416135400,3.344135498046875,-31.293750762939453,-17.8125,5.943750381469727
1751223254426135600,3.354135498046875,-31.05000114440918,-17.681251525878906,5.606250286102295
1751223254436135400,3.364135498046875,-31.368751525878906,-17.775001525878906,5.400000095367432
1751223254446135600,3.374135498046875,-31.593751907348633,-17.700000762939453,5.100000381469727
1751223254456135400,3.384135498046875,-31.631250381469727,-17.700000762939453,4.612500190734863
1751223254466135600,3.394135498046875,-31.462501525878906,-17.606250762939453,4.443750381469727
1751223254476135400,3.404135498046875,-31.350000381469727,-17.756250381469727,4.200000286102295
1751223254486135600,3.414135498046875,-31.293750762939453,-17.850000381469727,4.03125
1751223254496135400,3.424135498046875,-31.293750762939453,-17.962501525878906,3.9000000953674316
1751223254506135600,3.434135498046875,-31.350000381469727,-17.92500114440918,3.7125000953674316
1751223254516135400,3.444135498046875,-31.14375114440918,-17.92500114440918,3.6187500953674316
1751223254526135600,3.454135498046875,-31.275001525878906,-17.943750381469727,3.468750238418579
1751223254536135400,3.464135498046875,-31.312501907348633,-18.056251525878906,3.3000001907348633
1751223254546135600,3.474135498046875,-31.218751907348633,-18.037500381469727,3.450000047683716
1751223254556135400,3.484135498046875,-31.256250381469727,-18.075000762939453,3.4312500953674316
1751223254566135600,3.494135498046875,-31.33125114440918,-18.150001525878906,3.3187501430511475
1751223254576135400,3.504135498046875,-31.218751907348633,-18.075000762939453,3.093750238418579
1751223254586135600,3.514135498046875,-31.293750762939453,-18.262500762939453,3.0562500953674316
1751223254596135400,3.524135498046875,-31.181251525878906,-18.318750381469727,3.1125001907348633
1751223254616135400,3.544135498046875,-30.806251525878906,-18.20625114440918,3.262500047683716
1751223254626135600,3.554135498046875,-30.918750762939453,-18.28125,2.90625
1751223254636135400,3.564135498046875,-31.068750381469727,-18.28125,2.5687501430511475
1751223254646135600,3.574135498046875,-30.937501907348633,-18.356250762939453,2.4937500953674316
1751223254656135400,3.584135498046875,-30.76875114440918,-18.600000381469727,2.3625001907348633
1751223254666135600,3.594135498046875,-30.993751525878906,-18.58125114440918,2.2875001430511475
1751223254676135400,3.604135498046875,-31.087501525878906,-18.5625,2.3625001907348633
1751223254686135600,3.614135498046875,-30.825000762939453,-18.5625,2.418750047683716
1751223254696135400,3.624135498046875,-30.825000762939453,-18.58125114440918,2.5875000953674316
1751223254706135600,3.634135498046875,-30.693750381469727,-18.618751525878906,2.7375001907348633
1751223254716135400,3.644135498046875,-30.48750114440918,-18.58125114440918,3.075000047683716
1751223254726135600,3.654135498046875,-30.468751907348633,-18.618751525878906,3.262500047683716
1751223254736135400,3.664135498046875,-30.637500762939453,-18.48750114440918,3.562500238418579
1751223254746135600,3.674135498046875,-30.281251907348633,-18.168750762939453,3.6750001907348633
1751223254756135400,3.684135498046875,-30.412500381469727,-18.11250114440918,3.3937501907348633
1751223254766135600,3.694135498046875,-30.48750114440918,-18.262500762939453,3.281250238418579
1751223254776135400,3.704135498046875,-30.356250762939453,-18.225000381469727,3
1751223254786135600,3.714135498046875,-30.337501525878906,-17.868751525878906,3.1500000953674316
1751223254796135400,3.724135498046875,-30.525001525878906,-17.793750762939453,3.187500238418579
1751223254806135600,3.734135498046875,-30.843751907348633,-17.700000762939453,3.187500238418579
1751223254816135400,3.744135498046875,-30.693750381469727,-17.493751525878906,3.093750238418579
1751223254826135600,3.754135498046875,-30.825000762939453,-17.887500762939453,3.0187501907348633
1751223254836135400,3.764135498046875,-30.693750381469727,-17.8125,3.0562500953674316
1751223254846135600,3.774135498046875,-30.881250381469727,-17.8125,3.2250001430511475
1751223254856135400,3.784135498046875,-30.900001525878906,-17.793750762939453,3.3375000953674316
1751223254866135600,3.794135498046875,-30.937501907348633,-17.90625,3.4875001907348633
1751223254876135400,3.804135498046875,-31.14375114440918,-17.887500762939453,3.4875001907348633
1751223254886135600,3.814135498046875,-30.881250381469727,-17.868751525878906,3.356250047683716
1751223254896135400,3.824135498046875,-30.975000381469727,-18,3.4312500953674316
1751223254906135600,3.834135498046875,-31.087501525878906,-17.92500114440918,3.562500238418579
1751223254916135400,3.844135498046875,-31.05000114440918,-17.90625,3.9750001430511475
1751223254926135600,3.854135498046875,-31.106250762939453,-17.850000381469727,4.068750381469727
1751223254936135400,3.864135498046875,-31.200000762939453,-17.73750114440918,4.331250190734863
1751223254946135600,3.874135498046875,-31.23750114440918,-17.756250381469727,4.256250381469727
1751223254956135400,3.884135498046875,-31.05000114440918,-17.662500381469727,4.387500286102295
1751223254966135600,3.894135498046875,-30.975000381469727,-17.625,4.743750095367432
1751223254976135400,3.904135498046875,-31.106250762939453,-17.55000114440918,5.118750095367432
1751223254986135600,3.914135498046875,-31.087501525878906,-17.36250114440918,5.306250095367432
1751223254996135400,3.924135498046875,-31.125001907348633,-17.325000762939453,5.25
1751223255006135600,3.934135498046875,-31.106250762939453,-17.006250381469727,5.53125
1751223255016135400,3.944135498046875,-31.218751907348633,-16.89375114440918,5.8125
1751223255026135600,3.954135498046875,-31.275001525878906,-16.80000114440918,5.887500286102295
1751223255036135400,3.964135498046875,-31.087501525878906,-16.98750114440918,6.150000095367432
1751223255046135600,3.974135498046875,-31.200000762939453,-17.043750762939453,6.093750476837158
1751223255056135400,3.984135498046875,-30.993751525878906,-17.0625,6.112500190734863
1751223255066135600,3.994135498046875,-31.031251907348633,-17.118751525878906,6.393750190734863
1751223255076135400,4.004135498046875,-30.993751525878906,-17.193750381469727,6.562500476837158
1751223255086135600,4.014135498046875,-30.975000381469727,-17.493751525878906,6.337500095367432
1751223255096135400,4.024135498046875,-30.750001907348633,-17.587501525878906,6.206250190734863
1751223255106135600,4.034135498046875,-30.731250762939453,-17.681251525878906,6.337500095367432
1751223255116135400,4.044135498046875,-31.031251907348633,-17.34375,6.393750190734863
1751223255126135600,4.054135498046875,-30.95625114440918,-17.36250114440918,6.543750286102295
1751223255136135400,4.064135498046875,-30.918750762939453,-17.381250381469727,6.412500381469727
1751223255146135600,4.074135498046875,-30.937501907348633,-17.25,6.450000286102295
1751223255156135400,4.084135498046875,-31.05000114440918,-17.137500762939453,6.262500286102295
1751223255166135600,4.094135498046875,-31.218751907348633,-17.006250381469727,6.468750476837158
1751223255176135400,4.104135498046875,-31.42500114440918,-16.875,6.487500190734863
1751223255186135600,4.114135498046875,-31.275001525878906,-16.650001525878906,6.543750286102295
1751223255196135400,4.124135498046875,-30.900001525878906,-16.6875,6.675000190734863
1751223255206135600,4.134135498046875,-30.825000762939453,-16.443750381469727,6.993750095367432
1751223255216135400,4.144135498046875,-30.975000381469727,-16.21875,7.012500286102295
1751223255226135600,4.154135498046875,-30.975000381469727,-16.162500381469727,7.068750381469727
1751223255236135400,4.164135498046875,-30.787500381469727,-16.200000762939453,7.425000190734863
1751223255246135600,4.174135498046875,-30.656251907348633,-16.125,7.612500190734863
1751223255256135400,4.184135498046875,-30.618751525878906,-16.200000762939453,7.875000476837158
1751223255266135600,4.194135498046875,-30.731250762939453,-16.293750762939453,8.193750381469727
1751223255276135400,4.204135498046875,-31.031251907348633,-16.087501525878906,8.381250381469727
1751223255286135600,4.214135498046875,-31.312501907348633,-15.937500953674316,8.34375
1751223255296135400,4.224135498046875,-31.14375114440918,-15.80625057220459,8.550000190734863
1751223255306135600,4.234135498046875,-31.125001907348633,-16.012500762939453,8.71875
1751223255316135400,4.244135498046875,-31.218751907348633,-15.80625057220459,8.86875057220459
1751223255326135600,4.254135498046875,-31.012500762939453,-15.562500953674316,8.86875057220459
1751223255336135400,4.264135498046875,-31.106250762939453,-15.450000762939453,9.09375
1751223255346135600,4.274135498046875,-31.293750762939453,-15.24375057220459,9.112500190734863
1751223255356135400,4.284135498046875,-31.275001525878906,-15.281250953674316,9.28125
1751223255366135600,4.294135498046875,-31.293750762939453,-15.412500381469727,9.450000762939453
1751223255376135400,4.304135498046875,-31.481250762939453,-15.24375057220459,9.84375
1751223255386135600,4.314135498046875,-31.687501907348633,-14.96250057220459,10.08750057220459
1751223255396135400,4.324135498046875,-31.61250114440918,-15.018750190734863,10.068750381469727
1751223255406135600,4.334135498046875,-31.781251907348633,-15.112500190734863,10.5
1751223255416135400,4.344135498046875,-31.537500381469727,-15.093750953674316,10.36875057220459
1751223255426135600,4.354135498046875,-31.51875114440918,-15.018750190734863,10.443750381469727
1751223255436135400,4.364135498046875,-31.312501907348633,-15.093750953674316,10.575000762939453
1751223255446135600,4.374135498046875,-30.993751525878906,-14.812500953674316,10.74375057220459
1751223255456135400,4.384135498046875,-30.95625114440918,-15.075000762939453,10.93125057220459
1751223255466135600,4.394135498046875,-30.656251907348633,-15.037500381469727,11.15625
1751223255476135400,4.404135498046875,-30.787500381469727,-14.981250762939453,11.325000762939453
1751223255486135600,4.414135498046875,-30.806251525878906,-15.093750953674316,11.231250762939453
1751223255496135400,4.424135498046875,-30.76875114440918,-15.225000381469727,11.49375057220459
1751223255506135600,4.434135498046875,-30.67500114440918,-15.15000057220459,11.831250190734863
1751223255516135400,4.444135498046875,-30.67500114440918,-14.831250190734863,11.887500762939453
1751223255526135600,4.454135498046875,-30.937501907348633,-14.925000190734863,12
1751223255536135400,4.464135498046875,-30.937501907348633,-14.756250381469727,11.981250762939453
1751223255546135600,4.474135498046875,-31.106250762939453,-14.700000762939453,11.793750762939453
1751223255556135400,4.484135498046875,-30.95625114440918,-14.550000190734863,12.187500953674316
1751223255566135600,4.494135498046875,-31.218751907348633,-14.325000762939453,12.356250762939453
1751223255576135400,4.504135498046875,-31.443750381469727,-13.912500381469727,12.637500762939453
1751223255586135600,4.514135498046875,-31.312501907348633,-13.856250762939453,12.71250057220459
1751223255596135400,4.524135498046875,-31.293750762939453,-13.93125057220459,13.068750381469727
1751223255606135600,4.534135498046875,-31.312501907348633,-13.74375057220459,13.218750953674316
1751223255616135400,4.544135498046875,-31.500001907348633,-13.518750190734863,13.500000953674316
1751223255626135600,4.554135498046875,-31.500001907348633,-13.331250190734863,13.83750057220459
1751223255636135400,4.564135498046875,-31.743751525878906,-13.293750762939453,13.762500762939453
1751223255646135600,4.574135498046875,-31.387500762939453,-12.975000381469727,14.437500953674316
1751223255656135400,4.584135498046875,-31.462501525878906,-13.08750057220459,14.568750381469727
1751223255666135600,4.594135498046875,-31.368751525878906,-13.106250762939453,14.812500953674316
1751223255676135400,4.604135498046875,-31.500001907348633,-12.843750953674316,14.831250190734863
1751223255686135600,4.614135498046875,-31.275001525878906,-12.825000762939453,15.168750762939453
1751223255696135400,4.624135498046875,-31.087501525878906,-12.693750381469727,15.356250762939453
1751223255706135600,4.634135498046875,-31.218751907348633,-12.562500953674316,15.581250190734863
1751223255716135400,4.644135498046875,-31.218751907348633,-12.375000953674316,16.21875
1751223255726135600,4.654135498046875,-31.106250762939453,-12.487500190734863,16.03125
1751223255736135400,4.664135498046875,-30.993751525878906,-12.15000057220459,16.462501525878906
1751223255746135600,4.674135498046875,-31.350000381469727,-11.831250190734863,16.61250114440918
1751223255756135400,4.684135498046875,-31.350000381469727,-11.86875057220459,16.931251525878906
1751223255766135600,4.694135498046875,-31.387500762939453,-11.737500190734863,17.193750381469727
1751223255776135400,4.704135498046875,-31.462501525878906,-11.71875,17.325000762939453
1751223255786135600,4.714135498046875,-31.23750114440918,-11.606250762939453,17.73750114440918
1751223255796135400,4.724135498046875,-31.087501525878906,-11.34375,17.775001525878906
1751223255806135600,4.734135498046875,-31.162500381469727,-11.175000190734863,17.92500114440918
1751223255816135400,4.744135498046875,-31.087501525878906,-10.893750190734863,18.056251525878906
1751223255826135600,4.754135498046875,-30.975000381469727,-10.78125,18.412500381469727
1751223255836135400,4.764135498046875,-31.106250762939453,-10.256250381469727,18.731250762939453
1751223255846135600,4.774135498046875,-31.23750114440918,-9.975000381469727,18.881250381469727
1751223255856135400,4.784135498046875,-31.200000762939453,-9.84375,19.350000381469727
1751223255866135600,4.794135498046875,-31.218751907348633,-9.637500762939453,19.6875
1751223255876135400,4.804135498046875,-31.14375114440918,-9.450000762939453,20.26875114440918
1751223255896135400,4.824135498046875,-31.631250381469727,-9.15000057220459,20.775001525878906
1751223255906135600,4.834135498046875,-31.406251907348633,-8.887500762939453,21.037500381469727
1751223255916135400,4.844135498046875,-31.293750762939453,-8.831250190734863,21.337501525878906
1751223255926135600,4.854135498046875,-31.462501525878906,-8.475000381469727,21.825000762939453
1751223255936135400,4.864135498046875,-31.500001907348633,-8.02500057220459,22.012500762939453
1751223255946135600,4.874135498046875,-31.368751525878906,-7.556250095367432,22.162500381469727
1751223255956135400,4.884135498046875,-31.631250381469727,-7.312500476837158,22.068750381469727
1751223255966135600,4.894135498046875,-31.575000762939453,-6.881250381469727,22.275001525878906
1751223255976135400,4.904135498046875,-31.575000762939453,-6.581250190734863,22.837501525878906
1751223255986135600,4.914135498046875,-31.725000381469727,-6.468750476837158,23.231250762939453
1751223255996135400,4.924135498046875,-31.837501525878906,-6.356250286102295,23.418750762939453
1751223256006135600,4.934135498046875,-31.743751525878906,-6.168750286102295,23.512500762939453
1751223256016135400,4.944135498046875,-31.931251525878906,-6,23.793750762939453
1751223256026135600,4.954135498046875,-32.08125305175781,-5.943750381469727,23.850000381469727
1751223256036135400,4.964135498046875,-32.025001525878906,-6,23.962501525878906
1751223256046135600,4.974135498046875,-32.025001525878906,-5.981250286102295,24.11250114440918
1751223256056135400,4.984135498046875,-31.89375114440918,-5.981250286102295,24.037500381469727
1751223256066135600,4.994135498046875,-32.23125076293945,-5.887500286102295,24.056251525878906
1751223256076135400,5.004135498046875,-32.32500076293945,-5.737500190734863,24.150001525878906
1751223256086135600,5.014135498046875,-32.56875228881836,-5.850000381469727,24.20625114440918
1751223256096135400,5.024135498046875,-32.53125,-5.756250381469727,24.20625114440918
1751223256106135600,5.034135498046875,-32.625,-5.681250095367432,24.356250762939453
1751223256116135400,5.044135498046875,-32.55000305175781,-5.456250190734863,24.67500114440918
1751223256126135600,5.054135498046875,-32.70000076293945,-5.34375,24.787500381469727
1751223256136135400,5.064135498046875,-32.962501525878906,-5.400000095367432,24.881250381469727
1751223256146135600,5.074135498046875,-32.53125,-5.175000190734863,25.181251525878906
1751223256156135400,5.084135498046875,-32.55000305175781,-5.137500286102295,25.33125114440918
1751223256166135600,5.094135498046875,-32.38125228881836,-4.856250286102295,25.181251525878906
1751223256176135400,5.104135498046875,-32.25,-4.912500381469727,25.275001525878906
1751223256186135600,5.114135498046875,-32.13750076293945,-4.800000190734863,25.350000381469727
1751223256196135400,5.124135498046875,-32.23125076293945,-4.668750286102295,25.23750114440918
1751223256206135600,5.134135498046875,-31.98750114440918,-4.537500381469727,25.087501525878906
1751223256216135400,5.144135498046875,-31.743751525878906,-4.087500095367432,25.05000114440918
1751223256226135600,5.154135498046875,-31.856250762939453,-4.162500381469727,24.693750381469727
1751223256236135400,5.164135498046875,-31.687501907348633,-4.125,24.693750381469727
1751223256246135600,5.174135498046875,-31.462501525878906,-4.087500095367432,25.05000114440918
1751223256256135400,5.184135498046875,-31.406251907348633,-3.9562501907348633,25.106250762939453
1751223256266135600,5.194135498046875,-31.51875114440918,-3.9562501907348633,25.106250762939453
1751223256276135400,5.204135498046875,-31.462501525878906,-3.9750001430511475,25.275001525878906
1751223256286135600,5.214135498046875,-31.556251525878906,-3.731250047683716,25.575000762939453
1751223256296135400,5.224135498046875,-31.61250114440918,-3.7875001430511475,25.875001907348633
1751223256306135600,5.234135498046875,-31.818750381469727,-3.6187500953674316,26.193750381469727
1751223256316135400,5.244135498046875,-32.00625228881836,-3.4875001907348633,26.36250114440918
1751223256326135600,5.254135498046875,-32.0625,-3.450000047683716,26.212501525878906
1751223256336135400,5.264135498046875,-32.15625,-3.281250238418579,26.193750381469727
1751223256346135600,5.274135498046875,-32.306251525878906,-3.168750047683716,26.45625114440918
1751223256356135400,5.284135498046875,-32.23125076293945,-3.2062501907348633,26.381250381469727
1751223256366135600,5.294135498046875,-32.34375,-3.468750238418579,26.662500381469727
1751223256376135400,5.304135498046875,-32.118751525878906,-3.356250047683716,26.718751907348633
1751223256386135600,5.314135498046875,-32.13750076293945,-3.2437500953674316,26.887500762939453
1751223256396135400,5.324135498046875,-32.118751525878906,-3.1125001907348633,26.793750762939453
1751223256406135600,5.334135498046875,-32.212501525878906,-2.9625000953674316,27.093751907348633
1751223256416135400,5.344135498046875,-32.13750076293945,-2.90625,27.281251907348633
1751223256426135600,5.354135498046875,-32.00625228881836,-2.8687500953674316,27.225000381469727
1751223256436135400,5.364135498046875,-32.17500305175781,-2.4375,27.281251907348633
1751223256446135600,5.374135498046875,-32.36250305175781,-2.2125000953674316,27.131250381469727
1751223256456135400,5.384135498046875,-32.79375076293945,-2.1000001430511475,27.225000381469727
1751223256466135600,5.394135498046875,-32.55000305175781,-1.9687501192092896,27.225000381469727
1751223256476135400,5.404135498046875,-32.493751525878906,-1.818750023841858,27.243751525878906
1751223256486135600,5.414135498046875,-32.47500228881836,-1.6687500476837158,27.30000114440918
1751223256496135400,5.424135498046875,-32.45625305175781,-1.6875001192092896,27.375001907348633
1751223256506135600,5.434135498046875,-32.70000076293945,-1.5187500715255737,27.468751907348633
1751223256516135400,5.444135498046875,-32.8125,-1.6500000953674316,27.637500762939453
1751223256526135600,5.454135498046875,-32.90625,-1.725000023841858,27.637500762939453
1751223256536135400,5.464135498046875,-32.75625228881836,-1.7812501192092896,27.750001907348633
1751223256546135600,5.474135498046875,-33.26250076293945,-1.8937500715255737,27.562501907348633
1751223256556135400,5.484135498046875,-33.1875,-1.818750023841858,27.637500762939453
1751223256566135600,5.494135498046875,-33.30000305175781,-1.912500023841858,27.543750762939453
1751223256576135400,5.504135498046875,-33.16875076293945,-1.9312500953674316,27.562501907348633
1751223256586135600,5.514135498046875,-32.90625,-2.043750047683716,27.468751907348633
1751223256596135400,5.524135498046875,-32.92500305175781,-1.9312500953674316,27.618751525878906
1751223256606135600,5.534135498046875,-32.625,-1.7062500715255737,27.67500114440918
1751223256616135400,5.544135498046875,-32.45625305175781,-1.5937501192092896,27.76875114440918
1751223256626135600,5.554135498046875,-32.23125076293945,-1.443750023841858,27.881250381469727
1751223256636135400,5.564135498046875,-32.400001525878906,-1.537500023841858,27.95625114440918
1751223256646135600,5.574135498046875,-32.15625,-1.3125,28.218751907348633
1751223256656135400,5.584135498046875,-32.47500228881836,-1.1062500476837158,28.23750114440918
1751223256666135600,5.594135498046875,-32.587501525878906,-0.9000000357627869,28.481250762939453
1751223256676135400,5.604135498046875,-32.73750305175781,-0.8437500596046448,28.462501525878906
1751223256686135600,5.614135498046875,-32.88750076293945,-0.6375000476837158,28.481250762939453
1751223256696135400,5.624135498046875,-33.13125228881836,-0.45000001788139343,28.368751525878906
1751223256706135600,5.634135498046875,-33.16875076293945,-0.16875000298023224,28.462501525878906
1751223256716135400,5.644135498046875,-33.22500228881836,0.13125000894069672,28.593751907348633
1751223256726135600,5.654135498046875,-33.20625305175781,0.05625000223517418,28.387500762939453
1751223256736135400,5.664135498046875,-33.35625076293945,0.375,28.500001907348633
1751223256746135600,5.674135498046875,-33.31875228881836,0.5437500476837158,28.818750381469727
1751223256756135400,5.684135498046875,-33.150001525878906,0.862500011920929,29.043750762939453
1751223256766135600,5.694135498046875,-32.868751525878906,0.7875000238418579,29.26875114440918
1751223256776135400,5.704135498046875,-32.71875,0.9375000596046448,29.55000114440918
1751223256786135600,5.714135498046875,-32.681251525878906,0.9750000238418579,29.718751907348633
1751223256796135400,5.724135498046875,-32.493751525878906,0.9937500357627869,29.868751525878906
1751223256806135600,5.734135498046875,-32.962501525878906,1.21875,30.168750762939453
1751223256816135400,5.744135498046875,-32.70000076293945,1.162500023841858,30.281251907348633
1751223256826135600,5.754135498046875,-32.64375305175781,1.2937500476837158,30.281251907348633
1751223256836135400,5.764135498046875,-32.625,1.2937500476837158,30.39375114440918
1751223256846135600,5.774135498046875,-32.73750305175781,1.7062500715255737,30.637500762939453
1751223256856135400,5.784135498046875,-33,1.6500000953674316,30.506250381469727
1751223256866135600,5.794135498046875,-33.03750228881836,1.7625000476837158,30.525001525878906
1751223256876135400,5.804135498046875,-33.11250305175781,1.912500023841858,30.450000762939453
1751223256886135600,5.814135498046875,-32.681251525878906,2.15625,30.618751525878906
1751223256896135400,5.824135498046875,-32.83125305175781,2.1750001907348633,30.712501525878906
1751223256906135600,5.834135498046875,-32.775001525878906,2.25,30.712501525878906
1751223256916135400,5.844135498046875,-32.8125,2.512500047683716,30.656251907348633
1751223256926135600,5.854135498046875,-32.92500305175781,2.4750001430511475,30.600000381469727
1751223256936135400,5.864135498046875,-32.587501525878906,2.793750047683716,30.918750762939453
1751223256946135600,5.874135498046875,-32.4375,2.90625,31.106250762939453
1751223256956135400,5.884135498046875,-32.51250076293945,3.0562500953674316,31.500001907348633
1751223256966135600,5.894135498046875,-32.85000228881836,3.1500000953674316,31.70625114440918
1751223256976135400,5.904135498046875,-33.03750228881836,3.4875001907348633,31.912500381469727
1751223256986135600,5.914135498046875,-33.1875,3.7125000953674316,31.912500381469727
1751223256996135400,5.924135498046875,-33.22500228881836,3.825000047683716,32.0625
1751223257006135600,5.934135498046875,-33.20625305175781,4.106250286102295,32.13750076293945
1751223257016135400,5.944135498046875,-33.525001525878906,4.21875,32.32500076293945
1751223257026135600,5.954135498046875,-33.84375,4.556250095367432,32.55000305175781
1751223257036135400,5.964135498046875,-33.67500305175781,4.762500286102295,32.4375
1751223257046135600,5.974135498046875,-33.618751525878906,4.893750190734863,32.53125
1751223257056135400,5.984135498046875,-33.31875228881836,5.15625,32.587501525878906
1751223257066135600,5.994135498046875,-33.41250228881836,5.400000095367432,32.681251525878906
1751223257076135400,6.004135498046875,-33.26250076293945,5.550000190734863,32.70000076293945
1751223257086135600,6.014135498046875,-33.45000076293945,5.71875,33.01875305175781
1751223257096135400,6.024135498046875,-33.243751525878906,5.943750381469727,33.07500076293945
1751223257106135600,6.034135498046875,-32.8125,6.037500381469727,33.16875076293945
1751223257116135400,6.044135498046875,-32.8125,6.281250476837158,33.41250228881836
1751223257126135600,6.054135498046875,-32.8125,6.487500190734863,33.48750305175781
1751223257136135400,6.064135498046875,-33,6.543750286102295,33.50625228881836
1751223257146135600,6.074135498046875,-32.775001525878906,6.712500095367432,33.618751525878906
1751223257156135400,6.084135498046875,-32.83125305175781,6.787500381469727,33.67500305175781
1751223257166135600,6.094135498046875,-32.60625076293945,6.956250190734863,33.5625
1751223257176135400,6.104135498046875,-32.73750305175781,7.200000286102295,33.69375228881836
1751223257186135600,6.114135498046875,-33.01875305175781,7.237500190734863,33.50625228881836
1751223257196135400,6.124135498046875,-33.26250076293945,7.312500476837158,33.45000076293945
1751223257206135600,6.134135498046875,-33.22500228881836,7.500000476837158,33.41250228881836
1751223257216135400,6.144135498046875,-33.150001525878906,7.800000190734863,33.63750076293945
1751223257226135600,6.154135498046875,-33.26250076293945,7.968750476837158,33.75
1751223257236135400,6.164135498046875,-33.20625305175781,8.287500381469727,33.84375
1751223257246135600,6.174135498046875,-33.46875,8.49375057220459,33.97500228881836
1751223257256135400,6.184135498046875,-33.60000228881836,8.662500381469727,33.806251525878906
1751223257266135600,6.194135498046875,-33.5625,8.96250057220459,34.01250076293945
1751223257276135400,6.204135498046875,-33.39375305175781,9.300000190734863,34.14375305175781
1751223257286135600,6.214135498046875,-33.431251525878906,9.61875057220459,34.05000305175781
1751223257296135400,6.224135498046875,-33.50625228881836,9.84375,34.03125
1751223257306135600,6.234135498046875,-33.76875305175781,9.90000057220459,34.16250228881836
1751223257316135400,6.244135498046875,-34.14375305175781,10.256250381469727,34.275001525878906
1751223257326135600,6.254135498046875,-33.78750228881836,10.425000190734863,34.368751525878906
1751223257336135400,6.264135498046875,-33.50625228881836,10.612500190734863,34.5
1751223257346135600,6.274135498046875,-33.30000305175781,10.893750190734863,34.76250076293945
1751223257366135600,6.294135498046875,-33.525001525878906,11.21250057220459,35.10000228881836
1751223257376135400,6.304135498046875,-33.58125305175781,11.550000190734863,35.36250305175781
1751223257386135600,6.314135498046875,-33.54375076293945,11.96250057220459,35.47500228881836
1751223257396135400,6.324135498046875,-33.26250076293945,12.112500190734863,35.60625076293945
1751223257406135600,6.334135498046875,-33.48750305175781,12.393750190734863,35.70000076293945
1751223257416135400,6.344135498046875,-33.67500305175781,12.731250762939453,35.75625228881836
1751223257426135600,6.354135498046875,-33.84375,13.162500381469727,35.79375076293945
1751223257436135400,6.364135498046875,-33.69375228881836,13.55625057220459,35.71875
1751223257446135600,6.374135498046875,-33.525001525878906,13.893750190734863,35.94375228881836
1751223257456135400,6.384135498046875,-33.337501525878906,14.287500381469727,35.98125076293945
1751223257466135600,6.394135498046875,-33.243751525878906,14.906250953674316,36
1751223257476135400,6.404135498046875,-33.13125228881836,15.450000762939453,36.16875076293945
1751223257486135600,6.414135498046875,-33.03750228881836,16.068750381469727,36.54375076293945
1751223257496135400,6.424135498046875,-33.20625305175781,16.462501525878906,36.78750228881836
1751223257506135600,6.434135498046875,-33.16875076293945,17.08125114440918,36.82500076293945
1751223257516135400,6.444135498046875,-32.92500305175781,17.90625,37.10625076293945
1751223257526135600,6.454135498046875,-32.868751525878906,18.693750381469727,37.33125305175781
1751223257536135400,6.464135498046875,-32.85000228881836,19.275001525878906,37.40625
1751223257546135600,6.474135498046875,-32.83125305175781,19.912500381469727,37.61250305175781
1751223257556135400,6.484135498046875,-32.90625,20.64375114440918,37.76250076293945
1751223257566135600,6.494135498046875,-32.625,21.39375114440918,37.76250076293945
1751223257576135400,6.504135498046875,-32.32500076293945,22.3125,37.6875
1751223257586135600,6.514135498046875,-32.0625,22.743751525878906,37.89375305175781
1751223257596135400,6.524135498046875,-32.25,23.212501525878906,37.98750305175781
1751223257606135600,6.534135498046875,-32.38125228881836,23.53125,37.78125
1751223257616135400,6.544135498046875,-32.4375,23.981250762939453,37.743751525878906
1751223257626135600,6.554135498046875,-32.212501525878906,24.037500381469727,37.76250076293945
1751223257636135400,6.564135498046875,-32.00625228881836,24.187501907348633,37.57500076293945
1751223257646135600,6.574135498046875,-32.15625,24.356250762939453,37.462501525878906
1751223257656135400,6.584135498046875,-31.968751907348633,24.243751525878906,37.76250076293945
1751223257666135600,6.594135498046875,-32.306251525878906,24.375001907348633,37.44375228881836
1751223257676135400,6.604135498046875,-32.28750228881836,24.131250381469727,37.10625076293945
1751223257686135600,6.614135498046875,-32.08125305175781,24.281251907348633,37.3125
1751223257696135400,6.624135498046875,-31.912500381469727,24.131250381469727,37.20000076293945
1751223257706135600,6.634135498046875,-31.875001907348633,24.262500762939453,36.97500228881836
1751223257716135400,6.644135498046875,-32.10000228881836,24.150001525878906,37.05000305175781
1751223257726135600,6.654135498046875,-32.118751525878906,24.187501907348633,37.10625076293945
1751223257736135400,6.664135498046875,-32.4375,24.243751525878906,37.06875228881836
1751223257746135600,6.674135498046875,-32.400001525878906,24.262500762939453,37.125
1751223257756135400,6.684135498046875,-32.4375,24.506250381469727,37.33125305175781
1751223257766135600,6.694135498046875,-32.34375,24.525001525878906,37.25625228881836
1751223257776135400,6.704135498046875,-32.41875076293945,24.48750114440918,37.53750228881836
1751223257786135600,6.714135498046875,-32.45625305175781,24.337501525878906,37.6875
1751223257796135400,6.724135498046875,-32.34375,24.637500762939453,37.80000305175781
1751223257806135600,6.734135498046875,-32.55000305175781,24.58125114440918,37.85625076293945
1751223257816135400,6.744135498046875,-32.47500228881836,24.67500114440918,37.81875228881836
1751223257826135600,6.754135498046875,-32.23125076293945,24.900001525878906,38.0625
1751223257836135400,6.764135498046875,-32.23125076293945,25.05000114440918,38.26875305175781
1751223257846135600,6.774135498046875,-32.4375,25.200000762939453,38.4375
1751223257856135400,6.784135498046875,-32.38125228881836,25.556251525878906,38.306251525878906
1751223257866135600,6.794135498046875,-32.51250076293945,26.062501907348633,38.34375
1751223257876135400,6.804135498046875,-32.587501525878906,26.137500762939453,38.10000228881836
1751223257886135600,6.814135498046875,-32.10000228881836,26.400001525878906,37.95000076293945
1751223257896135400,6.824135498046875,-31.931251525878906,26.493751525878906,37.875
1751223257906135600,6.834135498046875,-32.025001525878906,26.73750114440918,37.89375305175781
1751223257916135400,6.844135498046875,-31.762500762939453,26.92500114440918,37.875
1751223257926135600,6.854135498046875,-31.650001525878906,27.131250381469727,37.98750305175781
1751223257936135400,6.864135498046875,-31.70625114440918,27.356250762939453,37.98750305175781
1751223257946135600,6.874135498046875,-31.443750381469727,27.356250762939453,37.95000076293945
1751223257956135400,6.884135498046875,-31.537500381469727,27.562501907348633,37.96875
1751223257966135600,6.894135498046875,-31.950000762939453,27.731250762939453,37.89375305175781
1751223257976135400,6.904135498046875,-31.912500381469727,28.068750381469727,37.91250228881836
1751223257986135600,6.914135498046875,-31.743751525878906,28.087501525878906,37.6875
1751223257996135400,6.924135498046875,-31.762500762939453,28.218751907348633,37.368751525878906
1751223258006135600,6.934135498046875,-31.762500762939453,28.42500114440918,37.29375076293945
1751223258016135400,6.944135498046875,-31.406251907348633,28.575000762939453,37.48125076293945
1751223258026135600,6.954135498046875,-31.61250114440918,28.631250381469727,37.556251525878906
1751223258036135400,6.964135498046875,-31.256250381469727,28.80000114440918,37.57500076293945
1751223258046135600,6.974135498046875,-31.14375114440918,28.89375114440918,37.48125076293945
1751223258056135400,6.984135498046875,-31.181251525878906,28.89375114440918,37.44375228881836
1751223258066135600,6.994135498046875,-31.293750762939453,28.968751907348633,37.63125228881836
1751223258076135400,7.004135498046875,-31.406251907348633,29.025001525878906,37.650001525878906
1751223258086135600,7.014135498046875,-31.293750762939453,28.950000762939453,37.556251525878906
1751223258096135400,7.024135498046875,-31.443750381469727,28.875001907348633,37.57500076293945
1751223258106135600,7.034135498046875,-31.668750762939453,29.156251907348633,37.44375228881836
1751223258116135400,7.044135498046875,-31.631250381469727,29.118751525878906,37.57500076293945
1751223258126135600,7.054135498046875,-31.500001907348633,29.231250762939453,37.80000305175781
1751223258136135400,7.064135498046875,-31.462501525878906,29.493751525878906,37.66875076293945
1751223258146135600,7.074135498046875,-31.33125114440918,29.943750381469727,37.5
1751223258156135400,7.084135498046875,-31.275001525878906,30.075000762939453,37.42500305175781
1751223258166135600,7.094135498046875,-31.350000381469727,30.431251525878906,37.35000228881836
1751223258176135400,7.104135498046875,-31.312501907348633,30.712501525878906,36.97500228881836
1751223258186135600,7.114135498046875,-30.712501525878906,30.750001907348633,37.03125
1751223258196135400,7.124135498046875,-30.656251907348633,31.05000114440918,36.84375
1751223258206135600,7.134135498046875,-30.543750762939453,31.23750114440918,36.525001525878906
1751223258216135400,7.144135498046875,-30.562501907348633,31.275001525878906,36.54375076293945
1751223258226135600,7.154135498046875,-30.637500762939453,31.181251525878906,36.54375076293945
1751223258236135400,7.164135498046875,-30.375001907348633,31.481250762939453,36.76875305175781
1751223258246135600,7.174135498046875,-30.000001907348633,31.575000762939453,36.82500076293945
1751223258256135400,7.184135498046875,-29.943750381469727,31.80000114440918,36.97500228881836
1751223258266135600,7.194135498046875,-30.093751907348633,32.0625,36.86250305175781
1751223258276135400,7.204135498046875,-30.000001907348633,32.26875305175781,37.03125
1751223258286135600,7.214135498046875,-30.056251525878906,32.51250076293945,37.25625228881836
1751223258296135400,7.224135498046875,-30.01875114440918,32.83125305175781,37.3125
1751223258306135600,7.234135498046875,-29.775001525878906,33.056251525878906,37.40625
1751223258316135400,7.244135498046875,-29.812501907348633,33.03750228881836,37.21875
1751223258326135600,7.254135498046875,-30.187501907348633,33.16875076293945,37.14375305175781
1751223258336135400,7.264135498046875,-30.150001525878906,33.337501525878906,37.087501525878906
1751223258346135600,7.274135498046875,-30.337501525878906,33.618751525878906,37.21875
1751223258356135400,7.284135498046875,-30.39375114440918,33.75,37.05000305175781
1751223258366135600,7.294135498046875,-30.243751525878906,33.88125228881836,37.01250076293945
1751223258376135400,7.304135498046875,-30.375001907348633,34.05000305175781,37.16250228881836
1751223258386135600,7.314135498046875,-30.543750762939453,34.275001525878906,37.03125
1751223258396135400,7.324135498046875,-30.637500762939453,34.42500305175781,37.10625076293945
1751223258406135600,7.334135498046875,-30.412500381469727,34.44375228881836,37.181251525878906
1751223258416135400,7.344135498046875,-30.543750762939453,34.35000228881836,37.21875
1751223258426135600,7.354135498046875,-30.168750762939453,34.33125305175781,37.03125
1751223258436135400,7.364135498046875,-29.943750381469727,34.48125076293945,37.23750305175781
1751223258446135600,7.374135498046875,-30.150001525878906,34.743751525878906,37.10625076293945
1751223258456135400,7.384135498046875,-29.756250381469727,34.875,36.91875076293945
1751223258466135600,7.394135498046875,-29.64375114440918,34.931251525878906,36.82500076293945
1751223258476135400,7.404135498046875,-29.625001907348633,35.23125076293945,36.76875305175781
1751223258486135600,7.414135498046875,-29.475000381469727,35.64375305175781,36.75
1751223258496135400,7.424135498046875,-29.325000762939453,35.98125076293945,36.65625
1751223258506135600,7.434135498046875,-29.343751907348633,36.337501525878906,36.60000228881836
1751223258516135400,7.444135498046875,-29.325000762939453,36.54375076293945,36.45000076293945
1751223258526135600,7.454135498046875,-28.837501525878906,36.67500305175781,36.618751525878906
1751223258536135400,7.464135498046875,-28.931251525878906,36.75,36.35625076293945
1751223258546135600,7.474135498046875,-28.818750381469727,36.900001525878906,36.375
1751223258556135400,7.484135498046875,-28.593751907348633,37.06875228881836,36.30000305175781
1751223258566135600,7.494135498046875,-28.931251525878906,37.21875,36.20625305175781
1751223258576135400,7.504135498046875,-28.837501525878906,37.40625,36.26250076293945
1751223258586135600,7.514135498046875,-28.931251525878906,37.462501525878906,36.48750305175781
1751223258596135400,7.524135498046875,-29.118751525878906,37.48125076293945,36.41250228881836
1751223258606135600,7.534135498046875,-29.306251525878906,37.556251525878906,36.26250076293945
1751223258616135400,7.544135498046875,-29.043750762939453,37.72500228881836,36.525001525878906
1751223258626135600,7.554135498046875,-29.193750381469727,37.837501525878906,36.73125076293945
1751223258636135400,7.564135498046875,-29.36250114440918,37.95000076293945,36.86250305175781
1751223258646135600,7.574135498046875,-29.250001907348633,37.875,36.78750228881836
1751223258656135400,7.584135498046875,-29.17500114440918,37.70625305175781,36.712501525878906
1751223258666135600,7.594135498046875,-29.287500381469727,37.650001525878906,36.525001525878906
1751223258676135400,7.604135498046875,-29.137500762939453,37.81875228881836,36.78750228881836
1751223258686135600,7.614135498046875,-28.98750114440918,37.72500228881836,36.54375076293945
1751223258696135400,7.624135498046875,-29.08125114440918,37.650001525878906,36.618751525878906
1751223258706135600,7.634135498046875,-28.70625114440918,37.6875,36.1875
1751223258716135400,7.644135498046875,-28.687501907348633,37.875,36.07500076293945
1751223258726135600,7.654135498046875,-28.406251907348633,38.00625228881836,36.1875
1751223258736135400,7.664135498046875,-28.481250762939453,38.51250076293945,36.31875228881836
1751223258746135600,7.674135498046875,-28.14375114440918,38.83125305175781,36.39375305175781
1751223258756135400,7.684135498046875,-28.200000762939453,39.03750228881836,36.16875076293945
1751223258766135600,7.694135498046875,-28.031251907348633,39.150001525878906,36.26250076293945
1751223258776135400,7.704135498046875,-28.012500762939453,39.54375076293945,35.98125076293945
1751223258786135600,7.714135498046875,-28.218751907348633,39.82500076293945,36.243751525878906
1751223258796135400,7.724135498046875,-28.181251525878906,39.86250305175781,36.09375
1751223258806135600,7.734135498046875,-28.406251907348633,40.21875,36.01875305175781
1751223258816135400,7.744135498046875,-28.293750762939453,40.275001525878906,35.775001525878906
1751223258826135600,7.754135498046875,-28.312501907348633,40.368751525878906,35.587501525878906
1751223258836135400,7.764135498046875,-28.125001907348633,40.556251525878906,35.681251525878906
1751223258846135600,7.774135498046875,-28.33125114440918,40.837501525878906,35.70000076293945
1751223258856135400,7.784135498046875,-28.33125114440918,40.931251525878906,35.775001525878906
1751223258866135600,7.794135498046875,-28.33125114440918,40.91250228881836,35.71875
1751223258876135400,7.804135498046875,-28.068750381469727,41.00625228881836,35.625
1751223258886135600,7.814135498046875,-27.900001525878906,41.00625228881836,35.47500228881836
1751223258896135400,7.824135498046875,-27.825000762939453,41.08125305175781,35.55000305175781
1751223258906135600,7.834135498046875,-27.693750381469727,41.13750076293945,35.55000305175781
1751223258916135400,7.844135498046875,-27.787500381469727,41.15625,35.400001525878906
1751223258926135600,7.854135498046875,-27.506250381469727,41.15625,35.32500076293945
1751223258936135400,7.864135498046875,-27.337501525878906,41.23125076293945,35.10000228881836
1751223258946135600,7.874135498046875,-27.056251525878906,41.66250228881836,35.118751525878906
1751223258966135600,7.894135498046875,-27.11250114440918,41.90625,35.04375076293945
1751223258976135400,7.904135498046875,-26.92500114440918,42.056251525878906,34.96875
1751223258986135600,7.914135498046875,-27.243751525878906,42.1875,34.875
1751223258996135400,7.924135498046875,-27.11250114440918,42.13125228881836,34.80000305175781
1751223259006135600,7.934135498046875,-27.093751907348633,42.375,34.98750305175781
1751223259016135400,7.944135498046875,-27.093751907348633,42.50625228881836,35.28750228881836
1751223259026135600,7.954135498046875,-27.243751525878906,42.46875,35.04375076293945
1751223259036135400,7.964135498046875,-27.225000381469727,42.712501525878906,35.118751525878906
1751223259046135600,7.974135498046875,-27.000001907348633,42.900001525878906,35.10000228881836
1751223259056135400,7.984135498046875,-27.11250114440918,42.82500076293945,34.95000076293945
1751223259066135600,7.994135498046875,-26.887500762939453,42.86250305175781,35.00625228881836
1751223259076135400,8.004135498046875,-26.73750114440918,42.993751525878906,34.6875
1751223259086135600,8.014135498046874,-27.11250114440918,43.125,34.5
1751223259096135400,8.024135498046874,-27.037500381469727,43.181251525878906,34.44375228881836
1751223259106135600,8.034135498046876,-26.775001525878906,42.95625305175781,34.33125305175781
1751223259116135400,8.044135498046876,-26.625001907348633,42.993751525878906,34.20000076293945
1751223259126135600,8.054135498046875,-26.73750114440918,43.01250076293945,34.16250228881836
1751223259136135400,8.064135498046875,-26.718751907348633,43.35000228881836,33.97500228881836
1751223259146135600,8.074135498046875,-26.625001907348633,43.63125228881836,33.900001525878906
1751223259156135400,8.084135498046875,-26.943750381469727,43.85625076293945,34.05000305175781
1751223259166135600,8.094135498046874,-26.793750762939453,43.72500228881836,33.993751525878906
1751223259176135400,8.104135498046874,-26.55000114440918,43.81875228881836,33.91875076293945
1751223259186135600,8.114135498046876,-26.681251525878906,44.17500305175781,33.84375
1751223259196135400,8.124135498046876,-26.793750762939453,44.34375,33.65625
1751223259206135600,8.134135498046875,-26.45625114440918,44.45625305175781,33.54375076293945
1751223259216135400,8.144135498046875,-26.512500762939453,44.38125228881836,33.58125305175781
1751223259226135600,8.154135498046875,-26.343751907348633,44.41875076293945,33.75
1751223259236135400,8.164135498046875,-26.156251907348633,44.625,33.63750076293945
1751223259246135600,8.174135498046875,-25.80000114440918,44.90625,33.5625
1751223259256135400,8.184135498046874,-25.89375114440918,45.22500228881836,33.39375305175781
1751223259266135600,8.194135498046874,-26.08125114440918,45.31875228881836,33.41250228881836
1751223259276135400,8.204135498046876,-26.006250381469727,45.46875,33.63750076293945
1751223259286135600,8.214135498046875,-26.043750762939453,45.63750076293945,33.76875305175781
1751223259296135400,8.224135498046875,-26.100000381469727,46.05000305175781,33.900001525878906
1751223259306135600,8.234135498046875,-26.212501525878906,46.10625076293945,33.5625
1751223259316135400,8.244135498046875,-25.968751907348633,46.087501525878906,33.431251525878906
1751223259326135600,8.254135498046875,-26.006250381469727,46.25625228881836,33.41250228881836
1751223259336135400,8.264135498046874,-26.08125114440918,46.25625228881836,33.35625076293945
1751223259346135600,8.274135498046874,-25.668750762939453,46.5,33.39375305175781
1751223259356135400,8.284135498046876,-25.61250114440918,46.462501525878906,33.243751525878906
1751223259366135600,8.294135498046876,-25.387500762939453,46.35000228881836,33.11250305175781
1751223259376135400,8.304135498046875,-25.05000114440918,46.21875,32.88750076293945
1751223259386135600,8.314135498046875,-25.068750381469727,46.3125,32.79375076293945
1751223259396135400,8.324135498046875,-25.162500381469727,46.3125,32.85000228881836
1751223259406135600,8.334135498046875,-25.14375114440918,46.38750076293945,32.88750076293945
1751223259416135400,8.344135498046874,-25.125001907348633,46.44375228881836,32.75625228881836
1751223259426135600,8.354135498046874,-25.087501525878906,46.16250228881836,32.8125
1751223259436135400,8.364135498046876,-25.106250762939453,46.3125,32.775001525878906
1751223259446135600,8.374135498046876,-25.443750381469727,46.63125228881836,32.587501525878906
1751223259456135400,8.384135498046875,-25.537500381469727,46.743751525878906,32.493751525878906
1751223259466135600,8.394135498046875,-25.181251525878906,46.98750305175781,32.55000305175781
1751223259476135400,8.404135498046875,-25.068750381469727,47.34375,32.38125228881836
1751223259486135600,8.414135498046875,-25.406251907348633,47.56875228881836,32.400001525878906
1751223259496135400,8.424135498046875,-25.087501525878906,47.775001525878906,32.19375228881836
1751223259506135600,8.434135498046874,-24.993751525878906,48.35625076293945,32.118751525878906
1751223259516135400,8.444135498046874,-24.712501525878906,48.656253814697266,31.968751907348633
1751223259526135600,8.454135498046876,-24.39375114440918,48.76875305175781,31.89375114440918
1751223259536135400,8.464135498046875,-24.01875114440918,49.181251525878906,31.968751907348633
1751223259546135600,8.474135498046875,-24.131250381469727,49.275001525878906,31.837501525878906
1751223259556135400,8.484135498046875,-23.962501525878906,49.462501525878906,31.856250762939453
1751223259566135600,8.494135498046875,-23.45625114440918,49.743751525878906,31.556251525878906
1751223259576135400,8.504135498046875,-23.662500381469727,50.062503814697266,31.556251525878906
1751223259586135600,8.514135498046874,-23.381250381469727,50.118751525878906,31.181251525878906
1751223259596135400,8.524135498046874,-23.043750762939453,50.45625305175781,31.125001907348633
1751223259606135600,8.534135498046876,-22.89375114440918,50.92500305175781,31.031251907348633
1751223259616135400,8.544135498046876,-22.80000114440918,51.20625305175781,30.993751525878906
1751223259626135600,8.554135498046875,-22.78125,51.50625228881836,30.937501907348633
1751223259636135400,8.564135498046875,-22.42500114440918,51.82500076293945,30.731250762939453
1751223259646135600,8.574135498046875,-22.462501525878906,52.01250076293945,30.58125114440918
1751223259656135400,8.584135498046875,-22.23750114440918,52.01250076293945,30.431251525878906
1751223259666135600,8.594135498046874,-22.21875,52.275001525878906,30.375001907348633
1751223259676135400,8.604135498046874,-22.556251525878906,52.25625228881836,30.01875114440918
1751223259686135600,8.614135498046876,-22.6875,52.25625228881836,29.943750381469727
1751223259696135400,8.624135498046876,-22.575000762939453,52.44375228881836,29.73750114440918
1751223259706135600,8.634135498046875,-22.181251525878906,52.837501525878906,29.512500762939453
1751223259716135400,8.644135498046875,-22.14375114440918,53.156253814697266,29.493751525878906
1751223259726135600,8.654135498046875,-21.918750762939453,53.41875076293945,29.475000381469727
1751223259736135400,8.664135498046875,-21.825000762939453,53.70000076293945,29.400001525878906
1751223259746135600,8.674135498046875,-21.806251525878906,53.98125076293945,29.343751907348633
1751223259756135400,8.684135498046874,-21.600000381469727,54.20625305175781,29.531251907348633
1751223259766135600,8.694135498046874,-21.431251525878906,54.375003814697266,29.287500381469727
1751223259776135400,8.704135498046876,-21.618751525878906,54.58125305175781,29.08125114440918
1751223259786135600,8.714135498046875,-21.543750762939453,54.806251525878906,29.08125114440918
1751223259796135400,8.724135498046875,-21.525001525878906,54.82500076293945,28.837501525878906
1751223259806135600,8.734135498046875,-21.637500762939453,54.97500228881836,28.80000114440918
1751223259816135400,8.744135498046875,-21.243751525878906,55.312503814697266,28.762500762939453
1751223259826135600,8.754135498046875,-21.225000381469727,55.406253814697266,28.725000381469727
1751223259836135400,8.764135498046874,-21.168750762939453,55.61250305175781,28.368751525878906
1751223259846135600,8.774135498046874,-20.775001525878906,55.875003814697266,28.537500381469727
1751223259856135400,8.784135498046876,-20.83125114440918,55.837501525878906,28.61250114440918
1751223259866135600,8.794135498046876,-20.681251525878906,55.875003814697266,28.462501525878906
1751223259876135400,8.804135498046875,-20.83125114440918,55.875003814697266,28.42500114440918
1751223259886135600,8.814135498046875,-20.587501525878906,55.91250228881836,28.312501907348633
1751223259896135400,8.824135498046875,-20.887500762939453,55.85625076293945,28.012500762939453
1751223259906135600,8.834135498046875,-20.887500762939453,55.931251525878906,28.031251907348633
1751223259916135400,8.844135498046874,-20.943750381469727,56.10000228881836,28.087501525878906
1751223259926135600,8.854135498046874,-21.131250381469727,56.062503814697266,27.975000381469727
1751223259936135400,8.864135498046876,-20.887500762939453,56.025001525878906,27.67500114440918
1751223259946135600,8.874135498046876,-20.943750381469727,56.025001525878906,28.012500762939453
1751223259956135400,8.884135498046875,-21,56.156253814697266,28.012500762939453
1751223259966135600,8.894135498046875,-21,56.19375228881836,27.750001907348633
1751223259976135400,8.904135498046875,-21.037500381469727,56.250003814697266,27.787500381469727
1751223259986135600,8.914135498046875,-20.962501525878906,56.41875076293945,27.76875114440918
1751223259996135400,8.924135498046875,-20.700000762939453,56.38125228881836,27.48750114440918
1751223260006135600,8.934135498046874,-20.55000114440918,56.45625305175781,27.318750381469727
1751223260016135400,8.944135498046874,-20.26875114440918,56.73750305175781,27.187501907348633
1751223260026135600,8.954135498046876,-19.98750114440918,56.85000228881836,26.587501525878906
1751223260036135400,8.964135498046875,-19.668750762939453,57.11250305175781,26.493751525878906
1751223260046135600,8.974135498046875,-19.275001525878906,57.50625228881836,26.45625114440918
1751223260056135400,8.984135498046875,-19.21875,57.76875305175781,26.36250114440918
1751223260066135600,8.994135498046875,-19.012500762939453,57.937503814697266,26.137500762939453
1751223260076135400,9.004135498046875,-18.86250114440918,58.368751525878906,26.287500381469727
1751223260086135600,9.014135498046874,-18.65625,58.81875228881836,26.325000762939453
1751223260096135400,9.024135498046874,-18.48750114440918,59.156253814697266,26.325000762939453
1751223260106135600,9.034135498046876,-18.543750762939453,59.55000305175781,26.325000762939453
1751223260116135400,9.044135498046876,-18.337501525878906,59.70000076293945,25.875001907348633
1751223260126135600,9.054135498046875,-18.337501525878906,59.94375228881836,25.743751525878906
1751223260136135400,9.064135498046875,-17.83125114440918,60.187503814697266,25.631250381469727
1751223260146135600,9.074135498046875,-17.212501525878906,60.562503814697266,25.181251525878906
1751223260156135400,9.084135498046875,-17.08125114440918,60.937503814697266,25.012500762939453
1751223260166135600,9.094135498046874,-16.912500381469727,61.14375305175781,24.637500762939453
1751223260176135400,9.104135498046874,-16.837501525878906,61.38750076293945,24.262500762939453
1751223260186135600,9.114135498046876,-16.725000381469727,61.556251525878906,24.037500381469727
1751223260196135400,9.124135498046876,-16.818750381469727,61.76250076293945,24.11250114440918
1751223260206135600,9.134135498046875,-16.78125,61.743751525878906,24
1751223260216135400,9.144135498046875,-16.875,62.13750076293945,23.943750381469727
1751223260226135600,9.154135498046875,-17.17500114440918,62.23125076293945,24.056251525878906
1751223260236135400,9.164135498046875,-17.0625,62.26875305175781,23.793750762939453
1751223260256135400,9.184135498046874,-16.80000114440918,62.493751525878906,23.662500381469727
1751223260266135600,9.194135498046874,-16.70625114440918,62.56875228881836,23.418750762939453
1751223260276135400,9.204135498046876,-16.181251525878906,62.79375076293945,23.137500762939453
1751223260286135600,9.214135498046875,-15.61875057220459,63.13125228881836,22.631250381469727
1751223260296135400,9.224135498046875,-15.318750381469727,63.150001525878906,22.21875
1751223260306135600,9.234135498046875,-15.093750953674316,63.26250076293945,21.900001525878906
1751223260316135400,9.244135498046875,-15.000000953674316,63.525001525878906,21.356250762939453
1751223260326135600,9.254135498046875,-14.906250953674316,63.76875305175781,21.46875
1751223260336135400,9.264135498046874,-14.831250190734863,64.10625457763672,21.09375
1751223260346135600,9.274135498046874,-14.625000953674316,64.29375457763672,21.056251525878906
1751223260356135400,9.284135498046876,-14.737500190734863,64.4625015258789,20.64375114440918
1751223260366135600,9.294135498046876,-14.925000190734863,64.48125457763672,20.587501525878906
1751223260376135400,9.304135498046875,-14.700000762939453,64.5562515258789,20.231250762939453
1751223260386135600,9.314135498046875,-14.456250190734863,64.7437515258789,20.025001525878906
1751223260396135400,9.324135498046875,-14.11875057220459,64.70625305175781,20.08125114440918
1751223260406135600,9.334135498046875,-13.875000953674316,64.70625305175781,19.537500381469727
1751223260416135400,9.344135498046874,-14.02500057220459,64.8375015258789,19.181251525878906
1751223260426135600,9.354135498046874,-13.893750190734863,64.98750305175781,18.86250114440918
1751223260436135400,9.364135498046876,-13.800000190734863,65.38125610351562,19.14375114440918
1751223260446135600,9.374135498046876,-13.800000190734863,65.625,18.918750762939453
1751223260456135400,9.384135498046875,-14.006250381469727,65.8687515258789,18.881250381469727
1751223260466135600,9.394135498046875,-14.231250762939453,66.13125610351562,18.881250381469727
1751223260476135400,9.404135498046875,-14.062500953674316,66.16875457763672,18.693750381469727
1751223260486135600,9.414135498046875,-13.875000953674316,66.35625457763672,18.58125114440918
1751223260496135400,9.424135498046875,-13.631250381469727,66.20625305175781,18.5625
1751223260506135600,9.434135498046874,-13.781250953674316,66.22500610351562,18.39375114440918
1751223260516135400,9.444135498046874,-13.36875057220459,66.1500015258789,17.981250762939453
1751223260526135600,9.454135498046876,-13.481250762939453,66.28125,17.887500762939453
1751223260536135400,9.464135498046875,-13.08750057220459,66.41250610351562,17.681251525878906
1751223260546135600,9.474135498046875,-12.825000762939453,66.58125305175781,17.418750762939453
1751223260556135400,9.484135498046875,-13.068750381469727,66.8062515258789,17.36250114440918
1751223260566135600,9.494135498046875,-13.012500762939453,66.9937515258789,17.15625
1751223260576135400,9.504135498046875,-12.90000057220459,67.3687515258789,17.0625
1751223260586135600,9.514135498046874,-12.675000190734863,67.7437515258789,17.025001525878906
1751223260596135400,9.524135498046874,-12.918750762939453,68.04375457763672,16.912500381469727
1751223260606135600,9.534135498046876,-12.52500057220459,68.36250305175781,16.725000381469727
1751223260616135400,9.544135498046876,-12.731250762939453,68.6812515258789,16.61250114440918
1751223260626135600,9.554135498046875,-12.52500057220459,68.88750457763672,16.350000381469727
1751223260636135400,9.564135498046875,-12.52500057220459,69.09375,16.05000114440918
1751223260646135600,9.574135498046875,-12.450000762939453,69.46875,16.106250762939453
1751223260656135400,9.584135498046875,-12.168750762939453,69.76875305175781,15.881250381469727
1751223260666135600,9.594135498046874,-12.037500381469727,70.0875015258789,15.543750762939453
1751223260676135400,9.604135498046874,-11.925000190734863,70.14375305175781,15.225000381469727
1751223260686135600,9.614135498046876,-11.86875057220459,70.125,15.075000762939453
1751223260696135400,9.624135498046876,-11.475000381469727,70.20000457763672,14.643750190734863
1751223260706135600,9.634135498046875,-11.40000057220459,70.3687515258789,14.418750762939453
1751223260716135400,9.644135498046875,-10.93125057220459,70.48125457763672,14.175000190734863
1751223260726135600,9.654135498046875,-10.725000381469727,70.2750015258789,13.725000381469727
1751223260736135400,9.664135498046875,-10.6875,70.25625610351562,13.443750381469727
1751223260746135600,9.674135498046875,-10.46250057220459,70.21875,13.293750762939453
1751223260756135400,9.684135498046874,-9.99375057220459,70.23750305175781,13.293750762939453
1751223260766135600,9.694135498046874,-9.918750762939453,70.4625015258789,13.050000190734863
1751223260776135400,9.704135498046876,-9.956250190734863,70.40625,13.050000190734863
1751223260786135600,9.714135498046875,-9.90000057220459,70.25625610351562,12.918750762939453
1751223260796135400,9.724135498046875,-10.106250762939453,70.4625015258789,12.656250953674316
1751223260806135600,9.734135498046875,-10.36875057220459,70.70625305175781,12.787500381469727
1751223260816135400,9.744135498046875,-10.36875057220459,70.70625305175781,12.675000190734863
1751223260826135600,9.754135498046875,-10.27500057220459,70.76250457763672,12.506250381469727
1751223260836135400,9.764135498046874,-10.331250190734863,70.98750305175781,12.300000190734863
1751223260846135600,9.774135498046874,-10.200000762939453,71.0625,12.24375057220459
1751223260856135400,9.784135498046876,-9.956250190734863,71.4000015258789,11.96250057220459
1751223260866135600,9.794135498046876,-9.862500190734863,71.7750015258789,11.831250190734863
1751223260876135400,9.804135498046875,-9.637500762939453,71.88750457763672,11.662500381469727
1751223260886135600,9.814135498046875,-9.450000762939453,72.1875,11.40000057220459
1751223260896135400,9.824135498046875,-9.318750381469727,72.5250015258789,10.96875
1751223260906135600,9.834135498046875,-9.33750057220459,72.78750610351562,10.668750762939453
1751223260916135400,9.844135498046874,-9.356250762939453,72.78750610351562,10.125
1751223260926135600,9.854135498046874,-9.131250381469727,72.84375,9.787500381469727
1751223260936135400,9.864135498046876,-9.168750762939453,72.97500610351562,9.46875
1751223260946135600,9.874135498046876,-9.09375,73.05000305175781,9.037500381469727
1751223260956135400,9.884135498046875,-8.662500381469727,73.125,8.700000762939453
1751223260966135600,9.894135498046875,-8.456250190734863,73.10625457763672,8.30625057220459
1751223260976135400,9.904135498046875,-8.456250190734863,73.3125,8.137500762939453
1751223260986135600,9.914135498046875,-8.381250381469727,73.42500305175781,7.818750381469727
1751223260996135400,9.924135498046875,-8.25,73.7437515258789,7.856250286102295
1751223261006135600,9.934135498046874,-8.325000762939453,74.00625610351562,7.687500476837158
1751223261016135400,9.944135498046874,-8.137500762939453,74.19375610351562,7.575000286102295
1751223261026135600,9.954135498046876,-7.912500381469727,74.38125610351562,7.481250286102295
1751223261036135400,9.964135498046875,-8.175000190734863,74.60625457763672,7.593750476837158
1751223261046135600,9.974135498046875,-7.931250095367432,74.88750457763672,7.575000286102295
1751223261056135400,9.984135498046875,-7.481250286102295,75,7.312500476837158
1751223261066135600,9.994135498046875,-7.575000286102295,75.22500610351562,7.031250476837158
1751223261076135400,10.004135498046875,-7.387500286102295,75.35625457763672,6.806250095367432
1751223261086135600,10.014135498046874,-7.218750476837158,75.45000457763672,6.581250190734863
1751223261096135400,10.024135498046874,-7.181250095367432,75.5250015258789,6.487500190734863
1751223261106135600,10.034135498046876,-7.087500095367432,75.63750457763672,6.075000286102295
1751223261126135600,10.054135498046875,-6.750000476837158,75.75,5.362500190734863
1751223261136135400,10.064135498046875,-6.918750286102295,75.73125457763672,5.175000190734863
1751223261146135600,10.074135498046875,-6.337500095367432,75.76875305175781,5.175000190734863
1751223261156135400,10.084135498046875,-6.168750286102295,75.9000015258789,4.837500095367432
1751223261166135600,10.094135498046874,-6.037500381469727,75.76875305175781,4.275000095367432
1751223261176135400,10.104135498046874,-5.681250095367432,75.86250305175781,3.9750001430511475
1751223261186135600,10.114135498046876,-5.475000381469727,75.8062515258789,3.918750047683716
1751223261196135400,10.124135498046876,-5.493750095367432,75.84375,3.9750001430511475
1751223261206135600,10.134135498046875,-5.362500190734863,75.9937515258789,3.6000001430511475
1751223261216135400,10.144135498046875,-5.15625,76.14375305175781,3.5062501430511475
1751223261226135600,10.154135498046875,-5.137500286102295,76.29375457763672,3.450000047683716
1751223261236135400,10.164135498046875,-5.34375,76.40625,3.375000238418579
1751223261246135600,10.174135498046875,-5.231250286102295,76.66875457763672,3.5812501907348633
1751223261256135400,10.184135498046874,-5.493750095367432,76.80000305175781,3.262500047683716
1751223261266135600,10.194135498046874,-5.53125,76.96875,3.0562500953674316
1751223261276135400,10.204135498046876,-5.193750381469727,76.89375305175781,2.606250047683716
1751223261286135600,10.214135498046875,-5.231250286102295,76.95000457763672,2.3625001907348633
1751223261296135400,10.224135498046875,-5.306250095367432,77.0250015258789,2.0625
1751223261306135600,10.234135498046875,-5.400000095367432,77.13750457763672,1.7812501192092896
1751223261316135400,10.244135498046875,-5.231250286102295,77.25,1.5750000476837158
1751223261326135600,10.254135498046875,-5.100000381469727,77.4000015258789,1.21875
1751223261336135400,10.264135498046874,-5.081250190734863,77.56875610351562,1.068750023841858
1751223261346135600,10.274135498046874,-4.912500381469727,77.73750305175781,0.768750011920929
1751223261356135400,10.284135498046876,-4.950000286102295,77.88750457763672,0.6000000238418579
1751223261366135600,10.294135498046876,-4.800000190734863,78.22500610351562,0.22500000894069672
1751223261376135400,10.304135498046875,-4.59375,78.39375305175781,-0.13125000894069672
1751223261386135600,10.314135498046875,-4.518750190734863,78.41250610351562,-0.45000001788139343
1751223261396135400,10.324135498046875,-4.162500381469727,78.46875,-1.125
1751223261406135600,10.334135498046875,-4.03125,78.63750457763672,-1.537500023841858
1751223261416135400,10.344135498046874,-3.6187500953674316,78.67500305175781,-1.8937500715255737
1751223261426135600,10.354135498046874,-3.562500238418579,78.97500610351562,-2.325000047683716
1751223261436135400,10.364135498046876,-3.356250047683716,79.25625610351562,-2.7750000953674316
1751223261446135600,10.374135498046876,-3.281250238418579,79.23750305175781,-3.0562500953674316
1751223261456135400,10.384135498046875,-3.1125001907348633,79.5562515258789,-3.468750238418579
1751223261466135600,10.394135498046875,-2.7375001907348633,79.78125,-3.9562501907348633
1751223261476135400,10.404135498046875,-2.8125,79.875,-4.425000190734863
1751223261486135600,10.414135498046875,-2.6625001430511475,79.875,-4.856250286102295
1751223261496135400,10.424135498046875,-2.7562501430511475,80.00625610351562,-5.381250381469727
1751223261506135600,10.434135498046874,-2.4750001430511475,79.81875610351562,-5.643750190734863
1751223261516135400,10.444135498046874,-2.418750047683716,79.98750305175781,-6.037500381469727
1751223261526135600,10.454135498046876,-2.2875001430511475,80.15625,-6.337500095367432
1751223261536135400,10.464135498046875,-2.2687501907348633,79.98750305175781,-6.750000476837158
1751223261546135600,10.474135498046875,-2.3625001907348633,79.85625457763672,-7.181250095367432
1751223261556135400,10.484135498046875,-2.4000000953674316,79.91250610351562,-7.143750190734863
1751223261566135600,10.494135498046875,-2.231250047683716,80.00625610351562,-7.556250095367432
1751223261576135400,10.504135498046875,-1.7812501192092896,79.91250610351562,-7.575000286102295
1751223261586135600,10.514135498046874,-2.15625,80.04375457763672,-7.762500286102295
1751223261596135400,10.524135498046874,-2.0062501430511475,79.96875,-7.950000286102295
1751223261606135600,10.534135498046876,-1.8750001192092896,80.08125305175781,-8.21250057220459
1751223261616135400,10.544135498046876,-1.8750001192092896,80.0250015258789,-8.30625057220459
1751223261626135600,10.554135498046875,-1.6875001192092896,80.15625,-8.550000190734863
1751223261636135400,10.564135498046875,-1.3875000476837158,80.26875305175781,-8.90625
1751223261646135600,10.574135498046875,-1.537500023841858,80.4000015258789,-8.756250381469727
1751223261656135400,10.584135498046875,-1.7812501192092896,80.56875610351562,-8.90625
1751223261666135600,10.594135498046874,-1.6125000715255737,80.625,-8.86875057220459
1751223261676135400,10.604135498046874,-1.7437500953674316,80.66250610351562,-8.756250381469727
1751223261686135600,10.614135498046876,-1.631250023841858,80.73750305175781,-8.925000190734863
1751223261696135400,10.624135498046876,-1.3312500715255737,81.20625305175781,-8.90625
1751223261706135600,10.634135498046875,-1.3875000476837158,81.26250457763672,-9
1751223261716135400,10.644135498046875,-1.4250000715255737,81.26250457763672,-9.037500381469727
1751223261726135600,10.654135498046875,-1.068750023841858,81.20625305175781,-9.168750762939453
1751223261736135400,10.664135498046875,-0.75,81.2437515258789,-9.33750057220459
1751223261746135600,10.674135498046875,-0.7312500476837158,81.1500015258789,-9.71250057220459
1751223261756135400,10.684135498046874,-0.5437500476837158,81.28125,-9.9375
1751223261766135600,10.694135498046874,-0.6187500357627869,81.01875305175781,-9.918750762939453
1751223261776135400,10.704135498046876,-0.9375000596046448,80.79375457763672,-10.18125057220459
1751223261786135600,10.714135498046875,-0.8250000476837158,80.85000610351562,-10.350000381469727
1751223261796135400,10.724135498046875,-0.6000000238418579,80.8125,-10.762500762939453
1751223261806135600,10.734135498046875,-0.8250000476837158,81.0562515258789,-10.893750190734863
1751223261816135400,10.744135498046875,-0.9000000357627869,81.16875457763672,-11.287500381469727
1751223261826135600,10.754135498046875,-0.4687500298023224,81.22500610351562,-11.643750190734863
1751223261836135400,10.764135498046874,-0.1875,81.22500610351562,-11.943750381469727
1751223261846135600,10.774135498046874,-0.24375000596046448,81.35625457763672,-12.262500762939453
1751223261856135400,10.784135498046876,-0.03750000149011612,81.31875610351562,-12.450000762939453
1751223261866135600,10.794135498046876,-0.16875000298023224,81.45000457763672,-12.637500762939453
1751223261876135400,10.804135498046875,-0.3375000059604645,81.6187515258789,-12.52500057220459
1751223261886135600,10.814135498046875,-0.5250000357627869,81.46875,-13.068750381469727
1751223261896135400,10.824135498046875,-0.3375000059604645,81.41250610351562,-13.350000381469727
1751223261906135600,10.834135498046875,-0.5437500476837158,81.63750457763672,-13.36875057220459
1751223261916135400,10.844135498046874,-0.65625,81.5250015258789,-13.725000381469727
1751223261926135600,10.854135498046874,-0.6000000238418579,81.60000610351562,-13.875000953674316
1751223261936135400,10.864135498046876,-0.5437500476837158,81.8062515258789,-14.250000953674316
1751223261946135600,10.874135498046876,-0.16875000298023224,81.50625610351562,-14.625000953674316
1751223261956135400,10.884135498046875,0.1875,81.4312515258789,-14.981250762939453
1751223261966135600,10.894135498046875,0.675000011920929,81.5250015258789,-15.300000190734863
1751223261976135400,10.904135498046875,0.6937500238418579,81.73125457763672,-15.450000762939453
1751223261986135600,10.914135498046875,0.8812500238418579,81.8062515258789,-15.675000190734863
1751223261996135400,10.924135498046875,1.03125,81.88125610351562,-16.3125
1751223262006135600,10.934135498046874,1.350000023841858,81.97500610351562,-16.837501525878906
1751223262016135400,10.944135498046874,1.7062500715255737,81.84375,-17.231250762939453
1751223262026135600,10.954135498046876,1.7625000476837158,82.125,-17.475000381469727
1751223262036135400,10.964135498046875,1.7437500953674316,82.20000457763672,-17.775001525878906
1751223262046135600,10.974135498046875,1.7812501192092896,82.3125,-17.981250762939453
1751223262056135400,10.984135498046875,1.912500023841858,82.16250610351562,-18.525001525878906
1751223262066135600,10.994135498046875,2.34375,81.9375,-19.181251525878906
1751223262076135400,11.004135498046875,2.4375,81.91875457763672,-19.481250762939453
1751223262086135600,11.014135498046874,2.231250047683716,81.88125610351562,-19.762500762939453
1751223262096135400,11.024135498046874,2.137500047683716,81.86250305175781,-19.950000762939453
1751223262106135600,11.034135498046876,2.3062500953674316,81.86250305175781,-20.493751525878906
1751223262116135400,11.044135498046876,2.4750001430511475,81.76875305175781,-21
1751223262126135600,11.054135498046875,2.4375,81.76875305175781,-21.28125
1751223262136135400,11.064135498046875,2.7750000953674316,81.73125457763672,-21.46875
1751223262146135600,11.074135498046875,2.625,81.95625305175781,-21.693750381469727
1751223262156135400,11.084135498046875,2.71875,81.97500610351562,-21.9375
1751223262166135600,11.094135498046874,3.1312501430511475,81.95625305175781,-22.51875114440918
1751223262176135400,11.104135498046874,3.2062501907348633,82.125,-22.78125
1751223262186135600,11.114135498046876,3.168750047683716,82.05000305175781,-22.912500381469727
1751223262196135400,11.124135498046876,3.4312500953674316,82.20000457763672,-23.306251525878906
1751223262206135600,11.134135498046875,3.543750047683716,82.21875,-23.625
1751223262216135400,11.144135498046875,3.262500047683716,82.25625610351562,-23.887500762939453
1751223262226135600,11.154135498046875,3.3000001907348633,82.16250610351562,-24.075000762939453
1751223262236135400,11.164135498046875,3.375000238418579,82.33125305175781,-23.981250762939453
1751223262246135600,11.174135498046875,3.2250001430511475,82.51875305175781,-23.981250762939453
1751223262256135400,11.184135498046874,3.3375000953674316,82.51875305175781,-24.468751907348633
1751223262266135600,11.194135498046874,3.450000047683716,82.6500015258789,-24.937501907348633
1751223262276135400,11.204135498046876,3.281250238418579,82.51875305175781,-25.125001907348633
1751223262286135600,11.214135498046875,3.1500000953674316,82.33125305175781,-25.687501907348633
1751223262296135400,11.224135498046875,3.281250238418579,82.3687515258789,-26.062501907348633
1751223262306135600,11.234135498046875,3.6000001430511475,82.2750015258789,-26.55000114440918
1751223262316135400,11.244135498046875,3.7687501907348633,81.91875457763672,-27.20625114440918
1751223262326135600,11.254135498046875,4.181250095367432,81.7125015258789,-27.431251525878906
1751223262336135400,11.264135498046874,4.237500190734863,81.48750305175781,-27.693750381469727
1751223262346135600,11.274135498046874,4.40625,81.3375015258789,-27.937501907348633
1751223262356135400,11.284135498046876,4.725000381469727,81.30000305175781,-28.387500762939453
1751223262366135600,11.294135498046876,5.175000190734863,81.22500610351562,-28.556251525878906
1751223262376135400,11.304135498046875,5.006250381469727,81.07500457763672,-29.006250381469727
1751223262386135600,11.314135498046875,4.5,81.0562515258789,-29.306251525878906
1751223262396135400,11.324135498046875,4.3125,81.31875610351562,-29.64375114440918
1751223262406135600,11.334135498046875,4.087500095367432,81.30000305175781,-30.037500381469727
1751223262416135400,11.344135498046874,4.200000286102295,81.45000457763672,-30.450000762939453
1751223262426135600,11.354135498046874,4.125,81.46875,-30.525001525878906
1751223262436135400,11.364135498046876,3.825000047683716,81.65625,-30.375001907348633
1751223262446135600,11.374135498046876,3.5812501907348633,81.76875305175781,-30.600000381469727
1751223262456135400,11.384135498046875,3.937500238418579,81.65625,-30.468751907348633
1751223262466135600,11.394135498046875,4.068750381469727,81.76875305175781,-30.525001525878906
1751223262476135400,11.404135498046875,4.087500095367432,81.78750610351562,-30.506250381469727
1751223262486135600,11.414135498046875,4.068750381469727,81.73125457763672,-30.618751525878906
1751223262496135400,11.424135498046875,3.937500238418579,81.63750457763672,-30.656251907348633
1751223262506135600,11.434135498046874,3.825000047683716,81.65625,-30.731250762939453
1751223262516135400,11.444135498046874,3.9750001430511475,81.375,-31.181251525878906
1751223262526135600,11.454135498046876,4.03125,81.09375,-31.406251907348633
1751223262536135400,11.464135498046875,4.087500095367432,81.22500610351562,-31.61250114440918
1751223262546135600,11.474135498046875,4.087500095367432,81.1875,-31.837501525878906
1751223262556135400,11.484135498046875,4.21875,81.11250305175781,-32.00625228881836
1751223262566135600,11.494135498046875,4.5,81.01875305175781,-32.28750228881836
1751223262576135400,11.504135498046875,4.5,81,-32.38125228881836
1751223262586135600,11.514135498046874,4.78125,80.85000610351562,-32.70000076293945
1751223262596135400,11.524135498046874,4.668750286102295,80.94375610351562,-32.94375228881836
1751223262606135600,11.534135498046876,4.912500381469727,81.26250457763672,-33.1875
1751223262616135400,11.544135498046876,4.856250286102295,81.26250457763672,-33.5625
1751223262626135600,11.554135498046875,5.081250190734863,81.1500015258789,-33.63750076293945
1751223262636135400,11.564135498046875,4.950000286102295,81.09375,-33.9375
1751223262646135600,11.574135498046875,4.837500095367432,81.09375,-34.10625076293945
1751223262656135400,11.584135498046875,5.0625,81.11250305175781,-34.368751525878906
1751223262666135600,11.594135498046874,4.856250286102295,81.01875305175781,-34.650001525878906
1751223262676135400,11.604135498046874,5.193750381469727,81.03750610351562,-34.63125228881836
1751223262686135600,11.614135498046876,5.418750286102295,80.88750457763672,-34.61250305175781
1751223262696135400,11.624135498046876,5.456250190734863,80.75625610351562,-34.931251525878906
1751223262706135600,11.634135498046875,5.400000095367432,80.90625,-35.19375228881836
1751223262716135400,11.644135498046875,5.775000095367432,80.75625610351562,-35.306251525878906
1751223262726135600,11.654135498046875,6.018750190734863,80.85000610351562,-35.587501525878906
1751223262736135400,11.664135498046875,6.168750286102295,80.79375457763672,-35.587501525878906
1751223262746135600,11.674135498046875,6.412500381469727,80.8125,-35.79375076293945
1751223262756135400,11.684135498046874,6.300000190734863,80.94375610351562,-35.98125076293945
1751223262766135600,11.694135498046874,6.112500190734863,80.83125305175781,-36.20625305175781
1751223262776135400,11.704135498046876,6.131250381469727,80.88750457763672,-36.20625305175781
1751223262786135600,11.714135498046875,6.262500286102295,80.66250610351562,-36.431251525878906
1751223262796135400,11.724135498046875,6.112500190734863,80.47500610351562,-36.67500305175781
1751223262806135600,11.734135498046875,6.131250381469727,80.4375,-36.86250305175781
1751223262816135400,11.744135498046875,5.887500286102295,80.32500457763672,-37.181251525878906
1751223262826135600,11.754135498046875,5.981250286102295,80.34375,-37.10625076293945
1751223262836135400,11.764135498046874,5.981250286102295,80.08125305175781,-37.59375
1751223262846135600,11.774135498046874,6.300000190734863,79.89375305175781,-38.13750076293945
1751223262856135400,11.784135498046876,6.262500286102295,79.80000305175781,-38.32500076293945
1751223262866135600,11.794135498046876,6.375000476837158,79.7437515258789,-38.60625076293945
1751223262876135400,11.804135498046875,6.206250190734863,79.9312515258789,-38.92500305175781
1751223262886135600,11.814135498046875,6.093750476837158,79.875,-39.16875076293945
1751223262896135400,11.824135498046875,6.337500095367432,79.80000305175781,-39.63750076293945
1751223262906135600,11.834135498046875,6.581250190734863,79.70625305175781,-40.03125
1751223262916135400,11.844135498046874,6.712500095367432,79.72500610351562,-40.05000305175781
1751223262926135600,11.854135498046874,6.412500381469727,79.70625305175781,-39.97500228881836
1751223262936135400,11.864135498046876,6.431250095367432,79.66875457763672,-40.14375305175781
1751223262946135600,11.874135498046876,6.168750286102295,79.63125610351562,-40.33125305175781
1751223262956135400,11.884135498046875,6.393750190734863,79.57500457763672,-40.125
1751223262966135600,11.894135498046875,6.075000286102295,79.53750610351562,-40.10625076293945
1751223262976135400,11.904135498046875,6.056250095367432,79.63125610351562,-39.88125228881836
1751223262986135600,11.914135498046875,5.925000190734863,79.78125,-39.88125228881836
1751223262996135400,11.924135498046875,5.756250381469727,79.66875457763672,-39.86250305175781
1751223263006135600,11.934135498046874,5.625,79.81875610351562,-39.82500076293945
1751223263016135400,11.944135498046874,5.775000095367432,79.72500610351562,-39.82500076293945
1751223263026135600,11.954135498046876,5.831250190734863,79.66875457763672,-39.712501525878906
1751223263036135400,11.964135498046875,5.793750286102295,79.70625305175781,-39.75
1751223263046135600,11.974135498046875,5.962500095367432,79.78125,-39.63750076293945
1751223263056135400,11.984135498046875,6.018750190734863,79.4625015258789,-39.806251525878906
1751223263066135600,11.994135498046875,5.831250190734863,79.33125305175781,-39.69375228881836
1751223263076135400,12.004135498046875,5.943750381469727,79.5,-39.58125305175781
1751223263086135600,12.014135498046874,5.943750381469727,79.35000610351562,-39.46875
1751223263096135400,12.024135498046874,5.793750286102295,79.29375457763672,-39.54375076293945
1751223263106135600,12.034135498046876,5.962500095367432,79.35000610351562,-39.54375076293945
1751223263116135400,12.044135498046876,6.093750476837158,79.21875,-39.76875305175781
1751223263126135600,12.054135498046875,6.131250381469727,79.25625610351562,-39.900001525878906
1751223263136135400,12.064135498046875,6.112500190734863,79.38750457763672,-39.618751525878906
1751223263146135600,12.074135498046875,6,79.38750457763672,-39.76875305175781
1751223263156135400,12.084135498046875,6.075000286102295,79.23750305175781,-39.86250305175781
1751223263166135600,12.094135498046874,6.112500190734863,79.29375457763672,-39.97500228881836
1751223263176135400,12.104135498046874,6.075000286102295,79.4625015258789,-39.86250305175781
1751223263186135600,12.114135498046876,5.868750095367432,79.7437515258789,-39.65625
1751223263196135400,12.124135498046876,5.887500286102295,79.91250610351562,-39.48750305175781
1751223263206135600,12.134135498046875,6.018750190734863,79.78125,-39.50625228881836
1751223263216135400,12.144135498046875,6,80.00625610351562,-39.65625
1751223263226135600,12.154135498046875,6.206250190734863,79.95000457763672,-39.75
1751223263236135400,12.164135498046875,6.262500286102295,79.96875,-39.78750228881836
1751223263246135600,12.174135498046875,6.393750190734863,80.13750457763672,-39.78750228881836
1751223263256135400,12.184135498046874,6.468750476837158,80.0250015258789,-39.73125076293945
1751223263266135600,12.194135498046874,6.431250095367432,79.7437515258789,-39.88125228881836
1751223263276135400,12.204135498046876,6.525000095367432,79.7437515258789,-39.95625305175781
1751223263286135600,12.214135498046875,6.468750476837158,79.63125610351562,-39.95625305175781
1751223263296135400,12.224135498046875,6.206250190734863,79.48125457763672,-40.06875228881836
1751223263306135600,12.234135498046875,5.962500095367432,79.5562515258789,-39.9375
1751223263316135400,12.244135498046875,5.793750286102295,79.5,-39.9375
1751223263326135600,12.254135498046875,5.831250190734863,79.4625015258789,-39.73125076293945
1751223263336135400,12.264135498046874,5.775000095367432,79.4625015258789,-39.73125076293945
1751223263346135600,12.274135498046874,6.018750190734863,79.48125457763672,-39.806251525878906
1751223263356135400,12.284135498046876,5.737500190734863,79.40625,-39.63750076293945
1751223263366135600,12.294135498046876,5.662500381469727,79.66875457763672,-39.5625
1751223263376135400,12.304135498046875,5.775000095367432,79.72500610351562,-39.65625
1751223263386135600,12.314135498046875,5.90625,79.70625305175781,-39.69375228881836
1751223263396135400,12.324135498046875,5.925000190734863,79.81875610351562,-39.78750228881836
1751223263406135600,12.334135498046875,6.093750476837158,79.8375015258789,-39.95625305175781
1751223263416135400,12.344135498046874,6.262500286102295,79.96875,-40.368751525878906
1751223263426135600,12.354135498046874,6.356250286102295,79.96875,-40.44375228881836
1751223263436135400,12.364135498046876,6.543750286102295,80.08125305175781,-40.63125228881836
1751223263446135600,12.374135498046876,6.618750095367432,80.00625610351562,-40.53750228881836
1751223263456135400,12.384135498046875,6.693750381469727,80.0625,-40.38750076293945
1751223263466135600,12.394135498046875,6.693750381469727,80.15625,-40.48125076293945
1751223263476135400,12.404135498046875,6.712500095367432,80.04375457763672,-40.368751525878906
1751223263486135600,12.414135498046875,6.581250190734863,80.0625,-40.16250228881836
1751223263496135400,12.424135498046875,6.375000476837158,80.1187515258789,-39.712501525878906
1751223263506135600,12.434135498046874,6.262500286102295,80.1187515258789,-39.65625
1751223263516135400,12.444135498046874,6.375000476837158,80.00625610351562,-39.525001525878906
1751223263526135600,12.454135498046876,6.506250381469727,79.85625457763672,-39.525001525878906
1751223263536135400,12.464135498046875,6.375000476837158,79.78125,-39.63750076293945
1751223263546135600,12.474135498046875,6.543750286102295,79.875,-39.337501525878906
1751223263556135400,12.484135498046875,6.600000381469727,79.95000457763672,-39.26250076293945
1751223263566135600,12.494135498046875,6.468750476837158,80.00625610351562,-39.54375076293945
1751223263576135400,12.504135498046875,6.506250381469727,79.95000457763672,-39.63750076293945
1751223263586135600,12.514135498046874,6.581250190734863,80.04375457763672,-39.712501525878906
1751223263596135400,12.524135498046874,6.768750190734863,80.10000610351562,-39.9375
1751223263606135600,12.534135498046876,6.731250286102295,80.23125457763672,-40.10625076293945
1751223263616135400,12.544135498046876,6.787500381469727,80.34375,-39.900001525878906
1751223263626135600,12.554135498046875,6.637500286102295,80.2125015258789,-40.087501525878906
1751223263636135400,12.564135498046875,6.393750190734863,80.13750457763672,-40.03125
1751223263646135600,12.574135498046875,6.337500095367432,80.08125305175781,-40.14375305175781
1751223263656135400,12.584135498046875,6.337500095367432,80.0625,-40.16250228881836
1751223263666135600,12.594135498046874,6.243750095367432,79.875,-40.21875
1751223263676135400,12.604135498046874,5.775000095367432,79.72500610351562,-40.14375305175781
1751223263686135600,12.614135498046876,5.662500381469727,79.85625457763672,-40.06875228881836
1751223263696135400,12.624135498046876,5.71875,79.6500015258789,-40.20000076293945
1751223263706135600,12.634135498046875,5.643750190734863,79.78125,-40.23750305175781
1751223263716135400,12.644135498046875,5.793750286102295,79.70625305175781,-40.48125076293945
1751223263726135600,12.654135498046875,6.018750190734863,79.53750610351562,-40.3125
1751223263736135400,12.664135498046875,6.112500190734863,79.61250305175781,-40.40625
1751223263746135600,12.674135498046875,6,79.63125610351562,-40.51875305175781
1751223263756135400,12.684135498046874,5.981250286102295,79.875,-40.51875305175781
1751223263766135600,12.694135498046874,6.037500381469727,79.7437515258789,-40.57500076293945
1751223263776135400,12.704135498046876,6.112500190734863,79.95000457763672,-40.462501525878906
1751223263786135600,12.714135498046875,6.375000476837158,79.61250305175781,-40.462501525878906
1751223263796135400,12.724135498046875,6.393750190734863,79.6875,-40.53750228881836
1751223263806135600,12.734135498046875,6.281250476837158,79.89375305175781,-40.556251525878906
1751223263816135400,12.744135498046875,5.868750095367432,79.85625457763672,-40.48125076293945
1751223263826135600,12.754135498046875,6.018750190734863,79.875,-40.25625228881836
1751223263836135400,12.764135498046874,6.262500286102295,79.95000457763672,-40.16250228881836
1751223263846135600,12.774135498046874,6.206250190734863,79.875,-40.181251525878906
1751223263856135400,12.784135498046876,6.206250190734863,79.6500015258789,-40.35000228881836
1751223263866135600,12.794135498046876,5.8125,79.76250457763672,-40.23750305175781
1751223263876135400,12.804135498046875,5.943750381469727,79.7437515258789,-39.993751525878906
1751223263886135600,12.814135498046875,6.131250381469727,79.70625305175781,-39.88125228881836
1751223263896135400,12.824135498046875,6.562500476837158,79.72500610351562,-39.97500228881836
1751223263906135600,12.834135498046875,6.225000381469727,79.63125610351562,-40.10625076293945
1751223263916135400,12.844135498046874,6.112500190734863,79.48125457763672,-40.3125
1751223263926135600,12.854135498046874,6.150000095367432,79.5562515258789,-40.33125305175781
1751223263936135400,12.864135498046876,5.943750381469727,79.89375305175781,-40.21875
1751223263946135600,12.874135498046876,5.887500286102295,79.95000457763672,-40.275001525878906
1751223263956135400,12.884135498046875,5.4375,80.15625,-40.5
1751223263966135600,12.894135498046875,5.25,80.0250015258789,-40.76250076293945
1751223263976135400,12.904135498046875,5.15625,80.0625,-40.837501525878906
1751223263986135600,12.914135498046875,5.737500190734863,80.04375457763672,-40.743751525878906
1751223263996135400,12.924135498046875,5.606250286102295,79.76250457763672,-40.85625076293945
1751223264006135600,12.934135498046874,5.475000381469727,79.80000305175781,-40.743751525878906
1751223264016135400,12.944135498046874,5.550000190734863,79.53750610351562,-41.025001525878906
1751223264026135600,12.954135498046876,5.793750286102295,79.48125457763672,-41.23125076293945
1751223264036135400,12.964135498046875,6.206250190734863,79.21875,-41.400001525878906
1751223264046135600,12.974135498046875,6.150000095367432,79.03125,-41.73750305175781
1751223264056135400,12.984135498046875,6.075000286102295,78.76875305175781,-42.056251525878906
1751223264066135600,12.994135498046875,5.756250381469727,78.82500457763672,-42.35625076293945
1751223264076135400,13.004135498046875,5.793750286102295,78.76875305175781,-42.82500076293945
1751223264086135600,13.014135498046874,5.887500286102295,78.35625457763672,-43.61250305175781
1751223264096135400,13.024135498046874,5.981250286102295,78.07500457763672,-44.19375228881836
1751223264106135600,13.034135498046876,6.225000381469727,77.70000457763672,-45.056251525878906
1751223264116135400,13.044135498046876,6.281250476837158,77.47500610351562,-45.76875305175781
1751223264126135600,13.054135498046875,6.581250190734863,77.25,-46.368751525878906
1751223264136135400,13.064135498046875,6.731250286102295,76.76250457763672,-47.19375228881836
1751223264146135600,13.074135498046875,7.106250286102295,76.25625610351562,-48.31875228881836
1751223264156135400,13.084135498046875,7.406250476837158,75.9375,-49.031253814697266
1751223264166135600,13.094135498046874,7.650000095367432,75.69375610351562,-49.61250305175781
1751223264176135400,13.104135498046874,7.725000381469727,75.375,-50.19375228881836
1751223264186135600,13.114135498046876,7.556250095367432,75.1875,-50.531253814697266
1751223264196135400,13.124135498046876,7.706250190734863,75.07500457763672,-50.92500305175781
1751223264206135600,13.134135498046875,7.556250095367432,74.90625,-51.243751525878906
1751223264216135400,13.144135498046875,7.687500476837158,74.92500305175781,-51.48750305175781
1751223264226135600,13.154135498046875,7.518750190734863,74.70000457763672,-51.88125228881836
1751223264236135400,13.164135498046875,7.650000095367432,74.60625457763672,-52.218753814697266
1751223264246135600,13.174135498046875,7.687500476837158,74.47500610351562,-52.81875228881836
1751223264256135400,13.184135498046874,7.818750381469727,74.41875457763672,-53.36250305175781
1751223264266135600,13.194135498046874,8.231250762939453,74.04375457763672,-53.85000228881836
1751223264276135400,13.204135498046876,8.362500190734863,73.5562515258789,-54.54375076293945
1751223264286135600,13.214135498046875,8.40000057220459,73.20000457763672,-55.20000076293945
1751223264296135400,13.224135498046875,8.40000057220459,72.75,-55.85625076293945
1751223264306135600,13.234135498046875,8.793750762939453,72.50625610351562,-56.26875305175781
1751223264316135400,13.244135498046875,8.71875,72.03750610351562,-56.868751525878906
1751223264326135600,13.254135498046875,8.68125057220459,71.55000305175781,-57.41250228881836
1751223264336135400,13.264135498046874,8.943750381469727,70.91250610351562,-57.82500076293945
1751223264346135600,13.274135498046874,8.643750190734863,70.6875,-58.42500305175781
1751223264356135400,13.284135498046876,8.40000057220459,70.40625,-58.81875228881836
1751223264366135600,13.294135498046876,8.475000381469727,69.9375,-59.400001525878906
1751223264376135400,13.304135498046875,8.49375057220459,69.60000610351562,-59.88750076293945
1751223264386135600,13.314135498046875,8.25,69.30000305175781,-60.281253814697266
1751223264396135400,13.324135498046875,8.11875057220459,68.83125305175781,-60.76875305175781
1751223264406135600,13.334135498046875,8.006250381469727,68.41875457763672,-61.462501525878906
1751223264416135400,13.344135498046874,8.006250381469727,67.80000305175781,-62.250003814697266
1751223264426135600,13.354135498046874,8.21250057220459,67.20000457763672,-62.775001525878906
1751223264436135400,13.364135498046876,8.34375,66.6187515258789,-63.337501525878906
1751223264446135600,13.374135498046876,8.362500190734863,66.16875457763672,-63.806251525878906
1751223264456135400,13.384135498046875,8.34375,65.8125,-64.21875
1751223264466135600,13.394135498046875,8.418750762939453,65.17500305175781,-64.66875457763672
1751223264476135400,13.404135498046875,8.831250190734863,64.61250305175781,-65.17500305175781
1751223264486135600,13.414135498046875,8.68125057220459,64.23750305175781,-65.2125015258789
1751223264496135400,13.424135498046875,8.568750381469727,64.10625457763672,-65.34375
1751223264506135600,13.434135498046874,8.362500190734863,63.73125076293945,-65.8125
1751223264516135400,13.444135498046874,8.456250190734863,63.45000076293945,-66.1500015258789
1751223264526135600,13.454135498046876,8.418750762939453,63.093753814697266,-66.4312515258789
1751223264536135400,13.464135498046875,8.568750381469727,62.73750305175781,-66.69375610351562
