time,seconds_elapsed,z,y,x
1751619057500867000,0.1778671875,9.800310134887695,0.3465573787689209,-0.06497897207736969
1751619057519690500,0.1966904296875,9.800338745117188,0.3469226360321045,-0.0583331398665905
1751619057585572600,0.262572509765625,9.800886154174805,0.3217516541481018,-0.09748478978872299
1751619057623219700,0.3002197265625,9.801153182983398,0.30979087948799133,-0.10871333628892899
1751619057642043100,0.319043212890625,9.801298141479492,0.30452457070350647,-0.11044527590274811
1751619057660866600,0.337866455078125,9.801237106323242,0.30500736832618713,-0.11454126983880997
1751619057679690000,0.35668994140625,9.801105499267578,0.3093188405036926,-0.1141895279288292
1751619057698513400,0.375513427734375,9.801044464111328,0.3141036629676819,-0.10617076605558395
1751619057717336800,0.3943369140625,9.800997734069824,0.3182384967803955,-0.09769248962402344
1751619057736160300,0.41316015625,9.80097484588623,0.3206136226654053,-0.09212930500507355
1751619057754983700,0.431983642578125,9.800989151000977,0.3206201493740082,-0.09052727371454239
1751619057773807400,0.450807373046875,9.800971031188965,0.3211526870727539,-0.09055879712104797
1751619057792630800,0.469630859375,9.800969123840332,0.32120639085769653,-0.0907365009188652
1751619057811454200,0.4884541015625,9.801032066345215,0.31949055194854736,-0.08989984542131424
1751619057830277600,0.507277587890625,9.801078796386719,0.3178059756755829,-0.09079574048519135
1751619057849101000,0.52610107421875,9.801078796386719,0.3172875940799713,-0.0925106629729271
1751619057867924500,0.544924560546875,9.801080703735352,0.3166959285736084,-0.09439879655838013
1751619057886748200,0.563748046875,9.801104545593262,0.31553852558135986,-0.09580561518669128
1751619057905571600,0.582571533203125,9.801148414611816,0.3135969340801239,-0.09758462011814117
1751619057924395000,0.60139501953125,9.8012056350708,0.3107534348964691,-0.10094259679317474
1751619057943218400,0.620218505859375,9.801239013671875,0.3085845410823822,-0.10422052443027496
1751619057962041900,0.639041748046875,9.801279067993164,0.3068370223045349,-0.10567647963762283
1751619057980865500,0.657865478515625,9.801302909851074,0.3061383366584778,-0.10547317564487457
1751619057999689000,0.67668896484375,9.801290512084961,0.30662304162979126,-0.10518895089626312
1751619058018512400,0.695512451171875,9.801267623901367,0.3076334595680237,-0.10447162389755249
1751619058037335800,0.714335693359375,9.801261901855469,0.30860331654548645,-0.10216223448514938
1751619058056159200,0.7331591796875,9.801264762878418,0.30915144085884094,-0.10015566647052765
1751619058074982700,0.751982666015625,9.801251411437988,0.3098400831222534,-0.0991855040192604
1751619058093806000,0.77080615234375,9.801233291625977,0.3104417026042938,-0.09922704100608826
1751619058112629800,0.789629638671875,9.801239967346191,0.3101387023925781,-0.09942103922367096
1751619058131453200,0.808453125,9.801268577575684,0.30929824709892273,-0.0992947369813919
1751619058150276600,0.827276611328125,9.801284790039062,0.3087911605834961,-0.09921583533287048
1751619058169100000,0.84610009765625,9.801273345947266,0.30909213423728943,-0.09945020079612732
1751619058187923500,0.86492333984375,9.801279067993164,0.3092258870601654,-0.09857752174139023
1751619058206747100,0.8837470703125,9.80125904083252,0.3101552128791809,-0.09745152294635773
1751619058225570600,0.902570556640625,9.801240921020508,0.3108970522880554,-0.09699176996946335
1751619058244394000,0.92139404296875,9.801241874694824,0.310329794883728,-0.09868884086608887
1751619058263217400,0.940217529296875,9.801287651062012,0.30814704298973083,-0.10096942633390427
1751619058282040800,0.959040771484375,9.801337242126465,0.30605918169021606,-0.1025271937251091
1751619058300864300,0.9778642578125,9.80135726928711,0.30483296513557434,-0.1042335107922554
1751619058319688000,0.99668798828125,9.801355361938477,0.30470985174179077,-0.10475971549749374
1751619058338511400,1.015511474609375,9.8013334274292,0.30547189712524414,-0.10451878607273102
1751619058357334800,1.034334716796875,9.801337242126465,0.3057035207748413,-0.10361594706773758
1751619058376158200,1.053158203125,9.801342010498047,0.3057047128677368,-0.10313517600297928
1751619058394981600,1.071981689453125,9.801339149475098,0.305740624666214,-0.10326630622148514
1751619058413805000,1.09080517578125,9.801321029663086,0.30622002482414246,-0.10346902906894684
1751619058432628700,1.109628662109375,9.801321983337402,0.3062410056591034,-0.10333957523107529
1751619058451452200,1.1284521484375,9.801342964172363,0.3057725429534912,-0.10283038020133972
1751619058470275600,1.147275634765625,9.801342964172363,0.3056546449661255,-0.10312709957361221
1751619058489099000,1.16609912109375,9.801339149475098,0.3055664896965027,-0.10372179001569748
1751619058507922400,1.18492236328125,9.80134105682373,0.30540990829467773,-0.10406310856342316
1751619058526746000,1.20374609375,9.801356315612793,0.30490702390670776,-0.10415708273649216
1751619058545569500,1.222569580078125,9.801362991333008,0.3046228885650635,-0.10432766377925873
1751619058564393000,1.24139306640625,9.801362037658691,0.3045320212841034,-0.10465269535779953
1751619058583216400,1.26021630859375,9.80136775970459,0.3044968545436859,-0.10423101484775543
1751619058602039800,1.279039794921875,9.801353454589844,0.3051493167877197,-0.10361474752426147
1751619058620863500,1.297863525390625,9.801336288452148,0.3059485852718353,-0.10285633057355881
1751619058639687000,1.31668701171875,9.801325798034668,0.3064999282360077,-0.10228104144334793
1751619058658510300,1.33551025390625,9.801323890686035,0.3067191541194916,-0.10180368274450302
1751619058677333800,1.354333740234375,9.801335334777832,0.3065442740917206,-0.10113374143838882
1751619058696157200,1.3731572265625,9.801340103149414,0.3063723146915436,-0.10119689255952835
1751619058714980600,1.391980712890625,9.801339149475098,0.3062809407711029,-0.10153583437204361
1751619058733804300,1.41080419921875,9.801329612731934,0.3063487708568573,-0.10236148536205292
1751619058752627700,1.429627685546875,9.801322937011719,0.3064397871494293,-0.10273729264736176
1751619058771451100,1.448451171875,9.801326751708984,0.3063476085662842,-0.1026376336812973
1751619058790274600,1.467274658203125,9.8013334274292,0.3064163327217102,-0.10175532847642899
1751619058809098000,1.486097900390625,9.801321983337402,0.30686360597610474,-0.10155761986970901
1751619058827921700,1.504921630859375,9.801318168640137,0.3069845736026764,-0.1014547124505043
1751619058846745000,1.5237451171875,9.8013334274292,0.30663660168647766,-0.10107573866844177
1751619058865568500,1.542568603515625,9.801338195800781,0.3064698278903961,-0.10118235647678375
1751619058884392000,1.561391845703125,9.801339149475098,0.30621737241744995,-0.10183709114789963
1751619058903215400,1.58021533203125,9.801342964172363,0.30590471625328064,-0.1024240106344223
1751619058922038800,1.599038818359375,9.801342010498047,0.30578577518463135,-0.10283350199460983
1751619058940862500,1.617862548828125,9.801342010498047,0.30579015612602234,-0.10295844823122025
1751619058959686000,1.636685791015625,9.801352500915527,0.30555960536003113,-0.10253005474805832
1751619058978509300,1.65550927734375,9.801361083984375,0.30534276366233826,-0.10231105983257294
1751619058997332700,1.674332763671875,9.801356315612793,0.30546101927757263,-0.10248459130525589
1751619059016156200,1.69315625,9.801358222961426,0.3054615259170532,-0.10229969769716263
1751619059034979800,1.711979736328125,9.801352500915527,0.30562517046928406,-0.10220716893672943
1751619059053803300,1.73080322265625,9.80135440826416,0.3056396245956421,-0.10215267539024353
1751619059072626700,1.749626708984375,9.801360130310059,0.3055349290370941,-0.1018369272351265
1751619059091450000,1.7684501953125,9.801360130310059,0.3053871691226959,-0.1023058295249939
1751619059110273500,1.7872734375,9.801359176635742,0.3053511679172516,-0.10252635926008224
1751619059129097200,1.80609716796875,9.801359176635742,0.3052898049354553,-0.10274360328912735
1751619059147920600,1.824920654296875,9.801351547241211,0.3055466413497925,-0.10263964533805847
1751619059166744000,1.843744140625,9.801351547241211,0.3056340515613556,-0.10237989574670792
1751619059185567500,1.8625673828125,9.801355361938477,0.3056471645832062,-0.1019761711359024
1751619059204391000,1.881390869140625,9.801365852355957,0.3054570257663727,-0.10157901793718338
1751619059223214600,1.900214599609375,9.801362991333008,0.30557021498680115,-0.10150064527988434
1751619059242038000,1.9190380859375,9.801366806030273,0.30526408553123474,-0.10201196372509003
1751619059260861400,1.937861328125,9.801375389099121,0.30472317337989807,-0.1027747169137001
1751619059279684900,1.956684814453125,9.801389694213867,0.3043712079524994,-0.1025434136390686
1751619059298508300,1.97550830078125,9.801407814025879,0.3039472699165344,-0.10202391445636749
1751619059317331700,1.994331787109375,9.801412582397461,0.30385950207710266,-0.10182072967290878
1751619059336155400,2.0131552734375,9.801403045654297,0.3042409121990204,-0.10151120275259018
1751619059354978800,2.031978759765625,9.801406860351562,0.30430230498313904,-0.10109010338783264
1751619059373802200,2.05080224609375,9.801434516906738,0.3036571145057678,-0.10033896565437317
1751619059392625700,2.069625732421875,9.801424980163574,0.3039861023426056,-0.10023010522127151
1751619059411449000,2.088448974609375,9.801422119140625,0.30383163690567017,-0.1009875237941742
1751619059430272800,2.107272705078125,9.801420211791992,0.30381345748901367,-0.10117441415786743
1751619059449096200,2.12609619140625,9.801426887512207,0.3034561276435852,-0.10170083492994308
1751619059467919600,2.144919677734375,9.801426887512207,0.303481787443161,-0.10158005356788635
1751619059486743000,2.163742919921875,9.801423072814941,0.30346909165382385,-0.1019345074892044
1751619059505566500,2.18256640625,9.801423072814941,0.30338627099990845,-0.10220026224851608
1751619059524390000,2.201389892578125,9.801422119140625,0.3035607635974884,-0.1018751934170723
1751619059543213600,2.220213623046875,9.80142593383789,0.3034747838973999,-0.10171632468700409
1751619059562037000,2.239037109375,9.801410675048828,0.3038541078567505,-0.10203191637992859
1751619059580860400,2.2578603515625,9.801400184631348,0.30414220690727234,-0.1021375060081482
1751619059599683800,2.276683837890625,9.801407814025879,0.30396193265914917,-0.10197269171476364
1751619059618507300,2.29550732421875,9.801413536071777,0.30372029542922974,-0.10219240933656693
1751619059637331000,2.3143310546875,9.80140495300293,0.30381760001182556,-0.10260249674320221
1751619059656154400,2.333154296875,9.801400184631348,0.3038784861564636,-0.10292155295610428
1751619059674977800,2.351977783203125,9.80141830444336,0.3034011721611023,-0.10260787606239319
1751619059693801200,2.37080126953125,9.801424980163574,0.30332720279693604,-0.10219425708055496
1751619059712624600,2.389624755859375,9.801434516906738,0.30301564931869507,-0.10220878571271896
1751619059731448000,2.408447998046875,9.801430702209473,0.3030182719230652,-0.102509506046772
1751619059750271700,2.427271728515625,9.801437377929688,0.30287042260169983,-0.1023346483707428
1751619059769095200,2.44609521484375,9.801461219787598,0.3024325966835022,-0.10146372765302658
1751619059787918600,2.464918701171875,9.801451683044434,0.3027096390724182,-0.10155350714921951
1751619059806742000,2.483741943359375,9.801456451416016,0.3024510145187378,-0.10187846422195435
1751619059825565400,2.5025654296875,9.8014497756958,0.30258482694625854,-0.10199916362762451
1751619059844388900,2.521388916015625,9.80146312713623,0.3022238314151764,-0.10180750489234924
1751619059863212500,2.540212646484375,9.801481246948242,0.30172139406204224,-0.10157626867294312
1751619059882036000,2.559035888671875,9.80147933959961,0.30169782042503357,-0.10185258090496063
1751619059900859400,2.577859375,9.80147647857666,0.30167609453201294,-0.10208646208047867
1751619059919682800,2.596682861328125,9.801478385925293,0.3015781342983246,-0.10218488425016403
1751619059938506200,2.61550634765625,9.801486015319824,0.3015533983707428,-0.10165856778621674
1751619059957330000,2.634329833984375,9.801495552062988,0.30129727721214294,-0.10154179483652115
1751619059976153300,2.6531533203125,9.801488876342773,0.30145445466041565,-0.10154316574335098
1751619059994976800,2.671976806640625,9.801493644714355,0.3014245927333832,-0.10131948441267014
1751619060013800200,2.69080029296875,9.801504135131836,0.3010486662387848,-0.10144829005002975
1751619060032623600,2.70962353515625,9.801497459411621,0.30105891823768616,-0.1019347757101059
1751619060051447000,2.728447021484375,9.801492691040039,0.3012581467628479,-0.1018606498837471
1751619060070270500,2.7472705078125,9.801502227783203,0.30117568373680115,-0.10112366080284119
1751619060089094100,2.76609423828125,9.801498413085938,0.30140259861946106,-0.100838802754879
1751619060107917600,2.78491748046875,9.801470756530762,0.30226150155067444,-0.10096193104982376
1751619060126741000,2.803740966796875,9.801445007324219,0.303080677986145,-0.10102007538080215
1751619060145564400,2.822564453125,9.801467895507812,0.3027486503124237,-0.09987203031778336
1751619060164387800,2.841387939453125,9.801473617553711,0.3027203679084778,-0.09934692084789276
1751619060183211500,2.86021142578125,9.801482200622559,0.30231088399887085,-0.09969771653413773
1751619060202035000,2.879034912109375,9.801493644714355,0.30175626277923584,-0.10026884824037552
1751619060220858400,2.8978583984375,9.801499366760254,0.30142125487327576,-0.10071591287851334
1751619060239681800,2.916681884765625,9.801499366760254,0.3013242483139038,-0.10099136829376221
1751619060258505200,2.935505126953125,9.801491737365723,0.3014589548110962,-0.10126159340143204
1751619060277328600,2.95432861328125,9.801494598388672,0.30160263180732727,-0.10058317333459854
1751619060296152000,2.973152099609375,9.801495552062988,0.30191466212272644,-0.09961724281311035
1751619060314975700,2.991975830078125,9.801487922668457,0.3023017942905426,-0.09909947216510773
1751619060333799200,3.010799072265625,9.801473617553711,0.3026037812232971,-0.09972257912158966
1751619060352622600,3.02962255859375,9.801482200622559,0.30231380462646484,-0.09971249848604202
1751619060371446000,3.048446044921875,9.801485061645508,0.3021097183227539,-0.10012507438659668
1751619060390269400,3.06726953125,9.801499366760254,0.301378458738327,-0.10081395506858826
1751619060409092900,3.0860927734375,9.801498413085938,0.30128875374794006,-0.10116280615329742
1751619060427916500,3.10491650390625,9.801494598388672,0.301362007856369,-0.10134949535131454
1751619060446740000,3.123739990234375,9.80150318145752,0.3012777864933014,-0.10074370354413986
1751619060465563400,3.1425634765625,9.801495552062988,0.30179837346076965,-0.09991902858018875
1751619060484386800,3.16138671875,9.801492691040039,0.30202990770339966,-0.0995371863245964
1751619060503210200,3.180210205078125,9.801481246948242,0.3024548590183258,-0.0993763878941536
1751619060522034000,3.199033935546875,9.801474571228027,0.3025137782096863,-0.09984982013702393
1751619060540857300,3.217857421875,9.801470756530762,0.30249151587486267,-0.10033488273620605
1751619060559680800,3.2366806640625,9.801473617553711,0.3022279441356659,-0.10078184306621552
1751619060578504200,3.255504150390625,9.801487922668457,0.3016355037689209,-0.10120777040719986
1751619060597327600,3.27432763671875,9.801490783691406,0.30144599080085754,-0.10142127424478531
1751619060616151000,3.293151123046875,9.801499366760254,0.30128034949302673,-0.10112655907869339
1751619060634974500,3.311974365234375,9.801496505737305,0.3013875484466553,-0.10110253840684891
1751619060653798100,3.330798095703125,9.801490783691406,0.3016839325428009,-0.10080945491790771
1751619060672621600,3.34962158203125,9.801488876342773,0.30175966024398804,-0.10079453140497208
1751619060691445000,3.368445068359375,9.801491737365723,0.30169203877449036,-0.10067171603441238
1751619060710268400,3.387268310546875,9.80150032043457,0.3014650344848633,-0.1003943383693695
1751619060729091800,3.406091796875,9.801499366760254,0.3013952970504761,-0.10077952593564987
1751619060747915300,3.424915283203125,9.801502227783203,0.30113285779953003,-0.10128289461135864
1751619060766739000,3.443739013671875,9.801492691040039,0.30144834518432617,-0.10127711296081543
1751619060785562400,3.462562255859375,9.801515579223633,0.30105888843536377,-0.10015971958637238
1751619060804385800,3.4813857421875,9.80152702331543,0.30089911818504333,-0.09962056577205658
1751619060823209200,3.500209228515625,9.801492691040039,0.3018330931663513,-0.10011676698923111
1751619060842032600,3.51903271484375,9.801488876342773,0.3017949163913727,-0.10055936127901077
1751619060860856000,3.53785595703125,9.801488876342773,0.301937460899353,-0.1001700907945633
1751619060879679500,3.556679443359375,9.801507949829102,0.30148419737815857,-0.09967789053916931
1751619060898503200,3.575503173828125,9.801506996154785,0.30133211612701416,-0.10017423331737518
1751619060917326600,3.59432666015625,9.80148983001709,0.3016979992389679,-0.10080431401729584
1751619060936150000,3.61314990234375,9.801485061645508,0.30194976925849915,-0.10044640302658081
1751619060954973400,3.631973388671875,9.801486015319824,0.3019937574863434,-0.10028928518295288
1751619060973796900,3.650796875,9.801475524902344,0.3022623658180237,-0.10052745044231415
1751619060992620300,3.669620361328125,9.801460266113281,0.30264440178871155,-0.10080845654010773
1751619061011444000,3.68844384765625,9.80146598815918,0.3025902509689331,-0.10037527233362198
1751619061030267400,3.707267333984375,9.801471710205078,0.3025379776954651,-0.10003095865249634
1751619061049090800,3.7260908203125,9.801472663879395,0.3025031089782715,-0.10009229928255081
1751619061067914200,3.744914306640625,9.80146312713623,0.30268943309783936,-0.10054038465023041
1751619061086737700,3.763737548828125,9.801460266113281,0.30282706022262573,-0.10030359774827957
1751619061105561000,3.78256103515625,9.801459312438965,0.30276545882225037,-0.10058774054050446
1751619061124384800,3.801384765625,9.801464080810547,0.3025895357131958,-0.10065957903862
1751619061143208200,3.820208251953125,9.80146312713623,0.3025481700897217,-0.10085904598236084
1751619061162031600,3.839031494140625,9.801456451416016,0.30275851488113403,-0.10092414170503616
1751619061180855000,3.85785498046875,9.801456451416016,0.3028883934020996,-0.1004815399646759
1751619061199678500,3.876678466796875,9.801453590393066,0.3029833137989044,-0.10045379400253296
1751619061218502000,3.895501953125,9.8014497756958,0.30315643548965454,-0.1002693921327591
1751619061237325300,3.9143251953125,9.80144214630127,0.30328771471977234,-0.10063465684652328
1751619061256148700,3.933148681640625,9.801445007324219,0.3032887279987335,-0.10048472136259079
1751619061274972400,3.951972412109375,9.801445007324219,0.30328959226608276,-0.1004093661904335
1751619061293795800,3.9707958984375,9.801444053649902,0.30328792333602905,-0.10045728832483292
1751619061312619300,3.989619384765625,9.801433563232422,0.303532212972641,-0.10077332705259323
1751619061331442700,4.008442626953125,9.801422119140625,0.30376219749450684,-0.10112062096595764
1751619061350266000,4.02726611328125,9.801427841186523,0.3037523925304413,-0.10067608952522278
1751619061369089500,4.046089599609375,9.801437377929688,0.30343055725097656,-0.10074922442436218
1751619061387913000,4.064912841796875,9.801430702209473,0.30358022451400757,-0.1009775847196579
1751619061406736600,4.083736572265625,9.801431655883789,0.3034091889858246,-0.10134834796190262
1751619061425560000,4.10256005859375,9.801429748535156,0.303494393825531,-0.10124288499355316
1751619061444383500,4.121383544921875,9.801426887512207,0.3034941554069519,-0.10156577825546265
1751619061463207000,4.14020703125,9.801432609558105,0.30334150791168213,-0.10142330080270767
1751619061482030300,4.1590302734375,9.801437377929688,0.30327045917510986,-0.10128653049468994
1751619061500853800,4.177853759765625,9.801434516906738,0.303365021944046,-0.10114699602127075
1751619061519677200,4.19667724609375,9.80144214630127,0.30306553840637207,-0.10128151625394821
1751619061538500600,4.21550048828125,9.801443099975586,0.3030799627304077,-0.10118011385202408
1751619061557324300,4.23432421875,9.801433563232422,0.3033275008201599,-0.10136459022760391
1751619061576147700,4.253147705078125,9.801433563232422,0.3033985495567322,-0.10125014930963516
1751619061594971100,4.27197119140625,9.801435470581055,0.30348294973373413,-0.100806824862957
1751619061613794600,4.290794677734375,9.801427841186523,0.30363816022872925,-0.10103309899568558
1751619061632618000,4.309617919921875,9.801411628723145,0.3039531707763672,-0.10156118869781494
1751619061651441400,4.32844140625,9.801421165466309,0.30350878834724426,-0.10207273811101913
1751619061670264800,4.347264892578125,9.80142879486084,0.30334609746932983,-0.10178738832473755
1751619061689088500,4.366088623046875,9.801424026489258,0.303498774766922,-0.10189888626337051
1751619061707912000,4.384911865234375,9.801426887512207,0.30334365367889404,-0.10197456181049347
1751619061726735400,4.4037353515625,9.801410675048828,0.303734689950943,-0.10236188024282455
1751619061745558800,4.422558837890625,9.801410675048828,0.3038007616996765,-0.10226776450872421
1751619061764382200,4.44138232421875,9.801399230957031,0.30417773127555847,-0.10217845439910889
1751619061783205600,4.46020556640625,9.801393508911133,0.3040788769721985,-0.1029372289776802
1751619061802029000,4.479029052734375,9.801397323608398,0.30389875173568726,-0.10316900163888931
1751619061820852700,4.497852783203125,9.801384925842285,0.30427417159080505,-0.10320206731557846
1751619061839676200,4.51667626953125,9.801383972167969,0.3044809103012085,-0.10276271402835846
1751619061858499600,4.53549951171875,9.80138874053955,0.3043636679649353,-0.10257480293512344
1751619061877323000,4.554322998046875,9.801384925842285,0.30476438999176025,-0.1018470749258995
1751619061896146400,4.573146484375,9.801395416259766,0.3044886887073517,-0.10161025822162628
1751619061914969900,4.591969970703125,9.801401138305664,0.3041720390319824,-0.10200990736484528
1751619061933793300,4.610793212890625,9.80140495300293,0.3038334548473358,-0.1026301383972168
1751619061952616700,4.62961669921875,9.801411628723145,0.3036573827266693,-0.10244804620742798
1751619061971440400,4.6484404296875,9.801423072814941,0.30333587527275085,-0.10235276073217392
1751619061990263800,4.667263916015625,9.801406860351562,0.30381083488464355,-0.1024978905916214
1751619062009087200,4.686087158203125,9.801390647888184,0.30433058738708496,-0.1025095209479332
1751619062027910700,4.70491064453125,9.801395416259766,0.30429941415786743,-0.10217580944299698
1751619062046734000,4.723734130859375,9.80140209197998,0.30428555607795715,-0.10146559029817581
1751619062065557500,4.7425576171875,9.801409721374512,0.3042537271976471,-0.10098916292190552
1751619062084381000,4.761380859375,9.801409721374512,0.3040774166584015,-0.10139045864343643
1751619062103204600,4.78020458984375,9.801411628723145,0.30389469861984253,-0.10182332247495651
1751619062122028000,4.799028076171875,9.801414489746094,0.3037514388561249,-0.10198086500167847
1751619062140851500,4.8178515625,9.801417350769043,0.3035796284675598,-0.10213657468557358
1751619062159675000,4.8366748046875,9.801421165466309,0.3034982681274414,-0.10213372111320496
1751619062178498300,4.855498291015625,9.801401138305664,0.3041493594646454,-0.10196973383426666
1751619062197321700,4.87432177734375,9.801396369934082,0.30443641543388367,-0.10165296494960785
1751619062216145200,4.893145263671875,9.801370620727539,0.30542322993278503,-0.10114666074514389
1751619062234968600,4.911968505859375,9.801362037658691,0.3058193325996399,-0.10080447793006897
1751619062253792000,4.9307919921875,9.801369667053223,0.305669903755188,-0.10055343806743622
1751619062272615700,4.94961572265625,9.801375389099121,0.30543461441993713,-0.10067076236009598
1751619062291439000,4.968439208984375,9.801397323608398,0.30450519919395447,-0.10136342793703079
1751619062310262500,4.987262451171875,9.801400184631348,0.3042357265949249,-0.10193149745464325
1751619062347909400,5.024909423828125,9.801413536071777,0.30358779430389404,-0.10259527713060379
1751619062366732800,5.04373291015625,9.801412582397461,0.303737610578537,-0.102102130651474
1751619062385556200,5.06255615234375,9.801405906677246,0.30411434173583984,-0.10173368453979492
1751619062404379600,5.081379638671875,9.801384925842285,0.3050258159637451,-0.10110488533973694
1751619062423203000,5.100203125,9.801371574401855,0.3054410219192505,-0.10108158737421036
1751619062442026800,5.11902685546875,9.80137825012207,0.3051356077194214,-0.1012580394744873
1751619062460850200,5.13785009765625,9.801373481750488,0.30541306734085083,-0.10081060975790024
1751619062479673600,5.156673583984375,9.801361083984375,0.3064909279346466,-0.0988386794924736
1751619062498497000,5.1754970703125,9.801345825195312,0.30662447214126587,-0.09988798201084137
1751619062517320400,5.194320556640625,9.80139446258545,0.3049343228340149,-0.10037796199321747
1751619062536144000,5.213143798828125,9.801435470581055,0.30284252762794495,-0.1026090681552887
1751619062554967300,5.23196728515625,9.801420211791992,0.30244719982147217,-0.10524916648864746
1751619062573790700,5.250790771484375,9.801409721374512,0.302657812833786,-0.10555092990398407
1751619062592614400,5.269614501953125,9.801421165466309,0.30296987295150757,-0.10372533649206161
1751619062611437800,5.288437744140625,9.801411628723145,0.30392587184906006,-0.1017119362950325
1751619062630261200,5.30726123046875,9.80137825012207,0.3052993416786194,-0.10076165199279785
1751619062649084700,5.326084716796875,9.801355361938477,0.3063105344772339,-0.09996753931045532
1751619062667908000,5.344908203125,9.801346778869629,0.30659565329551697,-0.09997231513261795
1751619062686731500,5.3637314453125,9.801383018493652,0.3054920434951782,-0.09979359805583954
1751619062705555000,5.382554931640625,9.801409721374512,0.30436602234840393,-0.10059862583875656
1751619062724378400,5.40137841796875,9.801406860351562,0.30373477935791016,-0.10278751701116562
1751619062743202000,5.4202021484375,9.801434516906738,0.3026182949542999,-0.10335897654294968
1751619062762025500,5.439025390625,9.801443099975586,0.302288681268692,-0.1035233810544014
1751619062780849000,5.457848876953125,9.801432609558105,0.3025659918785095,-0.10363540053367615
1751619062799672300,5.47667236328125,9.801429748535156,0.30313581228256226,-0.10240267217159271
1751619062818495700,5.495495849609375,9.801413536071777,0.3039962351322174,-0.10132009536027908
1751619062837319200,5.514319091796875,9.801400184631348,0.30479079484939575,-0.10023088753223419
1751619062856142600,5.533142578125,9.801383972167969,0.3052961528301239,-0.10028489679098129
1751619062874966000,5.551966064453125,9.801383018493652,0.30508124828338623,-0.10099224001169205
1751619062893789400,5.57078955078125,9.801419258117676,0.30392104387283325,-0.10101698338985443
1751619062912612900,5.58961279296875,9.801448822021484,0.3028113842010498,-0.10143276304006577
1751619062931436300,5.608436279296875,9.80145263671875,0.3025958836078644,-0.10168737173080444
1751619062950260000,5.627260009765625,9.80143928527832,0.3030979037284851,-0.1015392318367958
1751619062969083400,5.64608349609375,9.801422119140625,0.30380570888519287,-0.10102801769971848
1751619062987906800,5.66490673828125,9.801412582397461,0.3044915795326233,-0.09995738416910172
1751619063006730200,5.683730224609375,9.80141544342041,0.3046111464500427,-0.09925425797700882
1751619063025553700,5.7025537109375,9.801423072814941,0.3044145405292511,-0.09912959486246109
1751619063044377000,5.721377197265625,9.801436424255371,0.3036711513996124,-0.10010791569948196
1751619063063200500,5.740200439453125,9.801446914672852,0.3031044602394104,-0.10073930025100708
1751619063082024200,5.759024169921875,9.801445960998535,0.3027975857257843,-0.10178712755441666
1751619063100847600,5.77784765625,9.801457405090332,0.3021162748336792,-0.1026504784822464
1751619063119671000,5.796671142578125,9.801454544067383,0.30226555466651917,-0.10259821265935898
1751619063138494500,5.815494384765625,9.8014497756958,0.3026740550994873,-0.10183049738407135
1751619063157318000,5.83431787109375,9.801429748535156,0.30361443758010864,-0.10089032351970673
1751619063176141300,5.853141357421875,9.801395416259766,0.304460346698761,-0.10170213878154755
1751619063194964700,5.87196484375,9.801365852355957,0.3050616979598999,-0.10266593843698502
1751619063213788200,5.8907880859375,9.801371574401855,0.30483776330947876,-0.10280446708202362
1751619063232611600,5.909611572265625,9.801390647888184,0.3041762113571167,-0.10293117165565491
1751619063251435000,5.92843505859375,9.801397323608398,0.3036324083805084,-0.1038992777466774
1751619063270258400,5.947258544921875,9.801387786865234,0.3036547899246216,-0.10474592447280884
1751619063289081900,5.966081787109375,9.801356315612793,0.30433571338653564,-0.10577183216810226
1751619063307905500,5.984905517578125,9.801365852355957,0.30430418252944946,-0.10492714494466782
1751619063345552400,6.022552490234375,9.801435470581055,0.3036724328994751,-0.10014625638723373
1751619063364375800,6.041375732421875,9.801424026489258,0.30389896035194397,-0.10049653053283691
1751619063383199200,6.06019921875,9.801424980163574,0.30466222763061523,-0.09822535514831543
1751619063402022700,6.079022705078125,9.801249504089355,0.30732837319374084,-0.10696527361869812
1751619063420846000,6.09784619140625,9.801133155822754,0.30708202719688416,-0.11784788966178894
1751619063439669500,6.11666943359375,9.8010835647583,0.3072836399078369,-0.12132441252470016
1751619063458493000,6.135492919921875,9.800294876098633,0.32515856623649597,-0.13742266595363617
1751619063477316400,6.15431640625,9.798084259033203,0.36600276827812195,-0.18432869017124176
1751619063496140000,6.17314013671875,9.795639991760254,0.39724886417388916,-0.2408732920885086
1751619063514963500,6.19196337890625,9.795561790466309,0.3966953456401825,-0.2449246644973755
1751619063533787000,6.210786865234375,9.79646110534668,0.3890921175479889,-0.21990224719047546
1751619063552610300,6.2296103515625,9.796791076660156,0.3886326551437378,-0.20550288259983063
1751619063571433700,6.248433837890625,9.797022819519043,0.3867161273956299,-0.1979566067457199
1751619063590257200,6.267257080078125,9.797043800354004,0.38652461767196655,-0.19730448722839355
1751619063609080600,6.28608056640625,9.797229766845703,0.3829946517944336,-0.19490602612495422
1751619063627904000,6.304904052734375,9.79751968383789,0.37683799862861633,-0.19232077896595
1751619063646727400,6.3237275390625,9.797986030578613,0.36659544706344604,-0.18826505541801453
1751619063665551000,6.342551025390625,9.798661231994629,0.35039210319519043,-0.18399891257286072
1751619063684374500,6.36137451171875,9.799304008483887,0.3326322138309479,-0.1827019453048706
1751619063703198000,6.380197998046875,9.800036430358887,0.3143850862979889,-0.17556065320968628
1751619063722021400,6.399021484375,9.800503730773926,0.2991407811641693,-0.17614047229290009
1751619063740844800,6.4178447265625,9.800606727600098,0.28979048132896423,-0.18576550483703613
1751619063759668200,6.436668212890625,9.800650596618652,0.28444722294807434,-0.19163499772548676
1751619063778491600,6.45549169921875,9.800662994384766,0.281759113073349,-0.1949591189622879
1751619063797315000,6.474315185546875,9.799901008605957,0.2941274642944336,-0.2140415459871292
1751619063816138500,6.493138427734375,9.798903465270996,0.3150031566619873,-0.2294570803642273
1751619063834962000,6.5119619140625,9.798139572143555,0.33345499634742737,-0.23590771853923798
1751619063853785600,6.53078564453125,9.797883987426758,0.34459033608436584,-0.23047031462192535
1751619063872609000,6.549609130859375,9.797858238220215,0.3505015969276428,-0.22252769768238068
1751619063891432400,6.568432373046875,9.797832489013672,0.35554787516593933,-0.21554024517536163
1751619063910255900,6.587255859375,9.797690391540527,0.36181581020355225,-0.21151942014694214
1751619063929079300,6.606079345703125,9.797765731811523,0.3642672896385193,-0.20362526178359985
1751619063947902700,6.62490283203125,9.797965049743652,0.3643563389778137,-0.19368652999401093
1751619063966726100,6.64372607421875,9.798115730285645,0.36384913325309753,-0.18683764338493347
1751619063985549600,6.662549560546875,9.798197746276855,0.3638668358325958,-0.18251898884773254
1751619064004373000,6.681373046875,9.798640251159668,0.3568791151046753,-0.1722550094127655
1751619064023196400,6.700196533203125,9.799192428588867,0.34665781259536743,-0.1613619327545166
1751619064042019800,6.719019775390625,9.80036735534668,0.3244086802005768,-0.133982852101326
1751619064060843300,6.73784326171875,9.80120849609375,0.3035624027252197,-0.12064874172210693
1751619064079667000,6.7566669921875,9.801511764526367,0.28937166929244995,-0.13049092888832092
1751619064098490400,6.775490478515625,9.80165958404541,0.276062548160553,-0.14705373346805573
1751619064117313800,6.794313720703125,9.801578521728516,0.26865488290786743,-0.16512475907802582
1751619064136137200,6.81313720703125,9.801175117492676,0.2705400884151459,-0.18483659625053406
1751619064154960600,6.831960693359375,9.800551414489746,0.2814788520336151,-0.20088379085063934
1751619064173784000,6.8507841796875,9.79965591430664,0.3028450608253479,-0.21310903131961823
1751619064192607500,6.869607421875,9.798828125,0.33433476090431213,-0.2038756161928177
1751619064211431000,6.888430908203125,9.799866676330566,0.34433403611183167,-0.12018486112356186
1751619064230254300,6.90725439453125,9.799141883850098,0.3694511353969574,-0.10354799777269363
1751619064249077800,6.926077880859375,9.797799110412598,0.39725810289382935,-0.12533792853355408
1751619064267901200,6.944901123046875,9.795395851135254,0.431395024061203,-0.18574298918247223
1751619064286724900,6.963724853515625,9.796318054199219,0.4251522123813629,-0.14763851463794708
1751619064305548300,6.98254833984375,9.797082901000977,0.4140269160270691,-0.12697936594486237
1751619064324371700,7.001371826171875,9.79693603515625,0.4124837815761566,-0.142500102519989
1751619064343195100,7.020195068359375,9.79705810546875,0.40686535835266113,-0.14996571838855743
1751619064362018600,7.0390185546875,9.79736328125,0.3972713053226471,-0.1556927114725113
1751619064380842000,7.057842041015625,9.797928810119629,0.3828875720500946,-0.15607301890850067
1751619064399665400,7.07666552734375,9.798741340637207,0.3650414049625397,-0.14762592315673828
1751619064418488800,7.09548876953125,9.799696922302246,0.34377583861351013,-0.13468441367149353
1751619064437312300,7.114312255859375,9.800605773925781,0.3195761740207672,-0.12805025279521942
1751619064456135700,7.1331357421875,9.801668167114258,0.290902316570282,-0.1143663078546524
1751619064474959000,7.151958984375,9.802872657775879,0.25916749238967896,-0.08308958262205124
1751619064493782500,7.170782470703125,9.803370475769043,0.2415180206298828,-0.07741343975067139
1751619064512606000,7.18960595703125,9.802926063537598,0.24523065984249115,-0.11353389918804169
1751619064531429600,7.2084296875,9.802083015441895,0.2591952979564667,-0.14961829781532288
1751619064550253000,7.227253173828125,9.801730155944824,0.265242338180542,-0.16158391535282135
1751619064569076500,7.246076416015625,9.801054000854492,0.27861618995666504,-0.17913848161697388
1751619064587900000,7.26489990234375,9.799895286560059,0.3014548718929291,-0.2038620114326477
1751619064606723300,7.283723388671875,9.798590660095215,0.33088791370391846,-0.22030401229858398
1751619064625546800,7.302546630859375,9.796171188354492,0.37377747893333435,-0.2563345432281494
1751619064644370200,7.3213701171875,9.795347213745117,0.3988644480705261,-0.2499251514673233
1751619064663193600,7.340193603515625,9.795540809631348,0.4108547866344452,-0.2212262749671936
1751619064682017000,7.35901708984375,9.796104431152344,0.4138872027397156,-0.1881883591413498
1751619064700840400,7.37784033203125,9.797032356262207,0.405155211687088,-0.15622250735759735
1751619064719663900,7.396663818359375,9.797666549682617,0.3973141014575958,-0.13516375422477722
1751619064738487300,7.4154873046875,9.797874450683594,0.3932558596134186,-0.13187676668167114
1751619064757310700,7.434310791015625,9.798378944396973,0.38210201263427734,-0.1270800530910492
1751619064776134400,7.453134521484375,9.799140930175781,0.3635949194431305,-0.12255099415779114
1751619064794957800,7.471957763671875,9.80036449432373,0.33440014719963074,-0.10689473152160645
1751619064813781200,7.49078125,9.802430152893066,0.2838069200515747,-0.04702521488070488
1751619064832604700,7.509604736328125,9.80399227142334,0.22641690075397491,0.02930116094648838
1751619064851428000,7.528427978515625,9.804591178894043,0.19718536734580994,0.038863908499479294
1751619064870251500,7.54725146484375,9.804340362548828,0.20655208826065063,-0.05128857120871544
1751619064889075000,7.566074951171875,9.80373764038086,0.21563497185707092,-0.10307034105062485
1751619064907898400,7.5848984375,9.803014755249023,0.2340383529663086,-0.1284831166267395
1751619064926721800,7.6037216796875,9.801401138305664,0.2720892131328583,-0.16995510458946228
1751619064945545200,7.622545166015625,9.799057006835938,0.31826338171958923,-0.2181124985218048
1751619064964368600,7.64136865234375,9.79724407196045,0.3593830168247223,-0.23503378033638
1751619064983192000,7.660192138671875,9.796724319458008,0.381348192691803,-0.22171665728092194
1751619065002015700,7.679015625,9.79687786102295,0.389302521944046,-0.20001335442066193
1751619065020839200,7.697839111328125,9.797613143920898,0.384371817111969,-0.17153224349021912
1751619065039662600,7.71666259765625,9.798733711242676,0.3676636815071106,-0.14145639538764954
1751619065058486000,7.735486083984375,9.799291610717773,0.3580862879753113,-0.12669016420841217
1751619065077309400,7.754309326171875,9.799905776977539,0.3447084426879883,-0.11584892868995667
1751619065096132900,7.7731328125,9.800863265991211,0.32301241159439087,-0.09553941339254379
1751619065114956300,7.791956298828125,9.802191734313965,0.29023852944374084,-0.056452155113220215
1751619065133779700,7.81077978515625,9.803427696228027,0.25086578726768494,-0.016303107142448425
1751619065152603100,7.82960302734375,9.804429054260254,0.20844365656375885,0.01057710312306881
1751619065171426600,7.848426513671875,9.804945945739746,0.18178227543830872,-0.01929437927901745
1751619065190250000,7.86725,9.80519962310791,0.16165891289710999,-0.04802759736776352
1751619065209073400,7.886073486328125,9.80467414855957,0.16585643589496613,-0.10598605871200562
1751619065227896800,7.904896728515625,9.803289413452148,0.19733862578868866,-0.1641615778207779
1751619065246720300,7.92372021484375,9.801462173461914,0.2364407777786255,-0.21408171951770782
1751619065265543700,7.942543701171875,9.79992961883545,0.27435559034347534,-0.2376912236213684
1751619065284367400,7.961367431640625,9.7987060546875,0.3094992935657501,-0.2448262870311737
1751619065303190800,7.980190673828125,9.797452926635742,0.3429930806159973,-0.25031447410583496
1751619065322014200,7.99901416015625,9.797162055969238,0.3648245930671692,-0.2300184667110443
1751619065340837600,8.017837646484375,9.797534942626953,0.37113282084465027,-0.20239143073558807
1751619065359661000,8.0366611328125,9.798319816589355,0.365040123462677,-0.17341937124729156
1751619065378484500,8.055484375,9.798985481262207,0.35698020458221436,-0.15116044878959656
1751619065397308000,8.074307861328125,9.799039840698242,0.35801082849502563,-0.145071879029274
1751619065416131300,8.09313134765625,9.799311637878418,0.3520774245262146,-0.1411067545413971
1751619065434954800,8.111954833984376,9.80010986328125,0.3344314992427826,-0.12798890471458435
1751619065453778200,8.130778076171875,9.801342010498047,0.30489352345466614,-0.10548616200685501
1751619065472601600,8.1496015625,9.802968978881836,0.2630716562271118,-0.05474352464079857
1751619065491425000,8.168425048828125,9.804003715515137,0.22630447149276733,-0.026011884212493896
1751619065510248400,8.18724853515625,9.80416488647461,0.21134047210216522,-0.06379593908786774
1751619065529071900,8.20607177734375,9.80417251586914,0.1966758519411087,-0.09952834993600845
1751619065547895300,8.224895263671876,9.80362606048584,0.19700419902801514,-0.14317359030246735
1751619065566719000,8.243718994140625,9.80233383178711,0.22344918549060822,-0.18631556630134583
1751619065585542400,8.26254248046875,9.80063247680664,0.26205235719680786,-0.2221159189939499
1751619065604365800,8.28136572265625,9.798826217651367,0.3062390983104706,-0.2441445142030716
1751619065623189200,8.300189208984374,9.796607971191406,0.35548245906829834,-0.26551204919815063
1751619065642012700,8.3190126953125,9.79601001739502,0.38561519980430603,-0.24471624195575714
1751619065660836000,8.337836181640625,9.795923233032227,0.4041469693183899,-0.21662665903568268
1751619065679659500,8.356659423828125,9.796095848083496,0.4111519157886505,-0.19454796612262726
1751619065698483000,8.37548291015625,9.797309875488281,0.3987277150154114,-0.1553420126438141
1751619065717306400,8.394306396484374,9.79849910736084,0.3789869546890259,-0.12719541788101196
1751619065736129800,8.4131298828125,9.799363136291504,0.35890114307403564,-0.11853388696908951
1751619065754953200,8.431953125,9.800844192504883,0.32622021436691284,-0.08619879186153412
1751619065773776600,8.450776611328125,9.802103996276855,0.29188117384910583,-0.0629371851682663
1751619065792600000,8.46960009765625,9.803569793701172,0.2457088679075241,-0.006150397937744856
1751619065811423500,8.488423583984375,9.804474830627441,0.2045365422964096,0.028806129470467567
1751619065830247000,8.507246826171874,9.804808616638184,0.18957479298114777,-0.013253206387162209
1751619065849070600,8.526070556640626,9.804950714111328,0.1763056069612503,-0.04740896448493004
1751619065867894000,8.54489404296875,9.804642677307129,0.17749211192131042,-0.08868690580129623
1751619065886717400,8.563717529296875,9.803600311279297,0.19980284571647644,-0.14105400443077087
1751619065905540900,8.582540771484375,9.802700996398926,0.22144027054309845,-0.16849826276302338
1751619065924364300,8.6013642578125,9.802251815795898,0.2378554493188858,-0.17223578691482544
1751619065943187700,8.620187744140624,9.801776885986328,0.25780826807022095,-0.17062850296497345
1751619065962011100,8.63901123046875,9.80097484588623,0.28561362624168396,-0.17230406403541565
1751619065980834600,8.65783447265625,9.7996826171875,0.32067635655403137,-0.18379908800125122
1751619065999658000,8.676657958984375,9.798978805541992,0.34490135312080383,-0.17731383442878723
1751619066018481400,8.6954814453125,9.798727989196777,0.3554772734642029,-0.17014248669147491
1751619066037304800,8.714304931640624,9.798478126525879,0.36143118143081665,-0.17198947072029114
1751619066056128300,8.733128173828124,9.798593521118164,0.3636164367198944,-0.16037799417972565
1751619066074951700,8.75195166015625,9.798673629760742,0.3649325370788574,-0.15227782726287842
1751619066093775000,8.770775146484375,9.798920631408691,0.3619295656681061,-0.14332269132137299
1751619066112598500,8.7895986328125,9.79931926727295,0.35635578632354736,-0.12948201596736908
1751619066131422000,8.808421875,9.79935073852539,0.35630717873573303,-0.12708838284015656
1751619066150245400,8.827245361328124,9.799515724182129,0.3529246747493744,-0.1238044947385788
1751619066169068800,8.84606884765625,9.800254821777344,0.3380872905254364,-0.10523480176925659
1751619066187892200,8.864892333984375,9.801019668579102,0.32109686732292175,-0.08550344407558441
1751619066206716000,8.8837158203125,9.801756858825684,0.30071502923965454,-0.07423199713230133
1751619066225539300,8.902539306640625,9.802619934082031,0.27412861585617065,-0.062309227883815765
1751619066244362800,8.92136279296875,9.802850723266602,0.2611081898212433,-0.07956386357545853
1751619066263186200,8.940186279296874,9.802509307861328,0.26243650913238525,-0.11101896315813065
1751619066282009600,8.959009521484376,9.801830291748047,0.2708398699760437,-0.14545567333698273
1751619066300833000,8.9778330078125,9.801769256591797,0.2709227502346039,-0.14935153722763062
1751619066319656400,8.996656494140625,9.801488876342773,0.277457594871521,-0.15566660463809967
1751619066338479900,9.01547998046875,9.800551414489746,0.2984195947647095,-0.1747245192527771
1751619066357303300,9.03430322265625,9.799092292785645,0.32856300473213196,-0.2005831003189087
1751619066376126700,9.053126708984376,9.797703742980957,0.3574346601963043,-0.21823543310165405
1751619066394950100,9.0719501953125,9.79693603515625,0.37933048605918884,-0.2157280445098877
1751619066413773600,9.090773681640625,9.796357154846191,0.39914214611053467,-0.20607247948646545
1751619066432597000,9.109596923828125,9.796013832092285,0.4133128523826599,-0.19408434629440308
1751619066451420400,9.12842041015625,9.796808242797852,0.41086605191230774,-0.15528546273708344
1751619066470243800,9.147243896484374,9.797868728637695,0.39795589447021484,-0.11745528876781464
1751619066489067300,9.1660673828125,9.798783302307129,0.3822116255760193,-0.09034530073404312
1751619066507890700,9.184890625,9.799724578857422,0.36175328493118286,-0.07021497189998627
1751619066526714000,9.203714111328125,9.800883293151855,0.3341291546821594,-0.037759341299533844
1751619066545537500,9.22253759765625,9.801854133605957,0.3051370084285736,-0.030604040250182152
1751619066564361200,9.241361328125,9.803167343139648,0.26121342182159424,0.007832101546227932
1751619066583184600,9.2601845703125,9.804286003112793,0.2111819088459015,0.04187887907028198
1751619066602008000,9.279008056640626,9.805097579956055,0.1671615093946457,0.0500463992357254
1751619066620831500,9.29783154296875,9.805631637573242,0.13743311166763306,0.032869644463062286
1751619066639655000,9.316655029296875,9.805737495422363,0.13254885375499725,-0.018617741763591766
1751619066667890000,9.344889892578125,9.805061340332031,0.15139448642730713,-0.0908675342798233
1751619066686713300,9.36371337890625,9.804022789001465,0.1809777468442917,-0.13698533177375793
1751619066705536800,9.382536865234375,9.802947044372559,0.21141810715198517,-0.16709288954734802
1751619066724360200,9.401360107421874,9.801443099975586,0.25334596633911133,-0.19469207525253296
1751619066743184000,9.420183837890624,9.799967765808105,0.29772791266441345,-0.20586778223514557
1751619066762007300,9.43900732421875,9.798205375671387,0.3436145484447479,-0.21793170273303986
1751619066780830700,9.457830810546875,9.797516822814941,0.36687636375427246,-0.21083946526050568
1751619066799654100,9.476654052734375,9.79813289642334,0.36685869097709656,-0.1799582839012146
1751619066818477600,9.4954775390625,9.799495697021484,0.3488181233406067,-0.13632921874523163
1751619066837301000,9.514301025390624,9.800312995910645,0.3345721364021301,-0.11094550788402557
1751619066856124400,9.53312451171875,9.800910949707031,0.3197272717952728,-0.10151781141757965
1751619066874947800,9.55194775390625,9.80189037322998,0.29505765438079834,-0.07923588156700134
1751619066893771300,9.570771240234375,9.80315113067627,0.2570599615573883,-0.05038144439458847
1751619066912594700,9.5895947265625,9.804591178894043,0.2000877559185028,0.018529079854488373
1751619066931418000,9.608418212890625,9.805243492126465,0.14299276471138,0.08448044955730438
1751619066950241500,9.627241455078124,9.805718421936035,0.1244780495762825,0.05258474498987198
1751619066969065000,9.64606494140625,9.805798530578613,0.1268957555294037,-0.024432847276329994
1751619066987888400,9.664888427734375,9.805028915405273,0.1469162255525589,-0.1010560393333435
1751619067006711800,9.6837119140625,9.80395221710205,0.17021697759628296,-0.15471138060092926
1751619067025535200,9.70253515625,9.802200317382812,0.2095182090997696,-0.20824803411960602
1751619067044358700,9.721358642578124,9.800667762756348,0.25240030884742737,-0.2314896285533905
1751619067063182000,9.74018212890625,9.799633026123047,0.293935626745224,-0.22624053061008453
1751619067082005500,9.759005615234376,9.798617362976074,0.3331436812877655,-0.21562190353870392
1751619067100829000,9.777828857421875,9.797687530517578,0.3607347905635834,-0.21345986425876617
1751619067119652400,9.79665234375,9.797882080078125,0.36957672238349915,-0.18789921700954437
1751619067138475800,9.815475830078125,9.798616409301758,0.3632758557796478,-0.1597469002008438
1751619067157299200,9.83429931640625,9.799757957458496,0.3441551923751831,-0.1291639655828476
1751619067176123000,9.853122802734376,9.800446510314941,0.3305648863315582,-0.11115483194589615
1751619067194946000,9.871946044921875,9.801222801208496,0.3130657970905304,-0.09176547825336456
1751619067213769500,9.89076953125,9.80207347869873,0.29076358675956726,-0.07219769060611725
1751619067232593200,9.90959326171875,9.80290412902832,0.2650816738605499,-0.05660216882824898
1751619067251416600,9.92841650390625,9.803927421569824,0.23025403916835785,-0.01961791142821312
1751619067270240000,9.947239990234374,9.804427146911621,0.20753593742847443,-0.023232711479067802
1751619067289063400,9.9660634765625,9.804410934448242,0.2039477676153183,-0.048166047781705856
1751619067307886800,9.984886962890625,9.803890228271484,0.21322843432426453,-0.09306848049163818
1751619067326710300,10.003710205078125,9.802872657775879,0.22972407937049866,-0.14596524834632874
1751619067345533700,10.02253369140625,9.801706314086914,0.25370392203330994,-0.18051737546920776
1751619067364357000,10.041357177734374,9.799636840820312,0.2921247184276581,-0.22842442989349365
1751619067383180500,10.0601806640625,9.798055648803711,0.3271099925041199,-0.24794797599315643
1751619067402004000,10.07900390625,9.797455787658691,0.3557921051979065,-0.23166713118553162
1751619067420827400,10.097827392578125,9.79731273651123,0.37439894676208496,-0.2070385068655014
1751619067439650800,10.11665087890625,9.798181533813477,0.372732937335968,-0.1645892709493637
1751619067458474200,10.13547412109375,9.799436569213867,0.35450345277786255,-0.12553483247756958
1751619067477297700,10.154297607421874,9.800353050231934,0.3364284932613373,-0.1013730838894844
1751619067496121000,10.17312109375,9.801158905029297,0.3158537447452545,-0.08893506973981857
1751619067514944500,10.191944580078125,9.802218437194824,0.2877757251262665,-0.06386936455965042
1751619067533768000,10.210767822265625,9.80345344543457,0.2494499832391739,-0.021362654864788055
1751619067552591400,10.22959130859375,9.8042573928833,0.2166265994310379,-0.003238870296627283
1751619067571414800,10.248414794921874,9.804841041564941,0.18837374448776245,-0.000726922822650522
1751619067590238200,10.26723828125,9.805092811584473,0.1737346202135086,-0.018855750560760498
1751619067609061600,10.2860615234375,9.804886817932129,0.17370359599590302,-0.06634864956140518
1751619067627885000,10.304885009765625,9.803797721862793,0.195193812251091,-0.13358572125434875
1751619067646708500,10.32370849609375,9.80231761932373,0.2272009253501892,-0.18257920444011688
1751619067665532000,10.342531982421875,9.800952911376953,0.26019588112831116,-0.20976068079471588
1751619067684355300,10.361355224609374,9.800023078918457,0.28987911343574524,-0.2143033891916275
1751619067703178800,10.3801787109375,9.79895305633545,0.3230831027030945,-0.21571487188339233
1751619067722002200,10.399002197265625,9.79836368560791,0.3477313220500946,-0.20381587743759155
1751619067740825900,10.417825927734375,9.798528671264648,0.35729536414146423,-0.17769086360931396
1751619067759649300,10.436649169921875,9.7987642288208,0.35833120346069336,-0.1618920862674713
1751619067778472700,10.45547265625,9.799640655517578,0.346143513917923,-0.1326848566532135
1751619067797296000,10.474296142578124,9.800288200378418,0.3344709575176239,-0.11343353241682053
1751619067816119600,10.49311962890625,9.800419807434082,0.3325032889842987,-0.10768529772758484
1751619067834943000,10.51194287109375,9.800802230834961,0.32367780804634094,-0.09952212125062943
1751619067853766400,10.530766357421875,9.801690101623535,0.3018510937690735,-0.07832450419664383
1751619067872589800,10.54958984375,9.802760124206543,0.2716010510921478,-0.050150755792856216
1751619067891413200,10.568413330078124,9.803803443908691,0.2358906865119934,-0.013618336990475655
1751619067910236700,10.587236572265626,9.80455207824707,0.20219188928604126,0.016142738983035088
1751619067929060000,10.60606005859375,9.804906845092773,0.18478094041347504,-0.006366226356476545
1751619067947883500,10.624883544921875,9.805078506469727,0.17082762718200684,-0.0404072068631649
1751619067966707000,10.64370703125,9.804646492004395,0.17443028092384338,-0.09419799596071243
1751619067985530400,10.6625302734375,9.803304672241211,0.20380906760692596,-0.1551351100206375
1751619068013765400,10.690765380859375,9.800921440124512,0.2607787847518921,-0.21051393449306488
1751619068032588800,10.7095888671875,9.798894882202148,0.3089492917060852,-0.23787108063697815
1751619068051412200,10.728412109375,9.797464370727539,0.3512936234474182,-0.2380344271659851
1751619068070236000,10.74723583984375,9.796965599060059,0.3780481219291687,-0.21661776304244995
1751619068089059300,10.766059326171876,9.797591209411621,0.38304150104522705,-0.17571941018104553
1751619068107882800,10.7848828125,9.798418045043945,0.37380293011665344,-0.14717093110084534
1751619068126706000,10.803705810546875,9.799627304077148,0.3531228303909302,-0.11406373232603073
1751619068145529600,10.822529541015625,9.799979209899902,0.34744930267333984,-0.10041859745979309
1751619068164353000,10.84135302734375,9.800185203552246,0.3428049683570862,-0.09610448032617569
1751619068183176400,10.860176513671876,9.800751686096191,0.32990872859954834,-0.08248770236968994
1751619068202000000,10.878999755859375,9.801687240600586,0.3062669634819031,-0.05922221392393112
1751619068220823300,10.8978232421875,9.8029203414917,0.26985520124435425,-0.01783972606062889
1751619068239646700,10.916646728515625,9.803964614868164,0.2288147509098053,0.017576981335878372
1751619068258470100,10.93547021484375,9.804730415344238,0.1870109587907791,0.05163434520363808
1751619068277293600,10.95429345703125,9.805279731750488,0.16205136477947235,0.024967022240161896
1751619068296117000,10.973116943359376,9.805362701416016,0.15448103845119476,-0.03726731613278389
1751619068314940400,10.9919404296875,9.804535865783691,0.17180991172790527,-0.10936357080936432
1751619068333763800,11.010763916015625,9.802677154541016,0.21461962163448334,-0.17844946682453156
1751619068352587300,11.029587158203125,9.800331115722656,0.26666688919067383,-0.22975996136665344
1751619068371410700,11.04841064453125,9.79773235321045,0.3254244327545166,-0.262518048286438
1751619068390234000,11.067234130859376,9.796170234680176,0.37158486247062683,-0.25952383875846863
1751619068409057500,11.0860576171875,9.796142578125,0.39251479506492615,-0.22785484790802002
1751619068427881000,11.104880859375,9.797584533691406,0.3836134374141693,-0.17481090128421783
1751619068446704400,11.123704345703125,9.799169540405273,0.3618384599685669,-0.12546603381633759
1751619068465527800,11.14252783203125,9.800569534301758,0.3343595862388611,-0.08619637787342072
1751619068484351200,11.161351318359374,9.801583290100098,0.3088880181312561,-0.06271017342805862
1751619068503174700,11.180174560546876,9.802608489990234,0.2784658968448639,-0.041436053812503815
1751619068521998000,11.198998046875,9.803750038146973,0.23848438262939453,-0.002199700567871332
1751619068540821500,11.217821533203125,9.804705619812012,0.18790090084075928,0.05311958119273186
1751619068559645000,11.23664501953125,9.805137634277344,0.14086885750293732,0.0991344079375267
1751619068578468400,11.25546826171875,9.805647850036621,0.12930212914943695,0.054308246821165085
1751619068597291800,11.274291748046876,9.805703163146973,0.13625875115394592,-0.0005709291435778141
1751619068616115200,11.293115234375,9.804533004760742,0.17857396602630615,-0.09822340309619904
1751619068634938600,11.311938720703125,9.802726745605469,0.22083339095115662,-0.16784153878688812
1751619068653762000,11.330761962890625,9.801322937011719,0.2575600743293762,-0.1952074021100998
1751619068672585500,11.34958544921875,9.800287246704102,0.29147741198539734,-0.1995001584291458
1751619068691409000,11.368408935546874,9.79836654663086,0.33618900179862976,-0.22223114967346191
1751619068710232300,11.387232421875,9.797356605529785,0.36942538619041443,-0.2138206511735916
1751619068729055700,11.4060556640625,9.797388076782227,0.3834015429019928,-0.1859561651945114
1751619068747879200,11.424879150390625,9.798233032226562,0.3762243986129761,-0.15323464572429657
1751619068766702600,11.44370263671875,9.799666404724121,0.3532334268093109,-0.11024835705757141
1751619068785526000,11.462526123046874,9.80036735534668,0.33831164240837097,-0.09342779964208603
1751619068804349400,11.481349365234376,9.800817489624023,0.32587262988090515,-0.09037844091653824
1751619068823172900,11.5001728515625,9.80162239074707,0.30444979667663574,-0.07683921605348587
1751619068841996300,11.518996337890625,9.80256462097168,0.2772451639175415,-0.056958023458719254
1751619068860819700,11.53781982421875,9.803566932678223,0.2447206676006317,-0.023901600390672684
1751619068879643100,11.55664306640625,9.804429054260254,0.20849178731441498,0.009723173454403877
1751619068898466600,11.575466552734374,9.805033683776855,0.1739821881055832,0.03775978088378906
1751619068917290000,11.5942900390625,9.805397987365723,0.15640445053577423,0.009093769825994968
1751619068936113700,11.61311376953125,9.805524826049805,0.14703965187072754,-0.02119511365890503
1751619068954936800,11.631936767578125,9.805119514465332,0.1558717042207718,-0.07572203129529953
1751619068973760300,11.65076025390625,9.803815841674805,0.18727034330368042,-0.14328202605247498
1751619068992583700,11.669583740234375,9.802253723144531,0.22132287919521332,-0.19295619428157806
1751619069011407400,11.688407470703124,9.800607681274414,0.26215434074401855,-0.22307677567005157
1751619069030230800,11.707230712890626,9.798892974853516,0.3086203932762146,-0.23838700354099274
1751619069049054200,11.72605419921875,9.797713279724121,0.3470023274421692,-0.23408202826976776
1751619069067877600,11.744877685546875,9.797385215759277,0.3682875633239746,-0.214450865983963
1751619069086701000,11.763701171875,9.798102378845215,0.369128942489624,-0.1769835203886032
1751619069105524500,11.7825244140625,9.79926586151123,0.35474419593811035,-0.1376698613166809
1751619069124348000,11.801347900390626,9.800533294677734,0.33114904165267944,-0.10134157538414001
1751619069143171300,11.82017138671875,9.801346778869629,0.31163889169692993,-0.0828307718038559
1751619069161994800,11.838994873046875,9.802199363708496,0.2871224880218506,-0.06937773525714874
1751619069180818200,11.857818115234375,9.803202629089355,0.25663384795188904,-0.04161690175533295
1751619069199641600,11.8766416015625,9.804262161254883,0.21640373766422272,0.0016683365684002638
1751619069218465000,11.895465087890624,9.804978370666504,0.16560675203800201,0.0730924904346466
1751619069237288400,11.914288330078126,9.805169105529785,0.13556846976280212,0.10337436199188232
1751619069256111900,11.93311181640625,9.80531120300293,0.16200199723243713,0.00330692739225924
1751619069274935300,11.951935302734375,9.804543495178223,0.19136154651641846,-0.06854096800088882
1751619069293758700,11.9707587890625,9.803261756896973,0.22141055762767792,-0.13206738233566284
1751619069312582100,11.98958203125,9.801708221435547,0.2583838105201721,-0.17358654737472534
1751619069331405600,12.008405517578124,9.799903869628906,0.29856836795806885,-0.20769181847572327
1751619069369052400,12.046052490234375,9.798188209533691,0.35425519943237305,-0.2009955197572708
1751619069387875800,12.064875732421875,9.798018455505371,0.36951231956481934,-0.18080218136310577
1751619069406699300,12.08369921875,9.798383712768555,0.37057730555534363,-0.1572873592376709
1751619069425522700,12.102522705078124,9.799391746520996,0.35501566529273987,-0.12756024301052094
1751619069444346000,12.12134619140625,9.800545692443848,0.33146268129348755,-0.09912659227848053
1751619069472581000,12.1495810546875,9.801666259765625,0.303221732378006,-0.07606551051139832
1751619069491404500,12.168404541015626,9.80263900756836,0.27658751606941223,-0.04659554362297058
1751619069510228000,12.18722802734375,9.803648948669434,0.2426123321056366,-0.0014580482384189963
1751619069529051400,12.206051513671875,9.804487228393555,0.198899045586586,0.05345453694462776
1751619069547874800,12.224874755859375,9.804889678955078,0.15129780769348145,0.10784350335597992
1751619069566698200,12.2436982421875,9.805390357971191,0.1448863446712494,0.06099768728017807
1751619069585521700,12.262521728515624,9.805174827575684,0.16832779347896576,-0.02450426295399666
1751619069604345000,12.281344970703126,9.804242134094238,0.19936056435108185,-0.08638270944356918
1751619069623168800,12.300168701171875,9.803104400634766,0.22681808471679688,-0.13448569178581238
1751619069641992200,12.3189921875,9.801836967468262,0.2595256567001343,-0.16439984738826752
1751619069660815400,12.3378154296875,9.800107955932617,0.305797278881073,-0.18642310798168182
1751619069679638800,12.356638671875,9.798578262329102,0.3520852327346802,-0.18519113957881927
1751619069698462500,12.37546240234375,9.797731399536133,0.3804836869239807,-0.17342261970043182
1751619069717286000,12.394285888671876,9.797701835632324,0.38336458802223206,-0.16870012879371643
1751619069736109000,12.413109130859375,9.799001693725586,0.3639647662639618,-0.1321999579668045
1751619069754932700,12.4319326171875,9.800322532653809,0.3383135199546814,-0.09805034846067429
1751619069773756200,12.450756103515625,9.80079460144043,0.32552120089530945,-0.09416180849075317
1751619069792579600,12.46957958984375,9.801362991333008,0.30890733003616333,-0.09077596664428711
1751619069811403000,12.488403076171876,9.802069664001465,0.29050272703170776,-0.07362232357263565
1751619069830226400,12.507226318359375,9.802858352661133,0.26682248711586,-0.056148454546928406
1751619069849049900,12.5260498046875,9.803879737854004,0.2324855625629425,-0.016877878457307816
1751619069867873300,12.544873291015625,9.804591178894043,0.19959530234336853,0.023192116990685463
1751619069886696700,12.56369677734375,9.80493450164795,0.18023242056369781,0.033992402255535126
1751619069905520000,12.58252001953125,9.805017471313477,0.17868171632289886,-0.00942554883658886
1751619069924343600,12.601343505859376,9.805038452148438,0.17357073724269867,-0.038558900356292725
1751619069943167000,12.6201669921875,9.804340362548828,0.19424821436405182,-0.08700002729892731
1751619069961990400,12.638990478515625,9.803200721740723,0.22920988500118256,-0.12288136780261993
1751619069980813800,12.657813720703125,9.801741600036621,0.2683306634426117,-0.1556890904903412
1751619069999637200,12.67663720703125,9.800331115722656,0.3062586486339569,-0.17351730167865753
1751619070018460700,12.695460693359376,9.799505233764648,0.3359806537628174,-0.1649201214313507
1751619070037284000,12.7142841796875,9.800665855407715,0.3317316174507141,-0.08540575206279755
1751619070056107500,12.733107421875,9.801247596740723,0.3239573836326599,-0.031701184809207916
1751619070074931000,12.751930908203125,9.799955368041992,0.3464263379573822,-0.10615003854036331
1751619070093754400,12.77075439453125,9.800444602966309,0.33263298869132996,-0.1049639880657196
1751619070112577800,12.789577880859374,9.80103874206543,0.3196322023868561,-0.08869333565235138
1751619070131401200,12.808401123046876,9.801539421081543,0.3049629032611847,-0.08489439636468887
1751619070150224600,12.827224609375,9.802334785461426,0.28282612562179565,-0.0681309700012207
1751619070169048000,12.846048095703125,9.80311107635498,0.25955700874328613,-0.04500191658735275
1751619070187871500,12.86487158203125,9.803936958312988,0.23060250282287598,-0.004914844874292612
1751619070206695000,12.88369482421875,9.804555892944336,0.1983829140663147,0.041376251727342606
1751619070225518300,12.902518310546874,9.804854393005371,0.1641756147146225,0.09100104868412018
1751619070244341800,12.921341796875,9.805025100708008,0.13597436249256134,0.11563830822706223
1751619070263165200,12.940165283203125,9.805557250976562,0.13415296375751495,0.05873918533325195
1751619070281988600,12.958988525390625,9.805646896362305,0.14031335711479187,0.0004994467599317431
1751619070300812000,12.97781201171875,9.805249214172363,0.1572847068309784,-0.052199773490428925
1751619070319635500,12.996635498046874,9.804722785949707,0.18017934262752533,-0.0731290951371193
1751619070338459000,13.015458984375,9.804069519042969,0.2077621966600418,-0.08626190572977066
1751619070357282300,13.0342822265625,9.803518295288086,0.23275992274284363,-0.08506906777620316
1751619070376105700,13.053105712890625,9.802450180053711,0.2665512263774872,-0.10632012039422989
1751619070394929200,13.07192919921875,9.800959587097168,0.3027348220348358,-0.1411813199520111
1751619070413752600,13.090752685546875,9.799783706665039,0.32932180166244507,-0.16179127991199493
1751619070432576000,13.109575927734374,9.799918174743652,0.3322683572769165,-0.14694227278232574
1751619070451399400,13.1283994140625,9.800776481628418,0.31914612650871277,-0.1154366284608841
1751619070470222800,13.147222900390625,9.801470756530762,0.3055736720561981,-0.09045245498418808
1751619070489046300,13.16604638671875,9.801759719848633,0.29918548464775085,-0.07989852875471115
1751619070507869700,13.18486962890625,9.802229881286621,0.2863699793815613,-0.06836454570293427
1751619070526693000,13.203693115234374,9.802908897399902,0.2669762074947357,-0.045703716576099396
1751619070545516500,13.2225166015625,9.803711891174316,0.23936134576797485,-0.018262213096022606
1751619070564340000,13.241340087890626,9.804627418518066,0.19431710243225098,0.04372350871562958
1751619070583163400,13.260163330078125,9.804935455322266,0.14972318708896637,0.10584200173616409
1751619070601986800,13.27898681640625,9.804924964904785,0.11656196415424347,0.142277792096138
1751619070620810200,13.297810302734375,9.805630683898926,0.13500374555587769,0.041963882744312286
1751619070639633700,13.316633544921874,9.805318832397461,0.15793511271476746,-0.034189965575933456
1751619070658457000,13.33545703125,9.804356575012207,0.18713237345218658,-0.0997849702835083
1751619070677280500,13.354280517578125,9.803542137145996,0.2113833725452423,-0.12758585810661316
1751619070696104000,13.37310400390625,9.80270004272461,0.23775500059127808,-0.14468364417552948
1751619070714927400,13.39192724609375,9.801531791687012,0.2715369760990143,-0.16322225332260132
1751619070733750800,13.410750732421874,9.80002212524414,0.31080999970436096,-0.18262870609760284
1751619070752574200,13.42957421875,9.798983573913574,0.33882343769073486,-0.18847493827342987
1751619070771397600,13.448397705078126,9.799285888671875,0.3416302800178528,-0.16635584831237793
1751619070790221000,13.467220947265625,9.799999237060547,0.3339805603027344,-0.13734613358974457
1751619070809044500,13.48604443359375,9.800859451293945,0.3200252652168274,-0.10545974969863892
1751619070827868000,13.504867919921875,9.80128288269043,0.31021738052368164,-0.09485962241888046
1751619070846691300,13.52369140625,9.80134391784668,0.3078155517578125,-0.09643274545669556
1751619070865514800,13.5425146484375,9.801630020141602,0.29920142889022827,-0.0944710373878479
1751619070884338200,13.561338134765625,9.802263259887695,0.28053534030914307,-0.08557260036468506
1751619070903161600,13.58016162109375,9.80305290222168,0.2566864788532257,-0.06811755895614624
1751619070921985000,13.598985107421875,9.803892135620117,0.2282995581626892,-0.04413829371333122
1751619070940808400,13.617808349609374,9.804689407348633,0.19542984664440155,-0.016043653711676598
1751619070959632000,13.6366318359375,9.805318832397461,0.1600121110677719,0.022447429597377777
1751619070978455300,13.655455322265626,9.805485725402832,0.15103361010551453,-0.005982810631394386
1751619070997278700,13.67427880859375,9.80528450012207,0.1598079353570938,-0.03533603623509407
1751619071016102100,13.69310205078125,9.804429054260254,0.19262169301509857,-0.08036503195762634
1751619071034925600,13.711925537109375,9.803580284118652,0.2156703621149063,-0.11700432002544403
1751619071053749000,13.7307490234375,9.802939414978027,0.2349536120891571,-0.1324901133775711
1751619071072572400,13.749572509765626,9.802029609680176,0.2624029219150543,-0.14750276505947113
1751619071091395800,13.768395751953125,9.800896644592285,0.2919072210788727,-0.16609060764312744
1751619071110219300,13.78721923828125,9.799901008605957,0.31569865345954895,-0.18069283664226532
1751619071129042700,13.806042724609375,9.799385070800781,0.33126527070999146,-0.18084347248077393
1751619071147866000,13.8248662109375,9.799372673034668,0.33798059821128845,-0.16873686015605927
1751619071166689500,13.843689453125,9.799699783325195,0.3374077081680298,-0.1497926563024521
1751619071185513000,13.862512939453126,9.800192832946777,0.33061206340789795,-0.1315801739692688
1751619071204336400,13.88133642578125,9.801114082336426,0.3122004270553589,-0.10528242588043213
1751619071223159800,13.900159912109375,9.801704406738281,0.2983696162700653,-0.08909869939088821
1751619071241983200,13.918983154296875,9.802504539489746,0.2771415412425995,-0.06704985350370407
1751619071260806700,13.937806640625,9.803446769714355,0.24738027155399323,-0.04020673409104347
1751619071279630000,13.956630126953126,9.804522514343262,0.2037523090839386,-0.0142863430082798
1751619071298453500,13.97545361328125,9.805455207824707,0.15246638655662537,0.013714591041207314
1751619071317277000,13.99427685546875,9.80594253540039,0.09936638176441193,0.06332533806562424
1751619071336100400,14.013100341796875,9.805951118469238,0.07303916662931442,0.09146970510482788
1751619071354923800,14.031923828125,9.806007385253906,0.08075754344463348,0.0779748484492302
1751619071373747200,14.050747314453124,9.805750846862793,0.13000991940498352,-0.027397532016038895
1751619071392570600,14.069570556640626,9.804133415222168,0.1864507645368576,-0.12084919959306717
1751619071411394000,14.08839404296875,9.80446720123291,0.18967169523239136,-0.08269894123077393
1751619071430217500,14.107217529296875,9.804361343383789,0.20167359709739685,-0.06503187119960785
1751619071449041000,14.126041015625,9.803796768188477,0.23101292550563812,-0.05077425763010979
1751619071467864300,14.1448642578125,9.802355766296387,0.2809309661388397,-0.07276459783315659
1751619071486687700,14.163687744140624,9.80052375793457,0.33064302802085876,-0.10387301445007324
1751619071505511200,14.18251123046875,9.799964904785156,0.3473844528198242,-0.10194037854671478
1751619071524334600,14.20133447265625,9.799653053283691,0.3514353036880493,-0.11699386686086655
1751619071543158000,14.220157958984375,9.800423622131348,0.3348349630832672,-0.09990512579679489
1751619071561981400,14.2389814453125,9.801019668579102,0.3214280605316162,-0.08423948287963867
1751619071580804900,14.257804931640624,9.800997734069824,0.3217983543872833,-0.08526866137981415
1751619071599628300,14.276628173828126,9.800944328308105,0.3225679099559784,-0.08852578699588776
1751619071618451700,14.29545166015625,9.800935745239258,0.3224000632762909,-0.0900496169924736
1751619071637275100,14.314275146484375,9.80143928527832,0.3084043562412262,-0.08399026095867157
1751619071656098600,14.3330986328125,9.802474975585938,0.2795093357563019,-0.06134400889277458
1751619071674922000,14.351921875,9.803825378417969,0.2342408001422882,-0.022688856348395348
1751619071693745400,14.370745361328124,9.804880142211914,0.18033704161643982,0.04682944342494011
1751619071712568800,14.38956884765625,9.804887771606445,0.13320735096931458,0.1296134889125824
1751619071731392300,14.408392333984375,9.804804801940918,0.11723658442497253,0.14985360205173492
1751619071750215700,14.427215576171875,9.805193901062012,0.12039248645305634,0.11852138489484787
1751619071769039000,14.4460390625,9.805530548095703,0.1268329918384552,0.07659253478050232
1751619071787862500,14.464862548828124,9.805447578430176,0.1469966173171997,0.04453401640057564
1751619071806686000,14.48368603515625,9.805326461791992,0.1580377221107483,0.031277161091566086
1751619071825509400,14.50250927734375,9.805135726928711,0.170929417014122,0.02234453149139881
1751619071844332800,14.521332763671875,9.804883003234863,0.18523743748664856,0.01840519905090332
1751619071863156200,14.54015625,9.804561614990234,0.20200759172439575,0.012368622235953808
1751619071881979600,14.558979736328125,9.80410099029541,0.22356745600700378,0.0011784668313339353
1751619071900803000,14.577802978515624,9.803383827209473,0.25169941782951355,-0.026558494195342064
1751619071919626500,14.59662646484375,9.801382064819336,0.3002147376537323,-0.11471106857061386
1751619071938450000,14.615449951171875,9.800518035888672,0.3196195960044861,-0.13444428145885468
1751619071957273300,14.6342734375,9.800490379333496,0.32493579387664795,-0.12329821288585663
1751619071976096800,14.6530966796875,9.800541877746582,0.3265168070793152,-0.11464002728462219
1751619071994920200,14.671920166015624,9.801068305969238,0.3183729648590088,-0.08983162045478821
1751619072013743600,14.69074365234375,9.801471710205078,0.31166380643844604,-0.06634318828582764
1751619072032567000,14.709567138671876,9.801819801330566,0.3026352524757385,-0.055731143802404404
1751619072051390500,14.728390380859375,9.802578926086426,0.27986741065979004,-0.03890456631779671
1751619072070214000,14.7472138671875,9.803529739379883,0.24703779816627502,-0.012729720212519169
1751619072089037300,14.766037353515625,9.80438232421875,0.20980876684188843,0.021071791648864746
1751619072107860700,14.78486083984375,9.804831504821777,0.1806199699640274,0.05517270416021347
1751619072126684200,14.80368408203125,9.805106163024902,0.16983912885189056,0.037820037454366684
1751619072145507600,14.822507568359375,9.805277824401855,0.16390593349933624,-0.006715168710798025
1751619072164331000,14.8413310546875,9.805373191833496,0.15443941950798035,-0.03450050204992294
1751619072183154400,14.860154541015625,9.805142402648926,0.15748338401317596,-0.06905847042798996
1751619072201977900,14.878977783203124,9.804259300231934,0.18663160502910614,-0.10973164439201355
1751619072220801300,14.89780126953125,9.80333137512207,0.21346525847911835,-0.1397036910057068
1751619072239624700,14.916624755859376,9.801618576049805,0.2587543725967407,-0.1780279278755188
1751619072258448100,14.9354482421875,9.80052661895752,0.2939579486846924,-0.18342190980911255
1751619072277271600,14.954271484375,9.799688339233398,0.321335107088089,-0.1823342740535736
1751619072296095000,14.973094970703125,9.799800872802734,0.3266349136829376,-0.16612328588962555
1751619072314918400,14.99191845703125,9.80059814453125,0.3178333342075348,-0.13281960785388947
1751619072333741800,15.010741943359376,9.800926208496094,0.3143802583217621,-0.11574935913085938
1751619072352565200,15.029565185546875,9.801305770874023,0.30917951464653015,-0.09587157517671585
1751619072371388700,15.048388671875,9.801603317260742,0.3019848167896271,-0.08809582144021988
1751619072390212000,15.067212158203125,9.801607131958008,0.3008590042591095,-0.0915248766541481
1751619072409035500,15.086035400390625,9.801876068115234,0.2916067838668823,-0.09254500269889832
1751619072427859000,15.10485888671875,9.8029203414917,0.2623642683029175,-0.06557188928127289
1751619072446682600,15.1236826171875,9.803980827331543,0.22677937150001526,-0.030025407671928406
1751619072465506000,15.142506103515625,9.804647445678711,0.19816116988658905,-0.0026344165671616793
1751619072484329500,15.16132958984375,9.805173873901367,0.16895824670791626,0.02009471319615841
1751619072503153000,15.18015283203125,9.805622100830078,0.14107005298137665,0.016236351802945137
1751619072521976300,15.198976318359374,9.805908203125,0.12054912000894547,0.0007837218581698835
1751619072540799700,15.2177998046875,9.806010246276855,0.11187197268009186,-0.0058904350735247135
1751619072559623200,15.236623046875,9.80506706237793,0.148830845952034,-0.09427101165056229
1751619072578446600,15.255446533203125,9.80404281616211,0.18024776875972748,-0.13653132319450378
1751619072597270000,15.27427001953125,9.802918434143066,0.2100713849067688,-0.1704220026731491
1751619072616093400,15.293093505859375,9.801530838012695,0.24798065423965454,-0.19717279076576233
1751619072634916900,15.311916748046874,9.80010986328125,0.2852945625782013,-0.21640940010547638
1751619072653740300,15.330740234375,9.799335479736328,0.31198781728744507,-0.214657261967659
1751619072672563700,15.349563720703125,9.799335479736328,0.32653847336769104,-0.19174866378307343
1751619072691387100,15.36838720703125,9.799822807312012,0.33000075817108154,-0.15798307955265045
1751619072710210600,15.38721044921875,9.800413131713867,0.32701727747917175,-0.12382999807596207
1751619072729034200,15.4060341796875,9.800955772399902,0.31931963562965393,-0.09850555658340454
1751619072747857700,15.424857666015624,9.801325798034668,0.3108656704425812,-0.08813727647066116
1751619072766681000,15.44368115234375,9.801351547241211,0.3090207576751709,-0.09157653152942657
1751619072785504500,15.46250439453125,9.801312446594238,0.30958953499794006,-0.09383684396743774
1751619072804328000,15.481327880859375,9.801567077636719,0.30315306782722473,-0.08801720291376114
1751619072823151400,15.5001513671875,9.802271842956543,0.2852713167667389,-0.06677307933568954
1751619072841974800,15.518974853515624,9.803105354309082,0.26073822379112244,-0.03915407136082649
1751619072860798200,15.537798095703126,9.803834915161133,0.2345365285873413,-0.014283622615039349
1751619072879621600,15.55662158203125,9.804439544677734,0.20787294209003448,0.011498832143843174
1751619072898445000,15.575445068359375,9.804953575134277,0.17884881794452667,0.035934675484895706
1751619072917268500,15.5942685546875,9.805295944213867,0.1600363850593567,0.03079408034682274
1751619072936092000,15.613091796875,9.805522918701172,0.14709414541721344,0.02172001637518406
1751619072954915600,15.63191552734375,9.805161476135254,0.16570790112018585,-0.041682202368974686
1751619072973739000,15.650739013671876,9.803441047668457,0.2107461392879486,-0.13608093559741974
1751619072992562400,15.6695625,9.801698684692383,0.2509528696537018,-0.18470890820026398
1751619073011385900,15.6883857421875,9.799690246582031,0.2933327257633209,-0.22455130517482758
1751619073030209300,15.707209228515625,9.79806137084961,0.3327748775482178,-0.2400681972503662
1751619073049032700,15.72603271484375,9.797452926635742,0.3592697083950043,-0.22629475593566895
1751619073067856100,15.744856201171874,9.797486305236816,0.3761065900325775,-0.19543734192848206
1751619073086679600,15.763679443359376,9.798358917236328,0.3745906949043274,-0.14909423887729645
1751619073105503000,15.7825029296875,9.79940414428711,0.3614833950996399,-0.10670511424541473
1751619073124326400,15.801326416015625,9.800270080566406,0.346276193857193,-0.07207202166318893
1751619073143150000,15.820150146484375,9.800766944885254,0.3335114121437073,-0.0642126277089119
1751619073161973500,15.838973388671874,9.801036834716797,0.32701438665390015,-0.055872686207294464
1751619073180797000,15.857796875,9.801737785339355,0.30906566977500916,-0.028335999697446823
1751619073199620400,15.876620361328126,9.802505493164062,0.28503236174583435,-0.002460782416164875
1751619073218443800,15.89544384765625,9.803284645080566,0.25626978278160095,0.017833616584539413
1751619073237267200,15.91426708984375,9.804068565368652,0.22152818739414215,0.039205268025398254
1751619073256090600,15.933090576171875,9.804712295532227,0.1815844178199768,0.07104866951704025
1751619073274914000,15.9519140625,9.804786682128906,0.13384652137756348,0.13648995757102966
1751619073293737700,15.97073779296875,9.805144309997559,0.12103166431188583,0.12201161682605743
1751619073312561200,15.98956103515625,9.805171966552734,0.16724839806556702,-0.031879812479019165
1751619073331384600,16.008384521484373,9.804193496704102,0.19544680416584015,-0.09996724873781204
1751619073350208000,16.0272080078125,9.802925109863281,0.22264538705348969,-0.15319876372814178
1751619073369031400,16.046031494140625,9.801528930664062,0.2520037293434143,-0.19215823709964752
1751619073387854800,16.064854736328126,9.800451278686523,0.27556219696998596,-0.21352680027484894
1751619073406678300,16.08367822265625,9.799726486206055,0.2987520396709442,-0.2156512290239334
1751619073425502000,16.102501953125,9.799080848693848,0.3232307732105255,-0.2096029818058014
1751619073444325400,16.121325439453123,9.798754692077637,0.3436484932899475,-0.19159884750843048
1751619073463148800,16.140148681640625,9.799032211303711,0.3515588641166687,-0.16047939658164978
1751619073481972200,16.15897216796875,9.799848556518555,0.34453466534614563,-0.12102100998163223
1751619073500795600,16.177795654296876,9.800808906555176,0.3276541531085968,-0.08464979380369186
1751619073519619000,16.196619140625,9.801138877868652,0.3200088441371918,-0.07527539879083633
1751619073538442500,16.2154423828125,9.801451683044434,0.3126227557659149,-0.06484024971723557
1751619073557266000,16.234265869140625,9.802088737487793,0.2959260642528534,-0.043427612632513046
1751619073576089600,16.253089599609375,9.802860260009766,0.27196812629699707,-0.018870558589696884
1751619073594913000,16.2719130859375,9.803606033325195,0.24433645606040955,0.0023510009050369263
1751619073613736400,16.290736328125,9.804221153259277,0.2172258198261261,0.021450772881507874
1751619073632559900,16.309559814453124,9.804777145385742,0.18883904814720154,0.03284144029021263
1751619073651383300,16.32838330078125,9.80520248413086,0.16586405038833618,0.029678959399461746
1751619073670207000,16.34720703125,9.805270195007324,0.16346393525600433,-0.017941482365131378
1751619073689030400,16.366030517578125,9.804315567016602,0.18700625002384186,-0.10403183102607727
1751619073707853800,16.384853759765626,9.802994728088379,0.2159666270017624,-0.15820792317390442
1751619073726677200,16.40367724609375,9.801549911499023,0.24543870985507965,-0.19941510260105133
1751619073745500700,16.422500732421874,9.80038070678711,0.27369993925094604,-0.2191247045993805
1751619073764324400,16.441324462890623,9.79936695098877,0.30184102058410645,-0.22730350494384766
1751619073783147800,16.460147705078125,9.79880142211914,0.32615387439727783,-0.21794533729553223
1751619073801971200,16.47897119140625,9.799030303955078,0.33865898847579956,-0.1862892359495163
1751619073820794600,16.497794677734376,9.799552917480469,0.3396456837654114,-0.15427587926387787
1751619073839618000,16.5166181640625,9.800277709960938,0.3329189121723175,-0.11884377896785736
1751619073858441500,16.53544140625,9.800804138183594,0.32607144117355347,-0.09115985035896301
1751619073877265000,16.554264892578125,9.800933837890625,0.3243982493877411,-0.08273924887180328
1751619073896088600,16.573088623046875,9.80097484588623,0.32370704412460327,-0.08061450719833374
1751619073914912000,16.591912109375,9.801450729370117,0.3137352466583252,-0.05929042398929596
1751619073933735400,16.6107353515625,9.80225944519043,0.29192033410072327,-0.02954700216650963
1751619073952558800,16.629558837890624,9.803083419799805,0.26445281505584717,-0.0036873770877718925
1751619073971382500,16.648382568359374,9.803771018981934,0.23735657334327698,0.010988697409629822
1751619073990206000,16.6672060546875,9.804428100585938,0.20691348612308502,0.027733031660318375
1751619074009029400,16.686029296875,9.805006980895996,0.1756422519683838,0.03701769933104515
1751619074027852800,16.704852783203126,9.80534839630127,0.15914280712604523,0.013902329839766026
1751619074046676200,16.72367626953125,9.805154800415039,0.1654755026102066,-0.04407021775841713
1751619074065499600,16.742499755859374,9.803980827331543,0.19534744322299957,-0.11909952014684677
1751619074084323300,16.7613232421875,9.802606582641602,0.22760702669620514,-0.16581076383590698
1751619074103146800,16.780146728515625,9.801080703735352,0.26202353835105896,-0.20137253403663635
1751619074121970200,16.79897021484375,9.79975700378418,0.2933301627635956,-0.22162023186683655
1751619074140793600,16.817793701171876,9.79870319366455,0.32208162546157837,-0.22816842794418335
1751619074159617000,16.836616943359374,9.79835033416748,0.34363576769828796,-0.21126197278499603
1751619074178440700,16.855440673828124,9.798712730407715,0.3517536222934723,-0.17855343222618103
1751619074197264100,16.87426416015625,9.799617767333984,0.3456081449985504,-0.1357007622718811
1751619074216087600,16.893087646484375,9.800299644470215,0.33678337931632996,-0.1053890660405159
1751619074234911000,16.911910888671876,9.80086898803711,0.3269626796245575,-0.08025012165307999
1751619074253734700,16.930734619140626,9.800875663757324,0.32677653431892395,-0.08028705418109894
1751619074272558000,16.94955810546875,9.800968170166016,0.3248504102230072,-0.07655824720859528
1751619074291381500,16.968381591796874,9.801544189453125,0.3116137683391571,-0.054828476160764694
1751619074310205000,16.987204833984375,9.802374839782715,0.2880207300186157,-0.029738979414105415
1751619074329028400,17.0060283203125,9.803297996520996,0.25638332962989807,-0.0029102913103997707
1751619074347852000,17.02485205078125,9.804065704345703,0.22391733527183533,0.023386618122458458
1751619074385499000,17.062498779296874,9.805115699768066,0.15312595665454865,0.08155158907175064
1751619074404322300,17.081322265625,9.805512428283691,0.13899964094161987,0.05462523177266121
1751619074423146000,17.10014599609375,9.80530071258545,0.15835222601890564,-0.03716152906417847
1751619074441969400,17.118969482421875,9.803878784179688,0.196845144033432,-0.12487226724624634
1751619074460792800,17.137792724609376,9.802201271057129,0.23453539609909058,-0.17957018315792084
1751619074479616300,17.1566162109375,9.800456047058105,0.272549033164978,-0.21718060970306396
1751619074498439700,17.175439697265624,9.799038887023926,0.3053648769855499,-0.23661330342292786
1751619074517263400,17.194263427734374,9.798295021057129,0.3314402401447296,-0.23224326968193054
1751619074536086800,17.213086669921875,9.798023223876953,0.3513813018798828,-0.21369993686676025
1751619074554910200,17.23191015625,9.798532485961914,0.3567124307155609,-0.17857934534549713
1751619074573733600,17.250733642578126,9.799321174621582,0.3511705994606018,-0.14269119501113892
1751619074592557300,17.269557373046876,9.80024528503418,0.3373968303203583,-0.10829585045576096
1751619074611380700,17.288380615234374,9.800824165344238,0.3274727761745453,-0.0836259126663208
1751619074630204200,17.3072041015625,9.800938606262207,0.32485538721084595,-0.08035542070865631
1751619074649027800,17.32602783203125,9.801314353942871,0.316313236951828,-0.06770309060811996
1751619074667851300,17.344851318359375,9.801800727844238,0.304493248462677,-0.048804596066474915
1751619074686674700,17.3636748046875,9.802465438842773,0.28459107875823975,-0.03244221210479736
1751619074705498000,17.382498046875,9.80320930480957,0.2593420743942261,-0.015232553705573082
1751619074724321800,17.40132177734375,9.803874969482422,0.23329299688339233,0.0009495718404650688
1751619074743145200,17.420145263671873,9.8043794631958,0.21095779538154602,0.006147236097604036
1751619074761968600,17.43896875,9.804729461669922,0.19373559951782227,0.010677357204258442
1751619074780792000,17.4577919921875,9.804813385009766,0.18960575759410858,-0.008041908033192158
1751619074799615700,17.47661572265625,9.804391860961914,0.19989261031150818,-0.06574943661689758
1751619074818439200,17.495439208984376,9.803361892700195,0.2214062362909317,-0.12434771656990051
1751619074837262600,17.5142626953125,9.802099227905273,0.25099366903305054,-0.16202279925346375
1751619074856086000,17.5330859375,9.800431251525879,0.2872900664806366,-0.1984861046075821
1751619074874909700,17.55190966796875,9.799092292785645,0.31874924898147583,-0.215798482298851
1751619074893733000,17.570733154296875,9.798364639282227,0.3414701521396637,-0.2140694260597229
1751619074912556500,17.589556640625,9.798274993896484,0.35417765378952026,-0.1968882828950882
1751619074931380200,17.608380126953126,9.79867935180664,0.35523080825805664,-0.17340347170829773
1751619074950203600,17.62720361328125,9.799400329589844,0.34804970026016235,-0.14494964480400085
1751619074969027000,17.646027099609373,9.800064086914062,0.3392399549484253,-0.1185048446059227
1751619074987850500,17.6648505859375,9.800430297851562,0.33760225772857666,-0.08934301882982254
1751619075006674200,17.683674072265624,9.800544738769531,0.33772388100624084,-0.07522086054086685
1751619075025497600,17.70249755859375,9.8009672164917,0.3299922049045563,-0.050347451120615005
1751619075044321000,17.721321044921876,9.801783561706543,0.3080045282840729,-0.023367715999484062
1751619075063144400,17.74014453125,9.802889823913574,0.27153435349464417,0.0031372925732284784
1751619075081968000,17.758968017578123,9.803869247436523,0.23267227411270142,0.019665047526359558
1751619075100791600,17.77779150390625,9.804524421691895,0.20068980753421783,0.03772071748971939
1751619075119615000,17.796614990234374,9.804938316345215,0.1793256551027298,0.03768157586455345
1751619075138438700,17.815438720703124,9.805237770080566,0.1636980026960373,0.030270425602793694
1751619075157262000,17.834261962890626,9.805357933044434,0.1587315946817398,-0.011565358377993107
1751619075176085500,17.85308544921875,9.804947853088379,0.16944845020771027,-0.06843067705631256
1751619075194909200,17.8719091796875,9.803808212280273,0.1964385211467743,-0.13086766004562378
1751619075213732600,17.890732666015627,9.803030014038086,0.20870813727378845,-0.16562430560588837
1751619075232556000,17.90955615234375,9.801691055297852,0.2362237125635147,-0.20358695089817047
1751619075251379500,17.92837939453125,9.799842834472656,0.27829474210739136,-0.2367209643125534
1751619075270203100,17.947203125,9.798165321350098,0.32339534163475037,-0.24848756194114685
1751619075289026600,17.966026611328125,9.797069549560547,0.3620920479297638,-0.23811885714530945
1751619075307850000,17.98485009765625,9.796975135803223,0.38202643394470215,-0.20912638306617737
1751619075326673700,18.003673583984376,9.797998428344727,0.37672069668769836,-0.16643184423446655
1751619075345497000,18.0224970703125,9.799317359924316,0.35767826437950134,-0.12587764859199524
1751619075364320500,18.041320556640624,9.800357818603516,0.34041866660118103,-0.08645202219486237
1751619075383144200,18.060144287109374,9.800440788269043,0.3421689569950104,-0.06834966689348221
1751619075401967600,18.078967529296875,9.80048656463623,0.34235620498657227,-0.06045912951231003
1751619075420791000,18.097791015625,9.80097770690918,0.33106037974357605,-0.040033116936683655
1751619075439614500,18.116614501953126,9.80178165435791,0.30871397256851196,-0.012662465684115887
1751619075458438100,18.135438232421876,9.802783966064453,0.2748798131942749,0.016232509166002274
1751619075477261600,18.154261474609374,9.803695678710938,0.23707476258277893,0.04151150584220886
1751619075496085000,18.1730849609375,9.804309844970703,0.2060583382844925,0.05863264203071594
1751619075514908700,18.19190869140625,9.804754257202148,0.18386241793632507,0.05803115665912628
1751619075533732000,18.210732177734375,9.805154800415039,0.1667303442955017,0.03916040062904358
1751619075552555500,18.229555419921876,9.805307388305664,0.16231228411197662,-0.0015005710301920772
1751619075571379200,18.248379150390626,9.804829597473145,0.1761946827173233,-0.06819667667150497
1751619075590202600,18.26720263671875,9.803744316101074,0.19805993139743805,-0.13323387503623962
1751619075609026000,18.286026123046874,9.80280590057373,0.21678593754768372,-0.16849640011787415
1751619075627849700,18.304849609375,9.80152702331543,0.24534592032432556,-0.20059804618358612
1751619075646673200,18.323673095703125,9.800089836120605,0.2813355028629303,-0.22241324186325073
1751619075665496600,18.34249658203125,9.798717498779297,0.3174654543399811,-0.23394867777824402
1751619075684320300,18.3613203125,9.797920227050781,0.34970587491989136,-0.22102786600589752
1751619075703143700,18.380143798828126,9.797674179077148,0.3695787191390991,-0.19843390583992004
1751619075721967000,18.398967041015624,9.798405647277832,0.3686141073703766,-0.16048133373260498
1751619075740790800,18.417790771484373,9.799769401550293,0.3482084572315216,-0.11688923835754395
1751619075759614200,18.4366142578125,9.80090045928955,0.32637152075767517,-0.07891638576984406
1751619075778438000,18.45543798828125,9.8011474609375,0.320902019739151,-0.07020933926105499
1751619075797261300,18.47426123046875,9.80143928527832,0.3145560622215271,-0.056865498423576355
1751619075816084700,18.493084716796876,9.802021980285645,0.29947322607040405,-0.032775554805994034
1751619075834908200,18.511908203125,9.802870750427246,0.27218741178512573,-0.005922041367739439
1751619075853731800,18.53073193359375,9.80378246307373,0.2364853024482727,0.0182577483355999
1751619075872555300,18.54955517578125,9.804533004760742,0.20097742974758148,0.03337401524186134
1751619075891378700,18.568378662109374,9.805052757263184,0.17142769694328308,0.043956682085990906
1751619075910202400,18.587202392578124,9.805434226989746,0.14855162799358368,0.04211312159895897
1751619075929025800,18.60602587890625,9.805708885192871,0.1342826783657074,0.02098143845796585
1751619075947849200,18.62484912109375,9.805842399597168,0.125547394156456,-0.008767148479819298
1751619075966673000,18.6436728515625,9.805404663085938,0.14005620777606964,-0.06919381022453308
1751619075985496300,18.662496337890627,9.804191589355469,0.1716795563697815,-0.13684910535812378
1751619076004320000,18.681320068359376,9.802409172058105,0.21091729402542114,-0.19664688408374786
1751619076023143400,18.700143310546874,9.800687789916992,0.24972142279148102,-0.23359303176403046
1751619076041966800,18.718966796875,9.7997407913208,0.2799069285392761,-0.23902426660060883
1751619076060790500,18.73779052734375,9.799481391906738,0.3004756569862366,-0.22416582703590393
1751619076079614000,18.756614013671875,9.79952335357666,0.31222081184387207,-0.20555678009986877
1751619076098437400,18.775437255859377,9.800195693969727,0.3088519275188446,-0.17650291323661804
1751619076117261000,18.794260986328126,9.80080509185791,0.3032756745815277,-0.15042272210121155
1751619076136084500,18.81308447265625,9.80131721496582,0.2968176007270813,-0.12834976613521576
1751619076154908000,18.831907958984374,9.801652908325195,0.29296404123306274,-0.1102762445807457
1751619076173731600,18.850731689453124,9.80176830291748,0.29300668835639954,-0.09933396428823471
1751619076192555000,18.869554931640625,9.801761627197266,0.29332804679870605,-0.0990196093916893
1751619076211378400,18.88837841796875,9.801739692687988,0.2939026355743408,-0.09950026124715805
1751619076230202000,18.9072021484375,9.80174446105957,0.2939906716346741,-0.09880836308002472
1751619076249025500,18.926025634765626,9.801907539367676,0.29108384251594543,-0.0909198597073555
1751619076267849200,18.94484912109375,9.802468299865723,0.27880796790122986,-0.06527374684810638
1751619076286672600,18.963672607421874,9.80321979522705,0.2566244900226593,-0.03764868900179863
1751619076305496000,18.98249609375,9.803877830505371,0.23252616822719574,-0.017222970724105835
1751619076324319700,19.00131982421875,9.804482460021973,0.20617304742336273,0.0010202995035797358
1751619076343143200,19.02014306640625,9.804986000061035,0.1801956593990326,0.012533099390566349
1751619076361966800,19.038966796875,9.805338859558105,0.16019344329833984,0.006804242264479399
1751619076380790300,19.057790283203126,9.805415153503418,0.15471814572811127,-0.016510149464011192
1751619076399613700,19.07661376953125,9.80502986907959,0.16597457230091095,-0.0649588480591774
1751619076418437000,19.09543701171875,9.804025650024414,0.19021262228488922,-0.12366078048944473
1751619076437260800,19.1142607421875,9.802499771118164,0.22521288692951202,-0.17505599558353424
1751619076456084200,19.133084228515624,9.800521850585938,0.26674336194992065,-0.22138763964176178
1751619076474908000,19.151907958984374,9.798943519592285,0.30512943863868713,-0.24079926311969757
1751619076493731300,19.1707314453125,9.797751426696777,0.3396187126636505,-0.2431134730577469
1751619076512554800,19.1895546875,9.797670364379883,0.35668468475341797,-0.22096674144268036
1751619076531378400,19.20837841796875,9.798673629760742,0.3536006510257721,-0.17708085477352142
1751619076550201900,19.227201904296876,9.799878120422363,0.3412110507488251,-0.12787075340747833
1751619076569025500,19.246025634765626,9.800384521484375,0.33349329233169556,-0.10787813365459442
1751619076587849000,19.264848876953124,9.800825119018555,0.3269316852092743,-0.08563046157360077
1751619076606672400,19.28367236328125,9.800808906555176,0.32870250940322876,-0.0806351751089096
1751619076625496000,19.30249609375,9.800862312316895,0.32777222990989685,-0.07775276154279709
1751619076644319500,19.321319580078125,9.801390647888184,0.31615057587623596,-0.05621418356895447
1751619076663143000,19.340142822265626,9.802298545837402,0.2913089096546173,-0.021725883707404137
1751619076681966600,19.358966552734376,9.803360939025879,0.25349894165992737,0.015181347727775574
1751619076700790000,19.3777900390625,9.804264068603516,0.21115048229694366,0.047009654343128204
1751619076719613400,19.396613525390624,9.80487060546875,0.16881932318210602,0.07995858043432236
1751619076738437000,19.41543701171875,9.805286407470703,0.13281157612800598,0.0954313576221466
1751619076757260500,19.434260498046875,9.805792808532715,0.11817938089370728,0.05343010649085045
1751619076776084200,19.453084228515625,9.805954933166504,0.11668387055397034,0.002851980971172452
1751619076794907600,19.47190771484375,9.805523872375488,0.13309796154499054,-0.06610157340765
1751619076813731000,19.49073095703125,9.804305076599121,0.16623686254024506,-0.1354781836271286
1751619076832554800,19.5095546875,9.80281925201416,0.19696103036403656,-0.19058313965797424
1751619076851378200,19.528378173828123,9.801095008850098,0.23312228918075562,-0.233633354306221
1751619076870201600,19.54720166015625,9.799622535705566,0.2716090679168701,-0.25302761793136597
1751619076889025300,19.566025390625,9.798776626586914,0.30848076939582825,-0.24330618977546692
1751619076907848700,19.5848486328125,9.79847526550293,0.33699873089790344,-0.21609622240066528
1751619076926672400,19.60367236328125,9.79887580871582,0.3469125032424927,-0.1790991723537445
1751619076945495800,19.622495849609376,9.7994966506958,0.34516873955726624,-0.14537619054317474
1751619076964319200,19.6413193359375,9.80012035369873,0.3363276422023773,-0.12204524874687195
1751619076983143000,19.660142822265627,9.800715446472168,0.32503002882003784,-0.10351615399122238
1751619077001966300,19.67896630859375,9.801100730895996,0.31642526388168335,-0.09323231875896454
1751619077020790000,19.6977900390625,9.80117130279541,0.31457677483558655,-0.09193337708711624
1751619077039613400,19.716613525390624,9.801324844360352,0.3115015923976898,-0.08591507375240326
1751619077058436900,19.735436767578125,9.801918029785156,0.29721567034721375,-0.06680891662836075
1751619077077260500,19.754260498046875,9.802757263183594,0.27321258187294006,-0.040981557220220566
1751619077096084000,19.773083984375,9.803518295288086,0.24754442274570465,-0.01229190081357956
1751619077114907600,19.79190771484375,9.804154396057129,0.2212447077035904,0.0024470335338264704
1751619077133731000,19.81073095703125,9.804712295532227,0.19443365931510925,0.014004901982843876
1751619077152554500,19.829554443359374,9.805200576782227,0.16766571998596191,0.01704566366970539
1751619077171378200,19.848378173828124,9.805435180664062,0.15429191291332245,-0.0036217926535755396
1751619077190201600,19.86720166015625,9.80518913269043,0.16146813333034515,-0.050881531089544296
1751619077209025300,19.886025390625,9.804024696350098,0.19164413213729858,-0.12151715159416199
1751619077227848700,19.9048486328125,9.802376747131348,0.22756709158420563,-0.17887333035469055
1751619077246672100,19.923672119140626,9.800481796264648,0.2686939239501953,-0.2207965850830078
1751619077265495800,19.942495849609376,9.799049377441406,0.3055841326713562,-0.23586031794548035
1751619077284319200,19.9613193359375,9.79847240447998,0.32904747128486633,-0.22814758121967316
1751619077303142700,19.980142578125,9.798377990722656,0.34437888860702515,-0.20877471566200256
1751619077321966300,19.99896630859375,9.798773765563965,0.3486342132091522,-0.1812550276517868
1751619077340789800,20.017789794921875,9.799681663513184,0.340806245803833,-0.14310072362422943
1751619077359613400,20.036613525390624,9.800505638122559,0.3285028040409088,-0.11208023130893707
1751619077378436900,20.055436767578126,9.800854682922363,0.3219698965549469,-0.09979028254747391
1751619077397260500,20.074260498046876,9.800925254821777,0.3230357766151428,-0.08892263472080231
1751619077416084000,20.093083984375,9.80103874206543,0.32125425338745117,-0.08275538682937622
1751619077434907400,20.111907470703127,9.801704406738281,0.3039076328277588,-0.06799739599227905
1751619077453731000,20.13073095703125,9.802591323852539,0.2789155840873718,-0.042384497821331024
1751619077472554500,20.149554443359374,9.803479194641113,0.24883493781089783,-0.016042793169617653
1751619077491378000,20.1683779296875,9.804213523864746,0.2183028608560562,0.011754828505218029
1751619077510201600,20.18720166015625,9.804738998413086,0.1903427541255951,0.03526786342263222
1751619077529025000,20.20602490234375,9.805150032043457,0.16425485908985138,0.04948147013783455
1751619077547848700,20.2248486328125,9.805441856384277,0.15146610140800476,0.02741813100874424
1751619077566672100,20.243672119140626,9.805325508117676,0.15812566876411438,-0.03118710219860077
1751619077585495800,20.262495849609376,9.804190635681152,0.18500205874443054,-0.11837194859981537
1751619077604319200,20.2813193359375,9.802393913269043,0.22110432386398315,-0.18591494858264923
1751619077623142700,20.300142578125,9.800110816955566,0.27026262879371643,-0.2349231094121933
1751619077641966300,20.31896630859375,9.798324584960938,0.314302533864975,-0.2538594901561737
1751619077660789800,20.337789794921875,9.797491073608398,0.3479180335998535,-0.241843581199646
1751619077679613200,20.35661328125,9.797502517700195,0.3660779595375061,-0.21288837492465973
1751619077698436900,20.375436767578126,9.79850959777832,0.36221548914909363,-0.16849753260612488
1751619077717260300,20.39426025390625,9.798885345458984,0.3580186367034912,-0.15509116649627686
1751619077736084000,20.413083984375,9.799827575683594,0.3427092134952545,-0.12769168615341187
1751619077754907400,20.431907470703123,9.800328254699707,0.3346179127693176,-0.1094224825501442
1751619077773730800,20.450730712890625,9.800384521484375,0.33663085103034973,-0.09758926182985306
1751619077792554500,20.469554443359375,9.800383567810059,0.33946290612220764,-0.08735837787389755
1751619077811378000,20.4883779296875,9.8004150390625,0.33883920311927795,-0.08624415844678879
1751619077830201600,20.50720166015625,9.801117897033691,0.3232293426990509,-0.06342515349388123
1751619077849025000,20.52602490234375,9.802160263061523,0.29576730728149414,-0.023427272215485573
1751619077867848700,20.5448486328125,9.803099632263184,0.26373544335365295,0.007496339734643698
1751619077886672100,20.563672119140627,9.803927421569824,0.22919757664203644,0.029052887111902237
1751619077905495600,20.58249560546875,9.80457592010498,0.19610817730426788,0.04696062207221985
1751619077924319200,20.6013193359375,9.805076599121094,0.1680537611246109,0.05115600675344467
1751619077943142700,20.620142578125,9.80544662475586,0.14972122013568878,0.03434018790721893
1751619077961966300,20.63896630859375,9.805424690246582,0.15383784472942352,-0.018841704353690147
1751619077980789800,20.657789794921875,9.80433464050293,0.18593181669712067,-0.10417748242616653
1751619077999613200,20.67661328125,9.802708625793457,0.22190718352794647,-0.16747552156448364
1751619078018436900,20.695436767578126,9.800418853759766,0.2680504322052002,-0.22435347735881805
1751619078037260300,20.71426025390625,9.798233985900879,0.31572452187538147,-0.25555649399757385
1751619078056084000,20.733083984375,9.796820640563965,0.3550005257129669,-0.25818175077438354
1751619078074907400,20.751907470703124,9.79698657989502,0.3739413022994995,-0.2227209359407425
1751619078093730800,20.770730712890625,9.797956466674805,0.36592045426368713,-0.19115698337554932
1751619078112554500,20.789554443359375,9.799774169921875,0.33987006545066833,-0.1388990432024002
1751619078131378000,20.8083779296875,9.800945281982422,0.32242608070373535,-0.08885407447814941
1751619078150201600,20.82720166015625,9.801007270812988,0.32547709345817566,-0.06859105825424194
1751619078169025000,20.84602490234375,9.80106258392334,0.3248552083969116,-0.06336307525634766
1751619078187848700,20.8648486328125,9.801451683044434,0.31428295373916626,-0.056148555129766464
1751619078206672100,20.883672119140623,9.802205085754395,0.292196124792099,-0.042188189923763275
1751619078225495600,20.90249560546875,9.80313777923584,0.26151981949806213,-0.021991724148392677
1751619078244319200,20.9213193359375,9.804020881652832,0.22699499130249023,0.004002256318926811
1751619078263142700,20.940142578125,9.804483413696289,0.20481301844120026,0.023050324991345406
1751619078281966300,20.95896630859375,9.80448055267334,0.20631340146064758,0.00230021751485765
1751619078300789800,20.977789794921875,9.804128646850586,0.2174093872308731,-0.04655900225043297
1751619078319613200,20.99661328125,9.803696632385254,0.223914235830307,-0.08827636390924454
1751619078338436900,21.015436767578127,9.803180694580078,0.23624904453754425,-0.1105131134390831
1751619078357260300,21.03426025390625,9.80218505859375,0.2612932324409485,-0.13882780075073242
1751619078376084000,21.053083984375,9.801482200622559,0.27958768606185913,-0.15221624076366425
1751619078394907400,21.071907470703124,9.801664352416992,0.2812788486480713,-0.1365540772676468
1751619078413730800,21.090730712890625,9.802469253540039,0.26612600684165955,-0.10564134269952774
1751619078432554500,21.109554443359375,9.803022384643555,0.25276654958724976,-0.08517642319202423
1751619078451378000,21.1283779296875,9.803284645080566,0.24413810670375824,-0.08003149181604385
1751619078470201600,21.14720166015625,9.803390502929688,0.24075503647327423,-0.07728957384824753
1751619078489025000,21.16602490234375,9.803284645080566,0.24330617487430573,-0.08240442723035812
1751619078507848700,21.1848486328125,9.80305290222168,0.24989992380142212,-0.08992467820644379
1751619078526672100,21.203672119140624,9.803049087524414,0.25104859471321106,-0.0871128961443901
1751619078545495800,21.222495849609373,9.803115844726562,0.25006988644599915,-0.08235989511013031
1751619078564319200,21.2413193359375,9.803154945373535,0.2494690865278244,-0.07948841899633408
1751619078583142700,21.260142578125,9.803085327148438,0.25113242864608765,-0.08264845609664917
1751619078601966300,21.27896630859375,9.803027153015137,0.2525883913040161,-0.08510249108076096
1751619078620789800,21.297789794921876,9.803016662597656,0.25313833355903625,-0.08470284193754196
1751619078639613400,21.316613525390625,9.80300521850586,0.25347864627838135,-0.08501902967691422
1751619078658436900,21.335436767578123,9.80299186706543,0.25384145975112915,-0.08548880368471146
1751619078677260300,21.35426025390625,9.802969932556152,0.2543911039829254,-0.08627969026565552
1751619078696084000,21.373083984375,9.802952766418457,0.25485530495643616,-0.08689775317907333
1751619078714907400,21.391907470703124,9.802955627441406,0.2548428475856781,-0.08667273074388504
1751619078733731000,21.41073095703125,9.802953720092773,0.25513285398483276,-0.08604816347360611
1751619078752554500,21.429554443359375,9.802928924560547,0.25597327947616577,-0.08631670475006104
1751619078771378000,21.4483779296875,9.802895545959473,0.2567524015903473,-0.08772657811641693
1751619078790201600,21.46720166015625,9.80286979675293,0.25742149353027344,-0.08872769773006439
1751619078809025000,21.48602490234375,9.8028564453125,0.2578960657119751,-0.08877141028642654
1751619078827848700,21.5048486328125,9.802868843078613,0.2578001022338867,-0.08775985985994339
1751619078846672100,21.523672119140624,9.802889823913574,0.25767087936401367,-0.08577112853527069
1751619078865495800,21.542495849609374,9.802884101867676,0.25792646408081055,-0.08553338050842285
1751619078884319200,21.5613193359375,9.802864074707031,0.2581571936607361,-0.08721897006034851
1751619078903142700,21.580142578125,9.802850723266602,0.25842025876045227,-0.08786718547344208
1751619078921966300,21.59896630859375,9.802820205688477,0.2600632607936859,-0.08640988171100616
1751619078940789800,21.617789794921876,9.802810668945312,0.2614654004573822,-0.08322788029909134
1751619078959613400,21.636613525390626,9.80275821685791,0.2641885578632355,-0.08080179989337921
1751619078978436900,21.655436767578124,9.802650451660156,0.2679049074649811,-0.08160172402858734
1751619078997260500,21.674260498046873,9.802590370178223,0.2692405879497528,-0.0843646451830864
1751619079016084000,21.693083984375,9.802556991577148,0.2699722349643707,-0.0860019251704216
1751619079034907400,21.711907470703125,9.802495956420898,0.2714354991912842,-0.08819247037172318
1751619079053731000,21.73073095703125,9.802465438842773,0.27298563718795776,-0.08692076802253723
1751619079072554500,21.749554443359376,9.802443504333496,0.274619460105896,-0.08419428765773773
1751619079091378200,21.768378173828125,9.802407264709473,0.27516451478004456,-0.08649460971355438
1751619079110201600,21.78720166015625,9.802281379699707,0.2770911753177643,-0.09425770491361618
1751619079129025300,21.806025390625,9.802133560180664,0.2807742655277252,-0.09870333969593048
1751619079147848700,21.8248486328125,9.802048683166504,0.2839350998401642,-0.09799415618181229
1751619079166672100,21.843672119140624,9.802020072937012,0.28607696294784546,-0.09452720731496811
1751619079185495800,21.862495849609374,9.80197525024414,0.2882409691810608,-0.09269452840089798
1751619079204319200,21.8813193359375,9.801945686340332,0.2888786196708679,-0.09383097290992737
1751619079223143000,21.900142822265625,9.801953315734863,0.2877657115459442,-0.09637296199798584
1751619079241966300,21.91896630859375,9.801984786987305,0.2857954204082489,-0.09901829063892365
1751619079260790000,21.9377900390625,9.801994323730469,0.2846267819404602,-0.10144435614347458
1751619079279613400,21.956613525390626,9.801985740661621,0.28436920046806335,-0.10298950225114822
1751619079298436900,21.975436767578124,9.801960945129395,0.2854846715927124,-0.10227309912443161
1751619079317260500,21.994260498046874,9.80191421508789,0.28678083419799805,-0.10301458090543747
1751619079336084000,22.013083984375,9.801862716674805,0.2887926995754242,-0.10231085866689682
1751619079354907600,22.03190771484375,9.801788330078125,0.29166290163993835,-0.10128634423017502
1751619079373731000,22.05073095703125,9.80172348022461,0.29410916566848755,-0.10050863027572632
1751619079392554500,22.069554443359376,9.801718711853027,0.2947043180465698,-0.0992198958992958
1751619079411378200,22.088378173828126,9.801714897155762,0.2947584092617035,-0.09940218180418015
1751619079430201600,22.10720166015625,9.8016939163208,0.2948910593986511,-0.10108750313520432
1751619079449025300,22.126025390625,9.801665306091309,0.29526475071907043,-0.10271235555410385
1751619079467848700,22.1448486328125,9.801660537719727,0.2952542006969452,-0.10320187360048294
1751619079486672400,22.16367236328125,9.801633834838867,0.29583969712257385,-0.10415033251047134
1751619079505495800,22.182495849609374,9.801600456237793,0.2966119945049286,-0.10500840097665787
1751619079524319200,22.2013193359375,9.801576614379883,0.2977082431316376,-0.10414588451385498
1751619079552554800,22.2295546875,9.80162239074707,0.29732030630111694,-0.10087408125400543
1751619079571378200,22.248378173828126,9.801631927490234,0.2972676455974579,-0.10007158666849136
1751619079590201600,22.26720166015625,9.801606178283691,0.29786166548728943,-0.10086823999881744
1751619079609025300,22.286025390625,9.801593780517578,0.29842355847358704,-0.10047578066587448
1751619079627848700,22.3048486328125,9.801615715026855,0.2984735369682312,-0.09810847043991089
1751619079646672400,22.32367236328125,9.801624298095703,0.29881060123443604,-0.09619928896427155
1751619079665495800,22.342495849609374,9.80161190032959,0.29917874932289124,-0.09629656374454498
1751619079684319500,22.361319580078124,9.80158805847168,0.29947420954704285,-0.09779752790927887
1751619079703143000,22.380142822265626,9.801590919494629,0.2981683313846588,-0.10148123651742935
1751619079721966300,22.39896630859375,9.801627159118652,0.29629114270210266,-0.10336719453334808
1751619079740790000,22.4177900390625,9.801631927490234,0.29588645696640015,-0.10415708273649216
1751619079759613400,22.436613525390626,9.801608085632324,0.2968328893184662,-0.10366205126047134
1751619079778437000,22.45543701171875,9.801589965820312,0.29784780740737915,-0.1024838462471962
1751619079797260500,22.474260498046874,9.801589012145996,0.29860323667526245,-0.10036000609397888
1751619079816084200,22.493084228515624,9.801581382751465,0.2998729944229126,-0.09724975377321243
1751619079834907600,22.51190771484375,9.801599502563477,0.3001842200756073,-0.09450384974479675
1751619079853731000,22.53073095703125,9.801579475402832,0.30084213614463806,-0.09446527808904648
1751619079872554800,22.5495546875,9.801563262939453,0.3007088005542755,-0.09651345759630203
1751619079891378200,22.568378173828126,9.801547050476074,0.30043941736221313,-0.09909804910421371
1751619079910201900,22.587201904296876,9.801556587219238,0.2995240092277527,-0.10070721805095673
1751619079929025300,22.606025390625,9.801567077636719,0.29916638135910034,-0.10087995231151581
1751619079947849000,22.624848876953124,9.801566123962402,0.29937997460365295,-0.10024641454219818
1751619079966672400,22.64367236328125,9.801557540893555,0.29998376965522766,-0.09924453496932983
1751619079985496000,22.66249609375,9.801531791687012,0.30105239152908325,-0.09868593513965607
1751619080004319500,22.681319580078124,9.80152416229248,0.30173906683921814,-0.09730499982833862
1751619080023143000,22.700142822265626,9.801520347595215,0.30236607789993286,-0.09577617049217224
1751619080041966600,22.718966552734376,9.80148983001709,0.30330976843833923,-0.09586893022060394
1751619080060790000,22.7377900390625,9.801470756530762,0.3034650385379791,-0.09725663810968399
1751619080079613700,22.75661376953125,9.801469802856445,0.3029845058917999,-0.09889582544565201
1751619080098437000,22.77543701171875,9.801481246948242,0.30211299657821655,-0.10041965544223785
1751619080117260800,22.7942607421875,9.801480293273926,0.30178141593933105,-0.10149931162595749
1751619080136084200,22.813084228515624,9.801495552062988,0.30151787400245667,-0.10082131624221802
1751619080154907600,22.83190771484375,9.801511764526367,0.301586776971817,-0.09907019883394241
1751619080173731300,22.8507314453125,9.80151653289795,0.30208802223205566,-0.09702587127685547
1751619080192554800,22.8695546875,9.801498413085938,0.30307379364967346,-0.09567122906446457
1751619080211378400,22.88837841796875,9.801429748535156,0.3050786256790161,-0.0964316725730896
1751619080230201900,22.907201904296876,9.801395416259766,0.3060448467731476,-0.0967501550912857
1751619080249025500,22.926025634765626,9.801416397094727,0.3055720329284668,-0.09608612209558487
1751619080267849000,22.944848876953124,9.801440238952637,0.3047889471054077,-0.09622754901647568
1751619080286672400,22.96367236328125,9.801441192626953,0.30416175723075867,-0.09806334972381592
1751619080305496000,22.98249609375,9.80143928527832,0.3038252890110016,-0.09932750463485718
1751619080324319500,23.001319580078125,9.801456451416016,0.3033953607082367,-0.09891112893819809
1751619080343143200,23.02014306640625,9.80146598815918,0.30352410674095154,-0.09748473763465881
1751619080361966600,23.038966552734376,9.80145263671875,0.3040251135826111,-0.0973985344171524
1751619080380790300,23.057790283203126,9.801440238952637,0.30432406067848206,-0.09771071374416351
1751619080399613700,23.07661376953125,9.801431655883789,0.3048434853553772,-0.09694472700357437
1751619080418437000,23.09543701171875,9.801421165466309,0.30546656250953674,-0.09601034224033356
1751619080437260800,23.1142607421875,9.801403999328613,0.3060304820537567,-0.09606828540563583
1751619080456084200,23.133084228515624,9.801412582397461,0.3057042360305786,-0.0961766242980957
1751619080474908000,23.151907958984374,9.801392555236816,0.305739164352417,-0.09800520539283752
1751619080493731300,23.1707314453125,9.801385879516602,0.3056642413139343,-0.09896375983953476
1751619080512555000,23.189554931640625,9.8013916015625,0.30506089329719543,-0.10020176321268082
1751619080531378400,23.20837841796875,9.801398277282715,0.3049178719520569,-0.10008823126554489
1751619080550201900,23.227201904296876,9.801409721374512,0.30474624037742615,-0.0994197428226471
