time,seconds_elapsed,z,y,x
1751619057497973000,0.174972900390625,-39.48750305175781,-13.537500381469727,2.6625001430511475
1751619057527972900,0.204972900390625,-39.13125228881836,-13.350000381469727,3.450000047683716
1751619057587972900,0.264972900390625,-39.03750228881836,-13.162500381469727,3.6937501430511475
1751619057637973000,0.314972900390625,-38.51250076293945,-12.731250762939453,3.7687501907348633
1751619057647972900,0.324972900390625,-38.400001525878906,-12.656250953674316,3.7125000953674316
1751619057657973000,0.334972900390625,-38.51250076293945,-12.562500953674316,3.750000238418579
1751619057667972900,0.344972900390625,-38.45625305175781,-12.693750381469727,3.6937501430511475
1751619057677973000,0.354972900390625,-38.64375305175781,-12.71250057220459,3.6750001907348633
1751619057687972900,0.364972900390625,-38.55000305175781,-12.862500190734863,3.5250000953674316
1751619057697973000,0.374972900390625,-38.71875,-12.937500953674316,3.3375000953674316
1751619057707972900,0.384972900390625,-38.60625076293945,-12.99375057220459,3.1500000953674316
1751619057717973000,0.394972900390625,-38.55000305175781,-13.312500953674316,3.2250001430511475
1751619057727972900,0.404972900390625,-38.66250228881836,-13.312500953674316,3.656250238418579
1751619057737973000,0.414972900390625,-38.53125,-13.312500953674316,3.6000001430511475
1751619057747972900,0.424972900390625,-38.400001525878906,-13.27500057220459,3.468750238418579
1751619057757973000,0.434972900390625,-38.493751525878906,-13.106250762939453,3.7687501907348633
1751619057767972900,0.444972900390625,-38.775001525878906,-13.125000953674316,4.125
1751619057777973000,0.454972900390625,-38.75625228881836,-13.08750057220459,4.462500095367432
1751619057787972900,0.464972900390625,-38.868751525878906,-13.031250953674316,4.556250095367432
1751619057797973000,0.474972900390625,-38.85000228881836,-12.862500190734863,4.556250095367432
1751619057807972900,0.484972900390625,-38.962501525878906,-12.843750953674316,4.275000095367432
1751619057817973000,0.494972900390625,-39.07500076293945,-12.937500953674316,4.3125
1751619057827972900,0.504972900390625,-39.07500076293945,-12.975000381469727,4.3125
1751619057837973000,0.514972900390625,-39.16875076293945,-13.162500381469727,4.125
1751619057847972900,0.524972900390625,-39.16875076293945,-13.443750381469727,3.731250047683716
1751619057857973000,0.534972900390625,-39.09375,-13.537500381469727,3.450000047683716
1751619057867972900,0.544972900390625,-39.16875076293945,-13.800000190734863,3.5062501430511475
1751619057877973000,0.554972900390625,-39.09375,-13.762500762939453,3.2437500953674316
1751619057887972900,0.564972900390625,-38.98125076293945,-13.912500381469727,3.2250001430511475
1751619057897973000,0.574972900390625,-38.868751525878906,-13.725000381469727,3.2062501907348633
1751619057907972900,0.584972900390625,-39.16875076293945,-13.725000381469727,3.4875001907348633
1751619057917973000,0.594972900390625,-38.94375228881836,-13.687500953674316,3.543750047683716
1751619057927972900,0.604972900390625,-38.90625,-13.687500953674316,3.3937501907348633
1751619057937973000,0.614972900390625,-39,-13.74375057220459,3.3000001907348633
1751619057947972900,0.624972900390625,-38.92500305175781,-13.425000190734863,3.3000001907348633
1751619057957973000,0.634972900390625,-38.94375228881836,-13.500000953674316,3.3937501907348633
1751619057967972900,0.644972900390625,-38.92500305175781,-13.425000190734863,3.3937501907348633
1751619057977973000,0.654972900390625,-39.13125228881836,-13.537500381469727,3.5250000953674316
1751619057987972900,0.664972900390625,-38.88750076293945,-13.406250953674316,3.3375000953674316
1751619057997973000,0.674972900390625,-38.83125305175781,-13.46250057220459,3.187500238418579
1751619058007972900,0.684972900390625,-38.85000228881836,-13.162500381469727,3.637500047683716
1751619058017973000,0.694972900390625,-38.8125,-13.012500762939453,3.9750001430511475
1751619058027972900,0.704972900390625,-38.94375228881836,-13.125000953674316,3.8812501430511475
1751619058037973000,0.714972900390625,-39.1875,-13.125000953674316,3.825000047683716
1751619058047972900,0.724972900390625,-39.28125,-13.068750381469727,3.750000238418579
1751619058057973000,0.734972900390625,-39.22500228881836,-12.956250190734863,3.5812501907348633
1751619058067972900,0.744972900390625,-39.30000305175781,-12.99375057220459,3.468750238418579
1751619058077973000,0.754972900390625,-39.525001525878906,-13.031250953674316,3.6187500953674316
1751619058087972900,0.764972900390625,-39.46875,-13.218750953674316,3.5062501430511475
1751619058097973000,0.774972900390625,-39.31875228881836,-13.125000953674316,3.4875001907348633
1751619058107972900,0.784972900390625,-39.16875076293945,-13.050000190734863,3.6000001430511475
1751619058117973000,0.794972900390625,-39.01875305175781,-12.881250381469727,3.656250238418579
1751619058127972900,0.804972900390625,-39.03750228881836,-12.956250190734863,3.637500047683716
1751619058137973000,0.814972900390625,-39.07500076293945,-13.050000190734863,3.543750047683716
1751619058147972900,0.824972900390625,-39.11250305175781,-13.050000190734863,3.637500047683716
1751619058157973000,0.834972900390625,-39.056251525878906,-13.08750057220459,3.450000047683716
1751619058167972900,0.844972900390625,-39.16875076293945,-13.012500762939453,3.3375000953674316
1751619058177973000,0.854972900390625,-39.26250076293945,-13.106250762939453,3.2437500953674316
1751619058187972900,0.864972900390625,-39.28125,-13.106250762939453,3.4125001430511475
1751619058197973000,0.874972900390625,-39.07500076293945,-13.200000762939453,3.3000001907348633
1751619058207972900,0.884972900390625,-39.056251525878906,-13.125000953674316,3.4312500953674316
1751619058217973000,0.894972900390625,-38.92500305175781,-13.18125057220459,3.6750001907348633
1751619058227972900,0.904972900390625,-39.01875305175781,-13.406250953674316,3.7687501907348633
1751619058237973000,0.914972900390625,-39.01875305175781,-13.218750953674316,3.843750238418579
1751619058247972900,0.924972900390625,-38.88750076293945,-13.218750953674316,3.9937500953674316
1751619058257973000,0.934972900390625,-39.11250305175781,-13.050000190734863,4.050000190734863
1751619058267972900,0.944972900390625,-39.09375,-13.200000762939453,3.9000000953674316
1751619058277973000,0.954972900390625,-39.1875,-13.237500190734863,4.050000190734863
1751619058287972900,0.964972900390625,-39.13125228881836,-13.36875057220459,4.181250095367432
1751619058297973000,0.974972900390625,-39.13125228881836,-13.46250057220459,4.162500381469727
1751619058307972900,0.984972900390625,-39.056251525878906,-13.162500381469727,4.106250286102295
1751619058317973000,0.994972900390625,-39.150001525878906,-13.143750190734863,4.087500095367432
1751619058327972900,1.004972900390625,-39.03750228881836,-13.237500190734863,3.937500238418579
1751619058337973000,1.014972900390625,-38.8125,-13.293750762939453,3.9750001430511475
1751619058347972900,1.024972900390625,-38.83125305175781,-13.031250953674316,4.03125
1751619058357973000,1.034972900390625,-38.73750305175781,-13.125000953674316,3.918750047683716
1751619058367972900,1.044972900390625,-39.01875305175781,-13.08750057220459,3.656250238418579
1751619058377973000,1.054972900390625,-38.88750076293945,-12.99375057220459,3.5062501430511475
1751619058387972900,1.064972900390625,-38.962501525878906,-12.975000381469727,3.562500238418579
1751619058397973000,1.074972900390625,-38.75625228881836,-13.125000953674316,3.6937501430511475
1751619058407972900,1.084972900390625,-38.92500305175781,-13.125000953674316,3.6937501430511475
1751619058417973000,1.094972900390625,-38.98125076293945,-13.200000762939453,3.5812501907348633
1751619058427972900,1.104972900390625,-38.83125305175781,-13.256250381469727,3.450000047683716
1751619058437973000,1.114972900390625,-39.1875,-13.143750190734863,3.562500238418579
1751619058447972900,1.124972900390625,-38.94375228881836,-13.068750381469727,3.543750047683716
1751619058457973000,1.134972900390625,-38.94375228881836,-12.918750762939453,3.656250238418579
1751619058467972900,1.144972900390625,-38.625,-12.937500953674316,3.750000238418579
1751619058477973000,1.154972900390625,-38.681251525878906,-12.99375057220459,3.5062501430511475
1751619058487972900,1.164972900390625,-38.60625076293945,-12.99375057220459,3.468750238418579
1751619058497973000,1.174972900390625,-38.36250305175781,-13.125000953674316,3.5250000953674316
1751619058507972900,1.184972900390625,-38.493751525878906,-13.425000190734863,3.4312500953674316
1751619058517973000,1.194972900390625,-38.15625,-13.500000953674316,3.281250238418579
1751619058527972900,1.204972900390625,-37.98750305175781,-13.612500190734863,3.4125001430511475
1751619058537973000,1.214972900390625,-38.17500305175781,-13.612500190734863,3.6000001430511475
1751619058547972900,1.224972900390625,-38.41875076293945,-13.762500762939453,3.3937501907348633
1751619058557973000,1.234972900390625,-38.66250228881836,-13.668750762939453,3.562500238418579
1751619058567972900,1.244972900390625,-38.88750076293945,-13.687500953674316,3.562500238418579
1751619058577973000,1.254972900390625,-39.16875076293945,-13.55625057220459,3.6750001907348633
1751619058587972900,1.264972900390625,-39.22500228881836,-13.481250762939453,3.8062500953674316
1751619058597973000,1.274972900390625,-39.525001525878906,-13.425000190734863,3.731250047683716
1751619058607972900,1.284972900390625,-39.73125076293945,-13.406250953674316,3.5812501907348633
1751619058617973000,1.294972900390625,-39.54375076293945,-13.406250953674316,3.562500238418579
1751619058627972900,1.304972900390625,-39.375,-13.481250762939453,3.6750001907348633
1751619058637973000,1.314972900390625,-39.20625305175781,-13.575000762939453,3.4875001907348633
1751619058647972900,1.324972900390625,-39.07500076293945,-13.537500381469727,3.5062501430511475
1751619058657973000,1.334972900390625,-38.98125076293945,-13.500000953674316,3.356250047683716
1751619058667972900,1.344972900390625,-39.03750228881836,-13.331250190734863,3.356250047683716
1751619058677973000,1.354972900390625,-38.88750076293945,-13.293750762939453,3.450000047683716
1751619058687972900,1.364972900390625,-38.775001525878906,-13.331250190734863,3.4125001430511475
1751619058697973000,1.374972900390625,-38.98125076293945,-13.481250762939453,3.0187501907348633
1751619058707972900,1.384972900390625,-39.35625076293945,-13.443750381469727,2.9625000953674316
1751619058717973000,1.394972900390625,-39.31875228881836,-13.46250057220459,2.9437501430511475
1751619058727972900,1.404972900390625,-39.20625305175781,-13.500000953674316,3.0187501907348633
1751619058737973000,1.414972900390625,-39.39375305175781,-13.500000953674316,2.90625
1751619058747972900,1.424972900390625,-39.337501525878906,-13.631250381469727,2.8687500953674316
1751619058757973000,1.434972900390625,-39.48750305175781,-13.575000762939453,3
1751619058767972900,1.444972900390625,-39.75,-13.537500381469727,3.093750238418579
1751619058777973000,1.454972900390625,-39.76875305175781,-13.612500190734863,3.2062501907348633
1751619058787972900,1.464972900390625,-39.806251525878906,-13.55625057220459,3.281250238418579
1751619058797973000,1.474972900390625,-39.78750228881836,-13.331250190734863,3.3375000953674316
1751619058807972900,1.484972900390625,-40.125,-13.27500057220459,3.3187501430511475
1751619058817973000,1.494972900390625,-40.14375305175781,-13.200000762939453,3.356250047683716
1751619058827972900,1.504972900390625,-40.06875228881836,-13.200000762939453,3.281250238418579
1751619058837973000,1.514972900390625,-39.993751525878906,-13.293750762939453,3.1500000953674316
1751619058847972900,1.524972900390625,-39.60000228881836,-13.237500190734863,3.1312501430511475
1751619058857973000,1.534972900390625,-39.45000076293945,-12.937500953674316,3.356250047683716
1751619058867972900,1.544972900390625,-38.88750076293945,-12.975000381469727,3.375000238418579
1751619058877973000,1.554972900390625,-38.92500305175781,-13.143750190734863,3.4312500953674316
1751619058887972900,1.564972900390625,-38.94375228881836,-12.90000057220459,3.6000001430511475
1751619058897973000,1.574972900390625,-38.92500305175781,-13.18125057220459,3.6750001907348633
1751619058907972900,1.584972900390625,-39.07500076293945,-13.237500190734863,3.8625001907348633
1751619058917973000,1.594972900390625,-39.07500076293945,-13.293750762939453,3.9562501907348633
1751619058927972900,1.604972900390625,-39.337501525878906,-13.36875057220459,3.7875001430511475
1751619058937973000,1.614972900390625,-39.375,-13.425000190734863,3.656250238418579
1751619058947972900,1.624972900390625,-39.95625305175781,-13.312500953674316,3.637500047683716
1751619058957973000,1.634972900390625,-39.86250305175781,-13.312500953674316,3.637500047683716
1751619058967972900,1.644972900390625,-39.618751525878906,-13.55625057220459,3.5250000953674316
1751619058977973000,1.654972900390625,-39.525001525878906,-13.331250190734863,3.656250238418579
1751619058987972900,1.664972900390625,-39.35625076293945,-13.162500381469727,3.637500047683716
1751619058997973000,1.674972900390625,-39.30000305175781,-13.068750381469727,3.637500047683716
1751619059007972900,1.684972900390625,-39.48750305175781,-12.918750762939453,3.937500238418579
1751619059017973000,1.694972900390625,-39.45000076293945,-12.918750762939453,3.9750001430511475
1751619059027972900,1.704972900390625,-39.20625305175781,-12.937500953674316,3.9562501907348633
1751619059037973000,1.714972900390625,-39.13125228881836,-12.975000381469727,3.937500238418579
1751619059047972900,1.724972900390625,-39.13125228881836,-12.975000381469727,3.937500238418579
1751619059057973000,1.734972900390625,-39,-13.068750381469727,3.9000000953674316
1751619059067972900,1.744972900390625,-39.22500228881836,-13.256250381469727,3.825000047683716
1751619059077973000,1.754972900390625,-39.11250305175781,-13.331250190734863,3.6750001907348633
1751619059087972900,1.764972900390625,-38.85000228881836,-13.425000190734863,3.543750047683716
1751619059097973000,1.774972900390625,-38.962501525878906,-13.575000762939453,3.3375000953674316
1751619059107972900,1.784972900390625,-38.73750305175781,-13.331250190734863,3.375000238418579
1751619059117973000,1.794972900390625,-38.775001525878906,-13.312500953674316,3.562500238418579
1751619059127972900,1.804972900390625,-38.681251525878906,-13.293750762939453,3.4125001430511475
1751619059137973000,1.814972900390625,-38.75625228881836,-13.012500762939453,3.4312500953674316
1751619059147972900,1.824972900390625,-38.625,-12.918750762939453,3.450000047683716
1751619059157973000,1.834972900390625,-38.73750305175781,-12.918750762939453,3.637500047683716
1751619059167972900,1.844972900390625,-38.56875228881836,-12.918750762939453,3.6750001907348633
1751619059177973000,1.854972900390625,-38.60625076293945,-12.825000762939453,3.937500238418579
1751619059187972900,1.864972900390625,-38.85000228881836,-13.18125057220459,3.918750047683716
1751619059197973000,1.874972900390625,-38.8125,-13.08750057220459,3.825000047683716
1751619059207972900,1.884972900390625,-38.79375076293945,-13.143750190734863,3.843750238418579
1751619059217973000,1.894972900390625,-38.83125305175781,-13.312500953674316,3.6750001907348633
1751619059227972900,1.904972900390625,-38.775001525878906,-13.218750953674316,3.843750238418579
1751619059237973000,1.914972900390625,-38.70000076293945,-13.200000762939453,3.843750238418579
1751619059247972900,1.924972900390625,-39.01875305175781,-13.125000953674316,3.656250238418579
1751619059257973000,1.934972900390625,-38.868751525878906,-13.18125057220459,3.4125001430511475
1751619059267972900,1.944972900390625,-38.868751525878906,-13.012500762939453,3.4312500953674316
1751619059277973000,1.954972900390625,-38.98125076293945,-13.068750381469727,3.187500238418579
1751619059287972900,1.964972900390625,-38.92500305175781,-12.975000381469727,3.1125001907348633
1751619059297973000,1.974972900390625,-39.03750228881836,-13.031250953674316,3.262500047683716
1751619059307972900,1.984972900390625,-39.11250305175781,-13.125000953674316,2.981250047683716
1751619059317973000,1.994972900390625,-39.09375,-13.18125057220459,2.9625000953674316
1751619059327972900,2.004972900390625,-38.98125076293945,-13.18125057220459,3.093750238418579
1751619059337973000,2.014972900390625,-39.09375,-13.200000762939453,3.356250047683716
1751619059347972900,2.024972900390625,-39.07500076293945,-13.293750762939453,3.3375000953674316
1751619059357973000,2.034972900390625,-39.056251525878906,-13.36875057220459,3.3000001907348633
1751619059367972900,2.044972900390625,-39.150001525878906,-13.500000953674316,3.450000047683716
1751619059377973000,2.054972900390625,-39.150001525878906,-13.481250762939453,3.4875001907348633
1751619059387972900,2.064972900390625,-39.13125228881836,-13.481250762939453,3.6000001430511475
1751619059397973000,2.074972900390625,-39.26250076293945,-13.350000381469727,3.6937501430511475
1751619059407972900,2.084972900390625,-39.20625305175781,-13.425000190734863,3.6750001907348633
1751619059417973000,2.094972900390625,-39.31875228881836,-13.36875057220459,3.6187500953674316
1751619059427972900,2.104972900390625,-39.26250076293945,-13.27500057220459,3.637500047683716
1751619059437973000,2.114972900390625,-39.30000305175781,-13.293750762939453,3.6750001907348633
1751619059447972900,2.124972900390625,-39.48750305175781,-13.200000762939453,3.7125000953674316
1751619059457973000,2.134972900390625,-39.375,-13.27500057220459,3.5250000953674316
1751619059467972900,2.144972900390625,-39.63750076293945,-13.237500190734863,3.4312500953674316
1751619059477973000,2.154972900390625,-39.525001525878906,-13.200000762939453,3.4312500953674316
1751619059487972900,2.164972900390625,-39.46875,-13.256250381469727,3.5250000953674316
1751619059497973000,2.174972900390625,-39.20625305175781,-13.331250190734863,3.4875001907348633
1751619059507972900,2.184972900390625,-39.01875305175781,-13.218750953674316,3.4875001907348633
1751619059517973000,2.194972900390625,-39.056251525878906,-12.975000381469727,3.6937501430511475
1751619059527972900,2.204972900390625,-39.01875305175781,-13.106250762939453,3.656250238418579
1751619059537973000,2.214972900390625,-39.13125228881836,-13.18125057220459,3.562500238418579
1751619059547972900,2.224972900390625,-38.75625228881836,-13.143750190734863,3.6187500953674316
1751619059557973000,2.234972900390625,-38.681251525878906,-13.143750190734863,3.6000001430511475
1751619059567972900,2.244972900390625,-38.51250076293945,-13.106250762939453,3.637500047683716
1751619059577973000,2.254972900390625,-38.4375,-12.956250190734863,3.6000001430511475
1751619059587972900,2.264972900390625,-38.66250228881836,-13.18125057220459,3.656250238418579
1751619059597973000,2.274972900390625,-38.85000228881836,-13.293750762939453,3.562500238418579
1751619059607972900,2.284972900390625,-38.775001525878906,-13.125000953674316,3.562500238418579
1751619059617973000,2.294972900390625,-38.53125,-13.106250762939453,3.6937501430511475
1751619059627972900,2.304972900390625,-38.66250228881836,-13.068750381469727,3.7687501907348633
1751619059637973000,2.314972900390625,-38.71875,-13.106250762939453,3.843750238418579
1751619059647972900,2.324972900390625,-39.16875076293945,-13.050000190734863,3.8812501430511475
1751619059657973000,2.334972900390625,-39.30000305175781,-13.18125057220459,3.7687501907348633
1751619059667972900,2.344972900390625,-39.22500228881836,-13.08750057220459,3.7125000953674316
1751619059677973000,2.354972900390625,-38.92500305175781,-13.162500381469727,3.6937501430511475
1751619059687972900,2.364972900390625,-39.056251525878906,-13.18125057220459,3.918750047683716
1751619059697973000,2.374972900390625,-39.1875,-13.068750381469727,3.825000047683716
1751619059707972900,2.384972900390625,-39.243751525878906,-13.125000953674316,3.731250047683716
1751619059717973000,2.394972900390625,-39.31875228881836,-13.08750057220459,3.6750001907348633
1751619059727972900,2.404972900390625,-39.13125228881836,-13.162500381469727,3.281250238418579
1751619059737973000,2.414972900390625,-39.375,-13.237500190734863,3.4312500953674316
1751619059747972900,2.424972900390625,-39.65625,-13.256250381469727,3.4312500953674316
1751619059757973000,2.434972900390625,-39.9375,-13.125000953674316,3.5812501907348633
1751619059767972900,2.444972900390625,-39.88125228881836,-13.106250762939453,3.4875001907348633
1751619059777973000,2.454972900390625,-39.88125228881836,-13.068750381469727,3.7125000953674316
1751619059787972900,2.464972900390625,-39.95625305175781,-13.106250762939453,3.8062500953674316
1751619059797973000,2.474972900390625,-40.125,-13.08750057220459,3.731250047683716
1751619059807972900,2.484972900390625,-40.01250076293945,-12.918750762939453,3.9750001430511475
1751619059817973000,2.494972900390625,-39.88125228881836,-12.862500190734863,4.068750381469727
1751619059827972900,2.504972900390625,-39.69375228881836,-12.881250381469727,4.256250381469727
1751619059837973000,2.514972900390625,-39.46875,-12.956250190734863,4.012500286102295
1751619059847972900,2.524972900390625,-39.5625,-13.050000190734863,3.7125000953674316
1751619059857973000,2.534972900390625,-39.58125305175781,-13.18125057220459,3.450000047683716
1751619059867972900,2.544972900390625,-39.375,-13.18125057220459,3.4125001430511475
1751619059877973000,2.554972900390625,-39.13125228881836,-13.143750190734863,3.4125001430511475
1751619059887972900,2.564972900390625,-39.13125228881836,-13.237500190734863,3.3000001907348633
1751619059897973000,2.574972900390625,-39.11250305175781,-13.293750762939453,3.262500047683716
1751619059907972900,2.584972900390625,-39.30000305175781,-13.237500190734863,3.075000047683716
1751619059917973000,2.594972900390625,-39.41250228881836,-13.218750953674316,3.2062501907348633
1751619059927972900,2.604972900390625,-39.41250228881836,-13.18125057220459,3.2250001430511475
1751619059937973000,2.614972900390625,-39.35625076293945,-13.237500190734863,3.3375000953674316
1751619059947972900,2.624972900390625,-39.431251525878906,-13.18125057220459,3.375000238418579
1751619059957973000,2.634972900390625,-39.5625,-13.312500953674316,3.543750047683716
1751619059967972900,2.644972900390625,-39.82500076293945,-13.218750953674316,3.637500047683716
1751619059977973000,2.654972900390625,-39.78750228881836,-13.218750953674316,3.5062501430511475
1751619059987972900,2.664972900390625,-39.60000228881836,-13.18125057220459,3.3937501907348633
1751619059997973000,2.674972900390625,-39.39375305175781,-13.125000953674316,3.5062501430511475
1751619060007972900,2.684972900390625,-39.1875,-13.106250762939453,3.6937501430511475
1751619060017973000,2.694972900390625,-39.01875305175781,-13.012500762939453,3.656250238418579
1751619060027972900,2.704972900390625,-39.01875305175781,-13.031250953674316,3.3937501907348633
1751619060037973000,2.714972900390625,-38.88750076293945,-13.125000953674316,3.262500047683716
1751619060047972900,2.724972900390625,-38.90625,-13.18125057220459,3.1500000953674316
1751619060057973000,2.734972900390625,-39.09375,-13.106250762939453,3.262500047683716
1751619060067972900,2.744972900390625,-38.962501525878906,-13.256250381469727,3.3187501430511475
1751619060077973000,2.754972900390625,-39.01875305175781,-13.27500057220459,3.075000047683716
1751619060087972900,2.764972900390625,-39.11250305175781,-13.443750381469727,3.0375001430511475
1751619060097973000,2.774972900390625,-39.20625305175781,-13.237500190734863,3.2250001430511475
1751619060107972900,2.784972900390625,-39.337501525878906,-13.237500190734863,3.5812501907348633
1751619060117973000,2.794972900390625,-39.48750305175781,-13.143750190734863,3.4875001907348633
1751619060127972900,2.804972900390625,-39.337501525878906,-13.143750190734863,3.4875001907348633
1751619060137973000,2.814972900390625,-39.31875228881836,-13.08750057220459,3.4875001907348633
1751619060147972900,2.824972900390625,-39.35625076293945,-12.956250190734863,3.5250000953674316
1751619060157973000,2.834972900390625,-39.41250228881836,-13.237500190734863,3.637500047683716
1751619060167972900,2.844972900390625,-39.39375305175781,-12.937500953674316,3.8062500953674316
1751619060177973000,2.854972900390625,-39.431251525878906,-13.125000953674316,3.7687501907348633
1751619060187972900,2.864972900390625,-39.30000305175781,-12.937500953674316,3.6000001430511475
1751619060197973000,2.874972900390625,-39.31875228881836,-12.975000381469727,3.656250238418579
1751619060207972900,2.884972900390625,-39.22500228881836,-12.99375057220459,3.6750001907348633
1751619060217973000,2.894972900390625,-39.056251525878906,-13.162500381469727,3.7687501907348633
1751619060227972900,2.904972900390625,-39.16875076293945,-13.218750953674316,3.8062500953674316
1751619060237973000,2.914972900390625,-39.03750228881836,-13.068750381469727,3.7687501907348633
1751619060247972900,2.924972900390625,-38.98125076293945,-13.162500381469727,3.6187500953674316
1751619060257973000,2.934972900390625,-38.85000228881836,-12.937500953674316,3.6000001430511475
1751619060267972900,2.944972900390625,-38.75625228881836,-13.256250381469727,3.562500238418579
1751619060277973000,2.954972900390625,-38.71875,-13.200000762939453,3.5062501430511475
1751619060287972900,2.964972900390625,-38.73750305175781,-13.218750953674316,3.4875001907348633
1751619060297973000,2.974972900390625,-38.85000228881836,-13.125000953674316,3.2062501907348633
1751619060307972900,2.984972900390625,-38.8125,-13.218750953674316,3.2437500953674316
1751619060317973000,2.994972900390625,-38.8125,-13.125000953674316,3.4312500953674316
1751619060327972900,3.004972900390625,-39.01875305175781,-13.162500381469727,3.375000238418579
1751619060337973000,3.014972900390625,-39.150001525878906,-13.406250953674316,3.2437500953674316
1751619060347972900,3.024972900390625,-39.41250228881836,-13.350000381469727,3.281250238418579
1751619060357973000,3.034972900390625,-39.41250228881836,-13.518750190734863,3.3000001907348633
1751619060367972900,3.044972900390625,-39.525001525878906,-13.500000953674316,3.4312500953674316
1751619060377973000,3.054972900390625,-39.431251525878906,-13.65000057220459,3.637500047683716
1751619060387972900,3.064972900390625,-39.46875,-13.593750953674316,3.637500047683716
1751619060397973000,3.074972900390625,-39.73125076293945,-13.74375057220459,3.5250000953674316
1751619060407972900,3.084972900390625,-39.28125,-13.74375057220459,3.6000001430511475
1751619060417973000,3.094972900390625,-39.28125,-13.725000381469727,3.7875001430511475
1751619060427972900,3.104972900390625,-39.1875,-13.668750762939453,4.03125
1751619060437973000,3.114972900390625,-39.056251525878906,-13.537500381469727,4.106250286102295
1751619060447972900,3.124972900390625,-38.92500305175781,-13.537500381469727,4.03125
1751619060457973000,3.134972900390625,-39.03750228881836,-13.36875057220459,4.03125
1751619060467972900,3.144972900390625,-39,-13.218750953674316,4.050000190734863
1751619060477973000,3.154972900390625,-38.8125,-12.956250190734863,4.106250286102295
1751619060487972900,3.164972900390625,-39.01875305175781,-12.80625057220459,4.200000286102295
1751619060497973000,3.174972900390625,-39.09375,-13.050000190734863,3.9937500953674316
1751619060507972900,3.184972900390625,-39.01875305175781,-13.050000190734863,3.825000047683716
1751619060517973000,3.194972900390625,-39.1875,-13.200000762939453,3.6000001430511475
1751619060527972900,3.204972900390625,-39.09375,-13.08750057220459,3.843750238418579
1751619060537973000,3.214972900390625,-38.94375228881836,-13.18125057220459,3.937500238418579
1751619060547972900,3.224972900390625,-39.056251525878906,-13.18125057220459,3.937500238418579
1751619060557973000,3.234972900390625,-38.90625,-13.331250190734863,3.9000000953674316
1751619060567972900,3.244972900390625,-38.98125076293945,-13.312500953674316,3.8812501430511475
1751619060577973000,3.254972900390625,-38.962501525878906,-13.162500381469727,3.9750001430511475
1751619060587972900,3.264972900390625,-38.73750305175781,-13.143750190734863,3.7875001430511475
1751619060597973000,3.274972900390625,-38.868751525878906,-13.08750057220459,3.9000000953674316
1751619060607972900,3.284972900390625,-39.09375,-13.162500381469727,3.750000238418579
1751619060617973000,3.294972900390625,-39.07500076293945,-13.08750057220459,3.6187500953674316
1751619060627972900,3.304972900390625,-38.92500305175781,-13.406250953674316,3.5812501907348633
1751619060637973000,3.314972900390625,-39.150001525878906,-13.256250381469727,3.6187500953674316
1751619060647972900,3.324972900390625,-39.01875305175781,-13.27500057220459,3.5812501907348633
1751619060657973000,3.334972900390625,-39.243751525878906,-13.143750190734863,3.5062501430511475
1751619060667972900,3.344972900390625,-39.48750305175781,-13.162500381469727,3.750000238418579
1751619060677973000,3.354972900390625,-39.11250305175781,-13.162500381469727,3.637500047683716
1751619060687972900,3.364972900390625,-39.07500076293945,-13.162500381469727,3.5250000953674316
1751619060697973000,3.374972900390625,-38.79375076293945,-13.200000762939453,3.4875001907348633
1751619060707972900,3.384972900390625,-38.73750305175781,-12.99375057220459,3.3937501907348633
1751619060717973000,3.394972900390625,-38.55000305175781,-13.200000762939453,3.187500238418579
1751619060727972900,3.404972900390625,-38.56875228881836,-13.106250762939453,3.1500000953674316
1751619060737973000,3.414972900390625,-38.53125,-13.293750762939453,3.1500000953674316
1751619060747972900,3.424972900390625,-38.400001525878906,-13.27500057220459,3.093750238418579
1751619060757973000,3.434972900390625,-38.73750305175781,-13.27500057220459,3.356250047683716
1751619060767972900,3.444972900390625,-38.71875,-13.162500381469727,3.3375000953674316
1751619060777973000,3.454972900390625,-39.01875305175781,-12.956250190734863,3.5250000953674316
1751619060787972900,3.464972900390625,-39.13125228881836,-13.050000190734863,3.543750047683716
1751619060797973000,3.474972900390625,-39.31875228881836,-12.975000381469727,3.9000000953674316
1751619060807972900,3.484972900390625,-39.35625076293945,-13.106250762939453,3.9937500953674316
1751619060817973000,3.494972900390625,-39.30000305175781,-12.881250381469727,4.106250286102295
1751619060827972900,3.504972900390625,-39.28125,-12.881250381469727,4.21875
1751619060837973000,3.514972900390625,-39.28125,-12.843750953674316,4.087500095367432
1751619060847972900,3.524972900390625,-39.35625076293945,-13.068750381469727,4.181250095367432
1751619060857973000,3.534972900390625,-39.30000305175781,-13.27500057220459,4.012500286102295
1751619060867972900,3.544972900390625,-39.11250305175781,-13.218750953674316,3.9750001430511475
1751619060877973000,3.554972900390625,-39.243751525878906,-13.293750762939453,3.7125000953674316
1751619060887972900,3.564972900390625,-39.16875076293945,-13.46250057220459,3.7125000953674316
1751619060897973000,3.574972900390625,-39.07500076293945,-13.481250762939453,3.656250238418579
1751619060907972900,3.584972900390625,-39.31875228881836,-13.406250953674316,3.5250000953674316
1751619060917973000,3.594972900390625,-39.11250305175781,-13.537500381469727,3.543750047683716
1751619060927972900,3.604972900390625,-39.39375305175781,-13.500000953674316,3.450000047683716
1751619060937973000,3.614972900390625,-39.431251525878906,-13.46250057220459,3.5250000953674316
1751619060947972900,3.624972900390625,-39.76875305175781,-13.406250953674316,3.656250238418579
1751619060957973000,3.634972900390625,-39.60000228881836,-13.293750762939453,3.843750238418579
1751619060967972900,3.644972900390625,-39.806251525878906,-13.218750953674316,3.843750238418579
1751619060977973000,3.654972900390625,-39.69375228881836,-13.36875057220459,3.731250047683716
1751619060987972900,3.664972900390625,-39.50625228881836,-13.500000953674316,3.543750047683716
1751619060997973000,3.674972900390625,-39.46875,-13.237500190734863,3.6750001907348633
1751619061007972900,3.684972900390625,-39.16875076293945,-13.237500190734863,3.6750001907348633
1751619061017973000,3.694972900390625,-39.30000305175781,-12.975000381469727,3.7687501907348633
1751619061027972900,3.704972900390625,-39.20625305175781,-13.068750381469727,3.5062501430511475
1751619061037973000,3.714972900390625,-39.1875,-13.125000953674316,3.4312500953674316
1751619061047972900,3.724972900390625,-39.03750228881836,-12.975000381469727,3.2437500953674316
1751619061057973000,3.734972900390625,-39.13125228881836,-12.825000762939453,3.3000001907348633
1751619061067972900,3.744972900390625,-39.20625305175781,-12.825000762939453,3.4312500953674316
1751619061077973000,3.754972900390625,-39.375,-12.881250381469727,3.262500047683716
1751619061087972900,3.764972900390625,-39.16875076293945,-12.843750953674316,3.356250047683716
1751619061097973000,3.774972900390625,-39.20625305175781,-12.918750762939453,3.356250047683716
1751619061107972900,3.784972900390625,-39.150001525878906,-12.843750953674316,3.4312500953674316
1751619061117973000,3.794972900390625,-39.056251525878906,-12.731250762939453,3.187500238418579
1751619061127972900,3.804972900390625,-39.16875076293945,-12.918750762939453,3.3187501430511475
1751619061137973000,3.814972900390625,-39.20625305175781,-13.031250953674316,3.562500238418579
1751619061147972900,3.824972900390625,-39.26250076293945,-12.918750762939453,3.5250000953674316
1751619061157973000,3.834972900390625,-39.09375,-12.90000057220459,3.637500047683716
1751619061167972900,3.844972900390625,-39.48750305175781,-12.731250762939453,3.7687501907348633
1751619061177973000,3.854972900390625,-39.150001525878906,-12.918750762939453,3.7687501907348633
1751619061187972900,3.864972900390625,-39.1875,-13.031250953674316,3.825000047683716
1751619061197973000,3.874972900390625,-39.11250305175781,-13.218750953674316,4.012500286102295
1751619061207972900,3.884972900390625,-38.98125076293945,-13.125000953674316,3.9562501907348633
1751619061217973000,3.894972900390625,-38.775001525878906,-12.918750762939453,3.918750047683716
1751619061227972900,3.904972900390625,-38.66250228881836,-13.08750057220459,3.918750047683716
1751619061237973000,3.914972900390625,-38.83125305175781,-13.256250381469727,3.8812501430511475
1751619061247972900,3.924972900390625,-38.64375305175781,-13.27500057220459,3.7687501907348633
1751619061257973000,3.934972900390625,-38.868751525878906,-13.27500057220459,3.7875001430511475
1751619061267972900,3.944972900390625,-38.83125305175781,-13.256250381469727,3.750000238418579
1751619061277973000,3.954972900390625,-39.16875076293945,-13.162500381469727,3.9562501907348633
1751619061287972900,3.964972900390625,-39.26250076293945,-13.012500762939453,3.8812501430511475
1751619061297973000,3.974972900390625,-39.50625228881836,-13.237500190734863,3.6000001430511475
1751619061307972900,3.984972900390625,-39.46875,-13.143750190734863,3.6750001907348633
1751619061317973000,3.994972900390625,-39.46875,-13.068750381469727,3.6750001907348633
1751619061327972900,4.004972900390625,-39.525001525878906,-13.200000762939453,3.843750238418579
1751619061337973000,4.014972900390625,-39.45000076293945,-13.237500190734863,3.6750001907348633
1751619061347972900,4.024972900390625,-39.375,-13.125000953674316,3.9000000953674316
1751619061357973000,4.034972900390625,-39.243751525878906,-13.031250953674316,3.637500047683716
1751619061367972900,4.044972900390625,-39.30000305175781,-13.293750762939453,3.731250047683716
1751619061377973000,4.054972900390625,-39.39375305175781,-13.256250381469727,3.8625001907348633
1751619061387972900,4.064972900390625,-39.63750076293945,-13.312500953674316,3.918750047683716
1751619061397973000,4.074972900390625,-39.63750076293945,-13.312500953674316,3.825000047683716
1751619061407972900,4.084972900390625,-39.46875,-13.256250381469727,3.6000001430511475
1751619061417973000,4.094972900390625,-39.375,-13.106250762939453,3.6937501430511475
1751619061427972900,4.104972900390625,-39.525001525878906,-13.125000953674316,3.562500238418579
1751619061437973000,4.114972900390625,-39.54375076293945,-13.27500057220459,3.637500047683716
1751619061447972900,4.124972900390625,-39.69375228881836,-13.237500190734863,3.637500047683716
1751619061457973000,4.134972900390625,-39.54375076293945,-13.27500057220459,3.5062501430511475
1751619061467972900,4.144972900390625,-39.46875,-13.143750190734863,3.5062501430511475
1751619061477973000,4.154972900390625,-39.39375305175781,-13.18125057220459,3.5250000953674316
1751619061487972900,4.164972900390625,-39.63750076293945,-13.237500190734863,3.468750238418579
1751619061497973000,4.174972900390625,-39.67500305175781,-13.387500762939453,3.468750238418579
1751619061507972900,4.184972900390625,-39.78750228881836,-13.46250057220459,3.4875001907348633
1751619061517973000,4.194972900390625,-39.78750228881836,-13.500000953674316,3.281250238418579
1751619061527972900,4.204972900390625,-39.65625,-13.387500762939453,3.1500000953674316
1751619061537973000,4.214972900390625,-39.525001525878906,-13.331250190734863,3.2437500953674316
1751619061547972900,4.224972900390625,-39.5625,-13.36875057220459,3.3375000953674316
1751619061557973000,4.234972900390625,-39.50625228881836,-13.387500762939453,3.356250047683716
1751619061567972900,4.244972900390625,-39.35625076293945,-13.46250057220459,3.543750047683716
1751619061577973000,4.254972900390625,-39.76875305175781,-13.27500057220459,3.562500238418579
1751619061587972900,4.264972900390625,-39.54375076293945,-13.36875057220459,3.543750047683716
1751619061597973000,4.274972900390625,-39.30000305175781,-13.218750953674316,3.750000238418579
1751619061607972900,4.284972900390625,-39.056251525878906,-13.481250762939453,3.731250047683716
1751619061617973000,4.294972900390625,-39.01875305175781,-13.237500190734863,3.937500238418579
1751619061627972900,4.304972900390625,-39.056251525878906,-13.387500762939453,3.6937501430511475
1751619061637973000,4.314972900390625,-39.150001525878906,-13.331250190734863,3.750000238418579
1751619061647972900,4.324972900390625,-39.31875228881836,-13.18125057220459,3.7875001430511475
1751619061657973000,4.334972900390625,-39.20625305175781,-13.331250190734863,3.7125000953674316
1751619061667972900,4.344972900390625,-39.22500228881836,-13.218750953674316,3.6187500953674316
1751619061677973000,4.354972900390625,-39.63750076293945,-13.200000762939453,3.637500047683716
1751619061687972900,4.364972900390625,-40.087501525878906,-13.162500381469727,3.7125000953674316
1751619061697973000,4.374972900390625,-40.44375228881836,-13.443750381469727,3.6750001907348633
1751619061707972900,4.384972900390625,-40.368751525878906,-13.387500762939453,3.6187500953674316
1751619061717973000,4.394972900390625,-40.33125305175781,-13.36875057220459,3.450000047683716
1751619061727972900,4.404972900390625,-39.97500228881836,-13.631250381469727,3.3000001907348633
1751619061737973000,4.414972900390625,-39.900001525878906,-13.575000762939453,3.1312501430511475
1751619061747972900,4.424972900390625,-39.97500228881836,-13.668750762939453,3.3187501430511475
1751619061757973000,4.434972900390625,-39.76875305175781,-13.725000381469727,3.3187501430511475
1751619061767972900,4.444972900390625,-39.69375228881836,-13.46250057220459,3.562500238418579
1751619061777973000,4.454972900390625,-39.5625,-13.237500190734863,3.5812501907348633
1751619061787972900,4.464972900390625,-39.48750305175781,-12.90000057220459,3.8812501430511475
1751619061797973000,4.474972900390625,-39.41250228881836,-13.012500762939453,3.937500238418579
1751619061807972900,4.484972900390625,-39.60000228881836,-12.90000057220459,3.9750001430511475
1751619061817973000,4.494972900390625,-39.48750305175781,-12.918750762939453,4.125
1751619061827972900,4.504972900390625,-39.431251525878906,-12.825000762939453,4.087500095367432
1751619061837973000,4.514972900390625,-39.28125,-12.90000057220459,4.050000190734863
1751619061847972900,4.524972900390625,-39.22500228881836,-13.012500762939453,3.8625001907348633
1751619061857973000,4.534972900390625,-39.13125228881836,-13.18125057220459,3.843750238418579
1751619061867972900,4.544972900390625,-39.13125228881836,-13.312500953674316,3.637500047683716
1751619061877973000,4.554972900390625,-39.26250076293945,-13.293750762939453,3.6000001430511475
1751619061887972900,4.564972900390625,-39.1875,-13.18125057220459,3.656250238418579
1751619061897973000,4.574972900390625,-39.31875228881836,-13.125000953674316,3.731250047683716
1751619061907972900,4.584972900390625,-39.31875228881836,-13.293750762939453,3.825000047683716
1751619061917973000,4.594972900390625,-39.35625076293945,-13.312500953674316,3.8625001907348633
1751619061927972900,4.604972900390625,-39.26250076293945,-13.36875057220459,3.750000238418579
1751619061937973000,4.614972900390625,-39.41250228881836,-13.36875057220459,3.750000238418579
1751619061947972900,4.624972900390625,-39.41250228881836,-13.406250953674316,3.7687501907348633
1751619061957973000,4.634972900390625,-39.35625076293945,-13.406250953674316,3.937500238418579
1751619061967972900,4.644972900390625,-39.431251525878906,-13.481250762939453,3.843750238418579
1751619061977973000,4.654972900390625,-39.20625305175781,-13.481250762939453,3.937500238418579
1751619061987972900,4.664972900390625,-39.243751525878906,-13.27500057220459,3.8062500953674316
1751619061997973000,4.674972900390625,-39.431251525878906,-13.218750953674316,3.8812501430511475
1751619062007972900,4.684972900390625,-39.46875,-13.050000190734863,4.200000286102295
1751619062017973000,4.694972900390625,-39.41250228881836,-12.975000381469727,4.200000286102295
1751619062027972900,4.704972900390625,-39.41250228881836,-12.99375057220459,4.162500381469727
1751619062037973000,4.714972900390625,-39.22500228881836,-12.881250381469727,4.106250286102295
1751619062047972900,4.724972900390625,-39.337501525878906,-12.787500381469727,4.181250095367432
1751619062057973000,4.734972900390625,-39.431251525878906,-12.843750953674316,4.068750381469727
1751619062067972900,4.744972900390625,-39.39375305175781,-12.937500953674316,4.143750190734863
1751619062077973000,4.754972900390625,-39.28125,-12.956250190734863,3.8812501430511475
1751619062087972900,4.764972900390625,-39.48750305175781,-13.106250762939453,3.5812501907348633
1751619062097973000,4.774972900390625,-39.243751525878906,-13.106250762939453,3.6000001430511475
1751619062107972900,4.784972900390625,-39.11250305175781,-13.050000190734863,3.637500047683716
1751619062117973000,4.794972900390625,-39.45000076293945,-13.200000762939453,3.6187500953674316
1751619062127972900,4.804972900390625,-39.28125,-13.125000953674316,3.6750001907348633
1751619062137973000,4.814972900390625,-39.1875,-13.18125057220459,3.656250238418579
1751619062147972900,4.824972900390625,-39.39375305175781,-13.237500190734863,3.562500238418579
1751619062157973000,4.834972900390625,-39.39375305175781,-13.200000762939453,3.8812501430511475
1751619062167972900,4.844972900390625,-38.962501525878906,-13.218750953674316,3.8812501430511475
1751619062177973000,4.854972900390625,-39.150001525878906,-13.256250381469727,3.731250047683716
1751619062187972900,4.864972900390625,-39.1875,-13.443750381469727,3.6937501430511475
1751619062197973000,4.874972900390625,-39.150001525878906,-13.312500953674316,3.750000238418579
1751619062207972900,4.884972900390625,-39.20625305175781,-13.500000953674316,3.6000001430511475
1751619062217973000,4.894972900390625,-39,-13.500000953674316,3.731250047683716
1751619062227972900,4.904972900390625,-38.73750305175781,-13.406250953674316,3.750000238418579
1751619062237973000,4.914972900390625,-38.85000228881836,-13.443750381469727,3.6187500953674316
1751619062247972900,4.924972900390625,-39.09375,-13.537500381469727,3.3937501907348633
1751619062257973000,4.934972900390625,-39.056251525878906,-13.612500190734863,3.450000047683716
1751619062267972900,4.944972900390625,-38.92500305175781,-13.518750190734863,3.5062501430511475
1751619062277973000,4.954972900390625,-38.73750305175781,-13.687500953674316,3.6000001430511475
1751619062287972900,4.964972900390625,-38.775001525878906,-13.706250190734863,3.6000001430511475
1751619062297973000,4.974972900390625,-38.868751525878906,-13.65000057220459,3.3937501907348633
1751619062307972900,4.984972900390625,-38.775001525878906,-13.612500190734863,3.3937501907348633
1751619062317973000,4.994972900390625,-38.4375,-13.668750762939453,3.075000047683716
1751619062327972900,5.004972900390625,-38.47500228881836,-13.331250190734863,3.2250001430511475
1751619062337973000,5.014972900390625,-38.25,-13.36875057220459,3.356250047683716
1751619062347972900,5.024972900390625,-38.47500228881836,-13.425000190734863,3.2250001430511475
1751619062357973000,5.034972900390625,-38.41875076293945,-13.237500190734863,3.1500000953674316
1751619062367972900,5.044972900390625,-38.45625305175781,-13.18125057220459,3.1500000953674316
1751619062377973000,5.054972900390625,-38.681251525878906,-13.237500190734863,3.2437500953674316
1751619062387972900,5.064972900390625,-38.94375228881836,-13.27500057220459,3.1312501430511475
1751619062397973000,5.074972900390625,-39.26250076293945,-13.050000190734863,3.468750238418579
1751619062407972900,5.084972900390625,-39.056251525878906,-13.293750762939453,3.5812501907348633
1751619062417973000,5.094972900390625,-39.35625076293945,-13.293750762939453,3.356250047683716
1751619062427972900,5.104972900390625,-39.056251525878906,-13.200000762939453,3.375000238418579
1751619062437973000,5.114972900390625,-39.31875228881836,-13.08750057220459,3.3187501430511475
1751619062447972900,5.124972900390625,-39.1875,-13.125000953674316,3.3000001907348633
1751619062457973000,5.134972900390625,-39.056251525878906,-13.068750381469727,3.3187501430511475
1751619062467972900,5.144972900390625,-39.20625305175781,-13.050000190734863,3.168750047683716
1751619062477973000,5.154972900390625,-39.11250305175781,-13.18125057220459,3.2250001430511475
1751619062487972900,5.164972900390625,-39.20625305175781,-13.031250953674316,3.1500000953674316
1751619062497973000,5.174972900390625,-39.337501525878906,-12.90000057220459,3.3937501907348633
1751619062507972900,5.184972900390625,-39.67500305175781,-12.862500190734863,3.450000047683716
1751619062517973000,5.194972900390625,-39.431251525878906,-12.99375057220459,3.3187501430511475
1751619062527972900,5.204972900390625,-39.54375076293945,-13.08750057220459,3.4125001430511475
1751619062537973000,5.214972900390625,-39.73125076293945,-13.068750381469727,3.2062501907348633
1751619062547972900,5.224972900390625,-39.54375076293945,-13.012500762939453,3.6000001430511475
1751619062557973000,5.234972900390625,-39.54375076293945,-12.937500953674316,3.5062501430511475
1751619062567972900,5.244972900390625,-39.54375076293945,-13.050000190734863,3.543750047683716
1751619062577973000,5.254972900390625,-39.375,-12.99375057220459,3.4125001430511475
1751619062587972900,5.264972900390625,-39.13125228881836,-13.27500057220459,3.356250047683716
1751619062597973000,5.274972900390625,-39.243751525878906,-13.350000381469727,3.6000001430511475
1751619062607972900,5.284972900390625,-39.30000305175781,-13.18125057220459,3.5250000953674316
1751619062617973000,5.294972900390625,-38.962501525878906,-13.08750057220459,3.6750001907348633
1751619062627972900,5.304972900390625,-38.92500305175781,-13.106250762939453,3.6187500953674316
1751619062637973000,5.314972900390625,-38.94375228881836,-13.237500190734863,3.4875001907348633
1751619062647972900,5.324972900390625,-39.11250305175781,-13.331250190734863,3.562500238418579
1751619062657973000,5.334972900390625,-39.01875305175781,-13.481250762939453,3.4875001907348633
1751619062667972900,5.344972900390625,-38.83125305175781,-13.200000762939453,3.6937501430511475
1751619062677973000,5.354972900390625,-38.85000228881836,-13.031250953674316,3.5250000953674316
1751619062687972900,5.364972900390625,-38.79375076293945,-13.237500190734863,3.468750238418579
1751619062697973000,5.374972900390625,-39.09375,-13.256250381469727,3.750000238418579
1751619062707972900,5.384972900390625,-39.16875076293945,-13.256250381469727,3.656250238418579
1751619062717973000,5.394972900390625,-39.056251525878906,-13.218750953674316,3.7125000953674316
1751619062727972900,5.404972900390625,-39.03750228881836,-13.125000953674316,3.8812501430511475
1751619062737973000,5.414972900390625,-38.94375228881836,-13.200000762939453,3.8812501430511475
1751619062747972900,5.424972900390625,-39.31875228881836,-13.162500381469727,3.7875001430511475
1751619062757973000,5.434972900390625,-39.431251525878906,-13.350000381469727,3.8625001907348633
1751619062767972900,5.444972900390625,-39.45000076293945,-13.27500057220459,4.162500381469727
1751619062777973000,5.454972900390625,-39.41250228881836,-13.46250057220459,3.8812501430511475
1751619062787972900,5.464972900390625,-39.35625076293945,-13.593750953674316,3.7687501907348633
1751619062797973000,5.474972900390625,-39.46875,-13.500000953674316,3.825000047683716
1751619062807972900,5.484972900390625,-39.46875,-13.46250057220459,3.843750238418579
1751619062817973000,5.494972900390625,-39.618751525878906,-13.387500762939453,3.843750238418579
1751619062827972900,5.504972900390625,-39.60000228881836,-13.518750190734863,3.843750238418579
1751619062837973000,5.514972900390625,-39.46875,-13.46250057220459,3.843750238418579
1751619062847972900,5.524972900390625,-39.1875,-13.387500762939453,3.6937501430511475
1751619062857973000,5.534972900390625,-39.150001525878906,-13.162500381469727,3.843750238418579
1751619062867972900,5.544972900390625,-39.28125,-13.050000190734863,3.918750047683716
1751619062877973000,5.554972900390625,-39.22500228881836,-13.068750381469727,4.03125
1751619062887972900,5.564972900390625,-39.150001525878906,-13.08750057220459,3.843750238418579
1751619062897973000,5.574972900390625,-39.11250305175781,-13.218750953674316,3.918750047683716
1751619062907972900,5.584972900390625,-38.94375228881836,-13.143750190734863,4.03125
1751619062917973000,5.594972900390625,-39.1875,-13.18125057220459,3.937500238418579
1751619062927972900,5.604972900390625,-39.31875228881836,-13.200000762939453,3.8062500953674316
1751619062937973000,5.614972900390625,-39.22500228881836,-13.27500057220459,3.8062500953674316
1751619062947972900,5.624972900390625,-39.150001525878906,-13.500000953674316,3.7125000953674316
1751619062957973000,5.634972900390625,-39.056251525878906,-13.500000953674316,3.637500047683716
1751619062967972900,5.644972900390625,-39.150001525878906,-13.612500190734863,3.6937501430511475
1751619062977973000,5.654972900390625,-39.20625305175781,-13.500000953674316,3.7875001430511475
1751619062987972900,5.664972900390625,-39.31875228881836,-13.65000057220459,3.4875001907348633
1751619062997973000,5.674972900390625,-38.962501525878906,-13.537500381469727,3.5250000953674316
1751619063007972900,5.684972900390625,-39.056251525878906,-13.500000953674316,3.637500047683716
1751619063017973000,5.694972900390625,-39.28125,-13.481250762939453,3.656250238418579
1751619063027972900,5.704972900390625,-39.20625305175781,-13.293750762939453,3.731250047683716
1751619063037973000,5.714972900390625,-39.03750228881836,-13.406250953674316,3.7687501907348633
1751619063047972900,5.724972900390625,-38.98125076293945,-13.27500057220459,3.6937501430511475
1751619063057973000,5.734972900390625,-38.868751525878906,-13.08750057220459,3.8062500953674316
1751619063067972900,5.744972900390625,-39.07500076293945,-13.012500762939453,4.125
1751619063077973000,5.754972900390625,-39.09375,-13.237500190734863,3.9937500953674316
1751619063087972900,5.764972900390625,-39.1875,-13.27500057220459,4.012500286102295
1751619063097973000,5.774972900390625,-38.98125076293945,-13.312500953674316,3.843750238418579
1751619063107972900,5.784972900390625,-38.98125076293945,-13.18125057220459,3.6750001907348633
1751619063117973000,5.794972900390625,-39.20625305175781,-13.237500190734863,3.843750238418579
1751619063127972900,5.804972900390625,-39.22500228881836,-13.237500190734863,3.8625001907348633
1751619063137973000,5.814972900390625,-39.337501525878906,-13.46250057220459,3.656250238418579
1751619063147972900,5.824972900390625,-39.243751525878906,-13.500000953674316,3.4312500953674316
1751619063157973000,5.834972900390625,-39.30000305175781,-13.256250381469727,3.637500047683716
1751619063167972900,5.844972900390625,-39.1875,-13.143750190734863,3.450000047683716
1751619063177973000,5.854972900390625,-39.11250305175781,-13.27500057220459,3.450000047683716
1751619063187972900,5.864972900390625,-39.01875305175781,-13.406250953674316,3.6187500953674316
1751619063197973000,5.874972900390625,-39.22500228881836,-13.36875057220459,3.3375000953674316
1751619063207972900,5.884972900390625,-39.07500076293945,-13.425000190734863,3.2437500953674316
1751619063217973000,5.894972900390625,-38.85000228881836,-13.237500190734863,3.356250047683716
1751619063227972900,5.904972900390625,-38.962501525878906,-13.162500381469727,3.6000001430511475
1751619063237973000,5.914972900390625,-38.75625228881836,-13.218750953674316,3.543750047683716
1751619063247972900,5.924972900390625,-38.8125,-13.125000953674316,3.825000047683716
1751619063257973000,5.934972900390625,-38.8125,-12.975000381469727,3.825000047683716
1751619063267972900,5.944972900390625,-39.11250305175781,-12.862500190734863,3.9937500953674316
1751619063277973000,5.954972900390625,-38.75625228881836,-12.768750190734863,3.937500238418579
1751619063287972900,5.964972900390625,-38.71875,-12.768750190734863,4.106250286102295
1751619063297973000,5.974972900390625,-38.88750076293945,-12.918750762939453,4.050000190734863
1751619063307972900,5.984972900390625,-38.73750305175781,-12.956250190734863,3.8062500953674316
1751619063317973000,5.994972900390625,-38.88750076293945,-13.106250762939453,3.6937501430511475
1751619063327972900,6.004972900390625,-39.1875,-13.218750953674316,3.562500238418579
1751619063337973000,6.014972900390625,-39.525001525878906,-13.293750762939453,3.543750047683716
1751619063347972900,6.024972900390625,-39.13125228881836,-13.443750381469727,3.468750238418579
1751619063357973000,6.034972900390625,-39.39375305175781,-13.406250953674316,3.5812501907348633
1751619063367972900,6.044972900390625,-39.5625,-13.218750953674316,3.731250047683716
1751619063377973000,6.054972900390625,-39.76875305175781,-13.08750057220459,3.6937501430511475
1751619063387972900,6.064972900390625,-39.9375,-13.18125057220459,3.731250047683716
1751619063397973000,6.074972900390625,-40.06875228881836,-12.918750762939453,3.918750047683716
1751619063407972900,6.084972900390625,-39.618751525878906,-12.956250190734863,3.9750001430511475
1751619063417973000,6.094972900390625,-39.31875228881836,-12.918750762939453,4.350000381469727
1751619063427972900,6.104972900390625,-39.67500305175781,-12.768750190734863,4.3125
1751619063437973000,6.114972900390625,-39.60000228881836,-13.012500762939453,4.293750286102295
1751619063447972900,6.124972900390625,-39.63750076293945,-13.162500381469727,3.9937500953674316
1751619063457973000,6.134972900390625,-39.31875228881836,-13.27500057220459,3.9937500953674316
1751619063467972900,6.144972900390625,-39.20625305175781,-13.27500057220459,4.03125
1751619063477973000,6.154972900390625,-39.41250228881836,-13.443750381469727,3.9937500953674316
1751619063487972900,6.164972900390625,-39.63750076293945,-13.350000381469727,3.8812501430511475
1751619063497973000,6.174972900390625,-39.993751525878906,-13.36875057220459,3.6000001430511475
1751619063507972900,6.184972900390625,-40.01250076293945,-13.500000953674316,3.262500047683716
1751619063517973000,6.194972900390625,-40.16250228881836,-13.237500190734863,3.1500000953674316
1751619063527972900,6.204972900390625,-40.23750305175781,-13.237500190734863,3.0562500953674316
1751619063537973000,6.214972900390625,-40.3125,-13.312500953674316,2.6625001430511475
1751619063547972900,6.224972900390625,-40.275001525878906,-13.237500190734863,2.3812501430511475
1751619063557973000,6.234972900390625,-39.86250305175781,-13.106250762939453,2.0062501430511475
1751619063567972900,6.244972900390625,-39.9375,-13.293750762939453,1.6875001192092896
1751619063577973000,6.254972900390625,-39.69375228881836,-13.350000381469727,1.350000023841858
1751619063587972900,6.264972900390625,-39.54375076293945,-13.218750953674316,1.3875000476837158
1751619063597973000,6.274972900390625,-39.63750076293945,-13.425000190734863,1.0125000476837158
1751619063607972900,6.284972900390625,-39.39375305175781,-13.575000762939453,0.7875000238418579
1751619063617973000,6.294972900390625,-39.525001525878906,-13.518750190734863,0.8062500357627869
1751619063627972900,6.304972900390625,-39.35625076293945,-13.593750953674316,0.768750011920929
1751619063637973000,6.314972900390625,-39.5625,-13.875000953674316,0.7875000238418579
1751619063647972900,6.324972900390625,-39.31875228881836,-13.818750381469727,0.956250011920929
1751619063657973000,6.334972900390625,-39.31875228881836,-13.725000381469727,1.21875
1751619063667972900,6.344972900390625,-39.31875228881836,-13.762500762939453,1.2000000476837158
1751619063677973000,6.354972900390625,-39.20625305175781,-13.65000057220459,1.537500023841858
1751619063687972900,6.364972900390625,-39.243751525878906,-13.518750190734863,1.7437500953674316
1751619063697973000,6.374972900390625,-39.1875,-13.425000190734863,2.2125000953674316
1751619063707972900,6.384972900390625,-39.63750076293945,-13.200000762939453,2.71875
1751619063717973000,6.394972900390625,-39.73125076293945,-13.106250762939453,3.262500047683716
1751619063727972900,6.404972900390625,-39.806251525878906,-12.787500381469727,3.731250047683716
1751619063737973000,6.414972900390625,-39.86250305175781,-12.562500953674316,4.200000286102295
1751619063747972900,6.424972900390625,-40.03125,-12.093750953674316,4.818750381469727
1751619063757973000,6.434972900390625,-39.88125228881836,-11.831250190734863,5.512500286102295
1751619063767972900,6.444972900390625,-40.05000305175781,-11.662500381469727,6.075000286102295
1751619063777973000,6.454972900390625,-40.125,-11.4375,6.431250095367432
1751619063787972900,6.464972900390625,-39.9375,-11.325000762939453,6.562500476837158
1751619063797973000,6.474972900390625,-39.806251525878906,-11.02500057220459,6.731250286102295
1751619063807972900,6.484972900390625,-39.69375228881836,-10.78125,7.087500095367432
1751619063817973000,6.494972900390625,-39.63750076293945,-10.6875,7.087500095367432
1751619063827972900,6.504972900390625,-39.45000076293945,-10.987500190734863,7.050000190734863
1751619063837973000,6.514972900390625,-39.48750305175781,-11.0625,6.862500190734863
1751619063847972900,6.524972900390625,-39.712501525878906,-11.081250190734863,6.918750286102295
1751619063857973000,6.534972900390625,-39.5625,-11.268750190734863,6.600000381469727
1751619063867972900,6.544972900390625,-39.375,-11.512500762939453,6.300000190734863
1751619063877973000,6.554972900390625,-39.48750305175781,-11.71875,5.71875
1751619063887972900,6.564972900390625,-39.525001525878906,-12.187500953674316,5.043750286102295
1751619063897973000,6.574972900390625,-39.48750305175781,-12.52500057220459,4.537500381469727
1751619063907972900,6.584972900390625,-39.712501525878906,-12.881250381469727,4.125
1751619063917973000,6.594972900390625,-39.65625,-13.068750381469727,3.543750047683716
1751619063927972900,6.604972900390625,-39.150001525878906,-13.331250190734863,3.0375001430511475
1751619063937973000,6.614972900390625,-39.26250076293945,-13.481250762939453,2.793750047683716
1751619063947972900,6.624972900390625,-39.31875228881836,-13.65000057220459,2.6625001430511475
1751619063957973000,6.634972900390625,-39.20625305175781,-13.725000381469727,2.71875
1751619063967972900,6.644972900390625,-39.337501525878906,-13.687500953674316,2.7375001907348633
1751619063977973000,6.654972900390625,-39.46875,-13.912500381469727,2.5500001907348633
1751619063987972900,6.664972900390625,-39.26250076293945,-13.725000381469727,2.4937500953674316
1751619063997973000,6.674972900390625,-39.375,-13.631250381469727,2.4562501907348633
1751619064007972900,6.684972900390625,-39.65625,-13.518750190734863,2.2687501907348633
1751619064017973000,6.694972900390625,-39.525001525878906,-13.46250057220459,2.34375
1751619064027972900,6.704972900390625,-39.78750228881836,-13.218750953674316,2.3812501430511475
1751619064037973000,6.714972900390625,-39.82500076293945,-13.256250381469727,2.137500047683716
1751619064047972900,6.724972900390625,-39.82500076293945,-13.406250953674316,1.8375000953674316
1751619064057973000,6.734972900390625,-39.91875076293945,-13.237500190734863,2.1187500953674316
1751619064067972900,6.744972900390625,-40.10625076293945,-13.312500953674316,2.1750001907348633
1751619064077973000,6.754972900390625,-40.087501525878906,-13.387500762939453,2.5500001907348633
1751619064087972900,6.764972900390625,-40.01250076293945,-13.125000953674316,3.0187501907348633
1751619064097973000,6.774972900390625,-39.900001525878906,-13.012500762939453,3.3000001907348633
1751619064107972900,6.784972900390625,-39.5625,-12.975000381469727,3.6000001430511475
1751619064117973000,6.794972900390625,-39.45000076293945,-12.656250953674316,4.350000381469727
1751619064127972900,6.804972900390625,-39.431251525878906,-12.375000953674316,5.175000190734863
1751619064137973000,6.814972900390625,-39.35625076293945,-12.24375057220459,5.606250286102295
1751619064147972900,6.824972900390625,-39.26250076293945,-12,6.150000095367432
1751619064157973000,6.834972900390625,-39.31875228881836,-11.700000762939453,6.656250476837158
1751619064167972900,6.844972900390625,-39.67500305175781,-11.737500190734863,6.900000095367432
1751619064177973000,6.854972900390625,-39.82500076293945,-11.756250381469727,7.068750381469727
1751619064187972900,6.864972900390625,-39.88125228881836,-11.625,7.162500381469727
1751619064197973000,6.874972900390625,-39.86250305175781,-11.71875,6.956250190734863
1751619064207972900,6.884972900390625,-39.82500076293945,-11.71875,6.562500476837158
1751619064217973000,6.894972900390625,-39.88125228881836,-11.850000381469727,5.981250286102295
1751619064227972900,6.904972900390625,-39.91875076293945,-12.075000762939453,5.231250286102295
1751619064237973000,6.914972900390625,-39.67500305175781,-12.412500381469727,4.293750286102295
1751619064247972900,6.924972900390625,-39.28125,-12.731250762939453,3.5062501430511475
1751619064257973000,6.934972900390625,-39.22500228881836,-13.012500762939453,2.4000000953674316
1751619064267972900,6.944972900390625,-39.20625305175781,-13.387500762939453,1.537500023841858
1751619064277973000,6.954972900390625,-39.30000305175781,-13.612500190734863,0.581250011920929
1751619064287972900,6.964972900390625,-39.28125,-13.93125057220459,-0.22500000894069672
1751619064297973000,6.974972900390625,-39.337501525878906,-13.856250762939453,-1.0500000715255737
1751619064307972900,6.984972900390625,-39.150001525878906,-14.100000381469727,-1.5187500715255737
1751619064317973000,6.994972900390625,-39.26250076293945,-14.100000381469727,-1.9500000476837158
1751619064327972900,7.004972900390625,-39.26250076293945,-14.231250762939453,-2.5687501430511475
1751619064337973000,7.014972900390625,-39.22500228881836,-14.100000381469727,-2.90625
1751619064347972900,7.024972900390625,-39.31875228881836,-14.043750762939453,-3.262500047683716
1751619064357973000,7.034972900390625,-39.22500228881836,-14.11875057220459,-3.2250001430511475
1751619064367972900,7.044972900390625,-39.20625305175781,-14.081250190734863,-3.0562500953674316
1751619064377973000,7.054972900390625,-39.26250076293945,-14.287500381469727,-2.6812500953674316
1751619064387972900,7.064972900390625,-39.28125,-14.081250190734863,-2.5875000953674316
1751619064397973000,7.074972900390625,-39.375,-14.21250057220459,-2.4750001430511475
1751619064407972900,7.084972900390625,-39.431251525878906,-14.062500953674316,-1.8000000715255737
1751619064417973000,7.094972900390625,-39.58125305175781,-14.193750381469727,-1.3312500715255737
1751619064427972900,7.104972900390625,-39.48750305175781,-14.250000953674316,-0.8250000476837158
1751619064437973000,7.114972900390625,-39.5625,-14.175000190734863,-0.20625001192092896
1751619064447972900,7.124972900390625,-39.69375228881836,-14.006250381469727,0.16875000298023224
1751619064457973000,7.134972900390625,-39.41250228881836,-13.706250190734863,0.6375000476837158
1751619064467972900,7.144972900390625,-39.58125305175781,-13.612500190734863,1.3875000476837158
1751619064477973000,7.154972900390625,-39.50625228881836,-13.350000381469727,2.15625
1751619064487972900,7.164972900390625,-39.41250228881836,-12.975000381469727,2.606250047683716
1751619064497973000,7.174972900390625,-39.48750305175781,-12.656250953674316,3.3187501430511475
1751619064507972900,7.184972900390625,-39.63750076293945,-12.318750381469727,4.275000095367432
1751619064517973000,7.194972900390625,-39.63750076293945,-12.05625057220459,4.706250190734863
1751619064527972900,7.204972900390625,-39.54375076293945,-11.77500057220459,5.400000095367432
1751619064537973000,7.214972900390625,-39.73125076293945,-11.53125,6.056250095367432
1751619064547972900,7.224972900390625,-39.75,-11.268750190734863,6.450000286102295
1751619064557973000,7.234972900390625,-39.45000076293945,-11.175000190734863,6.956250190734863
1751619064567972900,7.244972900390625,-39.54375076293945,-11.287500381469727,7.181250095367432
1751619064577973000,7.254972900390625,-39.30000305175781,-11.287500381469727,7.518750190734863
1751619064587972900,7.264972900390625,-39.11250305175781,-11.193750381469727,7.331250190734863
1751619064597973000,7.274972900390625,-39.07500076293945,-11.25,7.293750286102295
1751619064607972900,7.284972900390625,-38.962501525878906,-11.49375057220459,7.162500381469727
1751619064617973000,7.294972900390625,-38.79375076293945,-11.756250381469727,6.806250095367432
1751619064627972900,7.304972900390625,-38.79375076293945,-12.093750953674316,6.318750381469727
1751619064637973000,7.314972900390625,-39.20625305175781,-12.225000381469727,5.71875
1751619064647972900,7.324972900390625,-39.1875,-12.468750953674316,5.231250286102295
1751619064657973000,7.334972900390625,-39.03750228881836,-12.768750190734863,4.387500286102295
1751619064667972900,7.344972900390625,-39.13125228881836,-13.237500190734863,3.5250000953674316
1751619064677973000,7.354972900390625,-39.056251525878906,-13.36875057220459,2.606250047683716
1751619064687972900,7.364972900390625,-39,-13.781250953674316,1.631250023841858
1751619064697973000,7.374972900390625,-38.868751525878906,-14.062500953674316,0.8812500238418579
1751619064707972900,7.384972900390625,-38.55000305175781,-14.30625057220459,0.28125
1751619064717973000,7.394972900390625,-38.4375,-14.49375057220459,-0.35625001788139343
1751619064727972900,7.404972900390625,-38.4375,-14.643750190734863,-0.9937500357627869
1751619064737973000,7.414972900390625,-38.53125,-14.718750953674316,-1.537500023841858
1751619064747972900,7.424972900390625,-38.53125,-14.643750190734863,-1.537500023841858
1751619064757973000,7.434972900390625,-38.70000076293945,-14.793750762939453,-1.7437500953674316
1751619064767972900,7.444972900390625,-38.587501525878906,-14.756250381469727,-1.7437500953674316
1751619064777973000,7.454972900390625,-38.60625076293945,-14.700000762939453,-1.7062500715255737
1751619064787972900,7.464972900390625,-38.88750076293945,-14.58750057220459,-1.6687500476837158
1751619064797973000,7.474972900390625,-38.85000228881836,-14.568750381469727,-1.4812500476837158
1751619064807972900,7.484972900390625,-38.71875,-14.325000762939453,-0.9750000238418579
1751619064817973000,7.494972900390625,-38.98125076293945,-14.156250953674316,-0.28125
1751619064827972900,7.504972900390625,-38.88750076293945,-13.875000953674316,0.20625001192092896
1751619064837973000,7.514972900390625,-38.85000228881836,-13.575000762939453,1.162500023841858
1751619064847972900,7.524972900390625,-39.07500076293945,-12.99375057220459,2.2687501907348633
1751619064857973000,7.534972900390625,-39.243751525878906,-12.562500953674316,3.1500000953674316
1751619064867972900,7.544972900390625,-39.01875305175781,-12.05625057220459,4.21875
1751619064877973000,7.554972900390625,-39.056251525878906,-11.40000057220459,5.362500190734863
1751619064887972900,7.564972900390625,-39.16875076293945,-11.081250190734863,6.168750286102295
1751619064897973000,7.574972900390625,-39.11250305175781,-10.65000057220459,7.106250286102295
1751619064907972900,7.584972900390625,-39.30000305175781,-10.46250057220459,7.706250190734863
1751619064917973000,7.594972900390625,-39.375,-10.03125,8.362500190734863
1751619064927972900,7.604972900390625,-39.65625,-10.106250762939453,8.550000190734863
1751619064937973000,7.614972900390625,-39.65625,-10.125,8.793750762939453
1751619064947972900,7.624972900390625,-39.63750076293945,-10.237500190734863,8.568750381469727
1751619064957973000,7.634972900390625,-39.95625305175781,-10.55625057220459,8.325000762939453
1751619064967972900,7.644972900390625,-40.181251525878906,-10.725000381469727,8.0625
1751619064977973000,7.654972900390625,-40.20000076293945,-11.137500762939453,7.275000095367432
1751619064987972900,7.664972900390625,-40.14375305175781,-11.58750057220459,6.581250190734863
1751619064997973000,7.674972900390625,-40.06875228881836,-12.262500762939453,5.493750095367432
1751619065007972900,7.684972900390625,-39.69375228881836,-12.71250057220459,4.481250286102295
1751619065017973000,7.694972900390625,-39.65625,-13.18125057220459,3.450000047683716
1751619065027972900,7.704972900390625,-39.82500076293945,-13.518750190734863,2.793750047683716
1751619065037973000,7.714972900390625,-39.39375305175781,-13.93125057220459,1.9875000715255737
1751619065047972900,7.724972900390625,-39.243751525878906,-14.268750190734863,1.125
1751619065057973000,7.734972900390625,-39,-14.40000057220459,0.675000011920929
1751619065067972900,7.744972900390625,-39,-14.40000057220459,0.28125
1751619065077973000,7.754972900390625,-38.92500305175781,-14.40000057220459,0.05625000223517418
1751619065087972900,7.764972900390625,-39.03750228881836,-14.156250953674316,0
1751619065097973000,7.774972900390625,-38.98125076293945,-14.100000381469727,0.11250000447034836
1751619065107972900,7.784972900390625,-38.73750305175781,-14.175000190734863,-0.01875000074505806
1751619065117973000,7.794972900390625,-38.85000228881836,-13.912500381469727,0.16875000298023224
1751619065127972900,7.804972900390625,-38.79375076293945,-13.800000190734863,0.581250011920929
1751619065137973000,7.814972900390625,-38.8125,-13.443750381469727,1.3875000476837158
1751619065147972900,7.824972900390625,-39,-13.387500762939453,1.9875000715255737
1751619065157973000,7.834972900390625,-38.94375228881836,-13.125000953674316,2.625
1751619065167972900,7.844972900390625,-39.01875305175781,-12.825000762939453,3.4875001907348633
1751619065177973000,7.854972900390625,-39,-12.318750381469727,4.518750190734863
1751619065187972900,7.864972900390625,-39,-11.643750190734863,5.625
1751619065197973000,7.874972900390625,-39.056251525878906,-11.21250057220459,6.656250476837158
1751619065207972900,7.884972900390625,-38.98125076293945,-10.631250381469727,7.593750476837158
1751619065217973000,7.894972900390625,-39.07500076293945,-10.050000190734863,8.193750381469727
1751619065227972900,7.904972900390625,-39.31875228881836,-9.24375057220459,8.943750381469727
1751619065237973000,7.914972900390625,-39.50625228881836,-8.850000381469727,9.637500762939453
1751619065247972900,7.924972900390625,-39.375,-8.550000190734863,10.012500762939453
1751619065257973000,7.934972900390625,-39.63750076293945,-8.418750762939453,10.200000762939453
1751619065267972900,7.944972900390625,-39.75,-8.737500190734863,10.21875
1751619065277973000,7.954972900390625,-39.50625228881836,-8.943750381469727,9.862500190734863
1751619065287972900,7.964972900390625,-39.65625,-9.112500190734863,9.393750190734863
1751619065297973000,7.974972900390625,-39.78750228881836,-10.068750381469727,8.568750381469727
1751619065307972900,7.984972900390625,-39.337501525878906,-10.74375057220459,7.931250095367432
1751619065317973000,7.994972900390625,-39.22500228881836,-11.30625057220459,7.143750190734863
1751619065327972900,8.004972900390625,-39.39375305175781,-11.90625,6.187500476837158
1751619065337973000,8.014972900390624,-39.243751525878906,-12.506250381469727,5.137500286102295
1751619065347972900,8.024972900390624,-39.431251525878906,-12.825000762939453,4.237500190734863
1751619065357973000,8.034972900390626,-39.39375305175781,-13.18125057220459,3.3937501907348633
1751619065367972900,8.044972900390626,-39.243751525878906,-13.593750953674316,2.8500001430511475
1751619065377973000,8.054972900390625,-39.22500228881836,-13.612500190734863,2.3062500953674316
1751619065387972900,8.064972900390625,-39.30000305175781,-13.706250190734863,1.6500000953674316
1751619065397973000,8.074972900390625,-39.28125,-13.800000190734863,1.256250023841858
1751619065407972900,8.084972900390625,-38.94375228881836,-13.987500190734863,0.6937500238418579
1751619065417973000,8.094972900390625,-39.03750228881836,-14.21250057220459,0.39375001192092896
1751619065427972900,8.104972900390624,-38.75625228881836,-14.175000190734863,0.39375001192092896
1751619065437973000,8.114972900390624,-38.88750076293945,-14.193750381469727,0.5437500476837158
1751619065447972900,8.124972900390626,-38.90625,-14.343750953674316,0.48750001192092896
1751619065457973000,8.134972900390625,-38.85000228881836,-14.30625057220459,0.6000000238418579
1751619065467972900,8.144972900390625,-38.681251525878906,-14.418750762939453,0.7875000238418579
1751619065477973000,8.154972900390625,-38.64375305175781,-14.137500762939453,1.21875
1751619065487972900,8.164972900390625,-38.868751525878906,-14.100000381469727,1.818750023841858
1751619065497973000,8.174972900390625,-38.775001525878906,-13.706250190734863,2.53125
1751619065507972900,8.184972900390624,-39.056251525878906,-13.331250190734863,3.3937501907348633
1751619065517973000,8.194972900390624,-39.09375,-12.862500190734863,4.143750190734863
1751619065527972900,8.204972900390626,-38.90625,-12.225000381469727,5.325000286102295
1751619065537973000,8.214972900390626,-38.625,-11.49375057220459,6.393750190734863
1751619065547972900,8.224972900390625,-38.83125305175781,-10.706250190734863,7.593750476837158
1751619065557973000,8.234972900390625,-39,-10.443750381469727,8.268750190734863
1751619065567972900,8.244972900390625,-39.01875305175781,-9.787500381469727,9.262500762939453
1751619065577973000,8.254972900390625,-38.92500305175781,-9.393750190734863,9.825000762939453
1751619065587972900,8.264972900390624,-38.94375228881836,-9.15000057220459,10.012500762939453
1751619065597973000,8.274972900390624,-39.13125228881836,-9.131250381469727,9.9375
1751619065607972900,8.284972900390626,-39.375,-9.262500762939453,9.65625
1751619065617973000,8.294972900390626,-39.78750228881836,-9.787500381469727,9.356250762939453
1751619065627972900,8.304972900390625,-39.806251525878906,-10.40625,8.662500381469727
1751619065637973000,8.314972900390625,-39.806251525878906,-10.78125,7.987500190734863
1751619065647972900,8.324972900390625,-39.712501525878906,-11.30625057220459,6.900000095367432
1751619065657973000,8.334972900390625,-39.900001525878906,-11.8125,5.756250381469727
1751619065667972900,8.344972900390625,-39.78750228881836,-12.356250762939453,4.743750095367432
1751619065677973000,8.354972900390624,-39.69375228881836,-12.99375057220459,3.4875001907348633
1751619065687972900,8.364972900390624,-39.525001525878906,-13.575000762939453,2.043750047683716
1751619065697973000,8.374972900390626,-39.375,-13.725000381469727,0.8437500596046448
1751619065707972900,8.384972900390625,-39.28125,-13.912500381469727,0
1751619065717973000,8.394972900390625,-39.375,-13.968750953674316,-0.8437500596046448
1751619065727972900,8.404972900390625,-39.50625228881836,-14.137500762939453,-1.5562500953674316
1751619065737973000,8.414972900390625,-39.41250228881836,-14.21250057220459,-1.912500023841858
1751619065747972900,8.424972900390625,-39.28125,-14.21250057220459,-2.1000001430511475
1751619065757973000,8.434972900390624,-39.243751525878906,-14.137500762939453,-1.8562500476837158
1751619065767972900,8.444972900390624,-39.46875,-13.968750953674316,-1.5187500715255737
1751619065787972900,8.464972900390626,-39.41250228881836,-13.893750190734863,-0.8812500238418579
1751619065797973000,8.474972900390625,-39.09375,-14.006250381469727,-0.09375
1751619065807972900,8.484972900390625,-39.11250305175781,-13.875000953674316,0.7312500476837158
1751619065817973000,8.494972900390625,-39.11250305175781,-13.65000057220459,1.6875001192092896
1751619065827972900,8.504972900390625,-39.30000305175781,-13.312500953674316,2.34375
1751619065837973000,8.514972900390624,-39.35625076293945,-12.675000190734863,3.6000001430511475
1751619065847972900,8.524972900390624,-39.16875076293945,-12.131250381469727,4.78125
1751619065857973000,8.534972900390626,-39.31875228881836,-11.475000381469727,5.831250190734863
1751619065867972900,8.544972900390626,-39.375,-11.006250381469727,6.843750476837158
1751619065877973000,8.554972900390625,-39.78750228881836,-10.18125057220459,7.762500286102295
1751619065887972900,8.564972900390625,-39.63750076293945,-9.506250381469727,8.68125057220459
1751619065897973000,8.574972900390625,-39.5625,-8.86875057220459,9.61875057220459
1751619065907972900,8.584972900390625,-39.58125305175781,-8.662500381469727,10.18125057220459
1751619065917973000,8.594972900390625,-39.431251525878906,-8.456250190734863,10.350000381469727
1751619065927972900,8.604972900390624,-39.5625,-8.512500762939453,10.59375
1751619065937973000,8.614972900390624,-39.58125305175781,-8.4375,10.762500762939453
1751619065947972900,8.624972900390626,-39.50625228881836,-8.58750057220459,10.725000381469727
1751619065957973000,8.634972900390625,-39.50625228881836,-9.112500190734863,10.200000762939453
1751619065967972900,8.644972900390625,-39.86250305175781,-9.46875,9.84375
1751619065977973000,8.654972900390625,-39.82500076293945,-10.03125,9.09375
1751619065987972900,8.664972900390625,-39.75,-10.425000190734863,8.418750762939453
1751619065997973000,8.674972900390625,-39.9375,-10.93125057220459,7.556250095367432
1751619066007972900,8.684972900390624,-39.78750228881836,-11.362500190734863,6.675000190734863
1751619066017973000,8.694972900390624,-39.78750228881836,-12.093750953674316,5.606250286102295
1751619066027972900,8.704972900390626,-39.97500228881836,-12.281250953674316,4.762500286102295
1751619066037973000,8.714972900390626,-39.67500305175781,-12.393750190734863,4.256250381469727
1751619066047972900,8.724972900390625,-39.50625228881836,-12.80625057220459,3.187500238418579
1751619066057973000,8.734972900390625,-39.48750305175781,-13.218750953674316,2.325000047683716
1751619066067972900,8.744972900390625,-39.337501525878906,-13.46250057220459,1.725000023841858
1751619066077973000,8.754972900390625,-39.35625076293945,-13.537500381469727,1.256250023841858
1751619066087972900,8.764972900390624,-39.54375076293945,-13.668750762939453,0.5062500238418579
1751619066097973000,8.774972900390624,-39.525001525878906,-13.818750381469727,-0.01875000074505806
1751619066107972900,8.784972900390626,-39.26250076293945,-14.02500057220459,-0.30000001192092896
1751619066117973000,8.794972900390626,-39.30000305175781,-14.30625057220459,-0.8250000476837158
1751619066127972900,8.804972900390625,-39,-14.437500953674316,-0.8437500596046448
1751619066137973000,8.814972900390625,-39.07500076293945,-14.30625057220459,-0.8437500596046448
1751619066147972900,8.824972900390625,-39.16875076293945,-14.40000057220459,-0.9750000238418579
1751619066157973000,8.834972900390625,-39.09375,-14.58750057220459,-1.0500000715255737
1751619066167972900,8.844972900390625,-39.01875305175781,-14.625000953674316,-1.068750023841858
1751619066177973000,8.854972900390624,-39.09375,-14.475000381469727,-0.8062500357627869
1751619066187972900,8.864972900390624,-39.35625076293945,-14.49375057220459,-0.6375000476837158
1751619066197973000,8.874972900390626,-39.618751525878906,-14.362500190734863,-0.30000001192092896
1751619066207972900,8.884972900390625,-39.91875076293945,-14.30625057220459,-0.13125000894069672
1751619066217973000,8.894972900390625,-39.73125076293945,-14.137500762939453,0.35625001788139343
1751619066227972900,8.904972900390625,-39.78750228881836,-13.800000190734863,1.125
1751619066237973000,8.914972900390625,-39.73125076293945,-13.500000953674316,1.8750001192092896
1751619066247972900,8.924972900390625,-39.69375228881836,-13.143750190734863,2.6812500953674316
1751619066257973000,8.934972900390624,-39.78750228881836,-12.750000953674316,3.3937501907348633
1751619066267972900,8.944972900390624,-39.375,-12.412500381469727,3.918750047683716
1751619066277973000,8.954972900390626,-39.07500076293945,-12.24375057220459,4.575000286102295
1751619066287972900,8.964972900390626,-38.85000228881836,-11.887500762939453,5.362500190734863
1751619066297973000,8.974972900390625,-39.16875076293945,-11.756250381469727,5.71875
1751619066307972900,8.984972900390625,-39.20625305175781,-11.793750762939453,5.943750381469727
1751619066317973000,8.994972900390625,-39.11250305175781,-11.793750762939453,5.962500095367432
1751619066327972900,9.004972900390625,-39.09375,-11.943750381469727,6.168750286102295
1751619066337973000,9.014972900390624,-38.868751525878906,-12.075000762939453,6.131250381469727
1751619066347972900,9.024972900390624,-39.20625305175781,-12.131250381469727,6.150000095367432
1751619066357973000,9.034972900390626,-39.525001525878906,-12.112500190734863,6.150000095367432
1751619066367972900,9.044972900390626,-39.67500305175781,-12.24375057220459,5.831250190734863
1751619066377973000,9.054972900390625,-39.712501525878906,-12.506250381469727,5.493750095367432
1751619066387972900,9.064972900390625,-39.5625,-12.656250953674316,4.818750381469727
1751619066397973000,9.074972900390625,-39.60000228881836,-12.862500190734863,4.425000190734863
1751619066407972900,9.084972900390625,-39.618751525878906,-12.956250190734863,3.8062500953674316
1751619066417973000,9.094972900390625,-39.48750305175781,-13.312500953674316,2.981250047683716
1751619066427972900,9.104972900390624,-39.54375076293945,-13.612500190734863,2.043750047683716
1751619066437973000,9.114972900390624,-39.39375305175781,-14.006250381469727,0.862500011920929
1751619066447972900,9.124972900390626,-39.41250228881836,-14.268750190734863,-0.1875
1751619066467972900,9.144972900390625,-39.30000305175781,-14.418750762939453,-1.9500000476837158
1751619066477973000,9.154972900390625,-39.46875,-14.550000190734863,-2.8125
1751619066487972900,9.164972900390625,-39.48750305175781,-14.568750381469727,-3.4875001907348633
1751619066497973000,9.174972900390625,-39.375,-14.49375057220459,-3.825000047683716
1751619066507972900,9.184972900390624,-39.39375305175781,-14.550000190734863,-4.087500095367432
1751619066517973000,9.194972900390624,-39.16875076293945,-14.49375057220459,-4.181250095367432
1751619066527972900,9.204972900390626,-39.01875305175781,-14.418750762939453,-3.8625001907348633
1751619066537973000,9.214972900390626,-38.83125305175781,-14.418750762939453,-3.637500047683716
1751619066547972900,9.224972900390625,-38.8125,-14.381250381469727,-3.2250001430511475
1751619066557973000,9.234972900390625,-38.88750076293945,-14.175000190734863,-2.3625001907348633
1751619066567972900,9.244972900390625,-38.868751525878906,-14.081250190734863,-1.6125000715255737
1751619066577973000,9.254972900390625,-39.11250305175781,-13.950000762939453,-0.8812500238418579
1751619066587972900,9.264972900390624,-38.94375228881836,-13.612500190734863,0.15000000596046448
1751619066597973000,9.274972900390624,-38.962501525878906,-13.331250190734863,1.21875
1751619066607972900,9.284972900390626,-38.962501525878906,-12.90000057220459,2.4562501907348633
1751619066617973000,9.294972900390626,-39.13125228881836,-12.52500057220459,3.825000047683716
1751619066627972900,9.304972900390625,-39.375,-11.850000381469727,5.25
1751619066637973000,9.314972900390625,-39.07500076293945,-11.231250762939453,6.318750381469727
1751619066647972900,9.324972900390625,-39.30000305175781,-10.55625057220459,7.481250286102295
1751619066657973000,9.334972900390625,-39.1875,-9.768750190734863,8.662500381469727
1751619066667972900,9.344972900390625,-39.150001525878906,-9.168750762939453,9.75
1751619066677973000,9.354972900390624,-39.39375305175781,-8.606250762939453,10.518750190734863
1751619066687972900,9.364972900390624,-39.50625228881836,-8.137500762939453,10.856250762939453
1751619066697973000,9.374972900390626,-39.35625076293945,-7.668750286102295,11.193750381469727
1751619066707972900,9.384972900390625,-39.30000305175781,-7.350000381469727,11.418750762939453
1751619066717973000,9.394972900390625,-39.69375228881836,-7.331250190734863,11.40000057220459
1751619066727972900,9.404972900390625,-39.431251525878906,-7.481250286102295,11.287500381469727
1751619066737973000,9.414972900390625,-39.75,-7.856250286102295,11.100000381469727
1751619066747972900,9.424972900390625,-39.806251525878906,-8.325000762939453,10.27500057220459
1751619066757973000,9.434972900390624,-39.618751525878906,-8.8125,9.600000381469727
1751619066767972900,9.444972900390624,-39.65625,-9.412500381469727,8.68125057220459
1751619066777973000,9.454972900390626,-39.84375,-10.18125057220459,7.762500286102295
1751619066787972900,9.464972900390626,-39.91875076293945,-10.96875,6.506250381469727
1751619066797973000,9.474972900390625,-39.78750228881836,-11.475000381469727,5.456250190734863
1751619066807972900,9.484972900390625,-39.76875305175781,-12.15000057220459,4.293750286102295
1751619066817973000,9.494972900390625,-39.45000076293945,-12.637500762939453,3.2062501907348633
1751619066827972900,9.504972900390625,-39.39375305175781,-13.08750057220459,2.34375
1751619066837973000,9.514972900390624,-39.31875228881836,-13.425000190734863,1.4812500476837158
1751619066847972900,9.524972900390624,-39.150001525878906,-13.706250190734863,0.9375000596046448
1751619066857973000,9.534972900390626,-39.243751525878906,-13.762500762939453,0.48750001192092896
1751619066867972900,9.544972900390626,-38.88750076293945,-14.062500953674316,0.20625001192092896
1751619066877973000,9.554972900390625,-38.85000228881836,-14.456250190734863,-0.15000000596046448
1751619066887972900,9.564972900390625,-39.07500076293945,-14.418750762939453,0
1751619066897973000,9.574972900390625,-39.431251525878906,-14.325000762939453,0.22500000894069672
1751619066907972900,9.584972900390625,-39.35625076293945,-14.21250057220459,0.75
1751619066917973000,9.594972900390625,-39.525001525878906,-14.081250190734863,1.2937500476837158
1751619066927972900,9.604972900390624,-39.54375076293945,-13.800000190734863,2.0625
1751619066937973000,9.614972900390624,-39.243751525878906,-13.612500190734863,2.90625
1751619066947972900,9.624972900390626,-39.60000228881836,-12.975000381469727,3.937500238418579
1751619066957973000,9.634972900390625,-39.67500305175781,-12.018750190734863,5.0625
1751619066967972900,9.644972900390625,-39.525001525878906,-11.137500762939453,6.112500190734863
1751619066977973000,9.654972900390625,-39.30000305175781,-10.331250190734863,7.350000381469727
1751619066987972900,9.664972900390625,-39.50625228881836,-9.318750381469727,8.625
1751619066997973000,9.674972900390625,-39.5625,-8.043750762939453,9.84375
1751619067007972900,9.684972900390624,-39.76875305175781,-7.031250476837158,10.83750057220459
1751619067017973000,9.694972900390624,-39.91875076293945,-6.131250381469727,11.625
1751619067027972900,9.704972900390626,-39.75,-5.475000381469727,12.112500190734863
1751619067037973000,9.714972900390626,-39.60000228881836,-5.493750095367432,12.487500190734863
1751619067047972900,9.724972900390625,-39.5625,-5.550000190734863,12.71250057220459
1751619067057973000,9.734972900390625,-39.806251525878906,-5.681250095367432,12.581250190734863
1751619067067972900,9.744972900390625,-39.82500076293945,-6.206250190734863,11.90625
1751619067077973000,9.754972900390625,-39.806251525878906,-7.106250286102295,11.25
1751619067087972900,9.764972900390624,-39.76875305175781,-8.15625,10.5
1751619067097973000,9.774972900390624,-39.618751525878906,-9.075000762939453,9.581250190734863
1751619067107972900,9.784972900390626,-39.50625228881836,-10.27500057220459,8.381250381469727
1751619067117973000,9.794972900390626,-39.525001525878906,-10.96875,7.237500190734863
1751619067127972900,9.804972900390625,-39.5625,-11.793750762939453,5.90625
1751619067137973000,9.814972900390625,-39.5625,-12.52500057220459,4.668750286102295
1751619067147972900,9.824972900390625,-39.45000076293945,-13.068750381469727,3.656250238418579
1751619067157973000,9.834972900390625,-39.41250228881836,-13.46250057220459,2.5687501430511475
1751619067167972900,9.844972900390625,-39.48750305175781,-13.875000953674316,1.5937501192092896
1751619067177973000,9.854972900390624,-39.5625,-14.137500762939453,0.75
1751619067187972900,9.864972900390624,-39.60000228881836,-14.250000953674316,0.4312500059604645
1751619067197973000,9.874972900390626,-39.60000228881836,-14.456250190734863,0.1875
1751619067207972900,9.884972900390625,-39.73125076293945,-14.437500953674316,-0.01875000074505806
1751619067217973000,9.894972900390625,-39.5625,-14.49375057220459,0.01875000074505806
1751619067227972900,9.904972900390625,-39.67500305175781,-14.531250953674316,0.1875
1751619067237973000,9.914972900390625,-39.86250305175781,-14.625000953674316,0.5625
1751619067247972900,9.924972900390625,-39.60000228881836,-14.550000190734863,0.9937500357627869
1751619067257973000,9.934972900390624,-39.73125076293945,-14.30625057220459,1.6500000953674316
1751619067267972900,9.944972900390624,-40.087501525878906,-13.856250762939453,2.4750001430511475
1751619067277973000,9.954972900390626,-40.14375305175781,-13.350000381469727,3.3000001907348633
1751619067287972900,9.964972900390626,-40.06875228881836,-12.881250381469727,4.237500190734863
1751619067297973000,9.974972900390625,-39.993751525878906,-12.506250381469727,4.875
1751619067307972900,9.984972900390625,-39.806251525878906,-11.96250057220459,5.681250095367432
1751619067317973000,9.994972900390625,-39.5625,-11.21250057220459,6.637500286102295
1751619067327972900,10.004972900390625,-39.73125076293945,-10.631250381469727,7.518750190734863
1751619067337973000,10.014972900390624,-39.67500305175781,-10.106250762939453,8.15625
1751619067357973000,10.034972900390626,-39.48750305175781,-9.693750381469727,8.793750762939453
1751619067367972900,10.044972900390626,-39.41250228881836,-9.768750190734863,8.850000381469727
1751619067377973000,10.054972900390625,-39.41250228881836,-9.675000190734863,8.90625
1751619067387972900,10.064972900390625,-39.41250228881836,-9.862500190734863,8.700000762939453
1751619067397973000,10.074972900390625,-39.48750305175781,-10.40625,8.193750381469727
1751619067407972900,10.084972900390625,-39.58125305175781,-10.800000190734863,7.518750190734863
1751619067417973000,10.094972900390625,-39.712501525878906,-11.362500190734863,6.731250286102295
1751619067427972900,10.104972900390624,-39.45000076293945,-11.737500190734863,5.8125
1751619067437973000,10.114972900390624,-39.41250228881836,-12.206250190734863,4.78125
1751619067447972900,10.124972900390626,-39.31875228881836,-12.825000762939453,3.6750001907348633
1751619067457973000,10.134972900390625,-39.337501525878906,-13.237500190734863,2.700000047683716
1751619067467972900,10.144972900390625,-39.337501525878906,-13.46250057220459,1.7812501192092896
1751619067477973000,10.154972900390625,-39.243751525878906,-13.800000190734863,0.862500011920929
1751619067487972900,10.164972900390625,-39.01875305175781,-13.83750057220459,0.07500000298023224
1751619067497973000,10.174972900390625,-38.88750076293945,-13.987500190734863,-0.4312500059604645
1751619067507972900,10.184972900390624,-39.03750228881836,-14.250000953674316,-0.8250000476837158
1751619067517973000,10.194972900390624,-39.01875305175781,-14.250000953674316,-0.9750000238418579
1751619067527972900,10.204972900390626,-39.03750228881836,-14.043750762939453,-0.6000000238418579
1751619067537973000,10.214972900390626,-38.94375228881836,-13.987500190734863,-0.375
1751619067547972900,10.224972900390625,-39.150001525878906,-13.987500190734863,0.07500000298023224
1751619067557973000,10.234972900390625,-39.16875076293945,-13.55625057220459,0.6000000238418579
1751619067567972900,10.244972900390625,-39.431251525878906,-13.256250381469727,1.40625
1751619067577973000,10.254972900390625,-39.35625076293945,-12.956250190734863,2.2125000953674316
1751619067587972900,10.264972900390624,-39.375,-12.393750190734863,3.262500047683716
1751619067597973000,10.274972900390624,-39.337501525878906,-12.05625057220459,4.3125
1751619067607972900,10.284972900390626,-39.41250228881836,-11.4375,5.381250381469727
1751619067617973000,10.294972900390626,-39.22500228881836,-10.6875,6.787500381469727
1751619067627972900,10.304972900390625,-38.98125076293945,-9.825000762939453,8.02500057220459
1751619067637973000,10.314972900390625,-39.20625305175781,-9.168750762939453,9.15000057220459
1751619067647972900,10.324972900390625,-39.01875305175781,-8.568750381469727,9.862500190734863
1751619067657973000,10.334972900390625,-38.98125076293945,-8.11875057220459,10.387500762939453
1751619067667972900,10.344972900390625,-38.94375228881836,-8.02500057220459,10.668750762939453
1751619067677973000,10.354972900390624,-38.94375228881836,-7.912500381469727,10.725000381469727
1751619067687972900,10.364972900390624,-39.07500076293945,-7.893750190734863,10.537500381469727
1751619067697973000,10.374972900390626,-39.39375305175781,-8.34375,9.975000381469727
1751619067707972900,10.384972900390625,-39.63750076293945,-8.925000190734863,9.206250190734863
1751619067717973000,10.394972900390625,-39.375,-9.543750762939453,8.512500762939453
1751619067727972900,10.404972900390625,-39.46875,-10.3125,7.781250476837158
1751619067737973000,10.414972900390625,-39.45000076293945,-11.11875057220459,6.843750476837158
1751619067747972900,10.424972900390625,-39.58125305175781,-11.550000190734863,5.850000381469727
1751619067757973000,10.434972900390624,-39.69375228881836,-12,4.912500381469727
1751619067767972900,10.444972900390624,-39.525001525878906,-12.731250762939453,3.8625001907348633
1751619067777973000,10.454972900390626,-39.39375305175781,-13.293750762939453,2.625
1751619067787972900,10.464972900390626,-39.243751525878906,-13.74375057220459,1.8750001192092896
1751619067797973000,10.474972900390625,-39.150001525878906,-14.006250381469727,1.068750023841858
1751619067807972900,10.484972900390625,-39.11250305175781,-14.287500381469727,0.48750001192092896
1751619067817973000,10.494972900390625,-39.20625305175781,-14.381250381469727,-0.01875000074505806
1751619067827972900,10.504972900390625,-38.88750076293945,-14.625000953674316,-0.48750001192092896
1751619067837973000,10.514972900390624,-38.88750076293945,-14.718750953674316,-0.6187500357627869
1751619067847972900,10.524972900390624,-38.83125305175781,-14.737500190734863,-0.75
1751619067857973000,10.534972900390626,-38.8125,-14.49375057220459,-0.581250011920929
1751619067867972900,10.544972900390626,-38.868751525878906,-14.437500953674316,-0.5625
1751619067877973000,10.554972900390625,-38.98125076293945,-14.325000762939453,-0.5250000357627869
1751619067887972900,10.564972900390625,-38.88750076293945,-14.250000953674316,-0.3375000059604645
1751619067897973000,10.574972900390625,-38.70000076293945,-14.006250381469727,0.45000001788139343
1751619067907972900,10.584972900390625,-38.70000076293945,-13.74375057220459,1.1812500953674316
1751619067917973000,10.594972900390625,-38.55000305175781,-13.500000953674316,1.912500023841858
1751619067927972900,10.604972900390624,-38.70000076293945,-13.237500190734863,2.8687500953674316
1751619067937973000,10.614972900390624,-38.775001525878906,-12.768750190734863,4.03125
1751619067947972900,10.624972900390626,-38.64375305175781,-12.187500953674316,5.100000381469727
1751619067957973000,10.634972900390625,-38.60625076293945,-11.606250762939453,6.356250286102295
1751619067967972900,10.644972900390625,-38.47500228881836,-11.02500057220459,7.518750190734863
1751619067977973000,10.654972900390625,-38.71875,-10.350000381469727,8.418750762939453
1751619067987972900,10.664972900390625,-38.85000228881836,-9.675000190734863,9.33750057220459
1751619067997973000,10.674972900390625,-39.1875,-9.131250381469727,10.03125
1751619068007972900,10.684972900390624,-39.13125228881836,-8.606250762939453,10.481250762939453
1751619068017973000,10.694972900390624,-39.056251525878906,-8.512500762939453,10.537500381469727
1751619068027972900,10.704972900390626,-39.22500228881836,-8.700000762939453,10.65000057220459
1751619068037973000,10.714972900390626,-39.1875,-8.925000190734863,10.518750190734863
1751619068047972900,10.724972900390625,-39.431251525878906,-9.112500190734863,9.956250190734863
1751619068057973000,10.734972900390625,-39.431251525878906,-9.84375,9.15000057220459
1751619068067972900,10.744972900390625,-39.39375305175781,-10.631250381469727,8.11875057220459
1751619068077973000,10.754972900390625,-39.1875,-11.40000057220459,6.843750476837158
1751619068087972900,10.764972900390624,-39.13125228881836,-12.131250381469727,5.550000190734863
1751619068097973000,10.774972900390624,-38.88750076293945,-12.61875057220459,4.40625
1751619068107972900,10.784972900390626,-39.03750228881836,-13.106250762939453,3
1751619068117973000,10.794972900390626,-39.13125228881836,-13.593750953674316,1.7812501192092896
1751619068127972900,10.804972900390625,-38.88750076293945,-13.893750190734863,0.5625
1751619068137973000,10.814972900390625,-38.90625,-13.968750953674316,-0.48750001192092896
1751619068147972900,10.824972900390625,-38.962501525878906,-14.043750762939453,-1.162500023841858
1751619068157973000,10.834972900390625,-38.71875,-14.268750190734863,-1.7625000476837158
1751619068167972900,10.844972900390625,-38.79375076293945,-14.343750953674316,-2.231250047683716
1751619068177973000,10.854972900390624,-39.11250305175781,-14.550000190734863,-2.5687501430511475
1751619068187972900,10.864972900390624,-38.868751525878906,-14.362500190734863,-2.606250047683716
1751619068197973000,10.874972900390626,-38.94375228881836,-14.437500953674316,-2.6437501907348633
1751619068207972900,10.884972900390625,-39.150001525878906,-14.49375057220459,-2.1937501430511475
1751619068217973000,10.894972900390625,-39.07500076293945,-14.437500953674316,-1.9312500953674316
1751619068227972900,10.904972900390625,-39.13125228881836,-14.268750190734863,-1.5187500715255737
1751619068237973000,10.914972900390625,-39.13125228881836,-13.968750953674316,-0.8062500357627869
1751619068247972900,10.924972900390625,-39.01875305175781,-13.781250953674316,-0.13125000894069672
1751619068257973000,10.934972900390624,-39.07500076293945,-13.331250190734863,0.581250011920929
1751619068267972900,10.944972900390624,-39.09375,-13.18125057220459,1.5937501192092896
1751619068277973000,10.954972900390626,-38.88750076293945,-12.637500762939453,2.4937500953674316
1751619068287972900,10.964972900390626,-38.83125305175781,-12.018750190734863,3.7125000953674316
1751619068297973000,10.974972900390625,-38.88750076293945,-11.700000762939453,5.118750095367432
1751619068307972900,10.984972900390625,-38.73750305175781,-11.268750190734863,6.487500190734863
1751619068317973000,10.994972900390625,-38.962501525878906,-10.59375,7.706250190734863
1751619068327972900,11.004972900390625,-39.07500076293945,-9.918750762939453,8.77500057220459
1751619068337973000,11.014972900390624,-39.13125228881836,-9.450000762939453,9.768750190734863
1751619068347972900,11.024972900390624,-39.056251525878906,-9.09375,10.331250190734863
1751619068367972900,11.044972900390626,-39.13125228881836,-9.05625057220459,10.612500190734863
1751619068377973000,11.054972900390625,-39.26250076293945,-9.262500762939453,10.36875057220459
1751619068387972900,11.064972900390625,-39.39375305175781,-9.71250057220459,9.318750381469727
1751619068397973000,11.074972900390625,-39.31875228881836,-10.481250762939453,8.287500381469727
1751619068407972900,11.084972900390625,-39.09375,-11.25,7.087500095367432
1751619068417973000,11.094972900390625,-38.85000228881836,-12.131250381469727,5.662500381469727
1751619068427972900,11.104972900390624,-38.75625228881836,-12.99375057220459,4.162500381469727
1751619068437973000,11.114972900390624,-38.625,-13.593750953674316,2.9625000953674316
1751619068447972900,11.124972900390626,-38.56875228881836,-14.30625057220459,1.3125
1751619068457973000,11.134972900390625,-38.400001525878906,-14.606250762939453,0
1751619068467972900,11.144972900390625,-38.47500228881836,-14.737500190734863,-1.0125000476837158
1751619068477973000,11.154972900390625,-38.55000305175781,-14.77500057220459,-1.8375000953674316
1751619068487972900,11.164972900390625,-38.71875,-14.925000190734863,-2.2875001430511475
1751619068497973000,11.174972900390625,-38.90625,-14.96250057220459,-2.3625001907348633
1751619068507972900,11.184972900390624,-39.243751525878906,-14.700000762939453,-2.137500047683716
1751619068517973000,11.194972900390624,-39.41250228881836,-14.68125057220459,-1.9875000715255737
1751619068527972900,11.204972900390626,-39.46875,-14.437500953674316,-1.21875
1751619068537973000,11.214972900390626,-39.45000076293945,-14.11875057220459,-0.5625
1751619068547972900,11.224972900390625,-39.375,-14.02500057220459,0.4125000238418579
1751619068557973000,11.234972900390625,-39.16875076293945,-13.762500762939453,1.4250000715255737
1751619068567972900,11.244972900390625,-38.98125076293945,-13.218750953674316,2.6812500953674316
1751619068577973000,11.254972900390625,-38.868751525878906,-12.693750381469727,3.9000000953674316
1751619068587972900,11.264972900390624,-38.51250076293945,-12.075000762939453,5.118750095367432
1751619068597973000,11.274972900390624,-38.681251525878906,-11.268750190734863,6.412500381469727
1751619068607972900,11.284972900390626,-38.681251525878906,-10.443750381469727,7.275000095367432
1751619068617973000,11.294972900390626,-38.71875,-9.881250381469727,8.30625057220459
1751619068627972900,11.304972900390625,-38.70000076293945,-9.28125,9.262500762939453
1751619068637973000,11.314972900390625,-39.20625305175781,-8.700000762939453,10.106250762939453
1751619068647972900,11.324972900390625,-39.45000076293945,-8.568750381469727,10.5
1751619068657973000,11.334972900390625,-39.41250228881836,-8.40000057220459,10.575000762939453
1751619068667972900,11.344972900390625,-39.5625,-8.4375,10.537500381469727
1751619068677973000,11.354972900390624,-39.375,-8.86875057220459,10.162500381469727
1751619068687972900,11.364972900390624,-39.13125228881836,-9.637500762939453,9.862500190734863
1751619068697973000,11.374972900390626,-39,-10.27500057220459,9.168750762939453
1751619068707972900,11.384972900390625,-38.88750076293945,-10.800000190734863,8.34375
1751619068717973000,11.394972900390625,-38.73750305175781,-11.568750381469727,7.293750286102295
1751619068727972900,11.404972900390625,-38.681251525878906,-12.075000762939453,6.375000476837158
1751619068737973000,11.414972900390625,-38.94375228881836,-12.71250057220459,5.175000190734863
1751619068747972900,11.424972900390625,-39.13125228881836,-13.387500762939453,3.937500238418579
1751619068757973000,11.434972900390624,-39.1875,-13.762500762939453,3.1312501430511475
1751619068767972900,11.444972900390624,-39.525001525878906,-13.987500190734863,1.9687501192092896
1751619068777973000,11.454972900390626,-39.75,-14.137500762939453,0.9000000357627869
1751619068787972900,11.464972900390626,-39.76875305175781,-14.456250190734863,-0.09375
1751619068797973000,11.474972900390625,-39.618751525878906,-14.343750953674316,-0.768750011920929
1751619068807972900,11.484972900390625,-39.58125305175781,-14.362500190734863,-1.3875000476837158
1751619068817973000,11.494972900390625,-39.375,-14.268750190734863,-1.5937501192092896
1751619068827972900,11.504972900390625,-39.39375305175781,-14.343750953674316,-1.8562500476837158
1751619068837973000,11.514972900390624,-39.525001525878906,-14.418750762939453,-2.2687501907348633
1751619068847972900,11.524972900390624,-39.30000305175781,-14.49375057220459,-2.1937501430511475
1751619068857973000,11.534972900390626,-39.243751525878906,-14.30625057220459,-2.0250000953674316
1751619068867972900,11.544972900390626,-39.50625228881836,-14.062500953674316,-1.537500023841858
1751619068877973000,11.554972900390625,-39.60000228881836,-14.062500953674316,-1.1437500715255737
1751619068887972900,11.564972900390625,-39.54375076293945,-14.043750762939453,-0.581250011920929
1751619068897973000,11.574972900390625,-39.50625228881836,-13.856250762939453,0.05625000223517418
1751619068907972900,11.584972900390625,-39.31875228881836,-13.481250762939453,1.1812500953674316
1751619068917973000,11.594972900390625,-39.09375,-12.937500953674316,2.512500047683716
1751619068927972900,11.604972900390624,-39.26250076293945,-12.318750381469727,3.8625001907348633
1751619068937973000,11.614972900390624,-39.16875076293945,-11.700000762939453,5.268750190734863
1751619068947972900,11.624972900390626,-39.22500228881836,-10.96875,6.637500286102295
1751619068957973000,11.634972900390625,-39.07500076293945,-10.40625,8.100000381469727
1751619068967972900,11.644972900390625,-39.1875,-9.5625,9.24375057220459
1751619068977973000,11.654972900390625,-39.39375305175781,-8.943750381469727,10.537500381469727
1751619068987972900,11.664972900390625,-39.50625228881836,-8.30625057220459,11.043750762939453
1751619068997973000,11.674972900390625,-39.82500076293945,-8.043750762939453,11.53125
1751619069007972900,11.684972900390624,-39.60000228881836,-7.837500095367432,11.737500190734863
1751619069017973000,11.694972900390624,-39.76875305175781,-8.081250190734863,11.662500381469727
1751619069027972900,11.704972900390626,-39.65625,-8.58750057220459,11.418750762939453
1751619069037973000,11.714972900390626,-39.618751525878906,-9.09375,10.856250762939453
1751619069047972900,11.724972900390625,-39.67500305175781,-9.825000762939453,10.050000190734863
1751619069057973000,11.734972900390625,-39.618751525878906,-10.631250381469727,8.850000381469727
1751619069067972900,11.744972900390625,-39.73125076293945,-11.40000057220459,7.875000476837158
1751619069077973000,11.754972900390625,-39.54375076293945,-12.24375057220459,6.693750381469727
1751619069087972900,11.764972900390624,-39.60000228881836,-12.881250381469727,5.493750095367432
1751619069097973000,11.774972900390624,-39.31875228881836,-13.481250762939453,4.40625
1751619069107972900,11.784972900390626,-39.20625305175781,-13.893750190734863,2.8687500953674316
1751619069117973000,11.794972900390626,-39.46875,-14.231250762939453,1.818750023841858
1751619069127972900,11.804972900390625,-39.60000228881836,-14.437500953674316,0.7875000238418579
1751619069137973000,11.814972900390625,-39.5625,-14.58750057220459,0.01875000074505806
1751619069147972900,11.824972900390625,-39.31875228881836,-14.96250057220459,-0.6187500357627869
1751619069157973000,11.834972900390625,-39.22500228881836,-15.187500953674316,-1.2937500476837158
1751619069167972900,11.844972900390625,-39.26250076293945,-15.15000057220459,-1.5562500953674316
1751619069177973000,11.854972900390624,-39.16875076293945,-15.225000381469727,-1.725000023841858
1751619069187972900,11.864972900390624,-38.90625,-15.225000381469727,-1.5
1751619069197973000,11.874972900390626,-38.70000076293945,-15.037500381469727,-1.350000023841858
1751619069207972900,11.884972900390625,-38.41875076293945,-14.906250953674316,-0.6375000476837158
1751619069217973000,11.894972900390625,-38.32500076293945,-14.550000190734863,0.03750000149011612
1751619069227972900,11.904972900390625,-38.51250076293945,-13.93125057220459,1.0500000715255737
1751619069237973000,11.914972900390625,-38.4375,-13.350000381469727,2.137500047683716
1751619069247972900,11.924972900390625,-38.55000305175781,-12.99375057220459,3.1312501430511475
1751619069257973000,11.934972900390624,-38.8125,-12.281250953674316,4.3125
1751619069267972900,11.944972900390624,-39.35625076293945,-11.512500762939453,5.643750190734863
1751619069277973000,11.954972900390626,-39.22500228881836,-10.875,6.862500190734863
1751619069287972900,11.964972900390626,-39.48750305175781,-10.143750190734863,7.818750381469727
1751619069297973000,11.974972900390625,-39.46875,-9.71250057220459,8.568750381469727
1751619069307972900,11.984972900390625,-39.46875,-9.262500762939453,9.112500190734863
1751619069317973000,11.994972900390625,-39.525001525878906,-8.831250190734863,9.675000190734863
1751619069327972900,12.004972900390625,-39.75,-8.831250190734863,9.90000057220459
1751619069337973000,12.014972900390624,-39.95625305175781,-9.112500190734863,9.768750190734863
1751619069347972900,12.024972900390624,-39.63750076293945,-9.600000381469727,9.206250190734863
1751619069357973000,12.034972900390626,-39.78750228881836,-10.08750057220459,8.68125057220459
1751619069367972900,12.044972900390626,-39.48750305175781,-10.856250762939453,7.818750381469727
1751619069377973000,12.054972900390625,-39.73125076293945,-11.381250381469727,7.331250190734863
1751619069387972900,12.064972900390625,-39.58125305175781,-12.037500381469727,6.056250095367432
1751619069397973000,12.074972900390625,-39.54375076293945,-12.843750953674316,4.837500095367432
1751619069407972900,12.084972900390625,-39.31875228881836,-13.387500762939453,3.6937501430511475
1751619069417973000,12.094972900390625,-39.07500076293945,-13.818750381469727,2.4375
1751619069427972900,12.104972900390624,-39.056251525878906,-14.062500953674316,1.4625000953674316
1751619069437973000,12.114972900390624,-39.03750228881836,-14.343750953674316,0.15000000596046448
1751619069447972900,12.124972900390626,-39.07500076293945,-14.418750762939453,-0.5437500476837158
1751619069457973000,12.134972900390625,-38.70000076293945,-14.625000953674316,-1.6125000715255737
1751619069467972900,12.144972900390625,-38.493751525878906,-14.831250190734863,-2.043750047683716
1751619069477973000,12.154972900390625,-38.51250076293945,-14.943750381469727,-2.34375
1751619069487972900,12.164972900390625,-38.625,-14.850000381469727,-2.4937500953674316
1751619069497973000,12.174972900390625,-38.70000076293945,-14.643750190734863,-2.34375
1751619069507972900,12.184972900390624,-38.71875,-14.606250762939453,-2.1750001907348633
1751619069517973000,12.194972900390624,-38.73750305175781,-14.40000057220459,-1.5750000476837158
1751619069527972900,12.204972900390626,-38.8125,-14.381250381469727,-1.21875
1751619069537973000,12.214972900390626,-38.83125305175781,-14.250000953674316,-0.4687500298023224
1751619069547972900,12.224972900390625,-39.09375,-13.875000953674316,0.6187500357627869
1751619069557973000,12.234972900390625,-39.150001525878906,-13.293750762939453,1.4250000715255737
1751619069567972900,12.244972900390625,-39.16875076293945,-12.881250381469727,2.3812501430511475
1751619069577973000,12.254972900390625,-39.13125228881836,-12.375000953674316,3.6187500953674316
1751619069587972900,12.264972900390624,-39.056251525878906,-11.86875057220459,4.950000286102295
1751619069597973000,12.274972900390624,-39.09375,-11.287500381469727,6.112500190734863
1751619069607972900,12.284972900390626,-39.26250076293945,-10.706250190734863,7.181250095367432
1751619069617973000,12.294972900390626,-39.45000076293945,-10.162500381469727,8.193750381469727
1751619069627972900,12.304972900390625,-39.54375076293945,-9.65625,8.86875057220459
1751619069637973000,12.314972900390625,-39.45000076293945,-9.43125057220459,9.450000762939453
1751619069647972900,12.324972900390625,-39.41250228881836,-9.206250190734863,9.825000762939453
1751619069657973000,12.334972900390625,-39.375,-9.318750381469727,9.637500762939453
1751619069667972900,12.344972900390625,-39.41250228881836,-9.43125057220459,9.450000762939453
1751619069677973000,12.354972900390624,-39.39375305175781,-9.881250381469727,8.71875
1751619069687972900,12.364972900390624,-39.056251525878906,-10.143750190734863,8.100000381469727
1751619069697973000,12.374972900390626,-38.98125076293945,-10.800000190734863,6.937500476837158
1751619069707972900,12.384972900390625,-38.962501525878906,-11.512500762939453,5.550000190734863
1751619069717973000,12.394972900390625,-39.22500228881836,-12.05625057220459,4.275000095367432
1751619069727972900,12.404972900390625,-39.03750228881836,-12.731250762939453,2.8312501907348633
1751619069737973000,12.414972900390625,-38.8125,-13.237500190734863,1.6687500476837158
1751619069747972900,12.424972900390625,-38.75625228881836,-13.74375057220459,0.13125000894069672
1751619069757973000,12.434972900390624,-38.64375305175781,-14.193750381469727,-0.9937500357627869
1751619069767972900,12.444972900390624,-38.90625,-14.662500381469727,-1.9500000476837158
1751619069777973000,12.454972900390626,-39.07500076293945,-14.68125057220459,-2.6625001430511475
1751619069787972900,12.464972900390626,-38.92500305175781,-14.850000381469727,-3.093750238418579
1751619069797973000,12.474972900390625,-38.71875,-14.850000381469727,-3.356250047683716
1751619069807972900,12.484972900390625,-38.79375076293945,-14.77500057220459,-3.3937501907348633
1751619069817973000,12.494972900390625,-39.01875305175781,-14.812500953674316,-3.375000238418579
1751619069827972900,12.504972900390625,-39.26250076293945,-14.756250381469727,-3.1125001907348633
1751619069837973000,12.514972900390624,-39.243751525878906,-14.58750057220459,-2.7375001907348633
1751619069847972900,12.524972900390624,-39.31875228881836,-14.287500381469727,-2.0812501907348633
1751619069857973000,12.534972900390626,-39.28125,-14.137500762939453,-1.537500023841858
1751619069867972900,12.544972900390626,-39.22500228881836,-14.006250381469727,-0.768750011920929
1751619069877973000,12.554972900390625,-39.41250228881836,-13.818750381469727,0.05625000223517418
1751619069887972900,12.564972900390625,-39.50625228881836,-13.687500953674316,1.068750023841858
1751619069897973000,12.574972900390625,-39.58125305175781,-13.237500190734863,2.0812501907348633
1751619069907972900,12.584972900390625,-39.1875,-13.068750381469727,3.187500238418579
1751619069917973000,12.594972900390625,-39.30000305175781,-12.61875057220459,4.350000381469727
1751619069927972900,12.604972900390624,-39.150001525878906,-12.393750190734863,5.212500095367432
1751619069937973000,12.614972900390624,-39.22500228881836,-11.887500762939453,6.281250476837158
1751619069947972900,12.624972900390626,-39.54375076293945,-11.362500190734863,7.162500381469727
1751619069957973000,12.634972900390625,-39.41250228881836,-11.175000190734863,7.818750381469727
1751619069967972900,12.644972900390625,-39.54375076293945,-10.83750057220459,8.268750190734863
1751619069977973000,12.654972900390625,-39.45000076293945,-10.65000057220459,8.606250762939453
1751619069987972900,12.664972900390625,-39.86250305175781,-10.293750762939453,8.831250190734863
1751619069997973000,12.674972900390625,-39.9375,-10.3125,8.887500762939453
1751619070007972900,12.684972900390624,-40.087501525878906,-10.293750762939453,8.662500381469727
1751619070017973000,12.694972900390624,-39.95625305175781,-10.725000381469727,8.25
1751619070027972900,12.704972900390626,-39.712501525878906,-11.21250057220459,7.425000190734863
1751619070037973000,12.714972900390626,-39.712501525878906,-11.550000190734863,6.581250190734863
1751619070047972900,12.724972900390625,-39.41250228881836,-12.075000762939453,5.662500381469727
1751619070057973000,12.734972900390625,-39.30000305175781,-12.637500762939453,4.3125
1751619070067972900,12.744972900390625,-38.90625,-13.143750190734863,3.1312501430511475
1751619070077973000,12.754972900390625,-38.868751525878906,-13.612500190734863,1.725000023841858
1751619070087972900,12.764972900390624,-38.70000076293945,-14.231250762939453,0.375
1751619070097973000,12.774972900390624,-38.71875,-14.268750190734863,-0.6375000476837158
1751619070107972900,12.784972900390626,-38.71875,-14.381250381469727,-1.4250000715255737
1751619070117973000,12.794972900390626,-38.85000228881836,-14.475000381469727,-2.0812501907348633
1751619070127972900,12.804972900390625,-38.962501525878906,-14.40000057220459,-2.793750047683716
1751619070137973000,12.814972900390625,-38.94375228881836,-14.49375057220459,-2.9250001907348633
1751619070147972900,12.824972900390625,-38.92500305175781,-14.418750762939453,-3.093750238418579
1751619070157973000,12.834972900390625,-38.92500305175781,-14.343750953674316,-3.0562500953674316
1751619070177973000,12.854972900390624,-39.150001525878906,-14.49375057220459,-2.53125
1751619070187972900,12.864972900390624,-39.22500228881836,-14.475000381469727,-1.9500000476837158
1751619070197973000,12.874972900390626,-39,-14.418750762939453,-1.3875000476837158
1751619070207972900,12.884972900390625,-39.056251525878906,-14.325000762939453,-0.5062500238418579
1751619070217973000,12.894972900390625,-39.243751525878906,-14.062500953674316,0.26250001788139343
1751619070227972900,12.904972900390625,-39.50625228881836,-13.800000190734863,1.21875
1751619070237973000,12.914972900390625,-39.69375228881836,-13.481250762939453,2.418750047683716
1751619070247972900,12.924972900390625,-39.69375228881836,-12.937500953674316,3.4125001430511475
1751619070257973000,12.934972900390624,-39.46875,-12.356250762939453,4.5
1751619070267972900,12.944972900390624,-39.712501525878906,-11.53125,5.493750095367432
1751619070287972900,12.964972900390626,-39.65625,-10.18125057220459,7.687500476837158
1751619070297973000,12.974972900390625,-39.54375076293945,-9.675000190734863,8.58750057220459
1751619070307972900,12.984972900390625,-39.41250228881836,-9.15000057220459,9.262500762939453
1751619070317973000,12.994972900390625,-39.26250076293945,-8.756250381469727,9.768750190734863
1751619070327972900,13.004972900390625,-39.22500228881836,-8.4375,10.143750190734863
1751619070337973000,13.014972900390624,-39.41250228881836,-8.287500381469727,10.443750381469727
1751619070347972900,13.024972900390624,-39.243751525878906,-8.475000381469727,10.40625
1751619070357973000,13.034972900390626,-39.22500228881836,-8.606250762939453,10.3125
1751619070367972900,13.044972900390626,-39.35625076293945,-8.887500762939453,10.08750057220459
1751619070377973000,13.054972900390625,-39.67500305175781,-9.037500381469727,9.90000057220459
1751619070387972900,13.064972900390625,-39.9375,-9.487500190734863,9.15000057220459
1751619070397973000,13.074972900390625,-39.91875076293945,-9.99375057220459,8.4375
1751619070407972900,13.084972900390625,-39.97500228881836,-10.59375,7.650000095367432
1751619070417973000,13.094972900390625,-39.84375,-11.231250762939453,6.506250381469727
1751619070427972900,13.104972900390624,-39.618751525878906,-11.71875,5.625
1751619070437973000,13.114972900390624,-39.712501525878906,-12.318750381469727,4.5
1751619070447972900,13.124972900390626,-39.69375228881836,-12.843750953674316,3.543750047683716
1751619070457973000,13.134972900390625,-39.337501525878906,-13.36875057220459,2.2125000953674316
1751619070467972900,13.144972900390625,-39.1875,-13.800000190734863,1.6875001192092896
1751619070477973000,13.154972900390625,-39.056251525878906,-14.02500057220459,1.162500023841858
1751619070487972900,13.164972900390625,-38.85000228881836,-14.175000190734863,0.6000000238418579
1751619070497973000,13.174972900390625,-38.88750076293945,-14.231250762939453,0.24375000596046448
1751619070507972900,13.184972900390624,-39.13125228881836,-14.362500190734863,-0.01875000074505806
1751619070517973000,13.194972900390624,-39.11250305175781,-14.343750953674316,-0.30000001192092896
1751619070527972900,13.204972900390626,-38.88750076293945,-14.30625057220459,-0.48750001192092896
1751619070537973000,13.214972900390626,-39.13125228881836,-14.30625057220459,-0.16875000298023224
1751619070547972900,13.224972900390625,-39.056251525878906,-14.175000190734863,0.13125000894069672
1751619070557973000,13.234972900390625,-39.09375,-14.156250953674316,0.24375000596046448
1751619070567972900,13.244972900390625,-39.28125,-13.987500190734863,0.7312500476837158
1751619070577973000,13.254972900390625,-39.28125,-13.781250953674316,1.5
1751619070587972900,13.264972900390624,-39.01875305175781,-13.500000953674316,2.1937501430511475
1751619070597973000,13.274972900390624,-38.90625,-13.200000762939453,2.7750000953674316
1751619070607972900,13.284972900390626,-39.01875305175781,-12.693750381469727,3.562500238418579
1751619070617973000,13.294972900390626,-38.70000076293945,-12.15000057220459,4.575000286102295
1751619070627972900,13.304972900390625,-38.868751525878906,-11.58750057220459,5.662500381469727
