time,seconds_elapsed,z,y,x
1751619057503367200,0.1803671875,9.874580383300781,0.36670008301734924,-0.029910283163189888
1751619057522190600,0.199190673828125,9.893723487854004,0.357128769159317,-0.08255238085985184
1751619057588072700,0.26507275390625,9.89850902557373,0.29012975096702576,-0.18305093050003052
1751619057625719600,0.302719482421875,9.879366874694824,0.26620152592658997,-0.10648060590028763
1751619057644543000,0.32154296875,9.903294563293457,0.3044866919517517,-0.1495514214038849
1751619057663366400,0.340366455078125,9.893723487854004,0.36670008301734924,-0.13040883839130402
1751619057682190000,0.359190185546875,9.908080101013184,0.3858426511287689,-0.020338991656899452
1751619057701013500,0.378013427734375,9.89850902557373,0.3858426511287689,0.017946170642971992
1751619057719837000,0.3968369140625,9.93679428100586,0.36670008301734924,-0.0011964113218709826
1751619057738660400,0.415660400390625,9.908080101013184,0.3284149169921875,-0.058624155819416046
1751619057757483800,0.43448388671875,9.932008743286133,0.3284149169921875,-0.0729810893535614
1751619057776307200,0.45330712890625,9.903294563293457,0.34277185797691345,-0.10648060590028763
1751619057795130600,0.472130615234375,9.88415241241455,0.2997010350227356,-0.0729810893535614
1751619057813954300,0.490954345703125,9.893723487854004,0.2757728099822998,-0.10648060590028763
1751619057832777700,0.50977783203125,9.888937950134277,0.31405797600746155,-0.13040883839130402
1751619057851601200,0.52860107421875,9.893723487854004,0.30927231907844543,-0.13519448041915894
1751619057870424600,0.547424560546875,9.893723487854004,0.3044866919517517,-0.13998012244701385
1751619057889248000,0.566248046875,9.903294563293457,0.2709871530532837,-0.13998012244701385
1751619057908071700,0.58507177734375,9.91286563873291,0.24227328598499298,-0.1782652884721756
1751619057926895000,0.60389501953125,9.917651176452637,0.2709871530532837,-0.19740787148475647
1751619057945718500,0.622718505859375,9.917651176452637,0.26141586899757385,-0.1543370634317398
1751619057964542000,0.6415419921875,9.932008743286133,0.28534409403800964,-0.11126625537872314
1751619057983365400,0.660365478515625,9.93679428100586,0.3188436031341553,-0.10648060590028763
1751619058002188800,0.679188720703125,9.903294563293457,0.3332005441188812,-0.09690931439399719
1751619058021012200,0.69801220703125,9.908080101013184,0.33798620104789734,-0.04426721855998039
1751619058039836000,0.7168359375,9.89850902557373,0.3332005441188812,-0.04426721855998039
1751619058058659300,0.735659423828125,9.89850902557373,0.3332005441188812,-0.06340979784727097
1751619058077482800,0.754482666015625,9.89850902557373,0.33798620104789734,-0.09212367236614227
1751619058096306200,0.77330615234375,9.888937950134277,0.3188436031341553,-0.11605189740657806
1751619058115129600,0.792129638671875,9.903294563293457,0.29012975096702576,-0.09212367236614227
1751619058133953000,0.810953125,9.888937950134277,0.2949153780937195,-0.10169496387243271
1751619058152776700,0.829776611328125,9.917651176452637,0.31405797600746155,-0.11605189740657806
1751619058171600100,0.84860009765625,9.91286563873291,0.31405797600746155,-0.09690931439399719
1751619058190423600,0.867423583984375,9.917651176452637,0.33798620104789734,-0.06340979784727097
1751619058209247000,0.8862470703125,9.917651176452637,0.33798620104789734,-0.058624155819416046
1751619058228070400,0.9050703125,9.946365356445312,0.3044866919517517,-0.1256231814622879
1751619058246894000,0.92389404296875,9.93679428100586,0.26620152592658997,-0.16390834748744965
1751619058265717500,0.942717529296875,9.903294563293457,0.23748764395713806,-0.15912270545959473
1751619058284541000,0.961541015625,9.91286563873291,0.2709871530532837,-0.17347964644432068
1751619058303364400,0.9803642578125,9.903294563293457,0.2997010350227356,-0.14476576447486877
1751619058322187800,0.999187744140625,9.903294563293457,0.3284149169921875,-0.12083754688501358
1751619058341011200,1.01801123046875,9.908080101013184,0.3284149169921875,-0.08255238085985184
1751619058359835000,1.0368349609375,9.908080101013184,0.30927231907844543,-0.08733802288770676
1751619058378658300,1.055658203125,9.903294563293457,0.31405797600746155,-0.09212367236614227
1751619058397481700,1.074481689453125,9.908080101013184,0.3332005441188812,-0.11126625537872314
1751619058416305200,1.09330517578125,9.927223205566406,0.3044866919517517,-0.10169496387243271
1751619058435128600,1.112128662109375,9.917651176452637,0.2997010350227356,-0.08255238085985184
1751619058453952300,1.1309521484375,9.927223205566406,0.2949153780937195,-0.10648060590028763
1751619058472775700,1.149775634765625,9.946365356445312,0.3044866919517517,-0.1256231814622879
1751619058491599000,1.16859912109375,9.93679428100586,0.2949153780937195,-0.12083754688501358
1751619058510422500,1.187422607421875,9.917651176452637,0.29012975096702576,-0.1256231814622879
1751619058529246000,1.206245849609375,9.908080101013184,0.2997010350227356,-0.10648060590028763
1751619058548069400,1.2250693359375,9.908080101013184,0.31405797600746155,-0.1256231814622879
1751619058566893000,1.24389306640625,9.89850902557373,0.2997010350227356,-0.11126625537872314
1751619058585716500,1.262716552734375,9.908080101013184,0.3332005441188812,-0.08733802288770676
1751619058604540000,1.281539794921875,9.89850902557373,0.33798620104789734,-0.09212367236614227
1751619058623363300,1.30036328125,9.908080101013184,0.3332005441188812,-0.08733802288770676
1751619058642186800,1.319186767578125,9.91286563873291,0.3284149169921875,-0.08733802288770676
1751619058661010400,1.338010498046875,9.927223205566406,0.2949153780937195,-0.09212367236614227
1751619058679833900,1.356833740234375,9.927223205566406,0.3044866919517517,-0.08733802288770676
1751619058698657300,1.3756572265625,9.932008743286133,0.30927231907844543,-0.11126625537872314
1751619058717480700,1.394480712890625,9.93679428100586,0.31405797600746155,-0.13040883839130402
1751619058736304000,1.41330419921875,9.927223205566406,0.30927231907844543,-0.13040883839130402
1751619058755127600,1.43212744140625,9.917651176452637,0.2997010350227356,-0.10648060590028763
1751619058773951200,1.450951171875,9.917651176452637,0.2997010350227356,-0.09690931439399719
1751619058792774700,1.469774658203125,9.908080101013184,0.3236292600631714,-0.10169496387243271
1751619058811598000,1.48859814453125,9.89850902557373,0.31405797600746155,-0.11605189740657806
1751619058830421500,1.50742138671875,9.89850902557373,0.3044866919517517,-0.10169496387243271
1751619058849245000,1.526244873046875,9.89850902557373,0.3044866919517517,-0.11605189740657806
1751619058868068600,1.545068603515625,9.908080101013184,0.30927231907844543,-0.11126625537872314
1751619058886892000,1.56389208984375,9.908080101013184,0.2949153780937195,-0.13040883839130402
1751619058905715500,1.582715576171875,9.927223205566406,0.3044866919517517,-0.10648060590028763
1751619058924539000,1.601538818359375,9.927223205566406,0.30927231907844543,-0.11605189740657806
1751619058943362300,1.6203623046875,9.93679428100586,0.3044866919517517,-0.10648060590028763
1751619058962185700,1.639185791015625,9.932008743286133,0.2997010350227356,-0.09212367236614227
1751619058981009400,1.658009521484375,9.932008743286133,0.30927231907844543,-0.10648060590028763
1751619058999832800,1.676832763671875,9.93679428100586,0.3044866919517517,-0.11126625537872314
1751619059018656300,1.69565625,9.917651176452637,0.3236292600631714,-0.11126625537872314
1751619059037479700,1.714479736328125,9.903294563293457,0.3044866919517517,-0.09690931439399719
1751619059056303400,1.733303466796875,9.888937950134277,0.3044866919517517,-0.10169496387243271
1751619059075126800,1.752126708984375,9.893723487854004,0.30927231907844543,-0.13519448041915894
1751619059093950200,1.7709501953125,9.903294563293457,0.2997010350227356,-0.11605189740657806
1751619059112773600,1.789773681640625,9.917651176452637,0.30927231907844543,-0.11605189740657806
1751619059131597000,1.80859716796875,9.927223205566406,0.3188436031341553,-0.10169496387243271
1751619059150420500,1.82742041015625,9.93679428100586,0.31405797600746155,-0.10169496387243271
1751619059169244200,1.846244140625,9.927223205566406,0.31405797600746155,-0.09212367236614227
1751619059188067600,1.865067626953125,9.93679428100586,0.3044866919517517,-0.10169496387243271
1751619059206891000,1.88389111328125,9.960722923278809,0.31405797600746155,-0.10648060590028763
1751619059225714400,1.90271435546875,9.932008743286133,0.3044866919517517,-0.11605189740657806
1751619059244537900,1.921537841796875,9.91286563873291,0.30927231907844543,-0.13519448041915894
1751619059263361500,1.940361572265625,9.89850902557373,0.30927231907844543,-0.11126625537872314
1751619059282185000,1.95918505859375,9.888937950134277,0.2997010350227356,-0.09212367236614227
1751619059301008400,1.97800830078125,9.88415241241455,0.30927231907844543,-0.10169496387243271
1751619059319831800,1.996831787109375,9.89850902557373,0.3236292600631714,-0.10648060590028763
1751619059338655200,2.0156552734375,9.903294563293457,0.31405797600746155,-0.09212367236614227
1751619059357478700,2.034478759765625,9.91286563873291,0.29012975096702576,-0.07776673883199692
1751619059376302300,2.05330224609375,9.93679428100586,0.31405797600746155,-0.09212367236614227
1751619059395125800,2.072125732421875,9.946365356445312,0.30927231907844543,-0.12083754688501358
1751619059413949200,2.09094921875,9.946365356445312,0.30927231907844543,-0.11605189740657806
1751619059432772600,2.109772705078125,9.92243766784668,0.2949153780937195,-0.13040883839130402
1751619059451596000,2.128595947265625,9.93679428100586,0.30927231907844543,-0.10648060590028763
1751619059470419700,2.147419677734375,9.93679428100586,0.3044866919517517,-0.11605189740657806
1751619059489243100,2.1662431640625,9.91286563873291,0.30927231907844543,-0.12083754688501358
1751619059508066600,2.185066650390625,9.91286563873291,0.30927231907844543,-0.10648060590028763
1751619059526890000,2.203889892578125,9.903294563293457,0.30927231907844543,-0.10169496387243271
1751619059545713400,2.22271337890625,9.91286563873291,0.3236292600631714,-0.12083754688501358
1751619059564536800,2.241536865234375,9.927223205566406,0.3332005441188812,-0.10648060590028763
1751619059583360500,2.260360595703125,9.908080101013184,0.3188436031341553,-0.10648060590028763
1751619059602184000,2.279183837890625,9.908080101013184,0.2949153780937195,-0.10648060590028763
1751619059621007400,2.29800732421875,9.93679428100586,0.30927231907844543,-0.11605189740657806
1751619059639830800,2.316830810546875,9.946365356445312,0.31405797600746155,-0.11126625537872314
1751619059658654200,2.335654296875,9.941579818725586,0.3044866919517517,-0.09690931439399719
1751619059677478000,2.354477783203125,9.932008743286133,0.2997010350227356,-0.09212367236614227
1751619059696301300,2.37330126953125,9.932008743286133,0.2997010350227356,-0.11605189740657806
1751619059715124700,2.392124755859375,9.932008743286133,0.3044866919517517,-0.1256231814622879
1751619059733948200,2.4109482421875,9.908080101013184,0.31405797600746155,-0.11126625537872314
1751619059752771600,2.429771484375,9.89850902557373,0.29012975096702576,-0.08733802288770676
1751619059771595000,2.448594970703125,9.893723487854004,0.31405797600746155,-0.12083754688501358
1751619059790418400,2.46741845703125,9.908080101013184,0.2949153780937195,-0.11605189740657806
1751619059809242000,2.4862421875,9.92243766784668,0.3044866919517517,-0.12083754688501358
1751619059828065500,2.5050654296875,9.917651176452637,0.3044866919517517,-0.11126625537872314
1751619059846889000,2.523888916015625,9.927223205566406,0.29012975096702576,-0.10169496387243271
1751619059865712400,2.54271240234375,9.941579818725586,0.30927231907844543,-0.10648060590028763
1751619059884535800,2.561535888671875,9.941579818725586,0.31405797600746155,-0.12083754688501358
1751619059903359500,2.580359375,9.93679428100586,0.29012975096702576,-0.11605189740657806
1751619059922183000,2.599182861328125,9.941579818725586,0.31405797600746155,-0.08733802288770676
1751619059941006300,2.61800634765625,9.941579818725586,0.2949153780937195,-0.10648060590028763
1751619059959829800,2.636829833984375,9.908080101013184,0.3188436031341553,-0.10169496387243271
1751619059978653200,2.655653076171875,9.92243766784668,0.3044866919517517,-0.10648060590028763
1751619059997476600,2.6744765625,9.89850902557373,0.2949153780937195,-0.11126625537872314
1751619060016300300,2.69330029296875,9.893723487854004,0.30927231907844543,-0.13519448041915894
1751619060035123700,2.712123779296875,9.893723487854004,0.3044866919517517,-0.13040883839130402
1751619060053947100,2.730947021484375,9.89850902557373,0.31405797600746155,-0.09212367236614227
1751619060072770600,2.7497705078125,9.927223205566406,0.31405797600746155,-0.08255238085985184
1751619060091594000,2.768593994140625,9.92243766784668,0.3188436031341553,-0.09212367236614227
1751619060110417700,2.787417724609375,9.932008743286133,0.33798620104789734,-0.11605189740657806
1751619060129241000,2.806240966796875,9.941579818725586,0.3044866919517517,-0.0729810893535614
1751619060148064500,2.825064453125,9.917651176452637,0.2997010350227356,-0.07776673883199692
1751619060166888000,2.843887939453125,9.93679428100586,0.29012975096702576,-0.10169496387243271
1751619060185711400,2.86271142578125,9.927223205566406,0.29012975096702576,-0.13040883839130402
1751619060204534800,2.88153466796875,9.908080101013184,0.2997010350227356,-0.11605189740657806
1751619060223358500,2.9003583984375,9.908080101013184,0.29012975096702576,-0.1256231814622879
1751619060242182000,2.919181884765625,9.917651176452637,0.3188436031341553,-0.11126625537872314
1751619060261005300,2.93800537109375,9.908080101013184,0.3188436031341553,-0.09212367236614227
1751619060279828700,2.956828857421875,9.893723487854004,0.3188436031341553,-0.07776673883199692
1751619060298652200,2.975652099609375,9.917651176452637,0.3236292600631714,-0.07776673883199692
1751619060317475600,2.9944755859375,9.917651176452637,0.31405797600746155,-0.10648060590028763
1751619060336299000,3.013299072265625,9.941579818725586,0.2997010350227356,-0.09690931439399719
1751619060355122700,3.032122802734375,9.941579818725586,0.3044866919517517,-0.11605189740657806
1751619060373946000,3.050946044921875,9.932008743286133,0.2805584669113159,-0.1256231814622879
1751619060392769500,3.06976953125,9.941579818725586,0.3044866919517517,-0.11126625537872314
1751619060411593000,3.088593017578125,9.927223205566406,0.3044866919517517,-0.11605189740657806
1751619060430416400,3.10741650390625,9.92243766784668,0.3044866919517517,-0.09212367236614227
1751619060449240000,3.126239990234375,9.92243766784668,0.3332005441188812,-0.08255238085985184
1751619060468063500,3.1450634765625,9.917651176452637,0.31405797600746155,-0.09690931439399719
1751619060486887000,3.163886962890625,9.917651176452637,0.3236292600631714,-0.10648060590028763
1751619060505710300,3.18271044921875,9.903294563293457,0.31405797600746155,-0.12083754688501358
1751619060524533800,3.20153369140625,9.908080101013184,0.3044866919517517,-0.11605189740657806
1751619060543357200,3.220357177734375,9.89850902557373,0.2949153780937195,-0.10648060590028763
1751619060562180600,3.2391806640625,9.93679428100586,0.2949153780937195,-0.11605189740657806
1751619060581004300,3.25800439453125,9.960722923278809,0.29012975096702576,-0.10648060590028763
1751619060599827700,3.27682763671875,9.941579818725586,0.3044866919517517,-0.09212367236614227
1751619060618651100,3.295651123046875,9.941579818725586,0.29012975096702576,-0.10648060590028763
1751619060637474600,3.314474609375,9.946365356445312,0.30927231907844543,-0.09690931439399719
1751619060665709800,3.342709716796875,9.92243766784668,0.2997010350227356,-0.10169496387243271
1751619060684533200,3.361533203125,9.92243766784668,0.30927231907844543,-0.09212367236614227
1751619060703356700,3.380356689453125,9.93679428100586,0.3044866919517517,-0.09690931439399719
1751619060722180000,3.39918017578125,9.941579818725586,0.2997010350227356,-0.11605189740657806
1751619060741003800,3.418003662109375,9.941579818725586,0.29012975096702576,-0.11605189740657806
1751619060759827200,3.4368271484375,9.92243766784668,0.3236292600631714,-0.10169496387243271
1751619060778650600,3.455650634765625,9.908080101013184,0.2949153780937195,-0.06340979784727097
1751619060797474000,3.47447412109375,9.908080101013184,0.28534409403800964,-0.08733802288770676
1751619060816297500,3.49329736328125,9.908080101013184,0.34277185797691345,-0.1256231814622879
1751619060835121000,3.512120849609375,9.927223205566406,0.30927231907844543,-0.11605189740657806
1751619060853944300,3.5309443359375,9.893723487854004,0.31405797600746155,-0.08733802288770676
1751619060872767700,3.549767822265625,9.903294563293457,0.3044866919517517,-0.09212367236614227
1751619060891591400,3.56859130859375,9.92243766784668,0.30927231907844543,-0.13998012244701385
1751619060910414800,3.587414794921875,9.92243766784668,0.3236292600631714,-0.11126625537872314
1751619060929238300,3.60623828125,9.89850902557373,0.3188436031341553,-0.07776673883199692
1751619060948061700,3.625061767578125,9.93679428100586,0.31405797600746155,-0.09212367236614227
1751619060966885000,3.643885009765625,9.955936431884766,0.3188436031341553,-0.11126625537872314
1751619060985708500,3.66270849609375,9.93679428100586,0.3236292600631714,-0.12083754688501358
1751619061004532200,3.6815322265625,9.932008743286133,0.3044866919517517,-0.09212367236614227
1751619061023355600,3.700355712890625,9.93679428100586,0.30927231907844543,-0.09690931439399719
1751619061042179000,3.719178955078125,9.91286563873291,0.31405797600746155,-0.11126625537872314
1751619061061002500,3.73800244140625,9.91286563873291,0.30927231907844543,-0.11605189740657806
1751619061079826000,3.756825927734375,9.903294563293457,0.3044866919517517,-0.09690931439399719
1751619061098649300,3.7756494140625,9.917651176452637,0.2997010350227356,-0.11126625537872314
1751619061117472800,3.79447265625,9.91286563873291,0.3044866919517517,-0.10648060590028763
1751619061136296400,3.81329638671875,9.89850902557373,0.30927231907844543,-0.11605189740657806
1751619061155119900,3.832119873046875,9.91286563873291,0.3188436031341553,-0.10169496387243271
1751619061173943300,3.850943359375,9.932008743286133,0.31405797600746155,-0.08733802288770676
1751619061192766700,3.8697666015625,9.927223205566406,0.3044866919517517,-0.11605189740657806
1751619061211590100,3.888590087890625,9.927223205566406,0.3188436031341553,-0.10648060590028763
1751619061230413600,3.90741357421875,9.927223205566406,0.30927231907844543,-0.11126625537872314
1751619061249237200,3.9262373046875,9.932008743286133,0.3188436031341553,-0.10169496387243271
1751619061268060700,3.945060791015625,9.92243766784668,0.30927231907844543,-0.11605189740657806
1751619061286884000,3.963884033203125,9.927223205566406,0.30927231907844543,-0.11605189740657806
1751619061305707500,3.98270751953125,9.903294563293457,0.3236292600631714,-0.1256231814622879
1751619061343354400,4.020354248046875,9.91286563873291,0.30927231907844543,-0.09212367236614227
1751619061362177800,4.039177734375,9.91286563873291,0.2997010350227356,-0.11605189740657806
1751619061381001500,4.05800146484375,9.917651176452637,0.3044866919517517,-0.1256231814622879
1751619061399825000,4.076824951171875,9.93679428100586,0.30927231907844543,-0.11605189740657806
1751619061418648300,4.0956484375,9.927223205566406,0.31405797600746155,-0.09212367236614227
1751619061437471700,4.1144716796875,9.941579818725586,0.31405797600746155,-0.10169496387243271
1751619061456295200,4.133295166015625,9.92243766784668,0.2949153780937195,-0.10169496387243271
1751619061475118600,4.15211865234375,9.917651176452637,0.30927231907844543,-0.11126625537872314
1751619061493942000,4.17094189453125,9.946365356445312,0.3044866919517517,-0.11126625537872314
1751619061512765700,4.189765625,9.917651176452637,0.3044866919517517,-0.11126625537872314
1751619061531589000,4.208589111328125,9.917651176452637,0.31405797600746155,-0.11126625537872314
1751619061550412500,4.22741259765625,9.908080101013184,0.3236292600631714,-0.12083754688501358
1751619061569236000,4.246236083984375,9.91286563873291,0.3044866919517517,-0.09212367236614227
1751619061588059400,4.265059326171875,9.91286563873291,0.30927231907844543,-0.10648060590028763
1751619061606882800,4.2838828125,9.903294563293457,0.3044866919517517,-0.11605189740657806
1751619061625706200,4.302706298828125,9.908080101013184,0.3332005441188812,-0.11126625537872314
1751619061644530000,4.321530029296875,9.927223205566406,0.2997010350227356,-0.1256231814622879
1751619061663353300,4.340353271484375,9.927223205566406,0.2949153780937195,-0.09690931439399719
1751619061682176800,4.3591767578125,9.946365356445312,0.3236292600631714,-0.10648060590028763
1751619061701000200,4.378000244140625,9.93679428100586,0.30927231907844543,-0.11126625537872314
1751619061719823600,4.39682373046875,9.932008743286133,0.3284149169921875,-0.12083754688501358
1751619061738647000,4.41564697265625,9.927223205566406,0.3188436031341553,-0.10648060590028763
1751619061757470500,4.434470458984375,9.91286563873291,0.3236292600631714,-0.10169496387243271
1751619061776294000,4.4532939453125,9.91286563873291,0.30927231907844543,-0.13040883839130402
1751619061795117600,4.47211767578125,9.917651176452637,0.30927231907844543,-0.1256231814622879
1751619061813941000,4.49094091796875,9.91286563873291,0.3284149169921875,-0.10648060590028763
1751619061832764400,4.509764404296875,9.903294563293457,0.30927231907844543,-0.09212367236614227
1751619061851587800,4.528587890625,9.917651176452637,0.3044866919517517,-0.10169496387243271
1751619061870411300,4.547411376953125,9.91286563873291,0.3236292600631714,-0.08255238085985184
1751619061889234700,4.566234619140625,9.92243766784668,0.2949153780937195,-0.09212367236614227
1751619061908058000,4.58505810546875,9.941579818725586,0.3044866919517517,-0.12083754688501358
1751619061926881500,4.603881591796875,9.927223205566406,0.2949153780937195,-0.13519448041915894
1751619061945705200,4.622705322265625,9.970293998718262,0.3044866919517517,-0.09690931439399719
1751619061964528600,4.641528564453125,9.93679428100586,0.29012975096702576,-0.10648060590028763
1751619061983352000,4.66035205078125,9.917651176452637,0.3284149169921875,-0.11605189740657806
1751619062002175500,4.679175537109375,9.93679428100586,0.3284149169921875,-0.11126625537872314
1751619062020999000,4.6979990234375,9.927223205566406,0.30927231907844543,-0.10169496387243271
1751619062039822300,4.716822265625,9.908080101013184,0.3284149169921875,-0.10169496387243271
1751619062058645800,4.735645751953125,9.903294563293457,0.30927231907844543,-0.09690931439399719
1751619062077469200,4.75446923828125,9.903294563293457,0.30927231907844543,-0.12083754688501358
1751619062096292900,4.77329296875,9.92243766784668,0.3044866919517517,-0.11605189740657806
1751619062115116300,4.7921162109375,9.927223205566406,0.2997010350227356,-0.11126625537872314
1751619062133939700,4.810939697265625,9.92243766784668,0.3044866919517517,-0.11126625537872314
1751619062152763100,4.82976318359375,9.932008743286133,0.31405797600746155,-0.11126625537872314
1751619062171586600,4.848586669921875,9.93679428100586,0.3284149169921875,-0.09212367236614227
1751619062190410000,4.867409912109375,9.932008743286133,0.3188436031341553,-0.09212367236614227
1751619062209233400,4.8862333984375,9.92243766784668,0.33798620104789734,-0.08733802288770676
1751619062228056800,4.905056884765625,9.932008743286133,0.3236292600631714,-0.10169496387243271
1751619062246880300,4.92388037109375,9.917651176452637,0.3044866919517517,-0.09212367236614227
1751619062265704000,4.942703857421875,9.917651176452637,0.3044866919517517,-0.11605189740657806
1751619062284527400,4.96152734375,9.908080101013184,0.28534409403800964,-0.13519448041915894
1751619062303350800,4.980350830078125,9.903294563293457,0.2949153780937195,-0.1256231814622879
1751619062322174200,4.99917431640625,9.91286563873291,0.30927231907844543,-0.11605189740657806
1751619062340997600,5.01799755859375,9.91286563873291,0.29012975096702576,-0.09212367236614227
1751619062359821000,5.036821044921875,9.92243766784668,0.3236292600631714,-0.09212367236614227
1751619062378644500,5.05564453125,9.932008743286133,0.31405797600746155,-0.08733802288770676
1751619062397468000,5.074468017578125,9.93679428100586,0.34277185797691345,-0.08733802288770676
1751619062416291600,5.09329150390625,9.93679428100586,0.3236292600631714,-0.10169496387243271
1751619062435115000,5.112114990234375,9.951150894165039,0.3044866919517517,-0.10648060590028763
1751619062453938400,5.1309384765625,9.869794845581055,0.29012975096702576,-0.11126625537872314
1751619062472761900,5.149761962890625,9.989436149597168,0.36191442608833313,-0.020338991656899452
1751619062491585300,5.168585205078125,9.865009307861328,0.28534409403800964,-0.11605189740657806
1751619062510408700,5.18740869140625,9.865009307861328,0.2470589429140091,-0.12083754688501358
1751619062529232100,5.206232177734375,9.91286563873291,0.251844584941864,-0.18783657252788544
1751619062548055800,5.225055908203125,9.93679428100586,0.2949153780937195,-0.18783657252788544
1751619062566879200,5.243879150390625,9.946365356445312,0.31405797600746155,-0.11126625537872314
1751619062585702700,5.26270263671875,9.89850902557373,0.30927231907844543,-0.04426721855998039
1751619062604526000,5.281526123046875,9.841081619262695,0.33798620104789734,-0.039481572806835175
1751619062623349500,5.300349609375,9.888937950134277,0.3523431420326233,-0.06819544732570648
1751619062642173000,5.3191728515625,9.93679428100586,0.3284149169921875,-0.0729810893535614
1751619062660996400,5.337996337890625,9.960722923278809,0.31405797600746155,-0.09690931439399719
1751619062679819800,5.35681982421875,9.941579818725586,0.2805584669113159,-0.10648060590028763
1751619062698643200,5.375643310546875,9.917651176452637,0.2566302418708801,-0.13519448041915894
1751619062717466600,5.394466552734375,9.91286563873291,0.2805584669113159,-0.16869398951530457
1751619062736290000,5.4132900390625,9.908080101013184,0.26620152592658997,-0.11605189740657806
1751619062755113700,5.43211376953125,9.893723487854004,0.29012975096702576,-0.11126625537872314
1751619062773937200,5.450937255859375,9.903294563293457,0.3236292600631714,-0.12083754688501358
1751619062792760600,5.469760498046875,9.917651176452637,0.3284149169921875,-0.0729810893535614
1751619062811584000,5.488583984375,9.927223205566406,0.3284149169921875,-0.06819544732570648
1751619062830407400,5.507407470703125,9.927223205566406,0.3284149169921875,-0.07776673883199692
1751619062849230800,5.52623095703125,9.91286563873291,0.3236292600631714,-0.11126625537872314
1751619062868054300,5.54505419921875,9.917651176452637,0.2949153780937195,-0.13040883839130402
1751619062886877700,5.563877685546875,9.946365356445312,0.26141586899757385,-0.09690931439399719
1751619062905701400,5.582701416015625,9.93679428100586,0.2709871530532837,-0.10169496387243271
1751619062924524800,5.60152490234375,9.946365356445312,0.3188436031341553,-0.11126625537872314
1751619062943348200,5.62034814453125,9.932008743286133,0.33798620104789734,-0.09690931439399719
1751619062962171600,5.639171630859375,9.932008743286133,0.3284149169921875,-0.08255238085985184
1751619062980995000,5.6579951171875,9.92243766784668,0.3284149169921875,-0.09212367236614227
1751619062999818500,5.676818603515625,9.917651176452637,0.31405797600746155,-0.08255238085985184
1751619063018642000,5.695641845703125,9.917651176452637,0.3044866919517517,-0.10169496387243271
1751619063037465300,5.71446533203125,9.917651176452637,0.28534409403800964,-0.13998012244701385
1751619063056288800,5.733288818359375,9.91286563873291,0.28534409403800964,-0.11126625537872314
1751619063075112200,5.7521123046875,9.92243766784668,0.2997010350227356,-0.13519448041915894
1751619063093935900,5.770935791015625,9.917651176452637,0.2949153780937195,-0.13519448041915894
1751619063112759300,5.78975927734375,9.93679428100586,0.31405797600746155,-0.10169496387243271
1751619063131582700,5.808582763671875,9.951150894165039,0.3236292600631714,-0.07776673883199692
1751619063150406100,5.82740625,10.042078018188477,0.3236292600631714,-0.058624155819416046
1751619063169229600,5.8462294921875,9.908080101013184,0.29012975096702576,-0.0729810893535614
1751619063188053000,5.865052978515625,9.874580383300781,0.3044866919517517,-0.10648060590028763
1751619063206876400,5.88387646484375,9.908080101013184,0.29012975096702576,-0.1256231814622879
1751619063225699800,5.902699951171875,9.92243766784668,0.28534409403800964,-0.13040883839130402
1751619063244523300,5.921523193359375,9.93679428100586,0.28534409403800964,-0.1256231814622879
1751619063263347000,5.940346923828125,9.932008743286133,0.30927231907844543,-0.09690931439399719
1751619063282170400,5.95917041015625,9.89850902557373,0.3236292600631714,-0.08733802288770676
1751619063300993800,5.977993896484375,9.91286563873291,0.30927231907844543,-0.08733802288770676
1751619063319817200,5.996817138671875,9.91286563873291,0.2997010350227356,-0.06340979784727097
1751619063338640600,6.015640625,9.903294563293457,0.31405797600746155,-0.07776673883199692
1751619063357464000,6.034464111328125,9.917651176452637,0.3044866919517517,-0.06819544732570648
1751619063376287500,6.05328759765625,9.908080101013184,0.3044866919517517,0.05623133108019829
1751619063395111000,6.07211083984375,9.879366874694824,0.31405797600746155,-0.1782652884721756
1751619063413934300,6.090934326171875,9.855438232421875,0.2757728099822998,-0.26440688967704773
1751619063432757800,6.1097578125,9.927223205566406,0.3044866919517517,-0.1495514214038849
1751619063451581200,6.128581298828125,9.908080101013184,1.2185449600219727,-0.9726824164390564
1751619063470404900,6.14740478515625,9.908080101013184,1.5104693174362183,-1.9680966138839722
1751619063489228300,6.166228271484375,9.93679428100586,1.0271191596984863,-2.1643080711364746
1751619063508051700,6.1850517578125,9.927223205566406,-0.19322042167186737,-0.2309073805809021
1751619063526875100,6.203875244140625,10.018150329589844,-0.6430711150169373,1.3148560523986816
1751619063545698600,6.222698486328125,9.941579818725586,-0.96370929479599,2.104487419128418
1751619063564522000,6.24152197265625,9.932008743286133,-0.025722842663526535,1.01814603805542
1751619063583345400,6.260345458984375,9.93679428100586,0.12263216078281403,0.09930214285850525
1751619063602168800,6.2791689453125,9.927223205566406,-0.34636107087135315,0.8602197170257568
1751619063620992300,6.2979921875,9.951150894165039,-0.1740778535604477,1.2478569746017456
1751619063639815700,6.316815673828125,9.93679428100586,-0.45643091201782227,1.7120646238327026
1751619063658639400,6.335639404296875,9.970293998718262,-0.7818548083305359,1.8891334533691406
1751619063677462800,6.354462890625,9.92243766784668,-0.16929219663143158,1.6977076530456543
1751619063696286200,6.3732861328125,9.91286563873291,0.30927231907844543,1.1042876243591309
1751619063715109600,6.392109619140625,9.908080101013184,0.6873382925987244,-0.9535398483276367
1751619063733933000,6.41093310546875,9.93679428100586,1.2233306169509888,-3.001796007156372
1751619063752756500,6.429756591796875,9.979865074157715,1.079761266708374,-3.8392839431762695
1751619063771580000,6.448579833984375,9.970293998718262,0.4289134442806244,-2.9012975692749023
1751619063790403300,6.4674033203125,9.831509590148926,1.654038667678833,-1.1593226194381714
1751619063809226800,6.486226806640625,9.89850902557373,2.084746837615967,-2.417947292327881
1751619063828050200,6.50505029296875,10.032506942749023,0.4863412082195282,-2.0303099155426025
1751619063846873900,6.523873779296875,9.946365356445312,-0.8679963946342468,-0.7621139883995056
1751619063865697300,6.542697265625,9.951150894165039,-1.2939188480377197,0.008374879136681557
1751619063884520700,6.561520751953125,9.960722923278809,-0.6861419081687927,0.3242274820804596
1751619063903344000,6.58034423828125,9.908080101013184,0.026919255033135414,0.8075776696205139
1751619063922167600,6.59916748046875,9.946365356445312,-0.4181457459926605,1.1234302520751953
1751619063940991000,6.617990966796875,9.92243766784668,-0.31764721870422363,1.1617153882980347
1751619063959814400,6.636814453125,9.91286563873291,0.012562318705022335,1.0085747241973877
1751619063978637800,6.655637939453125,9.917651176452637,0.39541393518447876,-0.13519448041915894
1751619063997461200,6.674461181640625,9.927223205566406,-1.2747762203216553,1.5828521251678467
1751619064016284700,6.69328466796875,10.003793716430664,-0.50907301902771,1.7072789669036865
1751619064035108000,6.712108154296875,10.075577735900879,-1.3848460912704468,2.204986095428467
1751619064053931800,6.730931884765625,9.836296081542969,-0.8919246196746826,2.5878376960754395
1751619064072755200,6.749755126953125,9.92243766784668,-0.5234299302101135,0.9607182741165161
1751619064091578600,6.76857861328125,9.994221687316895,0.07477571070194244,-1.2263215780258179
1751619064110402000,6.787402099609375,9.960722923278809,1.170688509941101,-3.0448668003082275
1751619064129225500,6.8062255859375,9.975079536437988,2.05603289604187,-3.9876389503479004
1751619064148049000,6.825048828125,9.869794845581055,2.237887382507324,-3.1788649559020996
1751619064166872300,6.843872314453125,10.027721405029297,4.386641979217529,-4.628915309906006
1751619064185695700,6.86269580078125,10.204790115356445,4.47278356552124,-7.485945701599121
1751619064204519200,6.881519287109375,10.094720840454102,0.36670008301734924,-5.375475883483887
1751619064223342600,6.900342529296875,8.57767105102539,-2.940180778503418,-1.4991034269332886
1751619064242166000,6.919166015625,9.597013473510742,-3.79681134223938,1.2191431522369385
1751619064260989400,6.937989501953125,10.635498046875,-2.231905221939087,2.7553353309631348
1751619064279813000,6.956813232421875,9.726225852966309,-2.9210381507873535,4.6648077964782715
1751619064298636500,6.975636474609375,9.89850902557373,-2.8827531337738037,5.937789440155029
1751619064317460000,6.9944599609375,10.200004577636719,-0.39421752095222473,0.6352944374084473
1751619064336283400,7.013283447265625,10.03729248046875,-0.18364913761615753,0.14715859293937683
1751619064355106800,7.03210693359375,9.960722923278809,-0.7100701332092285,0.5874379873275757
1751619064373930200,7.05093017578125,9.888937950134277,-1.0354939699172974,1.9800606966018677
1751619064392753700,7.069753662109375,9.917651176452637,-1.1838489770889282,1.7934205532073975
1751619064411577000,7.0885771484375,9.711869239807129,-1.1886346340179443,1.8269200325012207
1751619064430400500,7.107400390625,10.013364791870117,-1.41834557056427,1.200000524520874
1751619064449224000,7.126223876953125,9.91286563873291,-0.9828519225120544,0.43908295035362244
1751619064468047400,7.14504736328125,9.92243766784668,-0.030508488416671753,0.3768695592880249
1751619064486870800,7.163870849609375,9.711869239807129,0.9840483069419861,-1.8532410860061646
1751619064505694200,7.182694091796875,9.855438232421875,2.6398816108703613,-4.5236310958862305
1751619064524518000,7.201517822265625,9.960722923278809,3.597010612487793,-5.227120876312256
1751619064543341300,7.22034130859375,9.908080101013184,0.649053156375885,-0.5419743061065674
1751619064562164700,7.239164794921875,9.951150894165039,1.9938194751739502,-1.9202401638031006
1751619064580988200,7.25798828125,9.946365356445312,2.6877379417419434,-4.849055290222168
1751619064599811600,7.2768115234375,9.941579818725586,2.084746837615967,-6.07896614074707
1751619064618635000,7.295635009765625,9.654440879821777,-0.2315055876970291,-4.4374895095825195
1751619064637458400,7.31445849609375,10.0612211227417,-2.475973129272461,-1.1497513055801392
1751619064656281900,7.33328173828125,10.04686450958252,-2.8636105060577393,2.5160529613494873
1751619064675105300,7.352105224609375,9.92243766784668,-2.169692039489746,4.425525665283203
1751619064693928700,7.3709287109375,9.888937950134277,-2.6913273334503174,5.578866004943848
1751619064712752000,7.389752197265625,9.855438232421875,-0.2315055876970291,2.3437697887420654
1751619064731575800,7.408575927734375,9.92243766784668,-0.3415754437446594,0.5874379873275757
1751619064750399200,7.427399169921875,9.917651176452637,-1.0785647630691528,1.6259230375289917
1751619064769222700,7.44622265625,9.893723487854004,-1.5571293830871582,3.4301111698150635
1751619064788046000,7.465046142578125,9.955936431884766,-2.2606191635131836,5.401797294616699
1751619064806869500,7.483869384765625,10.185647964477539,-2.7966115474700928,5.507081508636475
1751619064825693000,7.50269287109375,9.865009307861328,-2.184048891067505,2.6117658615112305
1751619064844516400,7.521516357421875,9.841081619262695,0.5581258535385132,-4.676771640777588
1751619064863339800,7.54033984375,10.190433502197266,2.7116663455963135,-11.984452247619629
1751619064882163200,7.5591630859375,9.989436149597168,2.2187447547912598,-9.409774780273438
1751619064900986600,7.577986572265625,9.903294563293457,3.142374277114868,-3.4995031356811523
1751619064919810000,7.59681005859375,9.778867721557617,3.6017963886260986,-4.231706619262695
1751619064938633500,7.615633544921875,9.941579818725586,1.6301103830337524,-4.150351047515869
1751619064957457000,7.634456787109375,10.02293586730957,-0.4468596279621124,-3.0113673210144043
1751619064976280600,7.653280517578125,9.501300811767578,-2.51425838470459,-0.19262222945690155
1751619064995104000,7.67210400390625,9.78843879699707,-3.6819558143615723,2.17627215385437
1751619065013927400,7.690927490234375,9.91286563873291,-4.203591346740723,4.143172264099121
1751619065032750800,7.709750732421875,9.89850902557373,-3.930809497833252,5.789434432983398
1751619065051574300,7.72857421875,9.946365356445312,-1.0307083129882812,2.420340061187744
1751619065070397700,7.747397705078125,9.951150894165039,-1.332203984260559,2.4777679443359375
1751619065089221000,7.76622119140625,9.865009307861328,-1.7533408403396606,3.6885361671447754
1751619065108044500,7.78504443359375,9.903294563293457,-1.9782661199569702,4.334598064422607
1751619065126868000,7.803867919921875,9.77408218383789,-2.002194404602051,3.1716864109039307
1751619065145691400,7.82269140625,9.855438232421875,-2.696112871170044,0.8506484627723694
1751619065164514800,7.841514892578125,9.836296081542969,-2.0213370323181152,-2.26959228515625
1751619065183338200,7.860338134765625,10.104291915893555,-0.494716078042984,-4.762913703918457
1751619065202161700,7.87916162109375,10.02293586730957,3.0275187492370605,-8.218149185180664
1751619065220985000,7.897985107421875,9.994221687316895,7.138388156890869,-10.338190078735352
1751619065239808800,7.916808837890625,9.81236743927002,4.420141696929932,-7.753942012786865
1751619065258632200,7.935632080078125,9.893723487854004,1.8406788110733032,-5.992824077606201
1751619065277455600,7.95445556640625,10.04686450958252,-0.5712863802909851,-3.236292600631714
1751619065296279000,7.973279052734375,10.156933784484863,-2.026122570037842,-1.3124631643295288
1751619065315102500,7.9921025390625,9.932008743286133,-3.0215368270874023,1.8939191102981567
1751619065352749300,8.029749267578126,9.946365356445312,-3.7489547729492188,5.36351203918457
1751619065371572700,8.04857275390625,9.92243766784668,-1.1312068700790405,3.7363924980163574
1751619065390396200,8.067396240234375,9.89850902557373,0.6681957244873047,0.5300102233886719
1751619065409219600,8.086219482421875,9.92243766784668,-0.786640465259552,1.1425727605819702
1751619065428043000,8.10504296875,9.93679428100586,-2.6434707641601562,3.6502509117126465
1751619065446866400,8.123866455078126,9.960722923278809,-3.1076784133911133,5.267798900604248
1751619065465689900,8.14268994140625,10.04686450958252,-2.3706889152526855,5.172086238861084
1751619065484513300,8.16151318359375,9.793225288391113,-1.5332010984420776,2.090130567550659
1751619065503336700,8.180336669921875,10.338788032531738,-0.3655036687850952,-3.3607194423675537
1751619065522160400,8.199160400390625,10.276575088500977,-0.054436713457107544,-6.792026996612549
1751619065540983800,8.21798388671875,10.03729248046875,2.7355945110321045,-10.228120803833008
1751619065559807200,8.23680712890625,9.979865074157715,4.664209365844727,-6.945167541503906
1751619065578630700,8.255630615234375,9.970293998718262,5.152345180511475,-8.275577545166016
1751619065597454000,8.2744541015625,9.917651176452637,2.898306369781494,-7.361518859863281
1751619065616277500,8.293277587890625,9.735796928405762,-0.2027917206287384,-2.6668007373809814
1751619065635101000,8.312100830078125,9.994221687316895,-3.332603693008423,0.4342973232269287
1751619065653924400,8.33092431640625,9.860223770141602,-3.7250266075134277,2.6835505962371826
1751619065672747800,8.349747802734376,9.869794845581055,-4.308875560760498,4.698307037353516
1751619065691571200,8.3685712890625,9.754940032958984,-4.672584533691406,5.904289722442627
1751619065710394600,8.38739453125,9.951150894165039,-3.0693931579589844,4.626522541046143
1751619065729218000,8.406218017578125,9.941579818725586,-3.1794631481170654,2.7984061241149902
1751619065748041500,8.42504150390625,10.16171932220459,-3.638885021209717,4.1383867263793945
1751619065766865000,8.443864990234376,10.013364791870117,-2.6865415573120117,4.195814609527588
1751619065785688300,8.462688232421876,9.951150894165039,-2.3132612705230713,2.6739792823791504
1751619065804512000,8.481511962890625,9.999007225036621,-1.9830517768859863,1.2239288091659546
1751619065823335400,8.50033544921875,9.711869239807129,-1.0977073907852173,-2.1403799057006836
1751619065842158800,8.519158935546875,10.080363273620605,0.13220344483852386,-5.078765869140625
1751619065860982300,8.537982177734374,10.042078018188477,2.8552355766296387,-7.361518859863281
1751619065879805700,8.5568056640625,9.946365356445312,5.721837043762207,-10.046265602111816
1751619065898629000,8.575629150390625,9.802796363830566,3.1040892601013184,-5.265406131744385
1751619065917452500,8.59445263671875,9.946365356445312,2.3096721172332764,-4.858626365661621
1751619065936276000,8.61327587890625,9.932008743286133,1.6588243246078491,-3.7196428775787354
1751619065955099400,8.632099365234374,9.932008743286133,1.4434702396392822,-3.159722328186035
1751619065973922800,8.6509228515625,9.999007225036621,0.0029910283628851175,-1.4368900060653687
1751619065992746200,8.669746337890626,9.903294563293457,-2.4568307399749756,1.817348837852478
1751619066011569700,8.688569580078125,10.300503730773926,-4.026522159576416,3.4540395736694336
1751619066030393000,8.70739306640625,9.831509590148926,-2.624328136444092,2.5782663822174072
1751619066049216500,8.726216552734375,9.951150894165039,-0.877567708492279,1.0037890672683716
1751619066068040000,8.7450400390625,9.92243766784668,-0.7914260625839233,0.8506484627723694
1751619066086863400,8.76386328125,9.93679428100586,-1.0546365976333618,1.534995675086975
1751619066105686800,8.782686767578125,9.888937950134277,-0.8632107973098755,2.8797619342803955
1751619066124510200,8.80151025390625,9.908080101013184,0.28534409403800964,-0.02512463741004467
1751619066143333600,8.820333740234375,9.91286563873291,-0.753140926361084,1.195214867591858
1751619066162157300,8.8391572265625,9.932008743286133,-1.609771490097046,3.985246181488037
1751619066180980700,8.857980712890624,9.88415241241455,-1.217348575592041,4.774877548217773
1751619066199804200,8.87680419921875,9.970293998718262,-1.4901303052902222,3.0185458660125732
1751619066218627600,8.895627685546875,9.769296646118164,-1.705484390258789,0.7262216806411743
1751619066237451000,8.914450927734375,10.03729248046875,0.7926225066184998,-3.245863914489746
1751619066256274400,8.9332744140625,10.070792198181152,2.874378204345703,-7.093522548675537
1751619066275097900,8.952097900390624,10.027721405029297,1.7353945970535278,-6.332605361938477
1751619066293921300,8.97092138671875,9.932008743286133,0.3236292600631714,-0.13519448041915894
1751619066312744700,8.98974462890625,9.874580383300781,1.7736797332763672,-1.1880364418029785
1751619066331568000,9.008568115234375,9.917651176452637,3.6113674640655518,-5.136193752288818
1751619066350391600,9.0273916015625,9.841081619262695,2.9557342529296875,-6.131608009338379
1751619066369215000,9.046215087890625,9.946365356445312,0.5533402562141418,-5.040481090545654
1751619066388038400,9.065038330078124,9.91286563873291,-1.1168500185012817,-3.451646566390991
1751619066406861800,9.08386181640625,9.946365356445312,-2.3084757328033447,-1.3794622421264648
1751619066425685200,9.102685302734375,9.984650611877441,-3.792025566101074,1.4919248819351196
1751619066444508700,9.1215087890625,10.128219604492188,-4.624728202819824,4.722235679626465
1751619066463332000,9.14033203125,9.960722923278809,-4.390231132507324,7.947760581970215
1751619066482155500,9.159155517578125,9.917651176452637,-2.1170499324798584,6.526423931121826
1751619066500979000,9.17797900390625,9.91286563873291,-1.9926230907440186,4.995017051696777
1751619066519802600,9.196802734375,9.831509590148926,-1.9926230907440186,4.348955154418945
1751619066538626000,9.2156259765625,10.099506378173828,-2.45204496383667,2.6356940269470215
1751619066557449500,9.234449462890625,10.223933219909668,-3.2368907928466797,1.6498512029647827
1751619066576273000,9.25327294921875,10.128219604492188,-4.318446636199951,0.5204389095306396
1751619066595096300,9.272096435546874,9.850652694702148,-3.930809497833252,-1.867598056793213
1751619066613919700,9.290919677734376,9.941579818725586,-1.882553219795227,-4.394418716430664
1751619066632743200,9.3097431640625,9.970293998718262,0.5437689423561096,-5.758327484130859
1751619066651566600,9.328566650390625,9.845867156982422,3.6400814056396484,-7.672585964202881
1751619066670390000,9.34739013671875,9.932008743286133,5.362913608551025,-8.476573944091797
1751619066689213400,9.36621337890625,10.051650047302246,4.0803608894348145,-6.849454879760742
1751619066708036900,9.385036865234374,10.051650047302246,4.420141696929932,-10.137192726135254
1751619066726860300,9.4038603515625,9.93679428100586,1.7353945970535278,-8.467002868652344
1751619066745683700,9.42268359375,9.845867156982422,-1.944766640663147,-2.1882362365722656
1751619066764507100,9.441507080078125,10.099506378173828,-4.9022955894470215,2.142772674560547
1751619066783330600,9.46033056640625,10.085148811340332,-5.7062835693359375,5.636293888092041
1751619066802154000,9.479154052734375,10.075577735900879,-5.356931686401367,7.607979774475098
1751619066820977400,9.497977294921874,9.855438232421875,-3.7489547729492188,7.4261250495910645
1751619066839800800,9.51680078125,9.93679428100586,-1.6719847917556763,2.200200319290161
1751619066858624300,9.535624267578125,9.932008743286133,-2.083550214767456,3.0233314037323
1751619066877447700,9.55444775390625,9.855438232421875,-3.9355950355529785,4.8227338790893555
1751619066896271000,9.57327099609375,10.13300609588623,-4.9022955894470215,5.923432350158691
1751619066915094500,9.592094482421874,9.960722923278809,-5.175076961517334,5.004588603973389
1751619066933918000,9.61091796875,9.951150894165039,-3.4474592208862305,0.6065805554389954
1751619066952741600,9.62974169921875,10.094720840454102,-0.2315055876970291,-7.643871784210205
1751619066971565000,9.64856494140625,10.070792198181152,4.496711730957031,-13.544572830200195
1751619066990388500,9.667388427734375,10.142577171325684,5.673980712890625,-14.525629997253418
1751619067009212000,9.6862119140625,9.759725570678711,4.334000110626221,-9.347561836242676
1751619067028035300,9.705035400390624,10.128219604492188,3.022733211517334,-9.476774215698242
1751619067046858800,9.723858642578126,10.013364791870117,0.6346961855888367,-6.189035892486572
1751619067065682200,9.74268212890625,10.00857925415039,-1.8969101905822754,-0.7286145091056824
1751619067084505600,9.761505615234375,9.941579818725586,-4.150949001312256,2.0279171466827393
1751619067103329000,9.7803291015625,10.195219039916992,-4.4859442710876465,3.8321053981781006
1751619067122152400,9.79915234375,9.927223205566406,-4.6199421882629395,4.588237285614014
1751619067140975900,9.817975830078124,10.003793716430664,-4.6199421882629395,4.999803066253662
1751619067159799300,9.83679931640625,9.869794845581055,-2.9114668369293213,5.44008207321167
1751619067178622700,9.855622802734375,9.946365356445312,-1.906481385231018,2.8414769172668457
1751619067197446100,9.874446044921875,9.91286563873291,-2.0691933631896973,4.133601188659668
1751619067216269600,9.89326953125,9.994221687316895,-2.2893331050872803,3.970889091491699
1751619067235093000,9.912093017578124,10.16171932220459,-2.2366909980773926,2.6021945476531982
1751619067253916400,9.93091650390625,9.888937950134277,-2.2031915187835693,1.5876377820968628
1751619067272739800,9.94973974609375,9.64965534210205,0.735194742679596,-1.628315806388855
1751619067291563300,9.968563232421875,9.88415241241455,3.37687087059021,-7.021738052368164
1751619067310386700,9.98738671875,10.04686450958252,4.826921463012695,-11.9461669921875
1751619067329210000,10.006210205078125,9.927223205566406,2.9030921459198,-7.706085205078125
1751619067348033500,10.025033447265624,9.917651176452637,2.582453727722168,-8.299505233764648
1751619067366857200,10.043857177734376,9.860223770141602,0.1944168359041214,-5.442475318908691
1751619067385680600,10.0626806640625,10.099506378173828,-1.0450652837753296,-2.197807550430298
1751619067404504000,10.081504150390625,9.81236743927002,-2.3994028568267822,1.5876377820968628
1751619067423327500,10.100327392578125,9.989436149597168,-4.289732933044434,4.7126641273498535
1751619067442151000,10.11915087890625,9.951150894165039,-5.227719306945801,6.440282344818115
1751619067460974300,10.137974365234374,9.989436149597168,-4.194019794464111,6.751348972320557
1751619067479797800,10.1567978515625,9.946365356445312,-2.231905221939087,3.793820381164551
1751619067498621200,10.17562109375,10.089935302734375,-2.5286152362823486,4.320241451263428
1751619067517444600,10.194444580078125,9.965508460998535,-2.820539712905884,4.277170658111572
1751619067536268000,10.21326806640625,10.03729248046875,-2.696112871170044,3.372683525085449
1751619067555091500,10.232091552734374,10.223933219909668,-2.490330219268799,1.7886348962783813
1751619067573915000,10.250914794921876,10.113862991333008,-1.241276741027832,-1.389033555984497
1751619067592738300,10.26973828125,9.845867156982422,0.8787640929222107,-6.4905314445495605
1751619067611561700,10.288561767578125,9.91286563873291,3.989433526992798,-12.128021240234375
1751619067630385200,10.30738525390625,9.951150894165039,5.1427741050720215,-10.591829299926758
1751619067649208600,10.32620849609375,9.932008743286133,3.716651678085327,-7.959724426269531
1751619067668032000,10.345031982421874,9.979865074157715,1.3668999671936035,-5.361119270324707
1751619067686855400,10.36385546875,9.975079536437988,-0.001794616924598813,-2.8582265377044678
1751619067705678800,10.382678955078125,10.195219039916992,-1.212562918663025,-0.7334001660346985
1751619067724502300,10.401502197265625,10.233504295349121,-2.9114668369293213,2.348555326461792
1751619067743325700,10.42032568359375,9.932008743286133,-4.136591911315918,3.7698919773101807
1751619067762149000,10.439149169921874,10.075577735900879,-4.3280181884765625,4.339384078979492
1751619067780972500,10.45797265625,9.941579818725586,-3.122035264968872,3.9948174953460693
1751619067799796000,10.4767958984375,9.89850902557373,-0.19800607860088348,1.7790635824203491
1751619067818619400,10.495619384765625,9.92243766784668,-0.4420739710330963,1.3627125024795532
1751619067837442800,10.51444287109375,9.903294563293457,-2.4568307399749756,4.191029071807861
1751619067856266200,10.533266357421875,10.00857925415039,-2.988037347793579,5.880361557006836
1751619067875089700,10.552089599609374,9.960722923278809,-2.8396823406219482,4.913661479949951
1751619067893913000,10.5709130859375,9.975079536437988,-2.1122641563415527,1.9226330518722534
1751619067912736500,10.589736572265625,9.630513191223145,-1.3800604343414307,-1.1066805124282837
1751619067931560000,10.608559814453125,10.219147682189941,-1.0498509407043457,-4.155136585235596
1751619067950383600,10.627383544921875,10.066006660461426,0.7447660565376282,-7.787441253662109
1751619067969206800,10.646206787109374,9.994221687316895,5.6931233406066895,-13.71207046508789
1751619067988030200,10.6650302734375,9.965508460998535,4.649852752685547,-9.400203704833984
1751619068016265500,10.693265380859375,9.903294563293457,2.864806890487671,-7.840083599090576
1751619068035089000,10.7120888671875,9.979865074157715,-0.12143574655056,-4.231706619262695
1751619068053912300,10.730912353515626,9.92243766784668,-2.964108943939209,-1.0157532691955566
1751619068072735700,10.74973583984375,10.018150329589844,-5.3904314041137695,2.803191661834717
1751619068091559200,10.76855908203125,9.951150894165039,-6.783053874969482,6.114858150482178
1751619068110382600,10.787382568359375,10.128219604492188,-6.089135646820068,7.550551891326904
1751619068129206000,10.8062060546875,9.89850902557373,-1.4039887189865112,4.583451747894287
1751619068148029400,10.825029541015626,9.932008743286133,0.251844584941864,0.14715859293937683
1751619068166852900,10.843852783203126,9.91286563873291,-1.0211371183395386,1.8843477964401245
1751619068185676300,10.86267626953125,9.893723487854004,-2.2989044189453125,5.114658355712891
1751619068204499700,10.881499755859375,9.960722923278809,-3.4953157901763916,6.775277137756348
1751619068223323100,10.9003232421875,10.066006660461426,-4.127020835876465,5.191228866577148
1751619068242146600,10.919146484375,10.099506378173828,-3.7633118629455566,2.0709879398345947
1751619068260970000,10.937969970703126,10.02293586730957,-3.222533941268921,-1.3794622421264648
1751619068279793400,10.95679345703125,10.089935302734375,-1.9208383560180664,-6.375676155090332
1751619068298616800,10.975616943359375,10.0612211227417,2.898306369781494,-13.26700496673584
1751619068317440300,10.994440185546875,9.960722923278809,8.138587951660156,-15.142977714538574
1751619068336263700,11.013263671875,9.979865074157715,5.511268615722656,-13.089936256408691
1751619068355087400,11.03208740234375,10.066006660461426,2.486740827560425,-9.084351539611816
1751619068373910500,11.05091064453125,10.032506942749023,-1.485344648361206,-4.121636867523193
1751619068392734000,11.06973388671875,10.02293586730957,-5.275575637817383,0.8745766878128052
1751619068411557600,11.0885576171875,10.152148246765137,-7.58225679397583,5.875576019287109
1751619068430381000,11.107381103515625,9.946365356445312,-6.505486488342285,8.919246673583984
1751619068449204500,11.12620458984375,9.917651176452637,-5.505286693572998,9.77109146118164
1751619068468028000,11.14502783203125,9.975079536437988,-3.232105255126953,5.583651542663574
1751619068486851300,11.163851318359375,9.932008743286133,-2.94975209236145,4.789234638214111
1751619068505674800,11.1826748046875,10.013364791870117,-3.222533941268921,3.300898790359497
1751619068524498200,11.201498291015625,9.979865074157715,-4.026522159576416,2.7122645378112793
1751619068543321600,11.220321533203125,10.02293586730957,-3.8159539699554443,1.1617153882980347
1751619068562145000,11.23914501953125,9.31466007232666,-2.4711875915527344,-2.757728099822998
1751619068580968400,11.257968505859376,10.348360061645508,1.4817553758621216,-7.294519901275635
1751619068599791900,11.2767919921875,9.91286563873291,6.611967086791992,-13.056436538696289
1751619068618615300,11.295615234375,9.999007225036621,5.597410202026367,-11.103893280029297
1751619068637438700,11.314438720703125,10.243075370788574,4.2000017166137695,-9.170493125915527
1751619068656262100,11.33326220703125,10.156933784484863,1.5439687967300415,-7.012166976928711
1751619068675085600,11.35208544921875,9.735796928405762,-0.15493527054786682,-3.4085757732391357
1751619068693909000,11.370908935546876,10.00857925415039,-1.3704891204833984,-0.7812566161155701
1751619068712732400,11.389732421875,10.070792198181152,-3.5192439556121826,1.841277003288269
1751619068731555800,11.408555908203125,10.013364791870117,-6.208776473999023,4.741377830505371
1751619068750379300,11.427379150390625,10.085148811340332,-6.912266254425049,6.904489517211914
1751619068769202700,11.44620263671875,9.941579818725586,-4.189234256744385,6.354140758514404
1751619068788026000,11.465026123046876,9.960722923278809,-1.2077772617340088,1.0803594589233398
1751619068806849500,11.483849609375,9.975079536437988,-2.485544443130493,2.30069899559021
1751619068825673000,11.5026728515625,9.92243766784668,-2.782254457473755,3.6646077632904053
1751619068844496400,11.521496337890625,10.018150329589844,-2.729612350463867,4.286741733551025
1751619068863319800,11.54031982421875,9.865009307861328,-3.1411778926849365,4.143172264099121
1751619068882143200,11.559143310546874,10.085148811340332,-2.9688947200775146,2.6117658615112305
1751619068900966700,11.577966552734376,9.405587196350098,-2.844467878341675,-0.45583271980285645
1751619068919790000,11.5967900390625,10.075577735900879,-0.9110672473907471,-4.2987060546875
1751619068938613500,11.615613525390625,10.032506942749023,2.0273189544677734,-9.290133476257324
1751619068957437000,11.63443701171875,9.932008743286133,7.104888439178467,-15.918252944946289
1751619068976260400,11.65326025390625,9.999007225036621,4.47278356552124,-11.01296615600586
1751619068995083800,11.672083740234376,10.003793716430664,3.046661376953125,-9.912267684936523
1751619069013907200,11.6909072265625,10.0612211227417,0.8548358678817749,-5.801398277282715
1751619069032730600,11.709730712890625,9.979865074157715,-1.638485312461853,-2.255235433578491
1751619069051554000,11.728553955078125,9.888937950134277,-4.103092670440674,1.2478569746017456
1751619069070377500,11.74737744140625,10.03729248046875,-5.73978328704834,4.109673023223877
1751619069089201000,11.766200927734374,9.917651176452637,-5.86421012878418,6.248856544494629
1751619069108024300,11.7850244140625,9.93679428100586,-5.672784328460693,7.3878397941589355
1751619069126847700,11.80384765625,9.893723487854004,-2.51425838470459,4.085744857788086
1751619069145671200,11.822671142578125,9.869794845581055,-2.954537868499756,3.2961132526397705
1751619069164494600,11.84149462890625,9.960722923278809,-2.624328136444092,3.7986059188842773
1751619069183318000,11.860318115234374,9.955936431884766,-2.901895761489868,3.6885361671447754
1751619069202141400,11.879141357421876,10.185647964477539,-3.380460262298584,3.0424740314483643
1751619069220964900,11.89796484375,9.955936431884766,-2.7726831436157227,1.6019947528839111
1751619069239788300,11.916788330078125,9.118449211120605,1.4386845827102661,-4.17427921295166
1751619069258611700,11.93561181640625,10.41057300567627,6.119045734405518,-11.96052360534668
1751619069277435100,11.95443505859375,10.123434066772461,5.425127029418945,-14.22413444519043
1751619069296258600,11.973258544921874,9.965508460998535,4.4344987869262695,-10.065408706665039
1751619069315082000,11.99208203125,10.0612211227417,1.835893154144287,-6.658029079437256
1751619069333905400,12.010905517578125,10.0612211227417,-0.7722834944725037,-3.0975089073181152
1751619069352729000,12.02972900390625,10.032506942749023,-1.7772690057754517,-0.21176479756832123
1751619069371552300,12.04855224609375,9.903294563293457,-2.2127628326416016,1.0612168312072754
1751619069390375700,12.067375732421874,9.994221687316895,-3.792025566101074,2.4155545234680176
1751619069409199000,12.08619921875,9.999007225036621,-5.36650276184082,4.2006001472473145
1751619069428022800,12.105022705078126,9.946365356445312,-5.648856163024902,5.971288681030273
1751619069446846200,12.12384619140625,10.02293586730957,-2.6769702434539795,3.291327476501465
1751619069465669400,12.14266943359375,9.955936431884766,-2.38983154296875,3.095116138458252
1751619069484492800,12.161492919921875,9.984650611877441,-2.6673989295959473,5.047659397125244
1751619069503316500,12.18031640625,10.032506942749023,-2.600399971008301,5.014159679412842
1751619069522140000,12.199139892578126,10.032506942749023,-3.476173162460327,3.2865419387817383
1751619069540963300,12.21796337890625,10.113862991333008,-3.768097400665283,1.0660024881362915
1751619069559786500,12.236786376953125,9.142376899719238,-0.4085744619369507,-3.3128628730773926
1751619069578610200,12.255610107421875,10.841280937194824,4.668995380401611,-9.127422332763672
1751619069597433600,12.27443359375,9.984650611877441,7.363313674926758,-13.645071029663086
1751619069616257000,12.293257080078124,9.77408218383789,4.2622151374816895,-9.601201057434082
1751619069635080400,12.31208056640625,10.070792198181152,3.2141590118408203,-7.179664134979248
1751619069653904000,12.33090380859375,10.066006660461426,3.477369546890259,-6.313462734222412
1751619069672727300,12.349727294921875,10.02293586730957,1.1084750890731812,-4.4614176750183105
1751619069691550700,12.36855078125,9.960722923278809,-4.734797954559326,-0.5180460810661316
1751619069710374100,12.3873740234375,10.448858261108398,-8.922237396240234,4.774877548217773
1751619069729197600,12.406197509765626,10.080363273620605,-7.098906517028809,7.785048484802246
1751619069748021000,12.42502099609375,9.960722923278809,-4.9980082511901855,6.067001819610596
1751619069766844400,12.443844482421875,9.917651176452637,-2.026122570037842,1.2239288091659546
1751619069785667800,12.462667724609375,10.075577735900879,-2.1744775772094727,0.9559326171875
1751619069804491300,12.4814912109375,9.908080101013184,-1.4039887189865112,1.8652052879333496
1751619069823314700,12.500314697265624,9.970293998718262,-2.4185454845428467,3.473181962966919
1751619069842138000,12.51913818359375,10.018150329589844,-2.437688112258911,3.6837503910064697
1751619069860961500,12.53796142578125,9.941579818725586,-1.5379867553710938,2.0374884605407715
1751619069879785000,12.556784912109375,9.539586067199707,-0.3607180118560791,-1.1832507848739624
1751619069898608400,12.5756083984375,10.171290397644043,0.2470589429140091,-4.336990833282471
1751619069917431800,12.594431884765624,9.946365356445312,0.7495517134666443,-5.08355188369751
1751619069936255200,12.613255126953124,9.89850902557373,5.611767292022705,-8.141578674316406
1751619069955078700,12.63207861328125,9.793225288391113,6.171687602996826,-6.882954120635986
1751619069973902000,12.650902099609375,9.994221687316895,5.391627788543701,-8.486145973205566
1751619069992725500,12.6697255859375,10.032506942749023,3.0275187492370605,-6.748956203460693
1751619070011549000,12.688548828125,10.233504295349121,-0.21714866161346436,-3.61435866355896
1751619070030372400,12.707372314453124,10.051650047302246,-3.8494534492492676,-0.9535398483276367
1751619070049195800,12.72619580078125,9.573084831237793,-6.395416736602783,3.0616166591644287
1751619070068019200,12.745019287109375,9.381659507751465,-6.902695178985596,5.827719688415527
1751619070086842600,12.763842529296875,10.463214874267578,-6.309275150299072,5.435296535491943
1751619070105666000,12.782666015625,9.860223770141602,-1.5858432054519653,3.1621150970458984
1751619070124489500,12.801489501953125,10.003793716430664,-2.3132612705230713,1.592423439025879
1751619070143313000,12.82031298828125,9.999007225036621,-2.0309081077575684,2.9802606105804443
1751619070162136300,12.83913623046875,9.960722923278809,-1.5427724123001099,3.9326040744781494
1751619070180959700,12.857959716796875,10.018150329589844,-1.327418327331543,3.324826955795288
1751619070199783200,12.876783203125,9.903294563293457,-1.3178470134735107,1.903490424156189
1751619070218606600,12.895606689453125,9.927223205566406,-1.456630825996399,0.5635097622871399
1751619070237430000,12.914429931640624,9.994221687316895,-1.3130614757537842,-0.98703932762146
1751619070256253400,12.93325341796875,9.8267240524292,-0.7244270443916321,-3.920639991760254
1751619070275076900,12.952076904296876,9.88415241241455,1.4291132688522339,-6.820741176605225
1751619070293900300,12.970900390625,10.04686450958252,4.343571186065674,-9.223134994506836
1751619070312723700,12.9897236328125,9.941579818725586,4.59721040725708,-5.643472194671631
1751619070331547100,13.008547119140625,10.16171932220459,4.788636207580566,-6.80159854888916
1751619070350370600,13.02737060546875,10.075577735900879,2.142174482345581,-6.5766730308532715
1751619070369194000,13.046194091796876,9.850652694702148,-0.5330012440681458,-4.36091947555542
1751619070388017400,13.065017333984375,10.109077453613281,-2.595614433288574,-2.001596212387085
1751619070406840800,13.0838408203125,9.960722923278809,-4.026522159576416,1.3387842178344727
1751619070425664300,13.102664306640625,9.989436149597168,-5.012365341186523,4.195814609527588
1751619070444487700,13.12148779296875,9.89850902557373,-4.663012981414795,6.105287075042725
1751619070463311000,13.14031103515625,9.951150894165039,-3.01196551322937,5.990431308746338
1751619070482134500,13.159134521484376,9.908080101013184,-0.7770691514015198,1.9992033243179321
1751619070500958000,13.1779580078125,9.965508460998535,-1.7581263780593872,2.104487419128418
1751619070519781400,13.196781494140625,9.999007225036621,-1.7485551834106445,2.7840490341186523
1751619070538604800,13.215604736328125,10.003793716430664,-2.562114953994751,2.89890456199646
1751619070557428200,13.23442822265625,9.941579818725586,-3.2895328998565674,3.291327476501465
1751619070576251600,13.253251708984376,9.965508460998535,-2.7535407543182373,2.999403238296509
1751619070595075000,13.272074951171875,9.869794845581055,-1.6815561056137085,0.9463613629341125
1751619070613898500,13.2908984375,9.683155059814453,1.0510473251342773,-5.198407173156738
1751619070632722000,13.309721923828125,10.377073287963867,4.893920421600342,-10.52483081817627
1751619070651545300,13.32854541015625,10.066006660461426,4.467998027801514,-10.53918743133545
1751619070670368800,13.34736865234375,9.927223205566406,3.6544384956359863,-5.55733060836792
1751619070689192200,13.366192138671876,10.03729248046875,2.7116663455963135,-6.040680885314941
1751619070708015600,13.385015625,9.865009307861328,2.2618155479431152,-5.882754325866699
1751619070726839000,13.403839111328125,10.099506378173828,-0.006580262444913387,-3.55214524269104
1751619070745662500,13.422662353515625,10.180862426757812,-3.2033913135528564,0.33858439326286316
1751619070764486000,13.44148583984375,9.979865074157715,-5.687141418457031,4.071387767791748
1751619070783309300,13.460309326171876,9.999007225036621,-4.54337215423584,6.1914286613464355
1751619070802132700,13.4791328125,9.970293998718262,-3.279961585998535,4.918447017669678
1751619070820956200,13.4979560546875,9.927223205566406,-0.7148557901382446,0.15672987699508667
1751619070839779600,13.516779541015625,9.92243766784668,-0.6526423692703247,-0.06819544732570648
1751619070858603000,13.53560302734375,9.93679428100586,-1.7102699279785156,1.4297115802764893
1751619070877426400,13.554426513671874,10.03729248046875,-2.877967357635498,2.324627161026001
1751619070896249900,13.573249755859376,9.979865074157715,-2.538186550140381,3.119044303894043
1751619070915073300,13.5920732421875,9.89850902557373,-2.600399971008301,3.463610887527466
1751619070933896700,13.610896728515625,10.003793716430664,-3.0071799755096436,3.095116138458252
1751619070952720100,13.62972021484375,10.032506942749023,-2.3994028568267822,1.2191431522369385
1751619070971543600,13.64854345703125,9.534799575805664,-0.3032902777194977,-2.33180570602417
1751619070990367000,13.667366943359376,10.051650047302246,4.960919380187988,-7.5912299156188965
1751619071009190400,13.6861904296875,9.807581901550293,7.7940216064453125,-10.065408706665039
1751619071028013800,13.705013916015625,9.888937950134277,3.3433713912963867,-6.533602237701416
1751619071046837200,13.723837158203125,9.874580383300781,2.7116663455963135,-4.030709743499756
1751619071065660700,13.74266064453125,9.865009307861328,3.0418758392333984,-4.451846599578857
1751619071084484000,13.761484130859374,9.989436149597168,0.8117650747299194,-4.557130813598633
1751619071103307500,13.7803076171875,9.946365356445312,-1.5954145193099976,-2.561516523361206
1751619071122131000,13.799130859375,10.0612211227417,-2.9306094646453857,0.16151553392410278
1751619071140954400,13.817954345703125,9.845867156982422,-2.8636105060577393,1.8604196310043335
1751619071159777800,13.83677783203125,10.018150329589844,-2.9688947200775146,1.5302101373672485
1751619071178601200,13.855601318359374,9.879366874694824,-2.9449665546417236,2.9036903381347656
1751619071197424600,13.874424560546874,9.965508460998535,-4.270590305328369,6.062216281890869
1751619071216248000,13.893248046875,9.970293998718262,-2.5669004917144775,2.8462624549865723
1751619071235071500,13.912071533203125,9.951150894165039,-2.571686029434204,4.516452789306641
1751619071253895000,13.93089501953125,10.00857925415039,-3.8590247631073,4.794020175933838
1751619071272718300,13.94971826171875,9.941579818725586,-5.821139335632324,2.937189817428589
1751619071291541800,13.968541748046874,10.00857925415039,-6.888338088989258,2.0231316089630127
1751619071310365200,13.987365234375,9.979865074157715,-4.117449760437012,-1.6139588356018066
1751619071329188600,14.006188720703125,10.113862991333008,1.2855439186096191,-6.337390899658203
1751619071348012000,14.025011962890625,9.821938514709473,5.678766250610352,-10.137192726135254
1751619071366835500,14.04383544921875,9.716654777526855,7.281957626342773,-10.232906341552734
1751619071385659000,14.062658935546875,10.003793716430664,5.913262844085693,-4.782055854797363
1751619071404482300,14.081482421875,9.941579818725586,1.8023936748504639,-2.671586513519287
1751619071423305700,14.1003056640625,10.228718757629395,3.4199416637420654,-6.619743824005127
1751619071442129200,14.119129150390625,9.927223205566406,4.324428558349609,-9.060422897338867
1751619071460952600,14.13795263671875,10.42492961883545,0.9266205430030823,-6.6006011962890625
1751619071479776000,14.15677587890625,9.79801082611084,-3.7393836975097656,-1.633101463317871
1751619071498599400,14.175599365234374,10.37228775024414,-7.7353973388671875,2.8414769172668457
1751619071517422800,14.1944228515625,8.898308753967285,-7.496115207672119,6.535995006561279
1751619071536246300,14.213246337890626,11.051849365234375,-6.495915412902832,6.344569206237793
1751619071555069700,14.232069580078125,9.927223205566406,-2.3515465259552,4.698307037353516
1751619071573893000,14.25089306640625,9.865009307861328,0.2470589429140091,-0.07776673883199692
1751619071592716500,14.269716552734375,9.91286563873291,0.37148571014404297,-0.1782652884721756
1751619071611540000,14.2885400390625,9.932008743286133,0.026919255033135414,0.017946170642971992
1751619071630363400,14.30736328125,10.003793716430664,-2.868396043777466,2.056631088256836
1751619071649186800,14.326186767578125,9.927223205566406,-4.179663181304932,4.258028030395508
1751619071668010200,14.34501025390625,10.089935302734375,-5.73978328704834,5.468796253204346
1751619071686833700,14.363833740234375,10.276575088500977,-4.265804767608643,4.392025947570801
1751619071705657000,14.382656982421874,9.750154495239258,-1.2939188480377197,0.592223584651947
1751619071724480500,14.40148046875,9.989436149597168,1.9698911905288696,-4.346562385559082
1751619071743304000,14.420303955078126,10.377073287963867,3.108874797821045,-8.711071014404297
1751619071762127400,14.43912744140625,10.228718757629395,2.7355945110321045,-9.031708717346191
1751619071780950800,14.45795068359375,10.066006660461426,4.113860130310059,-4.676771640777588
1751619071799774200,14.476774169921875,9.91286563873291,0.6681957244873047,-1.786242127418518
1751619071818597600,14.49559765625,9.888937950134277,1.0941181182861328,-1.5565310716629028
1751619071837421000,14.514421142578126,10.00857925415039,1.103689432144165,-1.1880364418029785
1751619071856244500,14.533244384765625,9.965508460998535,1.2041879892349243,-1.867598056793213
1751619071875068000,14.55206787109375,10.018150329589844,1.0414760112762451,-2.379662036895752
1751619071893891300,14.570891357421875,9.845867156982422,0.2949153780937195,-2.1068804264068604
1751619071912714800,14.58971484375,9.989436149597168,-0.6957131624221802,-1.1162517070770264
1751619071931538200,14.6085380859375,10.434501647949219,-2.1744775772094727,-0.5659025311470032
1751619071950361600,14.627361572265626,10.113862991333008,-2.6051857471466064,0.898504912853241
1751619071969185000,14.64618505859375,10.003793716430664,-2.9066812992095947,2.6452653408050537
1751619071988008400,14.665008544921875,9.89850902557373,-2.9210381507873535,5.416153907775879
1751619072006831900,14.683831787109375,9.845867156982422,-0.07836493849754333,4.147958278656006
1751619072025655300,14.7026552734375,9.917651176452637,-1.6815561056137085,2.9515466690063477
1751619072044478700,14.721478759765626,9.927223205566406,-3.1555347442626953,4.698307037353516
1751619072063302100,14.74030224609375,9.960722923278809,-3.835096597671509,4.372883319854736
1751619072082125600,14.75912548828125,9.879366874694824,-3.246462106704712,2.583052158355713
1751619072100949000,14.777948974609375,10.013364791870117,-1.0737791061401367,-0.11126625537872314
1751619072119772400,14.7967724609375,9.903294563293457,-0.5282155871391296,-2.9730820655822754
1751619072138595800,14.815595947265624,10.113862991333008,-0.997208833694458,-4.140779495239258
1751619072157419300,14.834419189453126,9.92243766784668,-0.5617151260375977,-4.480560302734375
1751619072176242700,14.85324267578125,9.88415241241455,2.572882652282715,-6.332605361938477
1751619072195066000,14.872066162109375,9.78843879699707,6.9756760597229,-8.409575462341309
1751619072213889500,14.8908896484375,9.644869804382324,3.9702908992767334,-7.217949390411377
1751619072232713000,14.909712890625,9.769296646118164,5.25762939453125,-7.246663570404053
1751619072251536400,14.928536376953126,9.984650611877441,1.2759727239608765,-4.073780536651611
1751619072270359800,14.94735986328125,9.984650611877441,-2.083550214767456,-0.3314059376716614
1751619072289183200,14.966183349609375,9.491728782653809,-4.907081127166748,2.286342144012451
1751619072308006700,14.985006591796875,9.927223205566406,-4.060021877288818,4.593023300170898
1751619072326830000,15.003830078125,9.821938514709473,-2.131406784057617,4.454239368438721
1751619072345653500,15.022653564453124,9.869794845581055,-1.0163514614105225,2.9754750728607178
1751619072364477000,15.041476806640626,9.955936431884766,-1.4231312274932861,0.8554341197013855
1751619072383300400,15.06030029296875,9.92243766784668,0.2183450609445572,-0.11126625537872314
1751619072402124000,15.0791240234375,9.984650611877441,-2.5812573432922363,2.181057929992676
1751619072420947500,15.097947509765625,10.018150329589844,-4.715655326843262,5.995217323303223
1751619072439771000,15.11677099609375,9.865009307861328,-4.447659015655518,6.3254265785217285
1751619072458594300,15.13559423828125,9.917651176452637,-2.7248268127441406,3.5162527561187744
1751619072477417700,15.154417724609376,9.999007225036621,-2.868396043777466,0.3720839321613312
1751619072496241200,15.1732412109375,10.166504859924316,-3.0454649925231934,-3.308077335357666
1751619072515064600,15.192064697265625,10.156933784484863,-1.1982059478759766,-5.96889591217041
1751619072533888000,15.210887939453125,9.941579818725586,3.2093734741210938,-9.237491607666016
1751619072552711400,15.22971142578125,9.530014038085938,6.760322093963623,-11.127821922302246
1751619072571534800,15.248534912109376,9.841081619262695,3.793222188949585,-5.90668249130249
1751619072590358300,15.267358154296875,9.855438232421875,3.147160053253174,-6.820741176605225
1751619072609181700,15.286181640625,10.003793716430664,2.142174482345581,-5.90668249130249
1751619072628005000,15.305005126953125,10.085148811340332,-0.4325026869773865,-3.638286828994751
1751619072646828500,15.32382861328125,10.104291915893555,-2.4711875915527344,-0.8099704384803772
1751619072665652000,15.34265185546875,9.946365356445312,-3.3373894691467285,2.338984251022339
1751619072684475400,15.361475341796876,9.927223205566406,-3.7010984420776367,4.746163845062256
1751619072703299000,15.380299072265625,9.903294563293457,-2.791825771331787,5.44008207321167
1751619072722122500,15.39912255859375,9.903294563293457,-2.303689956665039,4.401597023010254
1751619072740946000,15.41794580078125,9.893723487854004,-1.5044872760772705,1.2430713176727295
1751619072759769300,15.436769287109374,9.88415241241455,-0.001794616924598813,-0.589830756187439
1751619072778592800,15.4555927734375,9.927223205566406,0.251844584941864,-0.16869398951530457
1751619072797416200,15.474416259765626,9.941579818725586,-1.2221341133117676,2.042274236679077
1751619072816239600,15.493239501953125,9.92243766784668,-3.035893678665161,4.296313285827637
1751619072835063000,15.51206298828125,9.903294563293457,-3.11246395111084,5.2630133628845215
1751619072853886500,15.530886474609375,9.908080101013184,-2.6434707641601562,4.487739086151123
1751619072872710000,15.5497099609375,10.032506942749023,-2.2127628326416016,2.506481647491455
1751619072891533300,15.568533203125,9.994221687316895,-1.8873388767242432,-0.776470959186554
1751619072910356700,15.587356689453125,10.080363273620605,-0.1453639715909958,-4.968696117401123
1751619072929180200,15.60618017578125,9.865009307861328,1.4386845827102661,-7.744370460510254
1751619072948003800,15.62500390625,9.893723487854004,5.3246283531188965,-11.467602729797363
1751619072966827300,15.6438271484375,10.587641716003418,4.893920421600342,-9.433703422546387
1751619072985650700,15.662650634765624,9.999007225036621,3.5682966709136963,-9.739984512329102
1751619073004474000,15.68147412109375,10.094720840454102,0.4911268353462219,-8.069794654846191
1751619073023297500,15.700297607421875,9.994221687316895,-2.0931215286254883,-4.58584451675415
1751619073042121000,15.719120849609375,9.979865074157715,-3.686741590499878,-0.6376872062683105
1751619073060944400,15.7379443359375,10.056435585021973,-3.9930226802825928,3.2099716663360596
1751619073079767800,15.756767822265624,9.917651176452637,-5.246861934661865,5.933003902435303
1751619073098591200,15.77559130859375,9.960722923278809,-4.572085857391357,6.87099027633667
1751619073117415000,15.794414794921876,9.92243766784668,-3.73459792137146,5.50229549407959
1751619073136238300,15.81323828125,9.92243766784668,-0.9493523836135864,0.1423729509115219
1751619073155061800,15.832061767578125,9.89850902557373,-1.3178470134735107,2.9036903381347656
1751619073173885200,15.85088525390625,9.893723487854004,-2.6530420780181885,6.019145488739014
1751619073192708600,15.86970849609375,9.917651176452637,-3.088535785675049,5.210371494293213
1751619073211532000,15.888531982421876,10.00857925415039,-3.1316065788269043,2.8175487518310547
1751619073230355500,15.90735546875,10.027721405029297,-3.964308977127075,1.5302101373672485
1751619073249179000,15.926178955078125,10.003793716430664,-3.8877387046813965,0.625723123550415
1751619073268002600,15.94500244140625,10.195219039916992,-2.9114668369293213,-0.6376872062683105
1751619073286826000,15.963825927734375,9.984650611877441,0.4384847581386566,-5.279763221740723
1751619073305649400,15.9826494140625,9.539586067199707,4.343571186065674,-10.409975051879883
1751619073324472800,16.001472900390624,10.14736270904541,6.310471534729004,-15.205191612243652
1751619073343296300,16.020296142578125,10.051650047302246,3.6879379749298096,-8.668000221252441
1751619073362119700,16.03911962890625,10.013364791870117,1.2424731254577637,-6.519245147705078
1751619073380943000,16.057943115234377,9.994221687316895,-0.8823533654212952,-3.67657208442688
1751619073399766500,16.0767666015625,9.984650611877441,-1.179063320159912,-1.786242127418518
1751619073418590200,16.095590087890624,9.845867156982422,-0.5234299302101135,-0.9200403094291687
1751619073437413600,16.11441357421875,9.908080101013184,-1.9830517768859863,0.9272187948226929
1751619073456237000,16.133237060546875,9.893723487854004,-3.4139597415924072,3.702893018722534
1751619073475060500,16.152060546875,9.903294563293457,-4.3998026847839355,5.827719688415527
1751619073493884000,16.1708837890625,9.888937950134277,-4.007379531860352,7.05763053894043
1751619073512707300,16.189707275390624,9.89850902557373,-0.12143574655056,0.7357929348945618
1751619073531531000,16.208531005859374,9.91286563873291,-1.1455638408660889,3.339184045791626
1751619073550354400,16.2273544921875,9.946365356445312,-2.2989044189453125,5.162514686584473
1751619073569177900,16.246177734375,9.965508460998535,-2.916252613067627,5.248656272888184
1751619073588001300,16.265001220703127,9.932008743286133,-3.7058839797973633,5.330012321472168
1751619073606824700,16.28382470703125,9.831509590148926,-3.452244758605957,3.875176191329956
1751619073625648000,16.302648193359374,10.042078018188477,-3.9260237216949463,0.07058826833963394
1751619073644471600,16.321471435546876,10.042078018188477,-1.8586249351501465,-5.1840500831604
1751619073663295200,16.340295166015625,9.927223205566406,2.022533416748047,-13.104292869567871
1751619073682118700,16.35911865234375,9.93679428100586,6.243472576141357,-17.688941955566406
1751619073700942000,16.377942138671877,9.955936431884766,3.573082447052002,-9.376275062561035
1751619073719765500,16.396765625,9.89850902557373,1.4769697189331055,-7.289734363555908
1751619073738589000,16.4155888671875,10.094720840454102,-0.7244270443916321,-4.04985237121582
1751619073757412400,16.434412353515626,10.075577735900879,-1.485344648361206,-2.3700907230377197
1751619073776236000,16.453236083984375,10.03729248046875,-2.4329023361206055,0.02273181453347206
1751619073795059500,16.4720595703125,9.999007225036621,-3.514458179473877,3.1094729900360107
1751619073813883000,16.4908828125,10.04686450958252,-4.146163463592529,5.755934715270996
1751619073832706300,16.509706298828124,9.88415241241455,-2.8636105060577393,6.205785751342773
1751619073851529700,16.52852978515625,9.879366874694824,-1.4518451690673828,5.282155990600586
1751619073870353400,16.547353515625,9.994221687316895,0.29012975096702576,-0.07776673883199692
1751619073889176800,16.5661767578125,9.903294563293457,0.24227328598499298,0.12323036789894104
1751619073908000300,16.585000244140623,9.903294563293457,-1.7198412418365479,5.133800983428955
1751619073926823700,16.60382373046875,9.89850902557373,-3.1651060581207275,6.4354963302612305
1751619073945647000,16.622647216796874,9.93679428100586,-3.404388427734375,5.717649936676025
1751619073964470500,16.641470458984376,9.975079536437988,-3.404388427734375,4.128815650939941
1751619073983294200,16.660294189453126,10.066006660461426,-4.016951084136963,1.659422516822815
1751619074002117600,16.67911767578125,9.88415241241455,-3.624528169631958,-1.7336000204086304
1751619074020941000,16.697941162109377,10.180862426757812,-0.6765705943107605,-7.854440212249756
1751619074039764500,16.716764404296875,9.869794845581055,3.8123645782470703,-13.223934173583984
1751619074058588000,16.735587890625,9.908080101013184,6.09033203125,-13.812568664550781
1751619074077411600,16.75441162109375,9.865009307861328,4.1760735511779785,-8.486145973205566
1751619074096235000,16.773235107421876,9.970293998718262,1.5152549743652344,-7.452445983886719
1751619074115058400,16.792058349609373,10.056435585021973,-1.3178470134735107,-4.729413986206055
1751619074133881900,16.8108818359375,10.128219604492188,-2.279761791229248,-2.3365912437438965
1751619074152705500,16.82970556640625,9.908080101013184,-2.940180778503418,0.49172505736351013
1751619074171529000,16.848529052734374,9.946365356445312,-4.337589263916016,3.568894863128662
1751619074190352400,16.867352294921876,9.917651176452637,-4.797011375427246,6.263213157653809
1751619074209175800,16.88617578125,9.946365356445312,-3.2895328998565674,6.626922130584717
1751619074227999200,16.904999267578123,9.869794845581055,-1.4135600328445435,5.114658355712891
1751619074246823000,16.923822998046877,9.917651176452637,0.2709871530532837,-0.06819544732570648
1751619074265646300,16.942646240234374,9.869794845581055,-0.13579268753528595,0.7645068168640137
1751619074284469800,16.9614697265625,9.908080101013184,-2.011765718460083,4.43031120300293
1751619074303293200,16.980293212890626,9.893723487854004,-3.7010984420776367,5.779862880706787
1751619074322116600,16.99911669921875,10.04686450958252,-4.189234256744385,6.02393102645874
1751619074340940300,17.017940185546873,9.711869239807129,-4.012165546417236,4.143172264099121
1751619074359763700,17.036763671875,9.960722923278809,-4.117449760437012,2.190629243850708
1751619074378587100,17.055587158203124,10.219147682189941,-3.9930226802825928,-0.8243274092674255
1751619074397410600,17.07441064453125,9.597013473510742,-0.7148557901382446,-8.376075744628906
1751619074416234200,17.093234130859376,10.075577735900879,4.951348304748535,-15.832111358642578
1751619074435057700,17.1120576171875,10.003793716430664,7.22452974319458,-15.334403991699219
1751619074453881000,17.130881103515627,9.79801082611084,4.295714855194092,-10.29033374786377
1751619074472704500,17.14970458984375,9.989436149597168,0.7974081635475159,-7.375875949859619
1751619074491528200,17.168528076171874,10.099506378173828,-2.3467607498168945,-3.9493536949157715
1751619074510351600,17.1873515625,9.932008743286133,-3.07417893409729,-1.2837493419647217
1751619074529175000,17.206175048828126,9.999007225036621,-3.193819999694824,1.4679967164993286
1751619074547998500,17.22499853515625,9.994221687316895,-4.332803726196289,4.052245140075684
1751619074566822100,17.243822265625,9.841081619262695,-4.696512699127197,6.200999736785889
1751619074585645600,17.2626455078125,9.893723487854004,-3.964308977127075,6.7178497314453125
1751619074604469000,17.281468994140624,9.817152976989746,-0.9397810697555542,4.794020175933838
1751619074623292400,17.30029248046875,9.879366874694824,-0.4468596279621124,1.2382856607437134
1751619074642115800,17.31911572265625,9.89850902557373,-1.0211371183395386,2.9802606105804443
1751619074660939500,17.337939453125,9.932008743286133,-0.9349954724311829,3.0616166591644287
1751619074679763000,17.356762939453127,9.855438232421875,-2.5334010124206543,3.7459638118743896
1751619074698586400,17.37558642578125,10.027721405029297,-3.0789644718170166,3.8847475051879883
1751619074717409800,17.394409912109374,10.03729248046875,-2.8731818199157715,2.4777679443359375
1751619074736233500,17.4132333984375,9.994221687316895,-2.2654049396514893,0.8267202377319336
1751619074755057000,17.432056884765625,9.965508460998535,-0.8967102766036987,-1.4943177700042725
1751619074773880300,17.45088037109375,9.970293998718262,1.4817553758621216,-6.409175395965576
1751619074792704000,17.4697041015625,10.171290397644043,3.8315072059631348,-13.611571311950684
1751619074811527400,17.48852734375,9.960722923278809,3.8458642959594727,-9.572486877441406
1751619074830350800,17.507350830078124,9.8267240524292,4.056432723999023,-8.634500503540039
1751619074849174300,17.52617431640625,9.965508460998535,1.6683956384658813,-6.768098831176758
1751619074867998000,17.544998046875,10.04686450958252,-1.0785647630691528,-4.384847640991211
1751619074886821400,17.5638212890625,9.860223770141602,-2.820539712905884,-1.0205388069152832
1751619074905644800,17.582644775390627,9.999007225036621,-3.8111681938171387,1.2382856607437134
1751619074924468200,17.60146826171875,9.707083702087402,-4.701298236846924,3.3104701042175293
1751619074943292000,17.6202919921875,9.855438232421875,-4.150949001312256,4.865804672241211
1751619074962115300,17.639115234375,9.893723487854004,-2.5046870708465576,6.1914286613464355
1751619074980938800,17.657938720703125,9.8267240524292,0.046061836183071136,6.842276573181152
1751619074999762200,17.67676220703125,9.893723487854004,0.22791635990142822,2.7936203479766846
1751619075018585900,17.6955859375,9.88415241241455,-0.96370929479599,4.813162803649902
1751619075037409300,17.7144091796875,9.917651176452637,-3.4091739654541016,5.1768717765808105
1751619075056232700,17.733232666015624,10.051650047302246,-5.519643783569336,4.746163845062256
1751619075075056400,17.752056396484374,10.094720840454102,-5.309075355529785,3.535395383834839
1751619075093879800,17.7708798828125,9.879366874694824,-3.696312665939331,0.7070791125297546
1751619075112703200,17.789703125,10.056435585021973,-1.7341982126235962,-2.7912275791168213
1751619075131527000,17.80852685546875,9.927223205566406,-0.5904290080070496,-5.251049518585205
1751619075150350300,17.827350341796876,10.156933784484863,0.6346961855888367,-7.5673017501831055
1751619075169173800,17.846173828125,9.860223770141602,3.7118661403656006,-9.467203140258789
1751619075187997200,17.8649970703125,9.860223770141602,5.109274387359619,-10.089336395263672
1751619075206820900,17.88382080078125,9.989436149597168,1.6109678745269775,-7.4811601638793945
1751619075225644300,17.902644287109375,9.989436149597168,3.0370900630950928,-8.395217895507812
1751619075244467700,17.9214677734375,10.056435585021973,1.8837496042251587,-7.64865779876709
1751619075263291400,17.94029150390625,9.79801082611084,-0.5186443328857422,-5.260620594024658
1751619075282114800,17.95911474609375,10.156933784484863,-3.356531858444214,-2.121237277984619
1751619075300938200,17.977938232421874,10.099506378173828,-6.1465630531311035,1.8652052879333496
1751619075319762000,17.996761962890623,9.869794845581055,-7.352545738220215,5.325226783752441
1751619075338585300,18.01558544921875,9.903294563293457,-6.055635929107666,8.105687141418457
1751619075357408800,18.03440869140625,9.88415241241455,-2.8827531337738037,8.14397144317627
1751619075376232400,18.053232421875,9.855438232421875,2.1230318546295166,2.094916343688965
1751619075395055900,18.072055908203126,9.89850902557373,0.11306086927652359,3.3535408973693848
1751619075413879300,18.09087939453125,9.951150894165039,-1.7820546627044678,5.196014404296875
1751619075432703000,18.109702880859373,9.951150894165039,-3.476173162460327,4.985445976257324
1751619075451526400,18.1285263671875,9.8267240524292,-5.170291423797607,5.68893575668335
1751619075470349800,18.147349853515625,9.984650611877441,-5.275575637817383,4.545166492462158
1751619075489173200,18.16617333984375,10.209575653076172,-4.127020835876465,1.1473584175109863
1751619075507997000,18.184996826171876,10.00857925415039,-2.7631118297576904,-3.102294445037842
1751619075526820400,18.2038203125,10.027721405029297,-1.7964116334915161,-5.6099724769592285
1751619075545643800,18.222643798828123,9.893723487854004,1.1467602252960205,-9.448060035705566
1751619075564467500,18.241467529296877,9.865009307861328,4.190430641174316,-13.223934173583984
1751619075583291000,18.260290771484375,9.93679428100586,2.5537400245666504,-8.438288688659668
1751619075602114600,18.279114501953124,9.965508460998535,2.213959217071533,-7.122236728668213
1751619075620938000,18.29793798828125,9.951150894165039,2.1948165893554688,-7.280162811279297
1751619075639761400,18.316761474609375,10.075577735900879,0.9840483069419861,-5.873183250427246
1751619075658584800,18.335584716796873,9.970293998718262,-0.9828519225120544,-3.480360507965088
1751619075677408500,18.354408447265627,9.91286563873291,-1.973480463027954,-1.2741780281066895
1751619075696232000,18.37323193359375,10.109077453613281,-4.088735580444336,1.2382856607437134
1751619075715055400,18.392055419921874,10.104291915893555,-6.031707763671875,4.71744966506958
1751619075733879000,18.410879150390624,9.951150894165039,-6.749554634094238,8.263612747192383
1751619075752702500,18.429702392578125,9.88415241241455,-3.6771702766418457,8.703892707824707
1751619075771526000,18.44852587890625,9.951150894165039,-0.3320041298866272,2.669193744659424
1751619075790349600,18.467349609375,9.927223205566406,-0.39900317788124084,2.8654050827026367
1751619075809173000,18.486173095703126,9.855438232421875,-2.011765718460083,5.200799942016602
1751619075827996400,18.504996337890624,9.917651176452637,-4.040879249572754,5.708078384399414
1751619075846820000,18.523820068359374,10.066006660461426,-5.1080780029296875,4.521238327026367
1751619075865643500,18.5426435546875,9.989436149597168,-5.069792747497559,2.181057929992676
1751619075884467000,18.561467041015625,9.951150894165039,-3.844667673110962,-0.43190449476242065
1751619075903290600,18.58029052734375,10.39621639251709,-2.892324447631836,-3.0927233695983887
1751619075922114000,18.599114013671876,10.003793716430664,-1.456630825996399,-6.21774959564209
1751619075940937700,18.617937744140626,9.917651176452637,0.47676992416381836,-9.079565048217773
1751619075959761200,18.63676123046875,9.965508460998535,5.090131759643555,-14.353346824645996
1751619075978584600,18.65558447265625,10.018150329589844,4.228715896606445,-10.97468090057373
1751619075997408300,18.674408203125,9.999007225036621,3.43908429145813,-10.52483081817627
1751619076016231700,18.693231689453125,9.855438232421875,0.582054078578949,-6.6484575271606445
1751619076035055000,18.71205517578125,10.190433502197266,-1.810768485069275,-1.5517455339431763
1751619076053878800,18.730878662109376,9.831509590148926,-2.9976086616516113,1.5158531665802002
1751619076072702200,18.7497021484375,9.917651176452637,-3.7154552936553955,3.0664021968841553
1751619076091525600,18.768525634765624,10.042078018188477,-4.380660057067871,3.9661035537719727
1751619076110349300,18.787349365234373,9.903294563293457,-2.8875386714935303,4.004388809204102
1751619076129172700,18.8061728515625,9.91286563873291,-2.0548365116119385,3.9086756706237793
1751619076147996200,18.82499609375,9.869794845581055,-0.4707878530025482,3.0759735107421875
1751619076166819800,18.84381982421875,9.917651176452637,0.26141586899757385,1.6546368598937988
1751619076185643300,18.862643310546876,9.91286563873291,0.3858426511287689,-0.04426721855998039
1751619076204467000,18.881467041015625,9.92243766784668,0.3762713670730591,-0.06819544732570648
1751619076223290400,18.900290283203127,9.941579818725586,0.31405797600746155,-0.03469592705368996
1751619076242113800,18.91911376953125,9.908080101013184,-0.4420739710330963,1.7216359376907349
1751619076260937500,18.9379375,9.903294563293457,-1.8394824266433716,4.947160720825195
1751619076279761000,18.956760986328124,9.93679428100586,-2.978466033935547,5.138586521148682
1751619076298584300,18.975584228515626,9.970293998718262,-2.9210381507873535,4.2006001472473145
1751619076317408000,18.994407958984375,9.664012908935547,-2.9688947200775146,2.6213371753692627
1751619076336231400,19.0132314453125,9.932008743286133,-2.806182861328125,0.9176474809646606
1751619076355054800,19.032054931640626,9.941579818725586,-1.609771490097046,-2.5328028202056885
1751619076373878500,19.05087841796875,9.893723487854004,1.256830096244812,-6.715456962585449
1751619076392702000,19.069701904296874,9.879366874694824,3.941577196121216,-12.29551887512207
1751619076411525400,19.088525390625,9.941579818725586,3.5922250747680664,-9.448060035705566
1751619076430349000,19.10734912109375,9.845867156982422,4.281357765197754,-10.055837631225586
1751619076449172500,19.12617236328125,9.946365356445312,2.190030813217163,-8.902496337890625
1751619076467996200,19.14499609375,9.989436149597168,-0.39900317788124084,-5.705685615539551
1751619076486819600,19.163819580078126,10.032506942749023,-2.461616277694702,-2.8965117931365967
1751619076505643000,19.18264306640625,9.984650611877441,-5.179862976074219,0.50129634141922
1751619076524466700,19.201466796875,10.042078018188477,-6.993622303009033,4.291527271270752
1751619076543290000,19.2202900390625,9.860223770141602,-5.744568824768066,6.80877685546875
1751619076562113500,19.239113525390625,9.855438232421875,-3.8590247631073,6.856633186340332
1751619076580937200,19.257937255859375,9.975079536437988,-0.9445667266845703,5.210371494293213
1751619076599760600,19.2767607421875,9.989436149597168,0.3332005441188812,-0.039481572806835175
1751619076618584300,19.295584228515626,9.91286563873291,0.022133609279990196,1.0037890672683716
1751619076637407700,19.31440771484375,9.93679428100586,-1.8681962490081787,4.918447017669678
1751619076656231200,19.333231201171873,9.93679428100586,-3.5479576587677,7.100701332092285
1751619076675054800,19.352054931640627,10.03729248046875,-5.356931686401367,6.650850772857666
1751619076693878300,19.370878173828125,10.166504859924316,-6.041278839111328,4.789234638214111
1751619076712702000,19.389701904296874,10.13300609588623,-5.959922790527344,2.276770830154419
1751619076731525400,19.408525390625,9.951150894165039,-5.122435092926025,-1.7623138427734375
1751619076750348800,19.427348876953126,10.578070640563965,-2.696112871170044,-6.882954120635986
1751619076769172200,19.446172119140623,10.051650047302246,1.342971682548523,-11.883954048156738
1751619076787996000,19.464995849609377,10.003793716430664,5.458626747131348,-15.477972984313965
1751619076806819300,19.4838193359375,9.984650611877441,4.554139614105225,-11.060822486877441
1751619076825643000,19.50264306640625,9.979865074157715,2.874378204345703,-9.44327449798584
1751619076844466400,19.521466552734374,9.893723487854004,1.7497515678405762,-6.725028038024902
1751619076863290000,19.5402900390625,9.979865074157715,0.4624129831790924,-3.67657208442688
1751619076882113500,19.559113525390625,9.807581901550293,-0.8153542876243591,-0.8147560954093933
1751619076900937000,19.57793701171875,9.817152976989746,-2.5812573432922363,3.229114055633545
1751619076919760600,19.5967607421875,10.156933784484863,-4.4955153465271,5.2869415283203125
1751619076938584000,19.615583984375,9.88415241241455,-3.844667673110962,4.674378871917725
1751619076957407500,19.634407470703124,9.92243766784668,-3.2608189582824707,3.056830883026123
1751619076976231200,19.653231201171874,9.975079536437988,-2.428116798400879,2.214557409286499
1751619076995054600,19.6720546875,9.932008743286133,-1.4757733345031738,1.7742780447006226
1751619077013878000,19.6908779296875,9.927223205566406,0.3332005441188812,-0.020338991656899452
1751619077032701700,19.70970166015625,9.93679428100586,-0.7627122402191162,2.104487419128418
1751619077051525000,19.728525146484376,9.917651176452637,-2.595614433288574,4.999803066253662
1751619077070348800,19.747348876953126,9.88415241241455,-2.988037347793579,6.009573936462402
1751619077089172200,19.766172119140624,9.841081619262695,-2.8348965644836426,5.009374141693115
1751619077107996000,19.784995849609373,9.89850902557373,-3.0071799755096436,2.7984061241149902
1751619077126819300,19.8038193359375,10.075577735900879,-3.1316065788269043,0.2715853750705719
1751619077145642800,19.822642822265625,9.984650611877441,-2.973680257797241,-2.001596212387085
1751619077164466400,19.841466552734374,9.903294563293457,-0.2745763957500458,-5.964110374450684
1751619077183289900,19.860289794921876,9.965508460998535,3.721437454223633,-11.673385620117188
1751619077202113300,19.87911328125,9.932008743286133,5.334199905395508,-13.075579643249512
1751619077220937000,19.89793701171875,10.018150329589844,5.027918815612793,-10.917253494262695
1751619077239760400,19.916760498046877,9.860223770141602,2.376671075820923,-8.088936805725098
1751619077258584000,19.935583984375,9.984650611877441,-0.6622136831283569,-4.011567115783691
1751619077277407500,19.954407470703124,9.979865074157715,-3.026322364807129,-0.7812566161155701
1751619077296231000,19.97323095703125,9.802796363830566,-3.538386583328247,0.5395814776420593
1751619077315054600,19.9920546875,10.075577735900879,-4.457230567932129,1.6450655460357666
1751619077333878000,20.0108779296875,10.089935302734375,-5.275575637817383,3.9038901329040527
1751619077352701700,20.02970166015625,9.821938514709473,-4.466801643371582,5.306084156036377
1751619077371525000,20.048525146484376,9.8267240524292,-2.217548370361328,4.82751989364624
1751619077390348500,20.0673486328125,9.89850902557373,0.582054078578949,3.0664021968841553
1751619077409172200,20.086172119140624,9.917651176452637,-0.6191428303718567,1.353141188621521
1751619077437407500,20.114407470703124,9.960722923278809,-3.2416765689849854,4.908875465393066
1751619077456231000,20.13323095703125,9.860223770141602,-3.5336008071899414,5.8995041847229
1751619077475054600,20.1520546875,10.027721405029297,-3.6293137073516846,5.085944652557373
1751619077493878000,20.1708779296875,9.735796928405762,-3.466601848602295,3.5880374908447266
1751619077512701400,20.189701416015627,9.965508460998535,-3.3230323791503906,1.3196417093276978
1751619077531525000,20.208525146484376,10.018150329589844,-2.279761791229248,-2.796013355255127
1751619077550348500,20.2273486328125,9.970293998718262,1.2759727239608765,-10.371689796447754
1751619077569172200,20.246172119140624,9.893723487854004,5.520840167999268,-17.607585906982422
1751619077587995600,20.26499560546875,9.951150894165039,4.606781959533691,-13.056436538696289
1751619077606819300,20.2838193359375,9.955936431884766,4.831707000732422,-11.955738067626953
1751619077625642800,20.302642822265625,10.013364791870117,0.7639086246490479,-7.155735969543457
1751619077644466200,20.321466064453126,9.888937950134277,-2.1361923217773438,-2.513660192489624
1751619077663289900,20.340289794921876,10.16171932220459,-3.600599765777588,0.0323031060397625
1751619077682113300,20.35911328125,10.085148811340332,-5.7062835693359375,1.6929219961166382
1751619077700936700,20.377936767578124,9.865009307861328,-6.605985164642334,3.45882511138916
1751619077719760400,20.396760498046874,10.616355895996094,-5.648856163024902,4.157529354095459
1751619077738583800,20.415583740234375,9.989436149597168,-3.686741590499878,4.607379913330078
1751619077757407500,20.434407470703125,9.932008743286133,-0.45164528489112854,3.597608804702759
1751619077776231000,20.45323095703125,9.865009307861328,0.7830511927604675,3.4444682598114014
1751619077795054600,20.4720546875,9.946365356445312,0.5485545992851257,0.15194423496723175
1751619077813878000,20.4908779296875,9.946365356445312,-1.5379867553710938,2.664407968521118
1751619077832701400,20.509701416015623,9.93679428100586,-3.452244758605957,7.665407180786133
1751619077851525000,20.528525146484377,9.941579818725586,-3.906881093978882,7.684549808502197
1751619077870348500,20.5473486328125,10.003793716430664,-4.600799560546875,5.02851676940918
1751619077889172200,20.566172119140624,10.118648529052734,-4.844867706298828,2.090130567550659
1751619077907995600,20.58499560546875,9.979865074157715,-4.313661098480225,-1.3986048698425293
1751619077926819000,20.603819091796876,9.927223205566406,-2.782254457473755,-4.5236310958862305
1751619077945642800,20.622642822265625,10.018150329589844,0.8165507316589355,-8.26121997833252
1751619077964466200,20.641466064453127,9.92243766784668,5.338985443115234,-14.855839729309082
1751619077983289900,20.660289794921876,9.91286563873291,5.501697540283203,-12.400803565979004
1751619078002113300,20.67911328125,9.999007225036621,4.932205677032471,-11.515459060668945
1751619078020936700,20.697936767578124,10.104291915893555,1.922034740447998,-9.357132911682129
1751619078039760400,20.716760498046874,9.965508460998535,-1.8203397989273071,-6.346961975097656
1751619078058583800,20.735583740234375,9.908080101013184,-4.993222713470459,-2.963510751724243
1751619078077407500,20.754407470703125,10.113862991333008,-10.429716110229492,2.96111798286438
1751619078096231000,20.77323095703125,10.180862426757812,-9.295517921447754,8.459824562072754
1751619078115054600,20.7920546875,10.042078018188477,-5.768496990203857,11.651849746704102
1751619078133878000,20.8108779296875,9.874580383300781,0.9266205430030823,6.713063716888428
1751619078152701400,20.829701416015624,9.89850902557373,1.1994023323059082,1.4057832956314087
1751619078171525000,20.848525146484373,9.917651176452637,-0.3798605799674988,1.5493526458740234
1751619078190348500,20.8673486328125,9.984650611877441,-2.2031915187835693,3.128615617752075
1751619078209172000,20.886171875,9.999007225036621,-3.356531858444214,4.8466620445251465
1751619078227995600,20.90499560546875,9.970293998718262,-4.265804767608643,5.138586521148682
1751619078246819000,20.923819091796876,10.032506942749023,-3.1268210411071777,2.970689296722412
1751619078265642800,20.942642822265626,9.740582466125488,0.8979067206382751,-3.2793633937835693
1751619078284466200,20.961466064453123,9.970293998718262,3.5682966709136963,-9.893125534057617
1751619078303289900,20.980289794921877,9.999007225036621,2.5872395038604736,-10.749755859375
1751619078322113300,20.99911328125,9.869794845581055,1.2711870670318604,-4.4614176750183105
1751619078340936700,21.017936767578124,9.874580383300781,3.7357943058013916,-5.385047435760498
1751619078359760400,21.036760498046874,9.932008743286133,1.6444673538208008,-5.069194793701172
1751619078378583800,21.055583740234376,9.984650611877441,-1.3465609550476074,0.11844471842050552
1751619078397407500,21.074407470703125,9.946365356445312,-3.758526086807251,4.947160720825195
1751619078416231000,21.09323095703125,9.874580383300781,-3.9978084564208984,7.162914752960205
1751619078435054600,21.1120546875,9.93679428100586,-1.4949159622192383,1.4488540887832642
1751619078453878000,21.1308779296875,9.93679428100586,-0.29371899366378784,0.8075776696205139
1751619078472701400,21.149701416015624,9.93679428100586,0.9888339638710022,-0.9487541913986206
1751619078491525000,21.168525146484374,9.93679428100586,1.6588243246078491,-1.963310956954956
1751619078510348500,21.1873486328125,9.893723487854004,0.8787640929222107,0.04666004329919815
1751619078529172200,21.206172119140625,9.893723487854004,0.3236292600631714,-0.08255238085985184
1751619078547995600,21.22499560546875,9.888937950134277,0.3284149169921875,-0.13040883839130402
1751619078566819000,21.243819091796876,9.879366874694824,0.41934216022491455,-0.4701896607875824
1751619078585642800,21.262642822265626,9.903294563293457,0.3332005441188812,-0.4654040038585663
1751619078604466200,21.281466064453124,9.879366874694824,0.0364905446767807,0.9607182741165161
1751619078623289900,21.300289794921873,9.903294563293457,0.3236292600631714,-0.15912270545959473
1751619078642113300,21.31911328125,9.89850902557373,0.3523431420326233,-0.13519448041915894
1751619078660936700,21.337936767578125,9.893723487854004,0.31405797600746155,-0.09690931439399719
1751619078679760400,21.356760498046874,9.91286563873291,0.2997010350227356,-0.06340979784727097
1751619078698583800,21.375583740234376,9.932008743286133,0.2949153780937195,-0.13040883839130402
1751619078717407500,21.394407470703126,9.927223205566406,0.2949153780937195,-0.11605189740657806
1751619078736231000,21.41323095703125,9.92243766784668,0.3332005441188812,-0.005982056725770235
1751619078755054600,21.4320546875,9.91286563873291,0.2997010350227356,-0.09690931439399719
1751619078773878000,21.4508779296875,9.917651176452637,0.3188436031341553,-0.1256231814622879
1751619078792701400,21.469701416015624,9.93679428100586,0.34277185797691345,-0.10648060590028763
1751619078811525000,21.488525146484374,9.917651176452637,0.3188436031341553,-0.13998012244701385
1751619078830348500,21.5073486328125,9.908080101013184,0.2949153780937195,-0.07776673883199692
1751619078849172200,21.526172119140625,9.869794845581055,0.2805584669113159,-0.0729810893535614
1751619078867995600,21.54499560546875,9.89850902557373,0.2566302418708801,-0.24526432156562805
1751619078886819300,21.5638193359375,9.91286563873291,0.30927231907844543,-0.1495514214038849
1751619078905642800,21.582642822265626,9.903294563293457,0.31405797600746155,-0.09212367236614227
1751619078924466400,21.601466552734376,9.903294563293457,0.3236292600631714,-0.04905286431312561
1751619078943289900,21.620289794921874,9.927223205566406,0.3475574851036072,-0.05383851006627083
1751619078962113300,21.63911328125,9.91286563873291,0.3762713670730591,-0.02512463741004467
1751619078980937000,21.65793701171875,9.932008743286133,0.29012975096702576,-0.13519448041915894
1751619078999760400,21.676760498046875,9.91286563873291,0.2805584669113159,-0.08733802288770676
1751619079018584000,21.695583984375,9.91286563873291,0.30927231907844543,-0.14476576447486877
1751619079037407500,21.714407470703126,9.927223205566406,0.3284149169921875,-0.10648060590028763
1751619079056231200,21.733231201171876,9.893723487854004,0.3044866919517517,-0.0011964113218709826
1751619079075054600,21.7520546875,9.91286563873291,0.26620152592658997,-0.10169496387243271
1751619079093878000,21.7708779296875,9.893723487854004,0.29012975096702576,-0.24047867953777313
1751619079112701700,21.78970166015625,9.917651176452637,0.36670008301734924,-0.2356930375099182
1751619079131525000,21.808525146484374,9.917651176452637,0.3810569941997528,-0.08733802288770676
1751619079150348800,21.827348876953124,9.903294563293457,0.36191442608833313,-0.0011964113218709826
1751619079169172200,21.846172119140626,9.92243766784668,0.36191442608833313,-0.039481572806835175
1751619079187995600,21.86499560546875,9.92243766784668,0.3236292600631714,-0.12083754688501358
1751619079206819300,21.8838193359375,9.92243766784668,0.2709871530532837,-0.15912270545959473
1751619079225642800,21.902642822265626,9.908080101013184,0.21355941891670227,-0.1495514214038849
1751619079244466400,21.921466552734376,9.917651176452637,0.23748764395713806,-0.17347964644432068
1751619079263289900,21.940289794921874,9.941579818725586,0.2757728099822998,-0.21176479756832123
1751619079282113300,21.95911328125,9.927223205566406,0.30927231907844543,-0.13040883839130402
1751619079300937000,21.97793701171875,9.893723487854004,0.3236292600631714,-0.09212367236614227
1751619079319760400,21.996760498046875,9.888937950134277,0.3284149169921875,-0.058624155819416046
1751619079338584000,22.015583984375,9.893723487854004,0.3810569941997528,-0.07776673883199692
1751619079357407500,22.034407470703126,9.91286563873291,0.3762713670730591,-0.07776673883199692
1751619079376231200,22.053231201171876,9.917651176452637,0.3332005441188812,-0.0729810893535614
1751619079395054600,22.0720546875,9.903294563293457,0.2997010350227356,-0.07776673883199692
1751619079413878000,22.0908779296875,9.91286563873291,0.2949153780937195,-0.11605189740657806
1751619079432701700,22.10970166015625,9.917651176452637,0.30927231907844543,-0.1543370634317398
1751619079451525000,22.128525146484375,9.93679428100586,0.3044866919517517,-0.12083754688501358
1751619079470348800,22.147348876953124,9.917651176452637,0.30927231907844543,-0.10648060590028763
1751619079489172200,22.166172119140626,9.932008743286133,0.3236292600631714,-0.11605189740657806
1751619079507996000,22.184995849609376,9.927223205566406,0.33798620104789734,-0.13519448041915894
1751619079526819300,22.2038193359375,9.91286563873291,0.31405797600746155,-0.11605189740657806
1751619079555054600,22.2320546875,9.917651176452637,0.31405797600746155,-0.08255238085985184
1751619079573878300,22.250878173828124,9.917651176452637,0.31405797600746155,-0.11605189740657806
1751619079592701700,22.26970166015625,9.927223205566406,0.3332005441188812,-0.11126625537872314
1751619079611525400,22.288525390625,9.927223205566406,0.33798620104789734,-0.10648060590028763
1751619079630348800,22.307348876953125,9.917651176452637,0.3332005441188812,-0.08733802288770676
1751619079649172200,22.326172119140626,9.908080101013184,0.31405797600746155,-0.08733802288770676
1751619079667996000,22.344995849609376,9.908080101013184,0.3188436031341553,-0.12083754688501358
1751619079686819300,22.3638193359375,9.927223205566406,0.2805584669113159,-0.18783657252788544
1751619079705643000,22.38264306640625,9.903294563293457,0.26620152592658997,-0.19740787148475647
1751619079724466400,22.401466552734377,9.89850902557373,0.29012975096702576,-0.11605189740657806
1751619079743290000,22.4202900390625,9.903294563293457,0.3188436031341553,-0.06340979784727097
1751619079762113500,22.439113525390624,9.927223205566406,0.3236292600631714,-0.05383851006627083
1751619079780937000,22.45793701171875,9.932008743286133,0.34277185797691345,-0.06819544732570648
1751619079799760600,22.4767607421875,9.917651176452637,0.36191442608833313,-0.0729810893535614
1751619079818584000,22.495583984375,9.92243766784668,0.3236292600631714,-0.06819544732570648
1751619079837407700,22.51440771484375,9.92243766784668,0.3236292600631714,-0.07776673883199692
1751619079856231200,22.533231201171876,9.89850902557373,0.28534409403800964,-0.09212367236614227
1751619079875054600,22.5520546875,9.917651176452637,0.2997010350227356,-0.15912270545959473
1751619079893878300,22.570878173828124,9.908080101013184,0.2709871530532837,-0.16869398951530457
1751619079912701700,22.58970166015625,9.888937950134277,0.2997010350227356,-0.13040883839130402
1751619079931525400,22.608525390625,9.91286563873291,0.3188436031341553,-0.10169496387243271
1751619079950348800,22.627348876953125,9.908080101013184,0.3332005441188812,-0.09212367236614227
1751619079969172500,22.64617236328125,9.908080101013184,0.3332005441188812,-0.09690931439399719
1751619079987996000,22.664995849609376,9.91286563873291,0.3332005441188812,-0.0729810893535614
1751619080006819300,22.6838193359375,9.92243766784668,0.33798620104789734,-0.08255238085985184
1751619080025643000,22.70264306640625,9.91286563873291,0.34277185797691345,-0.08255238085985184
1751619080044466400,22.721466552734373,9.917651176452637,0.3188436031341553,-0.11605189740657806
1751619080063290000,22.7402900390625,9.932008743286133,0.29012975096702576,-0.1256231814622879
1751619080082113500,22.759113525390624,9.927223205566406,0.2757728099822998,-0.13998012244701385
1751619080100937200,22.777937255859374,9.927223205566406,0.2997010350227356,-0.15912270545959473
1751619080119760600,22.7967607421875,9.92243766784668,0.30927231907844543,-0.14476576447486877
1751619080138584000,22.815583984375,9.893723487854004,0.31405797600746155,-0.09690931439399719
1751619080157407700,22.83440771484375,9.88415241241455,0.3044866919517517,-0.04426721855998039
1751619080176231200,22.853231201171877,9.893723487854004,0.3188436031341553,-0.04426721855998039
1751619080195054800,22.872054931640626,9.927223205566406,0.3762713670730591,-0.10169496387243271
1751619080213878300,22.890878173828124,9.903294563293457,0.3523431420326233,-0.1256231814622879
1751619080232702000,22.909701904296874,9.917651176452637,0.31405797600746155,-0.06819544732570648
1751619080251525400,22.928525390625,9.917651176452637,0.28534409403800964,-0.08733802288770676
1751619080270348800,22.947348876953125,9.932008743286133,0.28534409403800964,-0.15912270545959473
1751619080289172500,22.96617236328125,9.941579818725586,0.2949153780937195,-0.1543370634317398
1751619080307996000,22.984995849609376,9.92243766784668,0.29012975096702576,-0.08733802288770676
1751619080326819600,23.003819580078126,9.91286563873291,0.30927231907844543,-0.05383851006627083
1751619080345643000,23.02264306640625,9.927223205566406,0.30927231907844543,-0.09690931439399719
1751619080364466700,23.041466796875,9.917651176452637,0.3188436031341553,-0.1256231814622879
1751619080383290000,23.0602900390625,9.917651176452637,0.3284149169921875,-0.09212367236614227
1751619080402113500,23.079113525390625,9.903294563293457,0.3236292600631714,-0.07776673883199692
1751619080420937200,23.097937255859375,9.903294563293457,0.34277185797691345,-0.10169496387243271
1751619080439760600,23.1167607421875,9.92243766784668,0.3044866919517517,-0.10648060590028763
1751619080458584300,23.135584228515626,9.89850902557373,0.29012975096702576,-0.12083754688501358
1751619080477407700,23.15440771484375,9.893723487854004,0.2997010350227356,-0.08733802288770676
1751619080496231400,23.1732314453125,9.91286563873291,0.2805584669113159,-0.13998012244701385
1751619080515054800,23.192054931640627,9.927223205566406,0.3188436031341553,-0.13998012244701385
1751619080533878500,23.21087841796875,9.908080101013184,0.31405797600746155,-0.09212367236614227
1751619080552702000,23.229701904296874,9.917651176452637,0.3236292600631714,-0.05383851006627083
