time,seconds_elapsed,z,y,x
1750928835689979400,0.1659794921875,-0.03827190399169922,0.03990285098552704,-0.006115138530731201
1750928835755862300,0.2318623046875,-0.2614870071411133,-0.2727442681789398,0.0739787220954895
1750928835793510000,0.269510009765625,0.5075111389160156,0.6503169536590576,-0.2685655951499939
1750928835812333600,0.28833349609375,0.6339797973632812,0.31203848123550415,-0.07906067371368408
1750928835831157200,0.3071572265625,0.39203834533691406,-0.04754170775413513,0.0013964176177978516
1750928835849981000,0.32598095703125,0.10730457305908203,-0.32357102632522583,-0.000560462474822998
1750928835868804900,0.344804931640625,-0.10549354553222656,-0.33077409863471985,0.12246370315551758
1750928835887628500,0.363628662109375,-0.2223052978515625,-0.12522129714488983,0.25161314010620117
1750928835906452200,0.3824521484375,-0.41966819763183594,-0.05745232105255127,0.14738965034484863
1750928835925276000,0.40127587890625,-0.22318458557128906,-0.1297217607498169,0.12475407123565674
1750928835944099600,0.420099609375,-0.009141921997070312,-0.2501896023750305,-0.05680638551712036
1750928835962923300,0.43892333984375,0.12486553192138672,-0.07548782229423523,-0.28526461124420166
1750928835981747000,0.457746826171875,-0.012022018432617188,0.035873740911483765,-0.13624775409698486
1750928836000571000,0.47657080078125,-0.24129486083984375,-0.04497221112251282,0.12683892250061035
1750928836019394600,0.49539453125,-0.32151222229003906,-0.18771573901176453,0.2533043622970581
1750928836038218200,0.51421826171875,-0.239044189453125,0.04272422194480896,0.17440801858901978
1750928836057042000,0.5330419921875,-0.1403064727783203,0.09821760654449463,-0.01951885223388672
1750928836075865600,0.551865478515625,-0.020689010620117188,-0.035285741090774536,-0.09971630573272705
1750928836094689300,0.570689208984375,0.04133129119873047,-0.06598174571990967,-0.050444602966308594
1750928836113513200,0.58951318359375,0.018362998962402344,-0.0766950249671936,-0.02025425434112549
1750928836132337000,0.6083369140625,0.19716262817382812,-0.051581963896751404,-0.09707456827163696
1750928836151160600,0.62716064453125,0.3226499557495117,-0.03687070310115814,-0.08726787567138672
1750928836169984300,0.645984375,0.24441051483154297,-0.014111384749412537,-0.27447980642318726
1750928836188808000,0.664807861328125,0.18437767028808594,-0.061587050557136536,-0.06835475564002991
1750928836207632000,0.6836318359375,-0.036675453186035156,-0.0549623966217041,0.06451064348220825
1750928836226455600,0.70245556640625,-0.09114742279052734,-0.02406013011932373,0.12000769376754761
1750928836245279200,0.721279296875,-0.014096260070800781,-0.030606940388679504,0.08388882875442505
1750928836264103000,0.74010302734375,0.06033802032470703,-0.08267232775688171,0.059961169958114624
1750928836282926600,0.758926513671875,0.19341468811035156,0.055205926299095154,-0.07862710952758789
1750928836301750500,0.77775048828125,0.3030509948730469,0.09333536028862,-0.20340658724308014
1750928836320574200,0.79657421875,0.09634780883789062,-0.08652332425117493,-0.010735899209976196
1750928836339398000,0.81539794921875,-0.055716514587402344,0.11208778619766235,-0.009288102388381958
1750928836358221600,0.8342216796875,0.007473945617675781,-0.005139753222465515,0.13786327838897705
1750928836377045200,0.853045166015625,-0.09635734558105469,-0.1714959591627121,0.1202126145362854
1750928836395869200,0.871869140625,-0.0238494873046875,0.11819754540920258,0.033294677734375
1750928836414692900,0.89069287109375,-0.16915321350097656,-0.23362985253334045,0.12157103419303894
1750928836433516500,0.9095166015625,0.07932567596435547,0.23457258939743042,-0.05192971229553223
1750928836452340200,0.92834033203125,0.0006647109985351562,0.015815332531929016,-0.07916554808616638
1750928836471164000,0.947163818359375,-0.21001625061035156,-0.2467755675315857,0.02148348093032837
1750928836489987600,0.965987548828125,0.11394119262695312,0.26214614510536194,-0.045377373695373535
1750928836508811500,0.9848115234375,0.21230697631835938,0.0208590030670166,-0.10010699927806854
1750928836527635200,1.00363525390625,-0.015666961669921875,-0.28514569997787476,-0.02467590570449829
1750928836546459000,1.022458984375,0.059192657470703125,0.2264629304409027,0.08719214797019958
1750928836565282600,1.041282470703125,-0.2105560302734375,-0.05275484919548035,0.12208437919616699
1750928836584106500,1.0601064453125,-0.11697769165039062,0.09355802088975906,0.029001832008361816
1750928836612342000,1.088342041015625,0.2673158645629883,0.04602297395467758,-0.14378805458545685
1750928836631165700,1.107165771484375,-0.054195404052734375,-0.08547726273536682,-0.16220316290855408
1750928836649989400,1.1259892578125,0.09074687957763672,0.10130444169044495,0.1793590784072876
1750928836668813300,1.144813232421875,-0.06199455261230469,-0.08597800880670547,0.1336643397808075
1750928836687637000,1.163636962890625,-0.31992340087890625,-0.21376919746398926,-0.0335945188999176
1750928836706460700,1.182460693359375,0.1056509017944336,0.03495602309703827,0.1690257042646408
1750928836725284400,1.201284423828125,0.3960428237915039,-0.032312534749507904,0.07648947834968567
1750928836744108300,1.2201083984375,0.14058303833007812,0.18795645236968994,-0.20151932537555695
1750928836762932000,1.238931884765625,0.040126800537109375,0.08195165544748306,-0.08942312002182007
1750928836781755600,1.257755615234375,-0.07895660400390625,-0.02705416828393936,-0.022217050194740295
1750928836800579300,1.276579345703125,-0.34331226348876953,-0.16690996289253235,0.021714910864830017
1750928836819403000,1.295403076171875,-0.23638629913330078,0.09551580995321274,-0.1173887699842453
1750928836838227000,1.31422705078125,0.3683624267578125,-0.10047309845685959,0.1028670147061348
1750928836857050600,1.333050537109375,0.3023967742919922,0.11984782665967941,-0.06400059163570404
1750928836875874300,1.351874267578125,-0.17878437042236328,-0.009682536125183105,0.03530368208885193
1750928836894698000,1.370697998046875,-0.1672954559326172,-0.054390326142311096,-0.0214720219373703
1750928836913521700,1.389521728515625,0.02165985107421875,0.027887217700481415,-0.24286231398582458
1750928836932345600,1.408345703125,0.360687255859375,0.13583633303642273,0.0454191155731678
1750928836951169300,1.427169189453125,0.09637928009033203,0.05367027223110199,-0.10190202295780182
1750928836969993000,1.445992919921875,0.042865753173828125,-0.0007489621639251709,-0.04278481751680374
1750928836988816600,1.464816650390625,0.12310314178466797,0.12419066578149796,0.13848301768302917
1750928837007640600,1.483640625,-0.09398746490478516,0.2566579282283783,0.1151987612247467
1750928837026464300,1.50246435546875,0.4667081832885742,-0.24859219789505005,0.4649881422519684
1750928837045288000,1.521287841796875,0.45460987091064453,0.03167174011468887,-0.17084400355815887
1750928837064111600,1.540111572265625,-0.024274826049804688,0.08032333850860596,-0.1454600691795349
1750928837082935600,1.558935546875,-0.7422313690185547,-0.15506742894649506,0.14284607768058777
1750928837101759200,1.57775927734375,-0.68994140625,0.1533002257347107,0.1268448829650879
1750928837120583000,1.5965830078125,-0.4167823791503906,0.03691372275352478,-0.24342727661132812
1750928837139406600,1.615406494140625,0.29848289489746094,-0.1883818805217743,0.06221411004662514
1750928837158230500,1.63423046875,0.8727235794067383,-0.3157771825790405,-0.12084262818098068
1750928837177054200,1.65305419921875,1.742208480834961,0.12623843550682068,0.04267856851220131
1750928837195878000,1.6718779296875,1.484766960144043,-0.10536925494670868,-0.41352927684783936
1750928837214701600,1.69070166015625,-0.4689512252807617,-0.33340317010879517,0.03836756944656372
1750928837233525200,1.709525146484375,-0.015005111694335938,-0.33348578214645386,0.08717789500951767
1750928837252349200,1.72834912109375,0.05083179473876953,-0.04308599233627319,-1.2174570560455322
1750928837271172900,1.7471728515625,-0.28673553466796875,0.03224104642868042,-0.24384763836860657
1750928837289996500,1.76599658203125,-1.603261947631836,0.40538573265075684,-0.3754774332046509
1750928837308820500,1.784820556640625,-1.5919685363769531,0.5289450287818909,0.0662541389465332
1750928837327644200,1.80364404296875,-0.3234100341796875,0.2876151502132416,-0.27079060673713684
1750928837346467800,1.8224677734375,0.25417041778564453,0.217230886220932,-0.5743390917778015
1750928837365291500,1.84129150390625,-0.37577152252197266,0.40031036734580994,-0.6104749441146851
1750928837384115200,1.860115234375,-1.4007081985473633,0.8672296404838562,-0.46852636337280273
1750928837402939100,1.878939208984375,-0.2540445327758789,-0.0161457359790802,0.8851598501205444
1750928837421762800,1.8977626953125,0.08471202850341797,0.15783900022506714,1.582540512084961
1750928837440586500,1.91658642578125,-1.9150314331054688,-0.13814352452754974,1.818852186203003
1750928837459410400,1.935410400390625,-2.2682833671569824,0.11840327084064484,2.2931325435638428
1750928837478234000,1.954234130859375,-0.18525409698486328,0.44797664880752563,1.56497323513031
1750928837497057800,1.973057861328125,4.463138580322266,-0.8837884664535522,-0.38269537687301636
1750928837515881500,1.991881591796875,1.3566389083862305,-1.000664472579956,-1.0267817974090576
1750928837534705200,2.010705078125,-0.562077522277832,-0.20581254363059998,-1.4753735065460205
1750928837553529000,2.029529052734375,0.8771514892578125,-0.40710511803627014,-0.7875055074691772
1750928837572352800,2.048352783203125,0.48853302001953125,-0.07516059279441833,-0.5569824576377869
1750928837591176400,2.067176513671875,0.23570728302001953,-0.14807647466659546,0.017806455492973328
1750928837610000400,2.08600048828125,-0.5968837738037109,-0.09885181486606598,0.6926662921905518
1750928837628824000,2.104823974609375,0.10427093505859375,-0.07514193654060364,0.7803977727890015
1750928837647647700,2.123647705078125,0.2662687301635742,0.08509962260723114,0.3857229948043823
1750928837666471400,2.142471435546875,0.2713794708251953,0.12439212203025818,0.4863590598106384
1750928837685295400,2.16129541015625,0.13728904724121094,-0.12422171980142593,0.1411123275756836
1750928837704119000,2.180119140625,0.5799999237060547,-0.45108258724212646,0.2412787675857544
1750928837722942700,2.198942626953125,0.3051786422729492,-0.06823868304491043,-0.6420140266418457
1750928837741766400,2.217766357421875,-0.014013290405273438,0.028811432421207428,-0.5868424773216248
1750928837760590000,2.236590087890625,-0.36113548278808594,-0.04883106052875519,0.1079062819480896
1750928837779414000,2.2554140625,-0.2535381317138672,0.508267343044281,-0.19816350936889648
1750928837798237700,2.27423779296875,0.3413867950439453,-0.16240161657333374,-0.3429511785507202
1750928837817061400,2.293061279296875,-0.6925821304321289,0.2889496982097626,0.2634861469268799
1750928837835885300,2.31188525390625,-0.3082714080810547,0.3429921269416809,0.08366882801055908
1750928837854709000,2.330708984375,-0.0033092498779296875,0.18864092230796814,-0.12182003259658813
1750928837873532700,2.34953271484375,0.06413936614990234,-0.05286826193332672,0.03982198238372803
1750928837892356400,2.3683564453125,-0.5927114486694336,0.2765887379646301,0.43306440114974976
1750928837911180300,2.38718017578125,-0.1256418228149414,0.16373282670974731,-0.21889060735702515
1750928837930004000,2.40600390625,-0.264251708984375,0.2599157691001892,0.028101742267608643
1750928837948827600,2.42482763671875,-0.6366968154907227,0.19910567998886108,0.6926047801971436
1750928837967651600,2.443651611328125,-0.4800376892089844,0.20232170820236206,0.8271849751472473
1750928837986475300,2.462475341796875,0.024328231811523438,0.04417448863387108,0.3881837725639343
1750928838005299000,2.481298828125,-0.047347068786621094,-0.050414107739925385,-0.054546475410461426
1750928838024122600,2.50012255859375,0.06755924224853516,-0.02173943817615509,-0.16045117378234863
1750928838042946600,2.518946533203125,-0.07852935791015625,0.02110419049859047,-0.30774879455566406
1750928838061770200,2.537770263671875,-0.12766075134277344,0.10696054995059967,0.05545449256896973
1750928838080594000,2.556593994140625,0.1730489730834961,-0.04580172896385193,0.314494252204895
1750928838099417600,2.57541748046875,0.19133281707763672,-0.2577137053012848,0.25366687774658203
1750928838118241500,2.594241455078125,-0.12394905090332031,-0.10640472173690796,-0.04124271869659424
1750928838137065200,2.613065185546875,-0.1867504119873047,-0.09557154774665833,0.15152287483215332
1750928838155889000,2.631888916015625,-0.3092327117919922,-0.2149370163679123,-0.055312514305114746
1750928838174712800,2.650712890625,0.035012245178222656,-0.12967264652252197,0.07281601428985596
1750928838193536500,2.66953662109375,0.18642616271972656,0.157785564661026,-0.3677729368209839
1750928838212360200,2.688360107421875,0.3651847839355469,0.2711033225059509,-0.5072840452194214
1750928838231184000,2.707183837890625,-0.0042629241943359375,0.07260835915803909,-0.04849445819854736
1750928838250007800,2.7260078125,-0.09279346466064453,-0.15603257715702057,0.09482192993164062
1750928838268831500,2.74483154296875,-0.16643524169921875,-0.04893048107624054,0.06647264957427979
1750928838287655200,2.7636552734375,0.1608572006225586,0.04850904643535614,-0.3936736583709717
1750928838306478800,2.782478759765625,0.3760566711425781,0.3005356192588806,-0.39229440689086914
1750928838325302800,2.801302734375,-0.21757221221923828,-0.09067636728286743,0.026606321334838867
1750928838344126500,2.82012646484375,-0.7677059173583984,-0.28286466002464294,0.26636266708374023
1750928838362950100,2.8389501953125,-0.10504150390625,0.1621285080909729,-0.0057337284088134766
1750928838381774000,2.857774169921875,0.29526233673095703,-0.03674270585179329,-0.2816619873046875
1750928838400597800,2.87659765625,0.039340972900390625,-0.18566319346427917,-0.27533483505249023
1750928838419421400,2.89542138671875,-0.19057846069335938,-0.32012566924095154,0.36443233489990234
1750928838438245000,2.9142451171875,-0.5077085494995117,-0.24175332486629486,0.5555744171142578
1750928838457069000,2.933069091796875,-0.41981983184814453,0.23412078619003296,0.5201961994171143
1750928838475892700,2.951892822265625,0.020880699157714844,0.6624877452850342,-0.0063934326171875
1750928838494716400,2.97071630859375,0.5347166061401367,0.6645523309707642,-0.2919349670410156
1750928838513540000,2.9895400390625,0.11161518096923828,0.03891944885253906,-0.3141348361968994
1750928838532364000,3.008364013671875,-0.14344406127929688,-0.29203397035598755,0.1912364959716797
1750928838551187700,3.027187744140625,-0.39553260803222656,-0.23466388881206512,0.6360342502593994
1750928838570011400,3.046011474609375,-0.0701456069946289,-0.03465890884399414,0.4779343605041504
1750928838588835300,3.06483544921875,0.30413150787353516,0.29030317068099976,-0.10061883926391602
1750928838607659000,3.083658935546875,0.5450553894042969,0.5390864610671997,-0.2231287956237793
1750928838626482700,3.102482666015625,0.23018169403076172,0.3998710513114929,-0.08180618286132812
1750928838645306600,3.121306640625,-0.01731109619140625,0.017274051904678345,0.0998380184173584
1750928838664130300,3.14013037109375,-0.11730670928955078,-0.003150463104248047,0.3382418155670166
1750928838682954000,3.1589541015625,-0.022347450256347656,0.2777003347873688,0.5065553188323975
1750928838701777700,3.177777587890625,0.4295654296875,0.21648043394088745,0.04134702682495117
1750928838720601600,3.1966015625,0.5101766586303711,0.10616052150726318,-0.14188909530639648
1750928838739425300,3.21542529296875,0.20523738861083984,0.05287081003189087,-0.206695556640625
1750928838758249000,3.2342490234375,0.1632099151611328,0.02474328875541687,0.0595545768737793
1750928838777072600,3.25307275390625,-0.07431983947753906,-0.1662314236164093,0.19655084609985352
1750928838795896600,3.271896484375,-0.03002643585205078,-0.15638872981071472,0.18029499053955078
1750928838814720300,3.29072021484375,0.46352195739746094,-0.13622689247131348,-0.2493605613708496
1750928838833544000,3.3095439453125,0.6830453872680664,-0.12122222781181335,-0.3907756805419922
1750928838852368000,3.328367919921875,0.2906961441040039,-0.1489730179309845,-0.42659568786621094
1750928838871191600,3.347191650390625,0.11871337890625,-0.022134929895401,0.04892301559448242
1750928838890015200,3.36601513671875,-0.46257877349853516,0.060365647077560425,0.2697286605834961
1750928838908839200,3.384839111328125,-0.023598670959472656,0.6388012170791626,0.13869571685791016
1750928838927662800,3.403662841796875,0.28438377380371094,0.141780823469162,-0.059061527252197266
1750928838946486500,3.422486572265625,0.5173330307006836,0.06106787919998169,-0.5369267463684082
1750928838965310200,3.441310302734375,-0.09389591217041016,-0.22407189011573792,-0.40841245651245117
1750928838984134100,3.460134033203125,-0.06450271606445312,-0.4933779835700989,0.25997495651245117
1750928839002957800,3.478957763671875,-0.4143824577331543,0.3909057378768921,0.33772802352905273
1750928839021781500,3.497781494140625,1.1565675735473633,0.9106948375701904,0.28073787689208984
1750928839040605400,3.51660546875,-0.3419685363769531,-0.1444982886314392,0.08217239379882812
1750928839059429000,3.53542919921875,0.4189486503601074,-0.4090287983417511,0.8254170417785645
1750928839078252800,3.554252685546875,0.23168230056762695,0.3978569209575653,0.07940530776977539
1750928839097076700,3.57307666015625,-0.18132591247558594,0.2677992582321167,0.24487876892089844
1750928839115900400,3.591900390625,0.06498193740844727,0.6516270637512207,-0.1929173469543457
1750928839134724000,3.61072412109375,-0.7363605499267578,0.46180522441864014,0.10892009735107422
1750928839153547800,3.6295478515625,-0.22817516326904297,-0.35081467032432556,-0.13677310943603516
1750928839172371700,3.648371826171875,0.3254852294921875,-0.5568075776100159,0.2899293899536133
1750928839191195400,3.6671953125,0.7788681983947754,-0.048584818840026855,0.5896849632263184
1750928839210019000,3.68601904296875,-1.4604182243347168,-0.571968674659729,2.2484636306762695
1750928839228843000,3.704843017578125,-0.7311434745788574,0.3040073812007904,0.8208737373352051
1750928839247666700,3.723666748046875,2.9010138511657715,0.8474502563476562,-3.3048458099365234
1750928839266490400,3.742490478515625,-0.6500086784362793,-0.7978776693344116,0.5804905891418457
1750928839285314000,3.76131396484375,-1.5895733833312988,-0.24991349875926971,2.154606342315674
1750928839304138000,3.780137939453125,1.6515474319458008,1.2889792919158936,-1.5687885284423828
1750928839322961700,3.798961669921875,0.4580078125,0.8712001442909241,-1.4709086418151855
1750928839351197200,3.827197265625,-0.018924236297607422,-0.6165072917938232,-0.7792706489562988
1750928839370021000,3.846021240234375,0.6267390251159668,-0.7862725257873535,0.11157464981079102
1750928839388844800,3.8648447265625,-0.15941095352172852,-1.0744518041610718,1.0022773742675781
1750928839407668500,3.88366845703125,0.0698094367980957,-0.25094735622406006,0.6592879295349121
1750928839426492400,3.902492431640625,0.5375885963439941,0.4485872685909271,-0.3811326026916504
1750928839445316000,3.921316162109375,0.3876948356628418,-0.12882615625858307,-0.021392345428466797
1750928839464139800,3.940139892578125,-0.5459628105163574,-0.14438097178936005,0.20191669464111328
1750928839482963700,3.958963623046875,-1.0789995193481445,0.19394323229789734,0.8331203460693359
1750928839501787400,3.977787353515625,0.46851110458374023,0.2897332012653351,0.4485898017883301
1750928839520611000,3.996611083984375,0.5643343925476074,0.24475154280662537,-0.05121660232543945
1750928839539435000,4.01543505859375,-0.526033878326416,-0.7492935061454773,0.35254859924316406
1750928839558258700,4.0342587890625,0.05375099182128906,0.11455833166837692,0.5405764579772949
1750928839577082400,4.053082275390625,1.6740131378173828,0.6815965175628662,-0.660459041595459
1750928839595906000,4.071906005859375,-0.24873733520507812,0.006778448820114136,-0.40916013717651367
1750928839614730000,4.09072998046875,-0.43485498428344727,-0.05093216150999069,-0.9150686264038086
1750928839633553700,4.1095537109375,-0.3074913024902344,-0.21886786818504333,-0.5746521949768066
1750928839652377300,4.12837744140625,0.9642477035522461,0.013691619038581848,-0.19439029693603516
1750928839671201300,4.147201171875,0.224822998046875,0.2230401188135147,0.4831099510192871
1750928839690025000,4.16602490234375,0.3027153015136719,0.3614853322505951,0.3408818244934082
1750928839708848600,4.1848486328125,0.08451223373413086,0.01517099142074585,0.38888072967529297
1750928839727672600,4.203672607421875,-0.10739660263061523,0.06655436754226685,0.07738351821899414
1750928839746496300,4.222496337890625,-0.14536666870117188,-0.14198587834835052,1.4079041481018066
1750928839765320000,4.24131982421875,0.2473616600036621,0.34569916129112244,0.8945603370666504
1750928839784144000,4.260143798828125,0.3745412826538086,0.8776373267173767,-0.14682292938232422
1750928839802967600,4.278967529296875,-0.47753143310546875,0.533749520778656,0.012824058532714844
1750928839821791200,4.297791259765625,-0.07907962799072266,0.4097278118133545,-0.4407634735107422
1750928839840615000,4.316614990234375,0.6771082878112793,0.39524751901626587,-0.1522541046142578
1750928839859438800,4.33543896484375,0.6374959945678711,0.38595443964004517,0.05684661865234375
1750928839878262500,4.354262451171875,0.028394222259521484,0.3872683644294739,-0.029412269592285156
1750928839897086200,4.373086181640625,-0.21013307571411133,0.17332889139652252,-0.2530241012573242
1750928839915910100,4.39191015625,0.16843461990356445,0.20391510426998138,-0.12457084655761719
1750928839934733800,4.41073388671875,-0.08802413940429688,0.11511501669883728,-0.15260982513427734
1750928839953557500,4.4295576171875,-0.23333454132080078,0.22665584087371826,0.47034215927124023
1750928839972381400,4.44838134765625,-0.07102537155151367,0.27660349011421204,0.20806407928466797
1750928839991205000,4.467205078125,0.2405681610107422,0.3919179439544678,-0.31259822845458984
1750928840010028800,4.48602880859375,0.40572071075439453,0.41634419560432434,0.12589550018310547
1750928840028852500,4.5048525390625,0.3091001510620117,-0.00010258704423904419,0.25966930389404297
1750928840047676400,4.523676513671875,0.6546154022216797,0.02447408437728882,-0.14891624450683594
1750928840066500000,4.5425,0.3788595199584961,0.4013602137565613,0.021959304809570312
1750928840085324000,4.561323974609375,0.32247209548950195,0.4877852201461792,0.15950965881347656
1750928840104147700,4.580147705078125,0.3902120590209961,0.5406455993652344,-0.07185649871826172
1750928840122971400,4.598971435546875,0.007212162017822266,0.24248525500297546,0.11618518829345703
1750928840141795300,4.61779541015625,0.3803749084472656,0.28189149498939514,0.10329627990722656
1750928840160619000,4.636618896484375,-0.19620847702026367,0.2233196198940277,0.31492137908935547
1750928840179442700,4.655442626953125,-0.236083984375,-0.061441898345947266,0.31496334075927734
1750928840198266400,4.674266357421875,0.2493281364440918,-0.4637182354927063,-0.028969764709472656
1750928840217090300,4.69309033203125,0.7708854675292969,-0.4566481113433838,-0.28868675231933594
1750928840235914000,4.7119140625,-0.66522216796875,0.24608254432678223,-0.1463479995727539
1750928840254737700,4.730737548828125,-0.1839306354522705,0.43707191944122314,-0.1333026885986328
1750928840273561600,4.7495615234375,0.07838153839111328,0.12706375122070312,-0.03651237487792969
1750928840292385300,4.76838525390625,0.04050159454345703,-0.40236616134643555,0.03688335418701172
1750928840311209000,4.787208984375,0.48101234436035156,-0.21956825256347656,-0.019670486450195312
1750928840330033000,4.806032958984375,0.3283843994140625,-0.09926402568817139,0.11933135986328125
1750928840348856600,4.824856689453125,-0.11805510520935059,0.20446908473968506,-0.20543384552001953
1750928840367680300,4.84368017578125,0.2637629508972168,0.2612600326538086,-0.16041183471679688
1750928840386504000,4.86250390625,-0.16778898239135742,-0.20283234119415283,0.1521739959716797
1750928840405328000,4.881327880859375,-0.1734607219696045,-0.25534164905548096,0.0065097808837890625
1750928840424151600,4.900151611328125,0.23499822616577148,0.06405454874038696,0.007892608642578125
1750928840442975500,4.9189755859375,0.21973705291748047,0.06923407316207886,0.1196441650390625
1750928840461799200,4.937799072265625,-0.03263735771179199,0.06664687395095825,-0.009642601013183594
1750928840480622800,4.956622802734375,-0.1743311882019043,0.1149747371673584,0.07200336456298828
1750928840499446800,4.97544677734375,-0.1854534149169922,-0.10469681024551392,0.21582698822021484
1750928840537094100,5.01309423828125,0.14082694053649902,0.07979142665863037,-0.31052112579345703
1750928840555917800,5.031917724609375,0.22857093811035156,0.2724784314632416,-0.28038597106933594
1750928840574741800,5.05074169921875,-0.004856109619140625,0.19250723719596863,-0.0644674301147461
1750928840593565400,5.0695654296875,0.1977694034576416,0.06924265623092651,0.07890892028808594
1750928840612389000,5.08838916015625,0.17574667930603027,0.21029594540596008,0.04346275329589844
1750928840631213000,5.107213134765625,0.2052609920501709,0.40732699632644653,-0.05862712860107422
1750928840650036700,5.12603662109375,-0.09266090393066406,0.3090430498123169,0.25145626068115234
1750928840668860400,5.1448603515625,-0.2543370723724365,0.18013998866081238,0.02106475830078125
1750928840687684400,5.163684326171875,-0.36263489723205566,0.05828520655632019,0.20732784271240234
1750928840706508000,5.182508056640625,1.2400391101837158,0.13349273800849915,-0.2955760955810547
1750928840725331700,5.201331787109375,0.11483454704284668,-0.25383836030960083,0.48246192932128906
1750928840744155600,5.22015576171875,-0.07055807113647461,-0.07179129123687744,0.25901031494140625
1750928840762979300,5.238979248046875,-0.3403899669647217,0.2534644603729248,0.15065479278564453
1750928840781803000,5.257802978515625,-0.30891895294189453,0.26473861932754517,0.2550048828125
1750928840800627000,5.276626953125,-0.14533472061157227,0.3954114019870758,0.0898447036743164
1750928840819450600,5.29545068359375,-0.04094719886779785,0.1967047154903412,-0.07440567016601562
1750928840838274300,5.3142744140625,0.6089389324188232,0.10685935616493225,-0.42129993438720703
1750928840857098200,5.33309814453125,0.6021924018859863,-0.12036755681037903,-0.12717914581298828
1750928840875922000,5.351921875,0.7125420570373535,0.10227683186531067,-0.13332557678222656
1750928840894745600,5.37074560546875,-0.14291977882385254,0.30959898233413696,-0.4696798324584961
1750928840913569500,5.389569580078125,-0.3375915288925171,-0.10323071479797363,-0.13361454010009766
1750928840932393200,5.408393310546875,-0.4570639133453369,-0.1259196400642395,0.6652021408081055
1750928840951217000,5.427216796875,-0.23676073551177979,0.23462647199630737,0.30531787872314453
1750928840970040800,5.446040771484375,0.1859598159790039,0.6610173583030701,0.4597129821777344
1750928840988864500,5.464864501953125,0.5613051652908325,0.6690109968185425,-0.14021778106689453
1750928841007688200,5.483688232421875,0.7339500188827515,0.3141546845436096,-0.16164112091064453
1750928841026512100,5.50251220703125,0.7970070838928223,0.03280457854270935,-0.37709903717041016
1750928841045335800,5.521335693359375,0.7211660742759705,-0.17297324538230896,-0.5068378448486328
1750928841064159500,5.540159423828125,-0.18910014629364014,-0.1819477677345276,0.18115615844726562
1750928841082983200,5.558983154296875,-0.5786981582641602,0.08289515972137451,0.030527114868164062
1750928841101807000,5.57780712890625,-0.651627242565155,0.4496321678161621,-0.2941598892211914
1750928841120630800,5.596630859375,-0.13190454244613647,0.12158188223838806,-0.11808586120605469
1750928841139454500,5.615454345703125,-0.15229225158691406,-0.5169110298156738,0.07608509063720703
1750928841158278400,5.6342783203125,0.2974478602409363,-0.0673932135105133,-0.213348388671875
1750928841177102000,5.65310205078125,0.19422513246536255,0.204472616314888,0.022856712341308594
1750928841195925800,5.67192578125,0.3542134761810303,0.21679963171482086,-0.13428211212158203
1750928841214749700,5.690749755859375,0.22101706266403198,0.05444931983947754,-0.0826253890991211
1750928841233573400,5.709573486328125,0.07436051964759827,0.0071475207805633545,-0.36421775817871094
1750928841252397300,5.728397216796875,0.4351367652416229,0.02275073528289795,-0.024774551391601562
1750928841271221000,5.747220947265625,0.5351099967956543,0.10650628805160522,0.1776447296142578
1750928841290044700,5.766044677734375,-0.3855934143066406,0.2607558071613312,-0.0026912689208984375
1750928841308868600,5.78486865234375,-0.3102540671825409,0.4421365559101105,-0.4644594192504883
1750928841327692300,5.8036923828125,0.19238373637199402,0.04262682795524597,-0.12982559204101562
1750928841346516000,5.822515869140625,0.8487628698348999,0.014863312244415283,-0.6797990798950195
1750928841365340000,5.84133984375,1.1667070388793945,0.009648054838180542,-0.46667957305908203
1750928841384163600,5.86016357421875,-0.021769940853118896,-0.08413256704807281,0.07741069793701172
1750928841402987300,5.8789873046875,-0.42213118076324463,-0.23248685896396637,0.6644001007080078
1750928841421811200,5.897811279296875,-0.009857892990112305,-0.12676137685775757,-0.039528846740722656
1750928841440635000,5.916634765625,0.11729001998901367,-0.258395254611969,0.6462736129760742
1750928841459458600,5.93545849609375,-0.1337619125843048,-0.1397988349199295,0.4160881042480469
1750928841478282200,5.9542822265625,0.18154838681221008,0.023510128259658813,0.24715518951416016
1750928841497106200,5.973106201171875,0.059484124183654785,0.1880543828010559,0.0671701431274414
1750928841515929900,5.991929931640625,-0.3327822685241699,0.10204082727432251,-0.003337860107421875
1750928841534753500,6.01075341796875,-0.5064283013343811,0.15999794006347656,0.16045761108398438
1750928841553577500,6.029577392578125,0.056134939193725586,0.41568657755851746,-0.3339223861694336
1750928841572401200,6.048401123046875,0.030348122119903564,0.39169827103614807,-0.5355672836303711
1750928841591224800,6.067224853515625,0.29132622480392456,0.16409024596214294,0.11962318420410156
1750928841610048800,6.086048828125,-0.07633602619171143,0.02132469415664673,0.1896953582763672
1750928841628872400,6.10487255859375,-0.08049428462982178,-0.032163381576538086,0.2062511444091797
1750928841647696100,6.123696044921875,-0.07166802883148193,0.015410363674163818,0.08452224731445312
1750928841666520000,6.14252001953125,-0.0915905237197876,0.05708703398704529,-0.2734384536743164
1750928841685343700,6.16134375,-0.48200035095214844,-0.13446596264839172,0.37885475158691406
1750928841704167400,6.18016748046875,-0.052675724029541016,-0.15049347281455994,0.13260364532470703
1750928841722991400,6.198991455078125,0.01931583881378174,-0.1534191071987152,0.3259897232055664
1750928841741815000,6.21781494140625,0.2329108715057373,0.05954648554325104,0.3785371780395508
1750928841760639000,6.236638916015625,0.32944345474243164,0.35062527656555176,-0.031383514404296875
1750928841779462700,6.255462646484375,0.5900428295135498,0.3896922469139099,-0.25534629821777344
1750928841798286300,6.274286376953125,0.14691853523254395,0.17245985567569733,-0.3485269546508789
1750928841817110300,6.2931103515625,0.4307737350463867,-0.11306479573249817,-0.20126056671142578
1750928841835934000,6.311933837890625,0.6728014945983887,-0.026739567518234253,-0.11545276641845703
1750928841854757600,6.330757568359375,0.0020952224731445312,0.326122522354126,-0.11107635498046875
1750928841873581600,6.34958154296875,-0.026771068572998047,0.32103824615478516,0.06692886352539062
1750928841892405200,6.3684052734375,0.20105266571044922,0.10654772818088531,0.0927896499633789
1750928841911229000,6.38722900390625,0.2500929832458496,-0.00042483583092689514,-0.05584144592285156
1750928841930052900,6.406052978515625,-0.09509539604187012,0.023365210741758347,-0.01848316192626953
1750928841948876500,6.42487646484375,-0.1866617202758789,0.04360319674015045,-0.13207530975341797
1750928841967700200,6.4437001953125,0.004197359085083008,-0.03974002227187157,0.010718345642089844
1750928841986524200,6.462524169921875,0.027987003326416016,-0.08119717985391617,0.10764026641845703
1750928842005347800,6.481347900390625,-0.1093142032623291,-0.04753555729985237,0.06849479675292969
1750928842024171500,6.500171630859375,0.10338854789733887,-0.02076406590640545,0.0920867919921875
1750928842042995500,6.518995361328125,0.0893857479095459,0.053589705377817154,-0.017841339111328125
1750928842061819100,6.537819091796875,-0.14309048652648926,0.09020519256591797,-0.10520458221435547
1750928842080642800,6.556642822265625,-0.07387757301330566,0.1675145924091339,-0.05594825744628906
1750928842099466800,6.575466796875,0.014129161834716797,0.16406464576721191,0.07956409454345703
1750928842118290400,6.59429052734375,0.23361897468566895,0.0959755927324295,-0.0064067840576171875
1750928842137114000,6.613114013671875,0.23105311393737793,0.07936084270477295,-0.02954387664794922
1750928842155938000,6.63193798828125,-0.2381908893585205,0.15235786139965057,-0.1330270767211914
1750928842174761700,6.65076171875,0.047414541244506836,0.0596085786819458,0.06745433807373047
1750928842193585400,6.66958544921875,0.19514751434326172,-0.012309521436691284,0.10459709167480469
1750928842212409300,6.688409423828125,0.3081381320953369,-0.07191471755504608,-0.011925697326660156
1750928842231233000,6.70723291015625,0.14676260948181152,0.04474543035030365,-0.05842304229736328
1750928842250056700,6.726056640625,-0.07345008850097656,-0.01714673638343811,0.013477325439453125
1750928842268880600,6.744880615234375,-0.03189826011657715,-0.02578817307949066,0.03751373291015625
1750928842287704300,6.763704345703125,0.04114675521850586,-0.13789403438568115,0.14213085174560547
1750928842306528000,6.782528076171875,-0.01693868637084961,0.006984934210777283,0.055823326110839844
1750928842325352000,6.80135205078125,-0.13265252113342285,0.3283579349517822,-0.10557937622070312
1750928842344175600,6.820175537109375,-0.14887523651123047,0.2950613796710968,-0.020742416381835938
1750928842362999600,6.83899951171875,-0.016421794891357422,0.22445428371429443,-0.031099319458007812
1750928842381823200,6.8578232421875,-0.18436861038208008,0.23380354046821594,0.02983570098876953
1750928842400647000,6.87664697265625,-0.07956504821777344,0.14340835809707642,-0.1343097686767578
1750928842419470800,6.895470947265625,-0.03356504440307617,-0.03677460178732872,-0.010370254516601562
1750928842438294500,6.91429443359375,0.27211856842041016,-0.17823578417301178,-0.14905166625976562
1750928842466530000,6.942530029296875,0.4703531265258789,-0.20995871722698212,-0.3254976272583008
1750928842485354000,6.96135400390625,0.02733325958251953,-0.24480901658535004,0.15384769439697266
1750928842504177700,6.980177734375,0.04599285125732422,0.09798561036586761,0.23345375061035156
1750928842523001300,6.99900146484375,-0.09464311599731445,0.33176445960998535,0.0044078826904296875
1750928842541825300,7.0178251953125,0.0969853401184082,0.20531582832336426,0.048003196716308594
1750928842560649000,7.03664892578125,-0.0015778541564941406,-0.04952885955572128,-0.024872779846191406
1750928842579473000,7.055472900390625,0.14614248275756836,-0.19693276286125183,0.041741371154785156
1750928842598296600,7.074296630859375,0.48595619201660156,0.08080475777387619,-0.029364585876464844
1750928842617120300,7.093120361328125,0.02293539047241211,0.19175171852111816,0.174285888671875
1750928842635944200,7.111944091796875,-0.14669275283813477,0.28254958987236023,0.37262725830078125
1750928842654767900,7.130767822265625,-0.005565643310546875,0.22418540716171265,-0.08898544311523438
1750928842673591600,7.149591552734375,-0.12623834609985352,0.02444695495069027,-0.2932901382446289
1750928842692415500,7.16841552734375,0.24419164657592773,-0.0767819955945015,0.06404590606689453
1750928842711239200,7.1872392578125,-0.034824371337890625,0.053400494158267975,-0.030508041381835938
1750928842730062800,7.206062744140625,-0.08666467666625977,0.25043174624443054,-0.08022212982177734
1750928842748886800,7.22488671875,-0.17358160018920898,0.22728390991687775,0.0018367767333984375
1750928842767710500,7.24371044921875,-0.2426156997680664,0.06610953062772751,-0.5265359878540039
1750928842786534100,7.2625341796875,0.038693904876708984,-0.2663837671279907,0.003520965576171875
1750928842805358000,7.281358154296875,0.5535330772399902,-0.1576082408428192,0.27962207794189453
1750928842824181800,7.300181640625,-0.05016279220581055,0.035018227994441986,0.23432350158691406
1750928842843005700,7.319005615234375,-0.27822160720825195,-0.09426774084568024,-0.04749441146850586
1750928842861829400,7.337829345703125,0.32982397079467773,-0.1115034744143486,-0.1500835418701172
1750928842880653000,7.356653076171875,0.0820455551147461,-0.11656021326780319,-0.08755207061767578
1750928842899477000,7.37547705078125,-0.2711639404296875,-0.10846991837024689,-0.028107166290283203
1750928842918300700,7.39430078125,-0.07061147689819336,0.16598570346832275,-0.09024810791015625
1750928842937124400,7.413124267578125,0.3004493713378906,0.3122585415840149,-0.12127494812011719
1750928842955948300,7.4319482421875,0.20543718338012695,0.002459496259689331,0.32970666885375977
1750928842974772000,7.45077197265625,0.13592243194580078,-0.0027916133403778076,0.20599699020385742
1750928842993596000,7.469595947265625,0.14105463027954102,0.11586511135101318,-0.09392404556274414
1750928843012419600,7.488419677734375,-0.11983060836791992,0.1296842396259308,0.20285367965698242
1750928843031243300,7.5072431640625,0.08293008804321289,0.18745136260986328,0.3071465492248535
1750928843050067200,7.526067138671875,0.012075424194335938,0.21451497077941895,0.017822265625
1750928843068891000,7.544890869140625,0.16739654541015625,0.12667429447174072,-0.024437904357910156
1750928843087714600,7.563714599609375,0.3182220458984375,-0.04448556900024414,0.03850364685058594
1750928843106538500,7.58253857421875,0.14516639709472656,0.13949748873710632,-0.2845430374145508
1750928843125362200,7.601362060546875,0.15909528732299805,0.14678138494491577,-0.029886245727539062
1750928843144185900,7.620185791015625,0.1450953483581543,0.007258757948875427,0.1770162582397461
1750928843163009800,7.639009765625,-0.04719352722167969,-0.052308037877082825,0.10700750350952148
1750928843181833500,7.65783349609375,-0.26296377182006836,-0.05741313099861145,0.0036563873291015625
1750928843200657400,7.676657470703125,-0.046517372131347656,-0.12791836261749268,0.0833282470703125
1750928843219481000,7.695481201171875,0.2641935348510742,-0.011153237894177437,-0.03149127960205078
1750928843238304800,7.7143046875,-0.15105533599853516,0.04037625715136528,-0.28783702850341797
1750928843257128700,7.733128662109375,0.041469573974609375,0.00442872941493988,0.14689922332763672
1750928843275952400,7.751952392578125,-0.18152952194213867,-0.03090818226337433,0.33104991912841797
1750928843294776000,7.770776123046875,-0.19336986541748047,-0.2012248933315277,0.25440502166748047
1750928843313600000,7.78960009765625,-0.08382987976074219,-0.12703897058963776,-0.23525381088256836
1750928843332423700,7.808423583984375,0.1705646514892578,0.0708235502243042,-0.17380619049072266
1750928843351247400,7.827247314453125,0.3567333221435547,0.09925684332847595,-0.02539348602294922
1750928843370071300,7.8460712890625,0.26793861389160156,-0.003149673342704773,0.14304590225219727
1750928843388895000,7.86489501953125,-0.14221477508544922,-0.08275426924228668,0.1927199363708496
1750928843407719000,7.883718994140625,0.16224145889282227,-0.04116952419281006,0.15780925750732422
1750928843426542600,7.90254248046875,0.2535567283630371,0.12901537120342255,0.07712793350219727
1750928843445366300,7.9213662109375,-0.14764881134033203,0.2580775022506714,0.06955099105834961
1750928843464190200,7.940190185546875,-0.43486595153808594,0.2644701898097992,-0.036122798919677734
1750928843483014000,7.959013916015625,-0.17706060409545898,-0.01652081310749054,-0.12401771545410156
1750928843501837600,7.977837646484375,0.05457162857055664,-0.09294220805168152,-0.0445704460144043
1750928843520661500,7.99666162109375,0.07437276840209961,-0.2928222417831421,0.24326515197753906
1750928843539485200,8.015485107421876,0.021543025970458984,-0.13813969492912292,0.1377701759338379
1750928843558308900,8.034308837890626,-0.2348766326904297,0.041299350559711456,-0.029693126678466797
1750928843577132800,8.0531328125,-0.1966400146484375,0.08348983526229858,0.12607288360595703
1750928843595956500,8.07195654296875,-0.3108973503112793,0.13551709055900574,-0.021586894989013672
1750928843614780400,8.090780517578125,-0.30318355560302734,-0.18907348811626434,0.05503034591674805
1750928843633604000,8.10960400390625,-0.3745722770690918,-0.08379722386598587,-0.09440088272094727
1750928843652427800,8.128427734375,0.1588759422302246,-0.031455688178539276,0.06290197372436523
1750928843671251700,8.147251708984374,0.43766212463378906,-0.008209463208913803,0.09224939346313477
1750928843690075400,8.166075439453126,0.07359790802001953,0.2912139594554901,-0.25837182998657227
1750928843708899000,8.184899169921875,-0.1931610107421875,0.45484089851379395,-0.03913736343383789
1750928843727723000,8.203722900390625,0.029046058654785156,0.03367055207490921,0.11322832107543945
1750928843746546700,8.222546630859375,1.0913400650024414,-0.5501997470855713,-0.048583030700683594
1750928843765370600,8.24137060546875,-0.3080730438232422,-0.2964002192020416,-0.22013473510742188
1750928843784194300,8.2601943359375,0.27332305908203125,-0.31341004371643066,-0.05357503890991211
1750928843803018000,8.27901806640625,0.06056499481201172,0.009102852083742619,0.18255281448364258
1750928843821842000,8.297842041015626,-0.16745758056640625,0.3059970438480377,0.2640380859375
1750928843840665600,8.31666552734375,0.27399539947509766,0.5209258198738098,0.23516511917114258
1750928843859489300,8.3354892578125,-0.08435535430908203,0.2696146070957184,0.25971078872680664
1750928843878313200,8.354313232421875,-0.1418008804321289,0.11479358375072479,-0.17405033111572266
1750928843897137000,8.373136962890625,0.09943485260009766,0.029890261590480804,-0.20329618453979492
1750928843915960800,8.3919609375,-0.07034969329833984,0.13955102860927582,-0.03643941879272461
1750928843934784500,8.410784423828124,0.45192813873291016,0.16577425599098206,0.13347625732421875
1750928843953608200,8.429608154296876,0.42283058166503906,-0.2759917974472046,0.10053491592407227
1750928843972432100,8.44843212890625,-0.13783740997314453,-0.3345842957496643,-0.25533056259155273
1750928843991255800,8.467255859375,-0.6140003204345703,-0.3578643202781677,-0.041448116302490234
1750928844010079700,8.486079833984375,-0.07413291931152344,0.10340030491352081,0.27108192443847656
1750928844028903400,8.5049033203125,-0.13404083251953125,0.4633358120918274,0.25188732147216797
1750928844047727000,8.52372705078125,-0.4257469177246094,0.11099299788475037,-0.3224210739135742
1750928844066551000,8.542551025390624,0.20914459228515625,-0.6662931442260742,-0.183640718460083
1750928844085374700,8.561374755859376,0.6533927917480469,-0.5907338261604309,-0.1346447467803955
1750928844104198400,8.580198486328126,-0.18052101135253906,0.14492881298065186,-0.21269631385803223
1750928844123022300,8.599022216796875,-0.9490852355957031,0.3409358263015747,-0.20584487915039062
1750928844141846000,8.617845947265625,-0.2318716049194336,0.19049817323684692,0.12603044509887695
1750928844160670000,8.636669921875,0.23091983795166016,-0.1838056445121765,0.4231588840484619
1750928844179493600,8.65549365234375,0.572117805480957,0.19201558828353882,-0.11295866966247559
1750928844198317300,8.6743173828125,0.3480405807495117,0.46017712354660034,-0.25857114791870117
1750928844217141200,8.693141357421876,-0.2944011688232422,0.2386736273765564,0.12819170951843262
1750928844235965000,8.71196484375,-0.37729930877685547,-0.41919517517089844,0.6193039417266846
1750928844254788900,8.730788818359375,0.6207113265991211,-0.2913232445716858,0.10988116264343262
1750928844273612500,8.749612548828125,0.9816703796386719,0.2597062587738037,0.0974588394165039
1750928844292436200,8.768436279296875,0.4756355285644531,0.5701584815979004,-0.22158265113830566
1750928844311260200,8.78726025390625,-0.43850231170654297,-0.06299597024917603,-0.07777762413024902
1750928844330083800,8.806083740234374,-1.2122507095336914,-0.47439712285995483,0.1920473575592041
1750928844348907500,8.824907470703126,-0.27678585052490234,-0.18043172359466553,0.32645535469055176
1750928844367731500,8.8437314453125,0.43690013885498047,0.27114102244377136,0.46432924270629883
1750928844386555100,8.86255517578125,-0.107879638671875,-0.22152838110923767,0.3971073627471924
1750928844405379000,8.881379150390625,-0.06865215301513672,-0.5245629549026489,-0.04887890815734863
1750928844424202800,8.90020263671875,0.23321819305419922,-0.4519585072994232,-0.2353501319885254
1750928844443026400,8.9190263671875,-0.6501569747924805,0.21027173101902008,-0.333651065826416
1750928844461850400,8.937850341796874,-0.03747367858886719,-0.0800555944442749,0.057373762130737305
1750928844480674000,8.956674072265624,0.5655126571655273,-0.7783105373382568,0.4428274631500244
1750928844499498000,8.975498046875,0.32157325744628906,-0.38374093174934387,-0.10197687149047852
1750928844518321700,8.99432177734375,0.11896228790283203,0.020654723048210144,-0.3567078113555908
1750928844537145300,9.013145263671875,0.37408447265625,0.2174595147371292,-0.26198816299438477
1750928844555969300,9.03196923828125,0.10538196563720703,-0.6085845232009888,0.12363028526306152
1750928844574793000,9.05079296875,-0.8125677108764648,-1.4260157346725464,0.354245662689209
1750928844593617000,9.069616943359375,-0.35525989532470703,-0.7668684720993042,1.0762662887573242
1750928844612440600,9.088440673828124,0.007480621337890625,0.9032034873962402,0.36222147941589355
1750928844631264300,9.10726416015625,0.140167236328125,1.1543914079666138,-0.45456743240356445
1750928844650088200,9.126088134765626,-0.24112987518310547,0.019791752099990845,-0.002258777618408203
1750928844668911900,9.144911865234375,-0.7779121398925781,-1.0627437829971313,-0.04196906089782715
1750928844687735600,9.163735595703125,-0.10135078430175781,0.06378999352455139,-0.04528379440307617
1750928844706559500,9.1825595703125,1.1746611595153809,0.8815324306488037,0.7586402893066406
1750928844725383200,9.201383056640625,0.9814395904541016,0.28202319145202637,0.5487096309661865
1750928844744207000,9.22020703125,-0.741999626159668,-0.37923210859298706,-0.28059911727905273
1750928844763030800,9.23903076171875,-1.1191949844360352,-0.7703765034675598,0.1935572624206543
1750928844781854500,9.2578544921875,-0.15826797485351562,0.06424278020858765,0.5239355564117432
1750928844800678400,9.276678466796875,0.9825248718261719,1.0063351392745972,-0.4172494411468506
1750928844819502000,9.295502197265625,-0.12606525421142578,0.13561886548995972,0.08079147338867188
1750928844838325800,9.31432568359375,-1.21484375,-0.18078666925430298,0.5386364459991455
1750928844857149700,9.333149658203125,-0.8909597396850586,0.5894626379013062,-0.003997802734375
1750928844875973400,9.351973388671874,0.04381084442138672,0.8143188953399658,-0.5574944019317627
1750928844894797300,9.37079736328125,0.44915008544921875,0.25064098834991455,-0.4869663715362549
1750928844913621000,9.38962109375,-0.16286468505859375,0.04684162139892578,0.09984898567199707
1750928844932444700,9.408444580078125,0.3337059020996094,0.09548112750053406,-0.3196544647216797
1750928844951268600,9.4272685546875,1.5443463325500488,-0.9722929000854492,-0.5883963108062744
1750928844970092300,9.44609228515625,0.5842523574829102,-1.3209145069122314,-0.0009200572967529297
1750928844988916200,9.464916259765625,0.4706296920776367,-0.6378351449966431,0.2899439334869385
1750928845007740000,9.483739990234374,-0.3098764419555664,0.017611980438232422,0.2892615795135498
1750928845026563800,9.502563720703124,-0.8029012680053711,0.209748774766922,0.12190675735473633
1750928845045387500,9.521387451171876,-0.5812034606933594,-0.13488787412643433,0.00028443336486816406
1750928845064211200,9.540211181640625,0.16112899780273438,0.0006045699119567871,-0.21678876876831055
1750928845083035100,9.55903515625,0.15371227264404297,0.13185977935791016,-0.031184673309326172
1750928845101858800,9.57785888671875,-0.7762107849121094,-0.24671155214309692,0.6952800750732422
1750928845120682800,9.596682861328125,-0.6776342391967773,-0.5004403591156006,0.6009283065795898
1750928845139506400,9.61550634765625,-0.150970458984375,-0.16055473685264587,-0.07412314414978027
1750928845158330000,9.634330078125,-0.26615142822265625,-0.16663673520088196,-0.13707423210144043
1750928845177154000,9.653154052734376,-0.10414886474609375,0.2709939777851105,-0.16655588150024414
1750928845195977700,9.671977783203126,0.690577507019043,0.3230825960636139,-0.3500216007232666
1750928845214801700,9.6908017578125,0.4414520263671875,0.10140833258628845,-0.3350040912628174
1750928845233625300,9.709625244140625,-0.29590511322021484,0.03297045826911926,0.05989480018615723
1750928845252449000,9.728448974609375,-0.029462814331054688,-0.024197936058044434,0.23290598392486572
1750928845271273000,9.74727294921875,-0.11734294891357422,-0.7258318662643433,0.06623053550720215
1750928845290096600,9.7660966796875,0.3744802474975586,-0.8058976531028748,-0.06405138969421387
1750928845308920600,9.784920654296876,-0.10741233825683594,0.12261316180229187,-0.6396799087524414
1750928845327744300,9.803744140625,0.44318294525146484,0.2630029320716858,-0.49475109577178955
1750928845346568000,9.82256787109375,-0.11684799194335938,-0.004837363958358765,0.28381943702697754
1750928845365392000,9.841391845703125,0.24622154235839844,0.14446911215782166,0.02098548412322998
1750928845384215600,9.860215576171875,0.8850440979003906,0.1903856098651886,-0.011546850204467773
1750928845403039500,9.87903955078125,0.4554710388183594,0.03317338228225708,-0.09601020812988281
1750928845421863200,9.89786328125,-0.34609127044677734,-0.5510287880897522,-0.06544005870819092
1750928845440687000,9.91668701171875,0.35254669189453125,-0.4962552785873413,-0.11622655391693115
1750928845459510800,9.9355107421875,0.2524557113647461,0.10665810108184814,-0.4656015634536743
1750928845478334500,9.95433447265625,0.4893817901611328,-0.6180672645568848,0.6716669201850891
1750928845497158400,9.973158447265625,1.3345003128051758,-0.3064079284667969,0.17801600694656372
1750928845515982000,9.991982177734375,0.16536521911621094,-0.359996497631073,0.5309556126594543
1750928845534805800,10.0108056640625,-0.7812824249267578,-0.21196618676185608,1.1406795978546143
1750928845553629700,10.029629638671874,-0.7938699722290039,-0.006835043430328369,1.0697604417800903
1750928845572453400,10.048453369140624,-0.8214006423950195,0.2538106143474579,0.1142350435256958
1750928845591277300,10.06727734375,-0.42557430267333984,0.3549654483795166,-0.28295183181762695
1750928845610101000,10.08610107421875,0.7947072982788086,0.2496303915977478,-1.037221908569336
1750928845628924700,10.104924560546875,0.7153348922729492,0.49913489818573,-1.1123502254486084
1750928845647748600,10.12374853515625,0.5840377807617188,0.18024301528930664,-0.19622445106506348
1750928845666572300,10.142572265625,-0.16511154174804688,-0.08205470442771912,0.8441762924194336
1750928845685396200,10.161396240234374,-0.014992713928222656,-0.18076905608177185,0.34503453969955444
1750928845704220000,10.180219970703124,-0.319793701171875,0.16285806894302368,-0.30527055263519287
1750928845723043600,10.199043701171876,-0.0497283935546875,-0.020672082901000977,-0.3643645644187927
1750928845741867500,10.217867431640625,0.935948371887207,0.24238485097885132,-0.3799806833267212
1750928845760691200,10.236691162109375,0.2111959457397461,0.30844300985336304,0.4670410752296448
1750928845779515100,10.25551513671875,-0.5134067535400391,0.14144569635391235,0.792334794998169
1750928845798338800,10.2743388671875,0.37425994873046875,0.23907321691513062,-0.012011826038360596
1750928845817162800,10.293162841796875,0.5375690460205078,0.2314600944519043,-0.06455111503601074
1750928845835986400,10.311986328125,-0.36142826080322266,-0.7070885300636292,0.4615110754966736
1750928845854810000,10.33081005859375,0.21843624114990234,-0.34203919768333435,-0.047035157680511475
1750928845873634000,10.349634033203126,0.22532272338867188,0.030560195446014404,0.07794719934463501
1750928845892457700,10.368457763671875,0.0738983154296875,-0.2402050793170929,-0.1783900260925293
1750928845911281700,10.38728173828125,0.5230379104614258,-0.0869184136390686,-0.24677544832229614
1750928845930105300,10.406105224609375,-0.17810535430908203,-0.5106500387191772,1.0095539093017578
1750928845948929300,10.42492919921875,-0.2936868667602539,-0.6848079562187195,0.8815065622329712
1750928845967753000,10.4437529296875,0.9220781326293945,-0.26011037826538086,-0.5846273899078369
1750928845986576600,10.46257666015625,0.9323091506958008,0.22158202528953552,-0.5665981769561768
1750928846005400600,10.481400634765626,-0.566925048828125,0.6495997905731201,0.3341453969478607
1750928846024224300,10.500224365234375,-0.6544399261474609,0.730741560459137,0.24276845157146454
1750928846043048200,10.519048095703125,0.01660633087158203,0.39900508522987366,-0.17113959789276123
1750928846061871900,10.537871826171875,0.045746803283691406,0.05046742409467697,0.030062854290008545
1750928846080695600,10.556695556640625,-0.05892753601074219,0.37678834795951843,-0.2347114086151123
1750928846099519500,10.57551953125,-0.16362285614013672,0.1298457682132721,0.01257273554801941
1750928846118343200,10.59434326171875,-0.2627143859863281,-0.3355112075805664,0.4564630389213562
1750928846137167000,10.6131669921875,-0.4910411834716797,-0.32844772934913635,0.667988121509552
1750928846155990800,10.63199072265625,0.2059793472290039,-0.13545572757720947,0.15846344828605652
1750928846174814500,10.650814453125,0.1947011947631836,-0.4152207374572754,-0.09018044173717499
1750928846193638400,10.669638427734375,0.1796588897705078,-0.2764154374599457,-0.2696358561515808
1750928846212462000,10.688462158203125,0.09424209594726562,-0.08807188272476196,0.1992255598306656
1750928846231286000,10.7072861328125,0.09549140930175781,-0.6633023023605347,0.4447808265686035
1750928846250109700,10.726109619140624,0.10908317565917969,-0.41703546047210693,0.2708102762699127
1750928846268933600,10.74493359375,0.3146095275878906,-0.0903138816356659,-0.24691808223724365
1750928846287757300,10.76375732421875,0.10216331481933594,0.22976592183113098,-0.2420530915260315
1750928846306581000,10.7825810546875,0.25551891326904297,0.2760303318500519,0.18704745173454285
1750928846325405000,10.801405029296875,0.3588886260986328,-0.043389543890953064,0.3505306839942932
1750928846344228600,10.820228515625,-0.350555419921875,-0.03190842270851135,0.45368942618370056
1750928846363052500,10.839052490234375,-0.3924407958984375,-0.10842622816562653,0.13563820719718933
1750928846381876200,10.857876220703124,-0.39310646057128906,0.28594082593917847,-0.28828442096710205
1750928846400700200,10.8767001953125,0.010987281799316406,0.007562801241874695,-0.14402101933956146
1750928846419523800,10.89552392578125,0.25791358947753906,0.0901188999414444,0.2693498730659485
1750928846438347500,10.914347412109375,-0.006794929504394531,0.39612820744514465,0.18120524287223816
1750928846457171500,10.93317138671875,-0.22308349609375,0.13231921195983887,-0.08469715714454651
1750928846475995100,10.9519951171875,-0.15956783294677734,-0.34002578258514404,0.14176183938980103
1750928846494819000,10.970819091796875,-0.09641170501708984,-0.4486769437789917,0.10098570585250854
1750928846513642800,10.989642822265624,0.019362449645996094,-0.183367520570755,-0.2072266787290573
1750928846532466700,11.008466796875,0.17378616333007812,-0.16807469725608826,-0.15359415113925934
1750928846551290400,11.027290283203126,0.29714202880859375,-0.05210155248641968,-0.03584153950214386
1750928846570114000,11.046114013671875,0.2540922164916992,0.09074699878692627,-0.024711444973945618
1750928846588938000,11.06493798828125,0.13007164001464844,-0.23751823604106903,0.17066200077533722
1750928846607761700,11.08376171875,-0.061896324157714844,-0.1912730187177658,0.11884242296218872
1750928846626585600,11.102585693359375,-0.11614036560058594,0.04712370038032532,0.03099152445793152
1750928846645409300,11.1214091796875,-0.023116111755371094,0.028535477817058563,0.05939243733882904
1750928846664233000,11.14023291015625,-0.013876914978027344,-0.03821742534637451,0.2282107025384903
1750928846683057000,11.159056884765626,0.11250019073486328,0.08107182383537292,-0.016037538647651672
1750928846701880600,11.177880615234375,0.2118072509765625,0.28067612648010254,-0.39845144748687744
1750928846720704500,11.19670458984375,-0.04719066619873047,0.13218143582344055,0.033443793654441833
1750928846739528200,11.215528076171875,-0.19353485107421875,-0.11693839728832245,0.14966659247875214
1750928846758352100,11.23435205078125,-0.0676116943359375,-0.2688411474227905,0.2212579846382141
1750928846777175800,11.25317578125,-0.061532020568847656,-0.2081417292356491,0.2108791172504425
1750928846795999500,11.27199951171875,-0.007773399353027344,-0.07819622755050659,0.3195092976093292
1750928846814823400,11.290823486328126,-0.02821063995361328,0.13996103405952454,0.042682480067014694
1750928846833647000,11.309647216796876,0.13602066040039062,0.20262616872787476,-0.2806681990623474
1750928846852471000,11.328470947265625,0.30295848846435547,-0.13854491710662842,-0.10589849948883057
1750928846871294700,11.347294677734375,0.3889427185058594,-0.36791080236434937,0.17128482460975647
1750928846890118700,11.36611865234375,-0.030013084411621094,0.004744827747344971,-0.09423191845417023
1750928846908942300,11.3849423828125,0.056763648986816406,0.15086394548416138,0.06921689212322235
1750928846927766300,11.403766357421874,-0.1661539077758789,0.07170599699020386,0.323045939207077
1750928846946590000,11.42258984375,0.015720367431640625,-0.19189059734344482,0.23855797946453094
1750928846965413600,11.44141357421875,0.33330249786376953,-0.02342170476913452,-0.2999890446662903
1750928846984237600,11.460237548828125,0.11673259735107422,0.08036035299301147,-0.1225464940071106
1750928847003061200,11.479061279296875,-0.18711280822753906,0.11205247044563293,0.2976670265197754
1750928847021885000,11.497885009765625,-0.16385459899902344,0.08020782470703125,0.2638854384422302
1750928847040708900,11.516708984375,-0.07303237915039062,-0.008364111185073853,0.14860379695892334
1750928847059532500,11.535532470703124,0.3032503128051758,0.13467928767204285,-0.18160933256149292
1750928847078356500,11.5543564453125,0.12223052978515625,0.012386530637741089,0.16695117950439453
1750928847097180200,11.57318017578125,0.06471729278564453,-0.33063551783561707,0.539715051651001
1750928847116004000,11.592004150390625,-0.1651010513305664,-0.05790954828262329,0.37912386655807495
1750928847134827800,11.610827880859375,-0.16421222686767578,0.10060599446296692,-0.02146744728088379
1750928847153651700,11.629651611328125,0.0006608963012695312,-0.15441785752773285,-0.10131287574768066
1750928847172475400,11.648475341796875,0.10904312133789062,-0.14897610247135162,-0.09401047229766846
1750928847191299300,11.66729931640625,-0.1277017593383789,0.1771012842655182,0.14672613143920898
1750928847210123000,11.686123046875,-0.3679695129394531,0.26876142621040344,0.23150086402893066
1750928847228946700,11.70494677734375,-0.09427070617675781,0.15634334087371826,-0.1074669361114502
1750928847247770600,11.7237705078125,0.11464500427246094,-0.19884777069091797,-0.19453811645507812
1750928847266594300,11.74259423828125,0.016234397888183594,-0.20373153686523438,0.018857717514038086
1750928847285418200,11.761418212890625,-0.04143047332763672,-0.07461893558502197,0.10569679737091064
1750928847304242000,11.780241943359375,0.2721061706542969,0.01927274465560913,-0.10195553302764893
1750928847323065900,11.79906591796875,0.4035072326660156,-0.018569111824035645,-0.21700942516326904
1750928847341889500,11.8178896484375,-0.22931957244873047,-0.05185055732727051,0.08022689819335938
1750928847360713200,11.836713134765626,-0.27852439880371094,-0.24975959956645966,0.04011678695678711
1750928847379537200,11.855537109375,0.3593778610229492,0.030374497175216675,-0.27307868003845215
1750928847407773000,11.88377294921875,-0.3744945526123047,0.22044840455055237,0.36231112480163574
1750928847426596600,11.9025966796875,-0.6385402679443359,0.0646284818649292,0.3307809829711914
1750928847445420300,11.921420166015626,0.37421417236328125,-0.16722145676612854,0.07908987998962402
1750928847464244200,11.940244140625,0.3251914978027344,-0.004808306694030762,-0.15248727798461914
1750928847483068000,11.95906787109375,0.10922050476074219,-0.0023711025714874268,-0.11766767501831055
1750928847501891800,11.977891845703125,0.1884756088256836,0.08756428956985474,0.019545555114746094
1750928847520715500,11.996715576171875,-0.1659870147705078,0.049056053161621094,0.2724745273590088
1750928847539539500,12.01553955078125,-0.858607292175293,0.1990433633327484,0.21999549865722656
1750928847558363100,12.034363037109374,-0.1896686553955078,0.1298239827156067,0.1439990997314453
1750928847577186800,12.053186767578126,-0.0002613067626953125,0.019286125898361206,-0.21569252014160156
1750928847596010800,12.0720107421875,0.016544342041015625,-0.048664629459381104,-0.1500992774963379
1750928847614834400,12.09083447265625,-0.15050411224365234,-0.05305470526218414,0.2964212894439697
1750928847633658400,12.109658447265625,-0.4408855438232422,-0.0810653567314148,0.23746347427368164
1750928847652482000,12.12848193359375,-0.30718135833740234,-0.120877206325531,0.11719727516174316
1750928847671306000,12.147305908203125,0.00238800048828125,-0.05497144162654877,-0.26380372047424316
1750928847690129700,12.166129638671874,0.26204776763916016,-0.023051410913467407,-0.4410569667816162
1750928847708953600,12.18495361328125,0.2674121856689453,-0.13958097994327545,0.18416571617126465
1750928847727777300,12.20377734375,-0.350341796875,-0.103480264544487,0.13039326667785645
1750928847746601200,12.222601318359375,-0.18070125579833984,0.14418622851371765,-0.0672144889831543
1750928847765425000,12.2414248046875,0.25803089141845703,-0.006016522645950317,0.040944576263427734
1750928847784248600,12.26024853515625,0.22472095489501953,0.071820467710495,-0.22298097610473633
1750928847803072500,12.279072509765625,-0.2254199981689453,-0.07104349136352539,0.045475006103515625
1750928847821896200,12.297896240234374,-0.2859640121459961,-0.25831374526023865,0.12550687789916992
1750928847840720100,12.31672021484375,0.08484935760498047,-0.05710676312446594,0.024765491485595703
1750928847859543800,12.335543701171876,0.39037418365478516,0.1341632604598999,0.0938253402709961
1750928847878367700,12.35436767578125,0.7715930938720703,0.2949371635913849,-0.4062156677246094
1750928847897191400,12.37319140625,0.6597785949707031,0.13880133628845215,-0.06554460525512695
1750928847916015400,12.392015380859375,0.1637277603149414,0.15144851803779602,-0.021183490753173828
1750928847934839000,12.410839111328125,0.18898487091064453,0.0788772702217102,0.12969684600830078
1750928847953663000,12.4296630859375,-0.1393423080444336,0.03482392430305481,0.38306236267089844
1750928847972486700,12.448486572265624,-1.4055042266845703,0.08253604173660278,-0.15341901779174805
1750928847991310300,12.467310302734376,-0.5501241683959961,0.35979315638542175,-0.21816015243530273
1750928848010134300,12.48613427734375,0.5203466415405273,0.12451061606407166,-0.09786558151245117
1750928848028958000,12.5049580078125,-0.03422069549560547,0.1316738724708557,0.011225700378417969
1750928848047782000,12.523781982421875,-0.5920219421386719,0.31745728850364685,-0.19284439086914062
1750928848066605600,12.54260546875,-1.215937614440918,-0.23037274181842804,0.4163360595703125
1750928848085429500,12.561429443359375,-0.34802722930908203,0.17429384589195251,0.15710115432739258
1750928848104253200,12.580253173828124,0.44098377227783203,0.1483687162399292,-0.5329322814941406
1750928848123076900,12.599076904296876,0.125213623046875,0.07832495123147964,-0.11603164672851562
1750928848141900800,12.61790087890625,0.041710853576660156,-0.08384755998849869,0.2765655517578125
1750928848160724500,12.636724365234375,1.5526857376098633,-0.16028019785881042,-0.3256497383117676
1750928848179548400,12.65554833984375,2.226217269897461,0.07576068490743637,-1.3428397178649902
1750928848198372000,12.6743720703125,0.10969209671020508,-0.40313658118247986,0.25087451934814453
1750928848217196000,12.693196044921875,-2.146076202392578,0.2447819858789444,0.6859807968139648
1750928848236019700,12.712019775390624,-1.8675975799560547,0.6103819012641907,0.36829662322998047
1750928848254843600,12.73084375,-0.5553350448608398,0.4876265525817871,-0.015472412109375
1750928848273667300,12.749667236328126,-0.4034910202026367,-0.20775577425956726,-0.16632843017578125
1750928848292491300,12.7684912109375,-0.07474708557128906,-0.4297088384628296,-0.11692285537719727
1750928848311315000,12.78731494140625,0.3718838691711426,-0.04797878861427307,0.08354473114013672
1750928848330138600,12.806138671875,-0.03445720672607422,0.26184961199760437,0.15918779373168945
1750928848348962600,12.824962646484375,-0.47772216796875,0.17398467659950256,-0.03607988357543945
1750928848367786200,12.8437861328125,0.2424483299255371,-0.5572460889816284,0.04249382019042969
1750928848386610200,12.862610107421874,0.28630876541137695,-0.5236852169036865,0.26770687103271484
1750928848405433900,12.881433837890626,-0.4038562774658203,0.1320262998342514,-0.5158987045288086
1750928848424257800,12.9002578125,-0.41616296768188477,0.024678915739059448,-0.6594972610473633
1750928848443081500,12.91908154296875,-0.7661013603210449,0.0719708502292633,0.3103761672973633
1750928848461905400,12.937905517578125,0.6364507675170898,-0.022720932960510254,0.20894908905029297
1750928848480729000,12.95672900390625,1.020139217376709,-0.07417789101600647,-1.456042766571045
1750928848499553000,12.975552978515625,0.6146330833435059,0.1669539511203766,0.5626749992370605
1750928848518376700,12.994376708984374,-0.23807001113891602,0.14432895183563232,0.31566476821899414
1750928848537200600,13.01320068359375,-0.439969539642334,0.43249210715293884,-0.13476848602294922
1750928848556024300,13.0320244140625,-0.12938690185546875,0.47775089740753174,-0.1219334602355957
1750928848574848000,13.050847900390625,0.4003281593322754,-0.09289154410362244,0.05019330978393555
1750928848593672000,13.069671875,1.1637377738952637,-0.39056268334388733,0.12587881088256836
1750928848612495600,13.08849560546875,0.49892473220825195,-0.05877615511417389,0.20561647415161133
1750928848631319600,13.107319580078125,-1.1008586883544922,0.18279311060905457,0.5531835556030273
1750928848650143200,13.126143310546874,-1.2349777221679688,0.614113986492157,-0.7681021690368652
1750928848668967200,13.14496728515625,-0.1461939811706543,0.38680386543273926,-0.20752859115600586
1750928848687790800,13.163790771484376,0.24952220916748047,0.08251265436410904,-0.015850067138671875
1750928848706614800,13.18261474609375,-0.010365486145019531,-0.20715077221393585,-0.12296342849731445
1750928848725438500,13.2014384765625,0.02163982391357422,-0.2266845405101776,-0.10880517959594727
1750928848744262400,13.220262451171875,-0.2405872344970703,0.24388442933559418,-0.24130010604858398
1750928848763086000,13.239086181640625,-0.09396123886108398,0.22953906655311584,0.048293113708496094
1750928848781910000,13.257909912109374,0.1694474220275879,0.23389580845832825,0.09604501724243164
1750928848800733700,13.276733642578124,-0.07769536972045898,-0.04183103144168854,0.41065263748168945
1750928848819557600,13.2955576171875,-0.4067568778991699,-0.3542788326740265,-0.29346275329589844
1750928848838381300,13.31438134765625,-0.3600330352783203,-0.11982482671737671,-0.6738986968994141
1750928848857205200,13.333205322265625,0.1857590675354004,-0.00221424363553524,-0.05313587188720703
1750928848876029000,13.35202880859375,0.4379401206970215,-0.08597346395254135,0.07652091979980469
1750928848894852600,13.3708525390625,0.17840576171875,-0.04756190627813339,0.033026695251464844
1750928848913676500,13.389676513671875,-0.20401382446289062,0.11019852012395859,-0.07046699523925781
1750928848932500200,13.408500244140624,-0.6601104736328125,0.27144327759742737,-0.1674795150756836
1750928848951324200,13.42732421875,0.04340028762817383,0.23370839655399323,-0.11678028106689453
1750928848970147800,13.44614794921875,0.4718508720397949,-0.11339011043310165,0.0034618377685546875
1750928848988971800,13.4649716796875,0.09662818908691406,-0.1684209704399109,-0.00955963134765625
1750928849007795500,13.48379541015625,-0.11035871505737305,-0.036635469645261765,0.01920318603515625
1750928849026619400,13.502619384765625,-0.11001157760620117,0.010929971933364868,-0.018924713134765625
1750928849045443000,13.521443115234375,0.21160316467285156,0.0017511076293885708,-0.04185199737548828
1750928849064267000,13.54026708984375,0.10794353485107422,0.11068884283304214,-0.10251998901367188
1750928849083090700,13.559090576171876,0.004081249237060547,0.20872418582439423,-0.16834449768066406
1750928849101914600,13.57791455078125,-0.011563301086425781,0.1441865861415863,-0.1748523712158203
1750928849120738300,13.59673828125,-0.3572053909301758,-0.03295540064573288,-0.10810089111328125
1750928849139562200,13.615562255859375,-0.47275781631469727,-0.032832033932209015,-0.16545772552490234
1750928849158386000,13.634385986328125,-0.18994903564453125,0.07014723122119904,-0.1893482208251953
1750928849177209900,13.6532099609375,0.3924851417541504,0.03735699877142906,-0.04702472686767578
1750928849196033500,13.672033447265624,0.4463191032409668,-0.06780588626861572,0.0787496566772461
1750928849214857200,13.690857177734374,0.3510775566101074,-0.07189439982175827,-0.10070419311523438
1750928849233681200,13.70968115234375,-0.3776683807373047,0.08567564189434052,-0.05165290832519531
1750928849252504800,13.7285048828125,-0.36619138717651367,0.1889355182647705,-0.03341197967529297
1750928849271328800,13.747328857421875,-0.11749982833862305,0.13392986357212067,0.10012245178222656
1750928849290152400,13.76615234375,0.24702858924865723,-0.22752901911735535,-0.2643108367919922
1750928849308976400,13.784976318359375,-0.12077474594116211,0.09717144072055817,-0.17944717407226562
1750928849327800000,13.803800048828125,-0.01807546615600586,0.0327729731798172,-0.18170452117919922
1750928849346624000,13.8226240234375,-0.08519601821899414,0.004606708884239197,-0.14552974700927734
1750928849365447700,13.84144775390625,-0.07132530212402344,0.1329086571931839,-0.06993484497070312
1750928849384271600,13.860271728515626,0.22798585891723633,0.015321746468544006,0.01851940155029297
1750928849403095300,13.87909521484375,0.10095548629760742,-0.05652041733264923,-0.05105400085449219
1750928849421919200,13.897919189453125,-0.1758263111114502,-0.004401907324790955,-0.14600276947021484
1750928849440743000,13.916742919921875,-0.2247633934020996,0.08041052520275116,-0.2177743911743164
1750928849459566800,13.93556689453125,-0.10719990730285645,-0.07956661283969879,-0.04932975769042969
1750928849478390500,13.954390625,0.17951560020446777,-0.0794270783662796,-0.009299278259277344
1750928849497214500,13.97321435546875,0.478259801864624,-0.013044163584709167,0.011388778686523438
1750928849516038100,13.9920380859375,0.15836262702941895,0.16649658977985382,-0.10120964050292969
1750928849534862000,14.010862060546875,-0.09885621070861816,0.010812297463417053,-0.048485755920410156
1750928849553685800,14.029685791015625,-0.14398717880249023,-0.18701884150505066,-0.07559490203857422
1750928849572509700,14.048509765625,-0.016019582748413086,-0.21049746870994568,0.08266353607177734
1750928849591333400,14.06733349609375,0.19619035720825195,0.1722595989704132,0.06126117706298828
1750928849610157300,14.0861572265625,0.31620311737060547,0.1781807392835617,0.015489578247070312
1750928849628981000,14.10498095703125,-0.21604609489440918,0.282177209854126,-0.3099222183227539
1750928849647804700,14.1238046875,-0.2944822311401367,0.11381489038467407,-0.12022972106933594
1750928849666628600,14.142628662109376,-0.24789190292358398,-0.20973321795463562,0.2292032241821289
1750928849685452300,14.161452392578125,-0.3108198642730713,-0.0164833664894104,-0.20397186279296875
1750928849704276200,14.180276123046875,0.11464798450469971,-0.09580254554748535,-0.05523395538330078
1750928849723100000,14.199099853515625,0.2256256341934204,0.14902371168136597,-0.1841726303100586
1750928849741923800,14.217923828125,0.006167173385620117,-0.02995312213897705,-0.14776611328125
1750928849760747500,14.23674755859375,0.023230791091918945,0.015065133571624756,-0.1916360855102539
1750928849779571500,14.255571533203126,0.09962737560272217,-0.01647508144378662,-0.05938529968261719
1750928849798395100,14.27439501953125,-0.039899349212646484,0.06422021985054016,-0.1041860580444336
1750928849817219000,14.293218994140625,-0.2029709815979004,-0.16393885016441345,-0.096435546875
1750928849836042800,14.312042724609375,0.00031626224517822266,-0.24805372953414917,-0.061438560485839844
1750928849854866700,14.33086669921875,-0.06875145435333252,0.07089471817016602,-0.3224191665649414
1750928849873690400,14.3496904296875,0.3250082731246948,0.023338884115219116,0.07138538360595703
1750928849892514300,14.368514404296874,0.07761514186859131,0.08777311444282532,-0.13771915435791016
1750928849911338000,14.387337890625,-0.1383991241455078,0.11135295033454895,-0.1518840789794922
1750928849930162000,14.406161865234376,0.038422226905822754,0.11183798313140869,-0.006045341491699219
1750928849948985600,14.424985595703125,0.012300372123718262,0.1916816085577011,-0.0985422134399414
1750928849967809500,14.4438095703125,-0.0117112398147583,0.06858959794044495,-0.095184326171875
1750928849986633200,14.46263330078125,-0.19494211673736572,-0.1039007306098938,-0.3778848648071289
1750928850005457200,14.48145703125,-0.31712329387664795,-0.17492493987083435,-0.09831523895263672
1750928850024280800,14.50028076171875,-0.22000256180763245,-0.258294939994812,-0.11662673950195312
1750928850043104800,14.519104736328124,-0.3281312584877014,-0.35472455620765686,-0.18085765838623047
1750928850061928400,14.537928466796876,0.17449352145195007,-0.14401772618293762,-0.10751724243164062
1750928850080752400,14.55675244140625,0.2825484275817871,-0.011111348867416382,0.27063560485839844
1750928850099576000,14.575576171875,0.14051660895347595,0.3137713670730591,-0.24478912353515625
1750928850118400000,14.59439990234375,-0.059005457907915115,0.13290691375732422,-0.05694007873535156
1750928850137223700,14.6132236328125,-0.26381346583366394,-0.09651204943656921,0.238189697265625
1750928850156047600,14.632047607421875,-0.16564667224884033,-0.05942791700363159,-0.5306663513183594
1750928850174871300,14.650871337890624,-0.23388496041297913,-0.26791778206825256,-0.4016275405883789
1750928850193695200,14.6696953125,-0.13762658834457397,-0.30997905135154724,-0.11796379089355469
1750928850212519000,14.688518798828126,-0.10677671432495117,-0.09798814356327057,-0.009322166442871094
1750928850231342800,14.7073427734375,-0.1819983720779419,0.0453743040561676,-0.08609962463378906
1750928850250166500,14.72616650390625,0.05562591552734375,-0.033689022064208984,-0.014254570007324219
1750928850268990500,14.744990478515625,0.253861665725708,-0.00429023802280426,0.1461782455444336
1750928850287814100,14.763814208984375,0.14166903495788574,0.05120614171028137,0.004559516906738281
1750928850306638000,14.78263818359375,0.21971070766448975,-0.011070266366004944,0.07401657104492188
1750928850325461800,14.801461669921874,0.15516436100006104,-0.11751371622085571,0.1683216094970703
1750928850344285700,14.82028564453125,-0.32211780548095703,-0.08921335637569427,-0.016557693481445312
1750928850363109400,14.839109375,-0.12254118919372559,-0.011044368147850037,-0.10902214050292969
1750928850381933300,14.857933349609375,0.02520585060119629,0.06810547411441803,0.11285972595214844
1750928850400757000,14.876757080078125,0.11927127838134766,-0.1416396051645279,0.10579681396484375
1750928850419581000,14.895580810546875,0.0734720230102539,0.024502530694007874,-0.12033367156982422
1750928850438404600,14.914404541015625,0.08498144149780273,0.008931711316108704,-0.23000812530517578
1750928850457228500,14.933228515625,-0.05676722526550293,-0.10558167099952698,0.05173969268798828
1750928850476052200,14.95205224609375,-0.002399444580078125,-0.1278889924287796,-0.03637123107910156
1750928850494876200,14.970876220703126,0.016398906707763672,-0.07407516241073608,-0.29911327362060547
1750928850513699800,14.989699951171875,-0.18688368797302246,0.013330250978469849,-0.39262962341308594
1750928850532523500,15.0085234375,-0.16086697578430176,0.022730514407157898,0.021538734436035156
1750928850551347500,15.027347412109375,-0.1498112678527832,0.10868364572525024,-0.49993419647216797
1750928850570171400,15.04617138671875,-0.06245899200439453,-0.18934878706932068,-0.3195199966430664
1750928850588995000,15.0649951171875,0.006602048873901367,-0.2916853725910187,-0.07060718536376953
1750928850607819000,15.083819091796874,0.19578003883361816,0.12187837064266205,-0.33051013946533203
1750928850626642700,15.102642578125,-0.0333859920501709,-0.17500871419906616,-0.02809906005859375
1750928850645466600,15.121466552734375,-0.0592041015625,-0.2776743769645691,0.09025859832763672
1750928850664290300,15.140290283203125,-0.16630983352661133,-0.09216712415218353,0.131500244140625
1750928850683114200,15.1591142578125,0.009778976440429688,0.23182018101215363,-0.07581806182861328
1750928850701938000,15.17793798828125,0.06105804443359375,0.14056119322776794,-0.11996746063232422
1750928850720761900,15.196761962890625,-0.019668102264404297,-0.14958824217319489,-0.18485450744628906
1750928850739585500,15.21558544921875,0.030387401580810547,-0.23650412261486053,-0.054035186767578125
1750928850758409500,15.234409423828126,-0.01867961883544922,0.08924658596515656,-0.03796958923339844
1750928850777233200,15.253233154296876,-0.1999526023864746,0.11924886703491211,-0.15589427947998047
1750928850796057000,15.27205712890625,-0.2611522674560547,-0.18953612446784973,-0.23455524444580078
1750928850814880800,15.290880859375,-0.11280632019042969,-0.2721959948539734,-0.11380290985107422
1750928850833704700,15.30970458984375,-0.07416200637817383,-0.15636307001113892,0.020372390747070312
1750928850852528400,15.3285283203125,0.07308149337768555,-0.1632067859172821,0.1128692626953125
1750928850871352300,15.347352294921874,0.016023635864257812,0.05811155214905739,-0.16898059844970703
1750928850890176000,15.366176025390626,0.04067420959472656,0.13396814465522766,-0.11156463623046875
1750928850909000000,15.385,0.038598060607910156,-0.05151088908314705,0.030248641967773438
1750928850927823600,15.40382373046875,0.19164419174194336,-0.20128552615642548,0.23241615295410156
1750928850946647600,15.4226474609375,0.14715242385864258,-0.06405872106552124,0.06587982177734375
1750928850965471200,15.44147119140625,0.08547449111938477,0.12895071506500244,-0.10679244995117188
1750928850984295200,15.460295166015625,0.06537055969238281,0.022278182208538055,-0.2380523681640625
1750928851003118800,15.479118896484374,-0.04372739791870117,0.03442749008536339,-0.27362060546875
1750928851021942800,15.49794287109375,0.06468820571899414,-0.028430676087737083,-0.046454429626464844
1750928851040766500,15.516766357421876,0.0763392448425293,-0.1115167886018753,0.047265052795410156
1750928851059590400,15.53559033203125,0.2453303337097168,-0.1495729684829712,0.05654144287109375
1750928851078414000,15.5544140625,-0.0006546974182128906,-0.3093474209308624,0.23421478271484375
1750928851097238000,15.573238037109375,-0.07527399063110352,-0.13935545086860657,-0.23696231842041016
1750928851116061700,15.592061767578125,-0.057117462158203125,-0.019339917227625847,-0.18055248260498047
1750928851134885600,15.6108857421875,0.04334545135498047,-0.1011856347322464,-0.1550769805908203
1750928851153709300,15.629709228515624,0.21061372756958008,-0.5493824481964111,1.0677838325500488
1750928851172533200,15.648533203125,-0.16053533554077148,0.2719089388847351,-0.8481960296630859
1750928851191357000,15.66735693359375,-0.10433816909790039,0.05292811617255211,-0.2540121078491211
1750928851210180900,15.686180908203125,0.29102373123168945,-0.03481236472725868,-0.0191802978515625
1750928851229004500,15.705004638671875,-0.2189021110534668,-0.10817684978246689,-0.07656049728393555
1750928851247828500,15.723828369140625,-0.1690225601196289,-0.19199073314666748,-0.36932945251464844
1750928851266652400,15.74265234375,-0.010491371154785156,-0.18446142971515656,-0.12026786804199219
1750928851285476000,15.76147607421875,0.01464986801147461,0.14843899011611938,-0.3497161865234375
1750928851304299800,15.7802998046875,0.03663969039916992,0.23835259675979614,-0.30588436126708984
1750928851323123700,15.799123779296876,-0.030354976654052734,0.038336217403411865,-0.0899195671081543
1750928851341947400,15.817947509765625,0.21214628219604492,-0.061686281114816666,-0.10875225067138672
1750928851360771300,15.836771240234375,0.06712961196899414,-0.0580848753452301,-0.25074052810668945
1750928851379595300,15.85559521484375,-0.07512712478637695,-0.11605705320835114,-0.18796396255493164
1750928851398419000,15.8744189453125,-0.059107303619384766,-0.1372620016336441,0.08023738861083984
1750928851417243000,15.893242919921875,0.2816281318664551,-0.20057383179664612,0.6977925300598145
1750928851436066600,15.912066650390624,0.8225545883178711,-0.3958349823951721,1.0927472114562988
1750928851454890500,15.930890380859376,-0.4239616394042969,0.3341730535030365,-0.7102437019348145
1750928851473714200,15.949714111328126,-0.1912069320678711,0.49450644850730896,-1.0553946495056152
1750928851492538000,15.9685380859375,-0.17157220840454102,-0.22406505048274994,0.20241355895996094
1750928851511361800,15.98736181640625,-0.12961721420288086,-0.35793522000312805,0.21698713302612305
1750928851530185700,16.006185791015625,-0.1415562629699707,-0.1813681721687317,-0.14802885055541992
1750928851549009400,16.025009521484375,0.06175708770751953,0.15134993195533752,-0.4860572814941406
1750928851567833300,16.043833251953124,0.0014643669128417969,0.06105278432369232,-0.26898717880249023
1750928851586657000,16.062656982421874,0.11709117889404297,0.058212608098983765,0.060332298278808594
1750928851605481000,16.08148095703125,0.11576223373413086,0.21138474345207214,-0.23985528945922852
1750928851624304600,16.1003046875,-0.15552711486816406,-0.40436410903930664,0.1767587661743164
1750928851643128600,16.119128662109375,-0.16691064834594727,-0.6337084770202637,0.2283487319946289
1750928851661952300,16.1379521484375,-0.14226722717285156,-0.1412232518196106,-0.10985660552978516
1750928851680776200,16.156776123046875,0.055886268615722656,0.0224037766456604,-0.012131690979003906
1750928851699600000,16.175599853515624,0.19613361358642578,-0.0021550580859184265,-0.2768545150756836
1750928851718423800,16.194423828125,-0.024614334106445312,-0.2293967604637146,-0.24694204330444336
1750928851737247500,16.21324755859375,-0.11997509002685547,-0.1072937473654747,-0.1942138671875
1750928851756071400,16.232071533203126,-0.026216506958007812,0.03828617185354233,-0.1128387451171875
1750928851774895400,16.250895263671875,0.004787445068359375,0.23264971375465393,0.0579371452331543
1750928851793719000,16.269718994140625,-0.008306503295898438,0.0533117838203907,0.3254117965698242
1750928851812543000,16.28854296875,0.2221693992614746,-0.004234153777360916,0.0628194808959961
1750928851831366700,16.30736669921875,0.15034198760986328,-0.1610606610774994,-0.14487743377685547
1750928851850190600,16.326190673828126,-0.02930164337158203,-0.11692331731319427,-0.17021465301513672
1750928851869014300,16.34501416015625,-0.07306241989135742,-0.01961394026875496,0.03593635559082031
1750928851897250000,16.37325,0.041281700134277344,-0.06524433195590973,0.031557559967041016
1750928851916073700,16.39207373046875,0.1504373550415039,-0.07812711596488953,-0.08216381072998047
1750928851934897700,16.410897705078124,0.027144432067871094,-0.07928149402141571,0.2714223861694336
1750928851953721600,16.4297216796875,-0.09137630462646484,-0.09923969209194183,0.42275333404541016
1750928851972545300,16.448545166015624,-0.07633304595947266,-0.04174935072660446,-0.11707496643066406
1750928851991369200,16.467369140625,0.09359455108642578,0.022577542811632156,-0.49671459197998047
1750928852010193000,16.48619287109375,0.1679096221923828,-0.005783015862107277,-0.017586231231689453
1750928852029016800,16.505016845703125,-0.2437124252319336,-0.013725792057812214,0.11536598205566406
1750928852047840500,16.523840576171875,-0.08471202850341797,-0.10023456066846848,-0.22179317474365234
1750928852066664400,16.54266455078125,0.12606430053710938,-0.12012621015310287,-0.38648414611816406
1750928852085488000,16.561488037109374,0.14869403839111328,-0.014235509559512138,-0.2918572425842285
1750928852104312000,16.58031201171875,-0.15400218963623047,0.030055684968829155,-0.0028052330017089844
1750928852123135700,16.5991357421875,-0.009377479553222656,-0.15143664181232452,0.056029319763183594
1750928852141959700,16.617959716796875,0.018311500549316406,-0.23051883280277252,0.16622686386108398
1750928852160783400,16.636783447265625,0.08622074127197266,-0.1341007947921753,0.02147674560546875
1750928852179607300,16.655607177734375,-0.02012348175048828,0.04360029101371765,-0.2313976287841797
1750928852198431200,16.67443115234375,-0.37590789794921875,0.001073930412530899,0.0724020004272461
1750928852217255000,16.6932548828125,-0.08961009979248047,-0.27592605352401733,0.5984845161437988
1750928852236078800,16.712078857421876,0.1800069808959961,-0.19085782766342163,0.04052734375
1750928852254902500,16.730902587890625,0.1345386505126953,0.07875202596187592,-0.3818082809448242
1750928852273726500,16.7497265625,-0.03478050231933594,0.08774842321872711,-0.15993738174438477
1750928852292550100,16.768550048828125,0.008861541748046875,-0.01018056645989418,0.13956546783447266
1750928852311374000,16.7873740234375,-0.014888763427734375,-0.09854316711425781,0.034506797790527344
1750928852330197800,16.80619775390625,-0.03914833068847656,-0.09895274043083191,-0.1854381561279297
1750928852349021700,16.825021728515626,0.056084632873535156,-0.12153898179531097,-0.16760730743408203
1750928852367845400,16.843845458984376,0.06276321411132812,-0.09711968898773193,-0.1146998405456543
1750928852386669300,16.86266943359375,0.05678844451904297,-0.14540502429008484,-0.30216264724731445
1750928852405493200,16.8814931640625,-0.1154184341430664,-0.13591718673706055,-0.012134075164794922
1750928852424317000,16.90031689453125,-0.15625286102294922,-0.0523986741900444,0.14083147048950195
1750928852443140900,16.919140869140627,-0.047489166259765625,0.07787732779979706,-0.09049272537231445
1750928852461964500,16.937964599609376,-0.14887428283691406,-0.09698574990034103,0.20817017555236816
1750928852480788500,16.95678857421875,-0.10822105407714844,-0.09279797226190567,0.19581317901611328
1750928852499612200,16.975612060546876,0.09035587310791016,-0.0036366134881973267,-0.10065650939941406
1750928852518436000,16.99443603515625,0.1739044189453125,0.06206800416111946,-0.3703732490539551
1750928852537259800,17.013259765625,0.05758094787597656,0.03385517746210098,-0.20083236694335938
1750928852556083700,17.032083740234373,-0.043457984924316406,-0.10901669412851334,0.10141968727111816
1750928852574907400,17.050907470703127,-0.04470634460449219,-0.03961750119924545,0.10508537292480469
1750928852593731300,17.0697314453125,0.06115150451660156,0.11488474905490875,-0.020682811737060547
1750928852612555300,17.08855517578125,0.05365467071533203,0.1363641619682312,-0.12398600578308105
1750928852631379000,17.10737890625,-0.007905006408691406,-0.07041874527931213,-0.06295061111450195
1750928852650203000,17.126202880859374,0.04093360900878906,-0.17959851026535034,0.01898813247680664
1750928852669026600,17.145026611328124,-0.026427268981933594,-0.17270278930664062,0.14890718460083008
1750928852687850500,17.1638505859375,0.01828479766845703,-0.11178335547447205,-0.04883265495300293
1750928852706674200,17.182674072265623,-0.004578590393066406,0.04899878799915314,-0.25175023078918457
1750928852725498000,17.201498046875,-0.09392261505126953,0.0720323920249939,-0.041612863540649414
1750928852744321800,17.22032177734375,0.039391517639160156,-0.03039994090795517,-0.06826901435852051
1750928852763145700,17.239145751953124,0.03692626953125,-0.11075903475284576,-0.04048275947570801
1750928852781969400,17.257969482421874,0.1420145034790039,-0.127882182598114,-0.24622058868408203
1750928852800793300,17.27679345703125,0.030208587646484375,-0.04854805767536163,-0.2759411334991455
1750928852819617300,17.2956171875,-0.033371925354003906,-0.14273367822170258,0.037329912185668945
1750928852838441000,17.31444091796875,-0.05792808532714844,-0.09620774537324905,0.12959051132202148
1750928852857265000,17.333264892578125,-0.0713510513305664,-0.03075401857495308,0.016214847564697266
1750928852876088600,17.352088623046875,-0.24777698516845703,-0.05416491627693176,0.24755454063415527
1750928852894912500,17.37091259765625,-0.04453849792480469,-0.02104700542986393,0.17223072052001953
1750928852913736200,17.389736083984374,-0.20863723754882812,0.05165819078683853,-0.16816067695617676
1750928852932560100,17.40856005859375,-0.127471923828125,0.027934085577726364,0.1952376365661621
1750928852951383800,17.4273837890625,-0.09809684753417969,0.07110556215047836,0.046004533767700195
1750928852970207700,17.446207763671875,-0.1354541778564453,0.006417015567421913,0.19126653671264648
1750928852989031700,17.46503173828125,-0.25069332122802734,-0.028525132685899734,0.28090500831604004
1750928853007855400,17.48385546875,-0.05299186706542969,-0.03724651783704758,0.05815911293029785
1750928853026679300,17.50267919921875,-0.018530845642089844,0.011470334604382515,-0.20354509353637695
1750928853045503000,17.5215029296875,0.13376235961914062,0.09909161180257797,-0.2599639892578125
1750928853064327000,17.540326904296876,0.03026580810546875,-0.015543827787041664,-0.16294002532958984
1750928853083150600,17.559150634765626,0.23524188995361328,-0.05443957448005676,-0.26018261909484863
1750928853101974500,17.577974609375,0.11524009704589844,-0.11287695914506912,-0.06615114212036133
1750928853120798200,17.596798095703125,-0.05609607696533203,-0.1081204041838646,0.013085603713989258
1750928853139622100,17.6156220703125,0.014448165893554688,-0.11345227807760239,-0.06176400184631348
1750928853158446000,17.634446044921877,-0.04511737823486328,-0.0869796872138977,0.04764270782470703
1750928853177269800,17.653269775390626,-0.041957855224609375,0.01354616042226553,0.13918232917785645
1750928853196093700,17.67209375,-0.0234527587890625,0.03041357547044754,0.060585737228393555
1750928853214917400,17.69091748046875,-0.03815174102783203,0.08230750262737274,0.032703399658203125
1750928853233741300,17.7097412109375,-0.08231925964355469,0.14138606190681458,0.017863750457763672
1750928853252565000,17.72856494140625,-0.3453044891357422,0.14576856791973114,0.020891189575195312
1750928853271389000,17.747388916015623,-0.007542610168457031,0.16269823908805847,-0.20325660705566406
1750928853290212600,17.766212646484377,0.4173126220703125,-0.03255731239914894,-0.20055699348449707
1750928853309036500,17.78503662109375,0.05821037292480469,-0.26097142696380615,0.0521852970123291
1750928853327860500,17.803860595703124,-0.31145668029785156,-0.3719845414161682,0.5972299575805664
1750928853346684200,17.82268408203125,-0.23336029052734375,-0.19713100790977478,0.2810511589050293
1750928853365508000,17.841508056640624,0.05017280578613281,0.16272547841072083,0.0009529590606689453
1750928853384331800,17.860331787109374,0.2965545654296875,0.20458051562309265,-0.8920232057571411
1750928853403155700,17.87915576171875,0.5016107559204102,-0.2698816955089569,-0.637182354927063
1750928853421979400,17.8979794921875,0.8175210952758789,-0.15648573637008667,-1.4271514415740967
1750928853440803300,17.91680322265625,0.6169767379760742,-0.26364099979400635,-1.203338384628296
1750928853459627000,17.935626953125,-0.6208314895629883,-0.07427061349153519,-0.5171431303024292
1750928853478451000,17.954450927734374,-0.4214286804199219,-0.0834059938788414,0.19042569398880005
1750928853497275000,17.97327490234375,-0.5731468200683594,-0.12851466238498688,0.4977881908416748
1750928853516098600,17.9920986328125,-0.5397186279296875,-0.25527292490005493,1.5637836456298828
1750928853534922500,18.010922607421875,-0.5694732666015625,-0.052124470472335815,0.6779913306236267
1750928853553746200,18.02974609375,0.6527910232543945,-0.1506662368774414,0.09837524592876434
1750928853572570000,18.048570068359375,-0.4539813995361328,0.31376010179519653,-0.5051102638244629
1750928853591393800,18.067393798828125,-0.7660999298095703,0.07129184901714325,0.41404208540916443
1750928853610217700,18.0862177734375,-0.3694753646850586,0.11698125302791595,0.6054112911224365
1750928853629041700,18.105041748046876,0.039414405822753906,0.02293899655342102,0.47446638345718384
1750928853647865300,18.123865234375,0.07808876037597656,-0.234416663646698,0.06150752305984497
1750928853666689300,18.142689208984375,-0.4126758575439453,-0.21630620956420898,0.1924871802330017
1750928853685513000,18.161512939453125,-0.6601724624633789,-0.0934765636920929,0.2532626986503601
1750928853704337000,18.1803369140625,0.008481979370117188,0.02895653247833252,-0.025065571069717407
1750928853723160600,18.19916064453125,0.2828540802001953,0.08155745267868042,-0.4361739456653595
1750928853741984500,18.217984619140626,-0.1908111572265625,0.011900782585144043,0.168892040848732
1750928853760808400,18.236808349609376,-0.5092935562133789,-0.05034956336021423,0.7762876152992249
1750928853779632000,18.255632080078126,-0.32587146759033203,0.09234549105167389,0.3748469650745392
1750928853798456000,18.2744560546875,-0.28174686431884766,0.12268203496932983,-0.4955480396747589
1750928853817279700,18.29327978515625,0.12029361724853516,-0.03793965280056,-0.2241564691066742
1750928853836103700,18.312103759765623,0.2585163116455078,-0.2932455539703369,-0.023647822439670563
1750928853854927600,18.330927734375,0.23836231231689453,-0.3536034822463989,-0.17480222880840302
1750928853873751300,18.349751220703126,-0.09953975677490234,-0.07652352750301361,-0.17488433420658112
1750928853892575200,18.3685751953125,-0.09789371490478516,0.0503898561000824,-0.21513168513774872
1750928853911399000,18.38739892578125,-0.36264991760253906,0.1908922791481018,-0.033642858266830444
1750928853930222800,18.406222900390624,-0.49203014373779297,0.18103280663490295,0.21487069129943848
1750928853949046500,18.425046630859374,0.3315305709838867,0.11147058010101318,0.09152579307556152
1750928853967870500,18.443870361328123,0.36873435974121094,-0.23658926784992218,-0.04184478521347046
1750928853986694100,18.462694091796877,-0.3046150207519531,-0.20719309151172638,0.08724623918533325
1750928854005518000,18.48151806640625,-0.4267616271972656,-0.04523177444934845,0.4138951301574707
1750928854024342000,18.500342041015625,-0.1524209976196289,0.2652893662452698,0.313590407371521
1750928854043165700,18.519165771484374,-0.11841106414794922,0.2867862582206726,-0.11914432048797607
1750928854061989600,18.53798974609375,0.3125314712524414,0.0016563460230827332,-0.04393714666366577
1750928854080813300,18.556813232421874,-0.011565208435058594,-0.03300581872463226,-0.13298749923706055
1750928854099637200,18.57563720703125,-0.40738773345947266,-0.18805553019046783,0.398811936378479
1750928854118461200,18.594461181640625,-0.09553050994873047,-0.2839317321777344,0.34589481353759766
1750928854137284900,18.613284912109375,-0.37860584259033203,-0.06391813606023788,0.46034908294677734
1750928854156108800,18.63210888671875,-0.2347545623779297,-0.06252078711986542,0.16944843530654907
1750928854174932500,18.650932373046874,-0.03355598449707031,-0.012258410453796387,-0.07634508609771729
1750928854193756400,18.66975634765625,-0.11153888702392578,0.03327018395066261,-0.06734085083007812
1750928854212580000,18.688580078125,0.20702171325683594,-0.07335542142391205,-0.24597901105880737
1750928854231404000,18.707404052734375,-0.3854093551635742,-0.05011672154068947,0.16754937171936035
1750928854250228000,18.72622802734375,-0.2334117889404297,0.13361477851867676,0.210784912109375
1750928854269051600,18.7450517578125,-0.12120246887207031,-0.054253943264484406,0.1981801986694336
1750928854287875600,18.76387548828125,0.20857715606689453,-0.37331512570381165,-0.21015793085098267
1750928854316111400,18.792111328125,-0.22091102600097656,0.123345285654068,0.051084160804748535
1750928854334935000,18.81093505859375,0.08280372619628906,-0.13420972228050232,0.14452648162841797
1750928854353759000,18.829759033203125,-0.4426231384277344,-0.10206159949302673,0.2294858694076538
1750928854372582700,18.848582763671875,-0.6203098297119141,0.1892249435186386,0.6999227404594421
1750928854391406600,18.867406494140624,0.8007974624633789,-0.01826263964176178,-0.0462726354598999
1750928854410230500,18.88623046875,1.1500434875488281,-0.037849366664886475,-0.6916968822479248
1750928854429054200,18.90505419921875,0.2621498107910156,0.45443642139434814,-0.778935432434082
1750928854447878100,18.923878173828125,-0.27941131591796875,0.49713337421417236,0.107582688331604
1750928854466701800,18.942701904296875,-0.5038547515869141,0.06936317682266235,0.3324858546257019
1750928854485525800,18.96152587890625,0.1148824691772461,-0.14428192377090454,-0.01725637912750244
1750928854504349700,18.980349609375,0.4467458724975586,-0.1937326341867447,-0.19775837659835815
1750928854523173400,18.99917333984375,0.2328195571899414,-0.18477755784988403,-0.07815361022949219
1750928854541997300,19.017997314453126,0.21426677703857422,-0.1437479555606842,-0.002639293670654297
1750928854560821000,19.036821044921876,-0.13988780975341797,0.06707599759101868,0.050262272357940674
1750928854579645000,19.05564501953125,-0.16437244415283203,0.10421089828014374,-0.04757457971572876
1750928854598468600,19.074468505859375,0.1286611557006836,-0.020547635853290558,-0.1723749041557312
1750928854617292500,19.09329248046875,-0.39012718200683594,-0.038251567631959915,0.34658509492874146
1750928854636116500,19.112116455078127,0.2709369659423828,0.14583171904087067,-0.10515451431274414
1750928854654940200,19.130940185546876,-0.12244319915771484,0.05039715766906738,-0.09221190214157104
1750928854673764000,19.14976416015625,-0.04327201843261719,-0.17011091113090515,0.11650621891021729
1750928854692587800,19.168587890625,-0.06521892547607422,-0.21761803328990936,0.09748625755310059
1750928854711411700,19.18741162109375,-0.1887807846069336,-0.18164439499378204,0.15129625797271729
1750928854730235400,19.2062353515625,-0.09988880157470703,0.06280156224966049,-0.04640167951583862
1750928854749059300,19.225059326171873,-0.14262962341308594,0.14786791801452637,-0.05821293592453003
1750928854767883300,19.24388330078125,0.16594886779785156,-0.07694221287965775,-0.043821513652801514
1750928854786707000,19.26270703125,-0.11102581024169922,-0.0931205302476883,0.1393296718597412
1750928854805531000,19.28153076171875,-0.26874446868896484,0.05040571093559265,0.2761375904083252
1750928854824354600,19.3003544921875,-0.2981233596801758,0.06730150431394577,0.14101463556289673
1750928854843178500,19.319178466796874,0.010159492492675781,0.014845816418528557,-0.06483227014541626
1750928854862002400,19.33800244140625,-0.001117706298828125,0.0565057247877121,-0.08703702688217163
1750928854880826000,19.356826171875,0.060631752014160156,-0.01239112950861454,-0.013270080089569092
1750928854899650000,19.375650146484375,0.0061187744140625,-0.13787955045700073,0.0012590885162353516
1750928854918473700,19.3944736328125,-0.10527229309082031,-0.08421917259693146,0.14022910594940186
1750928854937297700,19.413297607421875,-0.03094959259033203,-0.018121851608157158,-0.03690910339355469
1750928854956121600,19.43212158203125,0.057616233825683594,0.07052215188741684,-0.11917155981063843
1750928854974945300,19.4509453125,0.08758354187011719,0.03629673644900322,-0.14928478002548218
1750928854993769200,19.469769287109376,-0.054001808166503906,-0.03394908457994461,-0.016041994094848633
1750928855012593000,19.488593017578125,0.07201099395751953,-0.12107104063034058,0.1071198582649231
1750928855031416800,19.507416748046875,0.08642101287841797,-0.15636706352233887,0.06998801231384277
1750928855050240800,19.52624072265625,0.046439170837402344,0.015571337193250656,0.0008411407470703125
1750928855069064400,19.545064453125,-0.1408367156982422,0.047048699110746384,-0.034957945346832275
1750928855087888400,19.563888427734376,-0.022861480712890625,-0.11173726618289948,-0.05758601427078247
1750928855106712000,19.582712158203126,0.3208589553833008,-0.09409314393997192,-0.19367247819900513
1750928855125536000,19.601535888671876,0.1007080078125,-0.20518863201141357,-0.10181307792663574
1750928855144360000,19.62035986328125,-0.3586845397949219,-0.015948303043842316,0.4405657649040222
1750928855163183600,19.63918359375,-0.4573020935058594,0.1046464666724205,0.395720899105072
1750928855182007600,19.658007568359373,0.3212566375732422,0.11005900055170059,-0.17964112758636475
1750928855200831200,19.676831298828127,0.2173786163330078,0.1339077353477478,-0.25432807207107544
1750928855219655200,19.6956552734375,-0.3485393524169922,0.2634721100330353,0.10044878721237183
1750928855238479000,19.71447900390625,-0.3326072692871094,0.14710237085819244,0.18479150533676147
1750928855257302800,19.733302734375,-0.06933403015136719,0.008419638499617577,0.061808645725250244
1750928855276126700,19.752126708984374,0.03868293762207031,-0.06930360198020935,-0.0038886666297912598
1750928855294950400,19.770950439453124,0.09580230712890625,0.24582751095294952,-0.16842859983444214
1750928855313774300,19.7897744140625,0.20924091339111328,0.20550355315208435,-0.2813454866409302
1750928855332598300,19.808598388671875,0.4695568084716797,-0.06944248825311661,-0.36411428451538086
1750928855351422000,19.827421875,0.10130500793457031,-0.13893316686153412,-0.2718081474304199
1750928855370246000,19.846245849609375,0.0776968002319336,-0.134379044175148,0.29731041193008423
1750928855389069600,19.865069580078124,-0.14789962768554688,-0.13144120573997498,0.08415287733078003
1750928855407893500,19.8838935546875,0.2091045379638672,-0.1172504872083664,-0.013445258140563965
1750928855426717400,19.902717529296876,0.1756134033203125,-0.07201765477657318,-0.023186206817626953
1750928855445541000,19.921541015625,-0.08190536499023438,0.007852718234062195,-0.14217382669448853
1750928855464365000,19.940364990234375,-0.06441783905029297,-0.1000317633152008,-0.10716694593429565
1750928855483188700,19.959188720703125,0.3186321258544922,-0.19631105661392212,-0.2583589553833008
1750928855502012700,19.9780126953125,-0.16742229461669922,-0.11280111968517303,0.10865402221679688
1750928855520836600,19.996836669921876,-0.5160512924194336,0.14809265732765198,0.5109823346138
1750928855539660300,20.015660400390626,-0.38834667205810547,-0.024285972118377686,0.578851580619812
1750928855558484200,20.034484130859376,0.10888481140136719,0.04132238030433655,-0.1370466947555542
1750928855577308000,20.053307861328125,0.168212890625,0.08971820026636124,-0.22797107696533203
1750928855596131800,20.0721318359375,-0.1960773468017578,0.17600031197071075,0.03138941526412964
1750928855614955800,20.090955810546873,-0.10409927368164062,0.10847677290439606,0.13428330421447754
1750928855633779500,20.109779541015627,-0.045764923095703125,0.0023157745599746704,-0.0654149055480957
1750928855652603400,20.128603271484376,-0.30975818634033203,-0.06813326478004456,0.017758071422576904
1750928855671427000,20.147427001953126,0.12595367431640625,0.04013819247484207,-0.09834176301956177
1750928855690251000,20.1662509765625,-0.09665870666503906,0.06733040511608124,0.027780354022979736
1750928855709075000,20.185074951171874,-0.26680850982666016,0.000497765839099884,0.1827070116996765
1750928855727898600,20.203898681640624,-0.3778829574584961,-0.057222358882427216,0.3438470959663391
1750928855746722600,20.22272265625,-0.04381752014160156,-0.07904797792434692,0.14605367183685303
1750928855765546200,20.241546142578127,-0.05508136749267578,-0.08404508233070374,0.04914271831512451
1750928855784370200,20.2603701171875,-0.11526775360107422,-0.038118522614240646,-0.008081138134002686
1750928855803194000,20.279194091796874,-0.1083383560180664,-0.029245302081108093,-0.1011202335357666
1750928855822017800,20.298017822265624,0.10256481170654297,-0.022555936127901077,-0.02318120002746582
1750928855840841700,20.316841796875,0.26294708251953125,-0.1565031111240387,0.05927681922912598
1750928855859665400,20.33566552734375,0.4830617904663086,-0.0724693089723587,-0.024318397045135498
1750928855878489300,20.3544892578125,0.2737112045288086,0.062826007604599,-0.3806719183921814
1750928855897313300,20.373313232421875,0.5502634048461914,0.010291792452335358,-0.37482786178588867
1750928855916137000,20.392136962890625,0.19521617889404297,0.03903394564986229,-0.48686420917510986
1750928855934961000,20.4109609375,0.2621936798095703,0.04783404991030693,0.2208055853843689
1750928855953784800,20.429784912109376,-0.08500957489013672,0.1258281171321869,0.38447266817092896
1750928855972608500,20.4486083984375,0.08989524841308594,0.34786683320999146,-0.2823420763015747
1750928855991432400,20.467432373046876,0.11786270141601562,0.03674401342868805,-0.36391210556030273
1750928856010256100,20.486256103515625,0.2593269348144531,-0.29808783531188965,-0.009567618370056152
1750928856029080000,20.505080078125,0.13121509552001953,-0.3760806918144226,0.21311360597610474
1750928856047904000,20.523904052734373,-0.4183931350708008,-0.008214667439460754,0.45919156074523926
1750928856066727700,20.542727783203127,-0.24007606506347656,0.2139076590538025,0.4806022047996521
1750928856085551600,20.561551513671876,-0.13379955291748047,0.2825879156589508,0.24404484033584595
1750928856104375300,20.580375244140626,0.35091114044189453,0.03013518452644348,-0.4980965852737427
1750928856123199200,20.59919921875,0.3595876693725586,-0.1789492815732956,-0.33120113611221313
1750928856142023200,20.618023193359374,-0.14821243286132812,-0.09025424718856812,0.13003897666931152
1750928856160846800,20.636846923828124,-0.3141298294067383,-0.017377734184265137,0.565406858921051
1750928856179670800,20.6556708984375,-0.035308837890625,-0.016347229480743408,0.3264104127883911
1750928856198494700,20.67449462890625,0.09386444091796875,-0.20594802498817444,0.03815871477127075
1750928856217318400,20.693318359375,-0.16453170776367188,-0.34069082140922546,-0.10845142602920532
1750928856236142300,20.712142333984374,0.25458240509033203,-0.06146645545959473,-0.544049859046936
1750928856254966300,20.73096630859375,0.15085506439208984,0.25983184576034546,-0.4504515528678894
1750928856273790000,20.7497900390625,-0.083648681640625,0.5068919062614441,0.08466792106628418
1750928856292614000,20.76861376953125,-0.5069732666015625,0.08726298809051514,0.7341442704200745
1750928856311437600,20.7874375,-0.06075859069824219,0.03339964151382446,0.3087034821510315
1750928856330261500,20.806261474609375,-0.008165359497070312,0.17468184232711792,-0.4097452163696289
1750928856349085200,20.825085205078125,-0.36210060119628906,0.04904264211654663,-0.04846721887588501
1750928856367909000,20.8439091796875,-0.4167356491088867,0.03822445869445801,0.1955479383468628
1750928856386733000,20.862733154296876,-0.3821420669555664,-0.008833587169647217,0.2777676582336426
1750928856405556700,20.881556640625,-0.0100555419921875,0.07856261730194092,-0.10248959064483643
1750928856424380700,20.900380615234376,-0.056441307067871094,0.08720475435256958,-0.11646461486816406
1750928856443204600,20.91920458984375,0.19408702850341797,0.15994924306869507,-0.458459734916687
1750928856462028300,20.9380283203125,0.29732418060302734,0.022199630737304688,-0.3584216833114624
1750928856480852200,20.956852294921877,0.005505561828613281,-0.10866749286651611,0.10485506057739258
1750928856499676200,20.97567626953125,0.04523754119873047,-0.0921751856803894,0.3107105493545532
1750928856518499800,20.994499755859376,0.40019702911376953,0.06977355480194092,-0.2487320899963379
1750928856537323800,21.01332373046875,1.0790605545043945,0.018230915069580078,-1.0611332654953003
1750928856574971400,21.050971435546874,-0.21139907836914062,-0.0628432035446167,0.15661609172821045
1750928856593795300,21.06979541015625,-0.38979625701904297,-0.1667999029159546,0.4843558073043823
1750928856612619000,21.088618896484373,-0.11301803588867188,-0.0506739616394043,0.14765232801437378
1750928856631443000,21.10744287109375,-0.2167034149169922,-0.20357179641723633,0.46859878301620483
1750928856650267000,21.126266845703125,0.07822322845458984,-0.1457425355911255,0.16479337215423584
1750928856669090600,21.145090576171874,-0.0899515151977539,-0.1335909366607666,0.34904590249061584
1750928856687914500,21.16391455078125,-0.3136301040649414,-0.14956402778625488,0.6434681415557861
1750928856706738200,21.18273828125,0.5496978759765625,-0.06093621253967285,0.1930539608001709
1750928856725562000,21.20156201171875,0.21993160247802734,0.015447258949279785,-0.3477005958557129
1750928856744386000,21.220385986328125,-0.31702136993408203,0.07419157028198242,-0.5911076068878174
1750928856763209700,21.239209716796875,-0.0022830963134765625,-0.12757158279418945,-0.10277161002159119
1750928856782033700,21.25803369140625,0.20879554748535156,-0.15663087368011475,0.8466112017631531
1750928856800857600,21.276857666015626,-0.3290433883666992,0.1273033618927002,1.1963330507278442
1750928856819681300,21.295681396484376,-0.9629077911376953,0.2979910373687744,0.39520761370658875
1750928856838505200,21.314505126953126,-0.6100130081176758,0.031722307205200195,-0.1870490163564682
1750928856857329000,21.333328857421876,1.2026891708374023,-0.36211514472961426,-0.6878562569618225
1750928856876152800,21.35215283203125,0.8333187103271484,-0.4224916696548462,-0.20689621567726135
1750928856894976800,21.370976806640623,-0.03586864471435547,-0.029466629028320312,0.5938670039176941
1750928856913800400,21.389800537109377,-1.0242691040039062,-0.06075310707092285,0.8585765361785889
1750928856932624400,21.408624267578126,-0.7879056930541992,-0.14334750175476074,-0.5785966515541077
1750928856951448300,21.4274482421875,0.34434032440185547,0.06172060966491699,-1.4537230730056763
1750928856970272000,21.44627197265625,0.7732124328613281,0.019134044647216797,-0.25165295600891113
1750928856989096000,21.465095947265624,0.4245576858520508,0.14050555229187012,0.3211514353752136
1750928857007919600,21.483919677734374,-0.4276561737060547,0.3232090473175049,0.7529969215393066
1750928857026743600,21.50274365234375,-0.4386138916015625,0.21098780632019043,0.7474923133850098
1750928857045567500,21.5215673828125,-0.07184982299804688,-0.14177799224853516,-0.6581599116325378
1750928857064391200,21.54039111328125,-0.2976961135864258,-0.1765897274017334,-0.6076645851135254
1750928857083215000,21.559215087890625,0.07573986053466797,0.1374826431274414,-0.024731412529945374
1750928857102039000,21.5780390625,0.35407257080078125,0.3795754909515381,-0.17981019616127014
1750928857120862700,21.59686279296875,-0.18189620971679688,0.3610665798187256,0.023687347769737244
1750928857139686700,21.615686767578126,0.26052379608154297,0.15959572792053223,0.07462126016616821
1750928857158510600,21.634510498046875,-0.4137125015258789,0.2680397033691406,-0.14204123616218567
1750928857177334300,21.653334228515625,-0.9061746597290039,0.3038671016693115,-0.3492652177810669
1750928857196158200,21.672158203125,1.6004705429077148,-0.39933300018310547,-0.3434637784957886
1750928857214982100,21.690982177734377,-0.009812355041503906,-0.4165310859680176,-0.048308223485946655
1750928857233805800,21.709805908203126,0.3133420944213867,0.00945425033569336,-0.09449242055416107
1750928857252629800,21.728629638671876,-0.03197956085205078,-0.061113595962524414,0.04692047834396362
1750928857271453400,21.747453369140626,1.1373376846313477,-0.3357572555541992,0.4626217484474182
1750928857290277400,21.76627734375,0.07325363159179688,-0.734154462814331,-0.062103867530822754
1750928857309101300,21.785101318359374,-0.8804960250854492,-1.098062515258789,-1.1109189987182617
1750928857327925000,21.803925048828123,0.29444313049316406,-0.10824179649353027,-1.2848036289215088
1750928857346749000,21.8227490234375,0.11618804931640625,0.5741722583770752,-1.1704375743865967
1750928857365572900,21.84157275390625,-0.3158750534057617,0.878972053527832,-0.42309582233428955
1750928857384396500,21.860396484375,-0.35370731353759766,0.6094837188720703,0.1965796947479248
1750928857403220500,21.879220458984374,-0.7970504760742188,0.11823415756225586,0.2061198353767395
1750928857422044400,21.89804443359375,-0.45369625091552734,-0.1751704216003418,0.13093101978302002
1750928857440868000,21.9168681640625,-0.5271940231323242,-0.07105398178100586,0.030509114265441895
1750928857459692000,21.935692138671875,0.2929668426513672,0.4570159912109375,-0.012831270694732666
1750928857478516000,21.954515869140625,0.057765960693359375,0.4202747344970703,0.6292586922645569
1750928857497339600,21.973339599609375,-0.06235790252685547,-0.1224660873413086,0.6866294741630554
1750928857516163600,21.99216357421875,-0.041461944580078125,-0.4691147804260254,0.6192432641983032
1750928857534987500,22.010987548828126,0.4992504119873047,-0.2616143226623535,0.28745371103286743
1750928857553811200,22.029811279296876,0.6266603469848633,0.3500833511352539,-0.09812915325164795
1750928857572635100,22.04863525390625,0.2622213363647461,0.401181697845459,0.0975339412689209
1750928857591459000,22.067458984375,0.07653617858886719,-0.029012680053710938,0.5773811340332031
1750928857610282800,22.08628271484375,0.2386770248413086,-0.7424817085266113,0.6704059839248657
1750928857629106700,22.105106689453127,0.06618499755859375,-0.3130316734313965,0.3327406644821167
1750928857647930600,22.1239306640625,-0.7513089179992676,0.13164377212524414,0.6159932017326355
1750928857666754300,22.14275439453125,-0.35655879974365234,-0.13165521621704102,0.9841188192367554
1750928857685578200,22.161578125,0.5800323486328125,-0.5452308654785156,0.8571621179580688
1750928857704402000,22.18040185546875,0.24274349212646484,-0.7475371360778809,1.319620966911316
1750928857723225900,22.199225830078124,-1.2434802055358887,-0.3349580764770508,0.3013242483139038
1750928857742049800,22.2180498046875,-1.8214778900146484,0.17725133895874023,-0.6232402324676514
1750928857760873500,22.23687353515625,-0.13717365264892578,0.400174617767334,-0.27082395553588867
1750928857779697400,22.255697509765625,0.4796113967895508,-0.26158905029296875,-0.3468720316886902
1750928857798521300,22.274521240234375,-0.34574413299560547,0.06434154510498047,-1.1017255783081055
1750928857817345300,22.29334521484375,-0.026436328887939453,0.13149213790893555,-0.9301016926765442
1750928857836169000,22.3121689453125,0.39748620986938477,0.20234251022338867,-0.7810525894165039
1750928857854993000,22.330992919921876,0.04064655303955078,-0.012456417083740234,-0.1901729702949524
1750928857873816800,22.34981689453125,0.23888158798217773,-0.4465975761413574,0.03269866108894348
1750928857892640500,22.368640625,0.821164608001709,-0.3247261047363281,-0.017786294221878052
1750928857911464400,22.38746435546875,0.12645912170410156,0.1727914810180664,-0.37429794669151306
1750928857930288400,22.406288330078127,-0.5130586624145508,0.7132577896118164,-0.6556522250175476
1750928857949112000,22.425112060546876,-0.08065414428710938,-0.0016145706176757812,-0.1580916941165924
1750928857967936000,22.44393603515625,0.20724153518676758,-0.49252891540527344,0.18921750783920288
1750928857986760000,22.462760009765624,0.3471231460571289,-0.2089219093322754,0.07497309148311615
1750928858005583600,22.48158349609375,-0.026729583740234375,0.024833202362060547,-0.19145888090133667
1750928858024407600,22.500407470703124,-0.1960282325744629,-0.0192413330078125,-0.3467860221862793
1750928858043231500,22.5192314453125,0.02301311492919922,0.052114009857177734,-0.090166836977005
1750928858062055200,22.53805517578125,-0.30962228775024414,-0.038384437561035156,0.19514603912830353
1750928858080879000,22.556879150390625,-0.3750467300415039,-0.15874576568603516,0.32287347316741943
1750928858099703000,22.575703125,-0.5968008041381836,-0.31047534942626953,0.30435535311698914
1750928858118526700,22.594526611328124,-0.2369217872619629,-0.007021427154541016,0.15888237953186035
1750928858137350700,22.6133505859375,-0.1450667381286621,0.23682117462158203,0.0884697362780571
1750928858156174600,22.632174560546876,-0.13970422744750977,-0.03351545333862305,0.13093437254428864
1750928858174998300,22.650998291015625,-0.35431432723999023,-0.0902862548828125,0.26491349935531616
1750928858193822200,22.669822265625,0.16307592391967773,0.276275634765625,-0.05982799828052521
1750928858212646100,22.688646240234377,-0.8943314552307129,-0.7061824798583984,0.20894195139408112
1750928858231469800,22.7074697265625,0.5299992561340332,0.9544496536254883,-0.2104261815547943
1750928858250293800,22.726293701171876,-0.13754749298095703,0.04222822189331055,0.11047840118408203
1750928858269117700,22.74511767578125,0.6711416244506836,-0.05845832824707031,0.3487016558647156
1750928858287941600,22.763941650390624,0.1486201286315918,-0.013415336608886719,0.03861069679260254
1750928858306765300,22.782765380859374,-0.3155555725097656,0.26140689849853516,0.03703117370605469
1750928858325589200,22.80158935546875,-0.45955753326416016,-0.009177207946777344,0.7200741767883301
1750928858344413200,22.8204130859375,-0.3187894821166992,0.19565963745117188,-0.3806069493293762
1750928858363236900,22.83923681640625,0.06617450714111328,-0.16775131225585938,-0.03447824716567993
1750928858382060800,22.858060791015625,0.3985590934753418,-0.1584491729736328,0.02814263105392456
1750928858400884700,22.876884765625,0.07715463638305664,-0.16093158721923828,0.02795940637588501
1750928858419708400,22.89570849609375,0.0023827552795410156,0.03529930114746094,-0.5708498954772949
1750928858438532400,22.914532470703126,0.24772024154663086,0.0739898681640625,-0.7996938824653625
1750928858457356300,22.933356201171875,0.4076671600341797,0.10933494567871094,-0.767238438129425
1750928858476180000,22.952179931640625,0.274533748626709,-0.05942726135253906,-0.4757438898086548
1750928858495004000,22.97100390625,0.10092020034790039,0.010143280029296875,-0.021654188632965088
1750928858513827800,22.989827880859377,-0.6617536544799805,0.08748149871826172,0.29990971088409424
1750928858532651500,23.008651611328126,-0.21009159088134766,0.5470180511474609,0.5245511531829834
1750928858551475500,23.027475341796876,-0.2972884178161621,0.012660026550292969,0.5792579650878906
1750928858570299400,23.04629931640625,-0.21628570556640625,-0.0020418167114257812,0.3025966286659241
1750928858589123300,23.065123291015624,-0.2073230743408203,0.33373546600341797,-0.05619370937347412
1750928858607947000,23.083947021484374,-0.26232099533081055,0.22497272491455078,0.03276461362838745
1750928858626771000,23.10277099609375,-0.28333234786987305,-0.04309558868408203,0.20142728090286255
1750928858645595000,23.121594970703125,-0.017057418823242188,-0.16482925415039062,0.193484365940094
1750928858664418600,23.14041845703125,0.22207212448120117,-0.18799400329589844,0.11551690101623535
1750928858683242500,23.159242431640624,-0.0978546142578125,0.08651542663574219,-0.03298300504684448
1750928858702066400,23.17806640625,-0.4030342102050781,0.20784282684326172,0.09617888927459717
1750928858720890000,23.19689013671875,0.009459972381591797,-0.0709390640258789,0.24660640954971313
1750928858739714000,23.215714111328126,0.21355628967285156,-0.2488117218017578,0.08927863836288452
1750928858758538000,23.2345380859375,-0.4740276336669922,-0.36580848693847656,0.04738187789916992
1750928858777361700,23.253361572265625,0.47719764709472656,0.06828880310058594,0.21924710273742676
1750928858796185600,23.272185546875,0.00781869888305664,-0.3201713562011719,0.3657723665237427
