time,seconds_elapsed,z,y,x
1750928835805421800,0.281421875,10.491929054260254,0.6586244106292725,0.625723123550415
1750928835824245500,0.30024560546875,10.300503730773926,0.3044866919517517,0.7214360237121582
1750928835843069200,0.319069091796875,10.03729248046875,0.01734796352684498,0.7405785918235779
1750928835861892900,0.337892822265625,9.81236743927002,-0.006580262444913387,0.8937192559242249
1750928835880716500,0.356716552734375,9.678369522094727,0.19920247793197632,1.046859860420227
1750928835899540200,0.375540283203125,9.453444480895996,0.2709871530532837,0.9415757060050964
1750928835918364000,0.394364013671875,9.630513191223145,0.1944168359041214,0.898504912853241
1750928835937187800,0.413187744140625,9.841081619262695,0.06041877344250679,0.6975077986717224
1750928835956011500,0.432011474609375,9.979865074157715,0.23270200192928314,0.4582255482673645
1750928835974835200,0.450835205078125,9.845867156982422,0.3523431420326233,0.6113662123680115
1750928835993659000,0.469658935546875,9.606584548950195,0.2805584669113159,0.8745766878128052
1750928836012482600,0.488482666015625,9.510871887207031,0.1417747437953949,0.9798609018325806
1750928836031306200,0.50730615234375,9.582656860351562,0.3762713670730591,0.8602197170257568
1750928836050130200,0.526130126953125,9.678369522094727,0.4289134442806244,0.6209374666213989
1750928836068953900,0.544953857421875,9.79801082611084,0.2757728099822998,0.49651068449020386
1750928836087777500,0.563777587890625,9.865009307861328,0.2183450609445572,0.5060819983482361
1750928836106601200,0.582601318359375,9.845867156982422,0.18005990982055664,0.49651068449020386
1750928836125425000,0.6014248046875,10.032506942749023,0.18005990982055664,0.381655216217041
1750928836144248600,0.62024853515625,10.171290397644043,0.18005990982055664,0.36729827523231506
1750928836163072500,0.639072509765625,10.104291915893555,0.1944168359041214,0.16151553392410278
1750928836181896200,0.657896240234375,10.051650047302246,0.1417747437953949,0.36251261830329895
1750928836200720000,0.676719970703125,9.831509590148926,0.14656038582324982,0.49172505736351013
1750928836219543600,0.69554345703125,9.77408218383789,0.17527425289154053,0.5395814776420593
1750928836238367200,0.7143671875,9.850652694702148,0.16091732680797577,0.49651068449020386
1750928836257191200,0.733191162109375,9.927223205566406,0.09870393574237823,0.4630111753940582
1750928836276014800,0.752014892578125,10.066006660461426,0.22791635990142822,0.30987054109573364
1750928836294838500,0.770838623046875,10.185647964477539,0.26141586899757385,0.17587246000766754
1750928836313662200,0.789662109375,9.984650611877441,0.07477571070194244,0.3720839321613312
1750928836332486000,0.80848583984375,9.831509590148926,0.2709871530532837,0.3768695592880249
1750928836351309800,0.827309814453125,9.893723487854004,0.15134602785110474,0.5300102233886719
1750928836370133500,0.846133544921875,9.78843879699707,-0.020937198773026466,0.5108676552772522
1750928836388957200,0.864957275390625,9.860223770141602,0.2709871530532837,0.41994038224220276
1750928836407780900,0.88378076171875,9.711869239807129,-0.08793623000383377,0.49651068449020386
1750928836426604800,0.902604736328125,9.960722923278809,0.3810569941997528,0.30508488416671753
1750928836445428500,0.921428466796875,9.88415241241455,0.16091732680797577,0.2715853750705719
1750928836464252200,0.940252197265625,9.668798446655273,-0.11186445504426956,0.36251261830329895
1750928836483075800,0.959075927734375,9.994221687316895,0.39541393518447876,0.2907279431819916
1750928836501899500,0.9778994140625,10.099506378173828,0.15134602785110474,0.23330020904541016
1750928836520723500,0.996723388671875,9.874580383300781,-0.15972091257572174,0.2955136001110077
1750928836539547100,1.015547119140625,9.951150894165039,0.357128769159317,0.4007977843284607
1750928836558370800,1.034370849609375,9.678369522094727,0.07477571070194244,0.43908295035362244
1750928836577194500,1.053194580078125,9.764511108398438,0.20398813486099243,0.33379876613616943
1750928836596018200,1.07201806640625,10.190433502197266,0.30927231907844543,0.18065811693668365
1750928836614841900,1.090841796875,9.975079536437988,-0.10229317098855972,0.1423729509115219
1750928836633665800,1.109665771484375,9.984650611877441,0.14656038582324982,0.30987054109573364
1750928836652489500,1.128489501953125,9.927223205566406,0.15134602785110474,0.4295116662979126
1750928836671313200,1.147313232421875,9.592227935791016,-0.26979073882102966,0.24287149310112
1750928836690136800,1.16613671875,9.77408218383789,0.17527425289154053,0.22851456701755524
1750928836708960800,1.184960693359375,10.14736270904541,0.0077766734175384045,0.4007977843284607
1750928836727784400,1.203784423828125,10.166504859924316,0.18963119387626648,0.1663011759519577
1750928836746608000,1.222608154296875,9.869794845581055,0.20398813486099243,0.02273181453347206
1750928836765431800,1.241431884765625,9.955936431884766,0.12741780281066895,0.21415762603282928
1750928836784255700,1.260255859375,9.731011390686035,0.14656038582324982,0.22851456701755524
1750928836803079400,1.279079345703125,9.405587196350098,-0.22193430364131927,0.17108681797981262
1750928836821903000,1.297903076171875,9.941579818725586,0.07477571070194244,0.11844471842050552
1750928836840726800,1.316726806640625,10.381858825683594,0.15134602785110474,0.07058826833963394
1750928836859550500,1.335550537109375,9.955936431884766,0.20877377688884735,0.07058826833963394
1750928836878374400,1.35437451171875,9.654440879821777,-0.01136590726673603,0.1136590763926506
1750928836897198000,1.373197998046875,9.716654777526855,0.09391828626394272,-0.2021935135126114
1750928836916021800,1.392021728515625,10.142577171325684,0.18484555184841156,-0.06819544732570648
1750928836934845400,1.410845458984375,10.166504859924316,0.15613168478012085,-0.015553346835076809
1750928836953669400,1.42966943359375,9.932008743286133,0.10827522724866867,-0.15912270545959473
1750928836972493000,1.4484931640625,9.855438232421875,0.050847481936216354,-0.058624155819416046
1750928836991316700,1.467316650390625,10.089935302734375,0.2183450609445572,-0.26919254660606384
1750928837010140400,1.486140380859375,10.262218475341797,0.2709871530532837,0.43908295035362244
1750928837028964000,1.504964111328125,10.491929054260254,-0.15972091257572174,0.04187439754605293
1750928837047788000,1.5237880859375,10.290931701660156,0.2231307178735733,-0.2356930375099182
1750928837066611700,1.54261181640625,9.57787036895752,0.05563312768936157,0.013160524889826775
1750928837085435400,1.561435302734375,9.218947410583496,0.01734796352684498,0.2907279431819916
1750928837104259000,1.580259033203125,9.434301376342773,0.5676971673965454,-0.5419743061065674
1750928837123083000,1.5990830078125,10.018150329589844,0.04127619042992592,0.04666004329919815
1750928837141906700,1.61790673828125,10.171290397644043,-0.23629122972488403,0.15194423496723175
1750928837160730400,1.63673046875,10.85563850402832,0.10827522724866867,-0.2309073805809021
1750928837179554000,1.655553955078125,12.166905403137207,0.39062830805778503,-0.3314059376716614
1750928837198378000,1.6743779296875,10.367502212524414,0.08434699475765228,-0.3170489966869354
1750928837217201700,1.69320166015625,9.352945327758789,-0.09272187948226929,0.3481557071208954
1750928837236025300,1.712025390625,10.2478609085083,0.2805584669113159,-0.7956135272979736
1750928837254849000,1.73084912109375,9.850652694702148,0.2566302418708801,-0.5228317379951477
1750928837273673000,1.7496728515625,9.30030345916748,0.6394818425178528,-0.005982056725770235
1750928837292496600,1.76849658203125,7.960322856903076,1.036690354347229,0.09930214285850525
1750928837311320300,1.7873203125,8.955737113952637,0.8835497498512268,0.18065811693668365
1750928837330144000,1.80614404296875,10.113862991333008,0.6107679605484009,0.061016976833343506
1750928837348968000,1.824968017578125,10.16171932220459,0.7399803996086121,-0.09690931439399719
1750928837367791600,1.84379150390625,8.903095245361328,1.0606186389923096,0.18065811693668365
1750928837386615300,1.862615234375,8.773882865905762,0.6107679605484009,0.7740781307220459
1750928837405439000,1.88143896484375,10.085148811340332,0.7543373107910156,1.8604196310043335
1750928837424263000,1.900262939453125,8.563314437866211,-0.006580262444913387,2.3533411026000977
1750928837443086600,1.919086669921875,7.70668363571167,-0.0975075215101242,2.396411895751953
1750928837461910300,1.93791015625,7.673183917999268,0.6825526356697083,2.8797619342803955
1750928837480734000,1.95673388671875,12.410972595214844,-0.2315055876970291,0.7692924737930298
1750928837499557600,1.9755576171875,13.564312934875488,-1.2077772617340088,-1.0157532691955566
1750928837518381600,1.994381591796875,9.539586067199707,-0.6574280261993408,-1.3363914489746094
1750928837537205200,2.013205322265625,10.310074806213379,-0.18843477964401245,-1.6139588356018066
1750928837556029000,2.03202880859375,10.625926971435547,-0.2267199456691742,-0.8243274092674255
1750928837574852900,2.050852783203125,10.444072723388672,-0.020937198773026466,-0.5228317379951477
1750928837593676500,2.069676513671875,9.640084266662598,-0.12143574655056,0.22851456701755524
1750928837612500200,2.088500244140625,9.606584548950195,-0.11186445504426956,0.745364248752594
1750928837631324000,2.107323974609375,10.281360626220703,0.0077766734175384045,0.2763710021972656
1750928837650147800,2.12614794921875,10.353145599365234,0.2470589429140091,-0.0729810893535614
1750928837668971500,2.144971435546875,9.984650611877441,0.28534409403800964,-0.17347964644432068
1750928837687795200,2.163795166015625,10.601999282836914,-0.5042873620986938,-0.1543370634317398
1750928837706619100,2.182619140625,10.267004013061523,-0.25064817070961,-0.8147560954093933
1750928837725442800,2.20144287109375,10.051650047302246,0.046061836183071136,-1.657029628753662
1750928837744266500,2.2202666015625,9.668798446655273,-0.049651071429252625,-0.7860422134399414
1750928837763090200,2.239090087890625,9.745368003845215,0.3858426511287689,-0.833898663520813
1750928837781913900,2.257913818359375,9.78843879699707,0.18005990982055664,-1.0348957777023315
1750928837800737800,2.27673779296875,9.88415241241455,0.046061836183071136,-0.8769695162773132
1750928837819561500,2.2955615234375,9.17587661743164,0.2757728099822998,-0.6759724020957947
1750928837838385200,2.31438525390625,9.975079536437988,0.3858426511287689,-0.9487541913986206
1750928837857208800,2.333208740234375,9.821938514709473,-0.10229317098855972,-1.1832507848739624
1750928837876032800,2.35203271484375,9.668798446655273,0.07477571070194244,-0.46061834692955017
1750928837894856400,2.3708564453125,9.419944763183594,0.24227328598499298,-1.0253244638442993
1750928837913680100,2.38968017578125,9.860223770141602,0.12263216078281403,-1.0683952569961548
1750928837932504000,2.408504150390625,9.400801658630371,0.23270200192928314,-0.5850451588630676
1750928837951327700,2.42732763671875,9.372088432312012,0.07477571070194244,-0.26440688967704773
1750928837970151400,2.4461513671875,9.625727653503418,0.14656038582324982,-0.4223332107067108
1750928837988975000,2.46497509765625,9.970293998718262,-0.16929219663143158,-0.867398202419281
1750928838007799000,2.483799072265625,9.888937950134277,-0.12143574655056,-1.3028919696807861
1750928838026622700,2.502622802734375,9.8267240524292,-0.020937198773026466,-1.5230315923690796
1750928838045446400,2.5214462890625,9.8267240524292,0.12263216078281403,-1.456032633781433
1750928838064270000,2.54027001953125,10.109077453613281,-0.020937198773026466,-1.054038405418396
1750928838083094000,2.559093994140625,9.692726135253906,0.05563312768936157,-1.1497513055801392
1750928838101917700,2.577917724609375,9.721440315246582,-0.0975075215101242,-1.3555340766906738
1750928838120741400,2.596741455078125,9.855438232421875,-0.04007977992296219,-1.451246976852417
1750928838139565300,2.6155654296875,9.429515838623047,-0.08793623000383377,-1.3698909282684326
1750928838158389000,2.634388916015625,9.606584548950195,-0.05922235921025276,-1.6857435703277588
1750928838177212700,2.653212646484375,9.951150894165039,0.1178465187549591,-1.8197416067123413
1750928838196036400,2.672036376953125,10.003793716430664,0.3188436031341553,-2.3461625576019287
1750928838214860300,2.6908603515625,10.228718757629395,0.3188436031341553,-2.20737886428833
1750928838233684000,2.70968408203125,9.91286563873291,-0.03529413416981697,-1.7766708135604858
1750928838252507600,2.728507568359375,9.530014038085938,-0.08793623000383377,-1.867598056793213
1750928838271331600,2.74733154296875,9.640084266662598,-0.07836493849754333,-2.20737886428833
1750928838290155300,2.7661552734375,10.314860343933105,0.2566302418708801,-2.599801778793335
1750928838308979000,2.78497900390625,9.711869239807129,0.1944168359041214,-2.4131617546081543
1750928838327802600,2.803802734375,9.209376335144043,-0.1501496136188507,-2.2169501781463623
1750928838346626600,2.82262646484375,8.788239479064941,-0.030508488416671753,-2.1786649227142334
1750928838365450200,2.8414501953125,9.869794845581055,0.20398813486099243,-2.8103702068328857
1750928838384274000,2.86027392578125,9.745368003845215,-0.10707881301641464,-3.064009428024292
1750928838403097600,2.87909765625,9.558728218078613,-0.12622138857841492,-2.8630123138427734
1750928838421921500,2.897921630859375,9.08973503112793,-0.3128615617752075,-2.4610180854797363
1750928838440745200,2.9167451171875,8.898308753967285,-0.07836493849754333,-2.4562325477600098
1750928838459569000,2.93556884765625,9.252447128295898,0.3188436031341553,-2.9491539001464844
1750928838478392800,2.954392822265625,9.482157707214355,0.6251249313354492,-3.59043025970459
1750928838497216500,2.973216552734375,9.793225288391113,0.26141586899757385,-3.6287155151367188
1750928838516040200,2.992040283203125,9.319445610046387,-0.4133601188659668,-3.7052857875823975
1750928838534864100,3.010864013671875,8.74038314819336,-0.6047859191894531,-3.1932218074798584
1750928838553687800,3.029687744140625,8.946166038513184,-0.40378883481025696,-3.049652576446533
1750928838572511500,3.048511474609375,9.266803741455078,-0.26979073882102966,-3.6526436805725098
1750928838591335200,3.067335205078125,9.664012908935547,-0.01615155301988125,-4.107280254364014
1750928838610159000,3.0861591796875,9.520442962646484,0.5054838061332703,-4.217350006103516
1750928838628982800,3.104982666015625,9.147162437438965,-0.08793623000383377,-4.164707660675049
1750928838647806500,3.123806396484375,8.84088134765625,-0.4085744619369507,-3.8871402740478516
1750928838666630100,3.142630126953125,9.003593444824219,-0.28893333673477173,-3.8249270915985107
1750928838685454000,3.1614541015625,8.994022369384766,-0.18364913761615753,-4.045066833496094
1750928838704277800,3.18027783203125,9.640084266662598,-0.2027917206287384,-4.447061061859131
1750928838723101400,3.199101318359375,9.171091079711914,-0.34636107087135315,-4.695914268493652
1750928838741925400,3.21792529296875,9.123234748840332,-0.3655036687850952,-4.590630054473877
1750928838760749000,3.2367490234375,8.802596092224121,-0.5330012440681458,-4.485345840454102
1750928838779572700,3.25557275390625,8.735597610473633,-0.5234299302101135,-4.384847640991211
1750928838798396400,3.274396484375,8.903095245361328,-0.6765705943107605,-4.8538408279418945
1750928838817220400,3.293220458984375,9.400801658630371,-0.5473581552505493,-5.212764263153076
1750928838836044000,3.3120439453125,9.218947410583496,-0.6622136831283569,-5.1840500831604
1750928838854867700,3.33086767578125,8.759525299072266,-0.6430711150169373,-5.174479007720947
1750928838873691600,3.349691650390625,8.529814720153809,-0.37028929591178894,-4.758127689361572
1750928838892515300,3.368515380859375,8.314460754394531,-0.29850462079048157,-4.557130813598633
1750928838911339000,3.387339111328125,8.639883995056152,0.0891326442360878,-5.112265586853027
1750928838930162700,3.40616259765625,9.142376899719238,-0.24586252868175507,-5.509474277496338
1750928838948986600,3.424986572265625,8.802596092224121,-0.6478567123413086,-5.921039581298828
1750928838967810300,3.443810302734375,8.35274600982666,-0.7579265832901001,-5.298905849456787
1750928838986634000,3.462634033203125,7.840681552886963,-0.29371899366378784,-5.447260856628418
1750928839005458000,3.4814580078125,9.195018768310547,0.9744769930839539,-5.327619552612305
1750928839024281600,3.500281494140625,8.419744491577148,0.4145565330982208,-5.724828243255615
1750928839043105300,3.519105224609375,8.166105270385742,-0.20757736265659332,-5.504688262939453
1750928839061929200,3.53792919921875,8.070392608642578,0.23748764395713806,-5.480760097503662
1750928839080753000,3.5567529296875,8.10389232635498,0.9744769930839539,-6.361319065093994
1750928839099576600,3.57557666015625,7.673183917999268,0.768694281578064,-6.0263237953186035
1750928839118400300,3.594400146484375,7.280761241912842,1.0606186389923096,-6.126822471618652
1750928839137224200,3.61322412109375,6.98405122756958,0.6011967062950134,-6.409175395965576
1750928839156048000,3.6320478515625,7.692326545715332,0.026919255033135414,-6.433103561401367
1750928839174871600,3.65087158203125,7.878966808319092,0.16091732680797577,-5.911468505859375
1750928839193695500,3.669695556640625,7.5774712562561035,0.6203392744064331,-5.815755367279053
1750928839212519200,3.688519287109375,5.0602216720581055,0.05563312768936157,-2.623729944229126
1750928839231342800,3.7073427734375,9.553942680358887,1.7545372247695923,-9.850054740905762
1750928839250166800,3.726166748046875,8.8648099899292,0.18963119387626648,-8.036294937133789
1750928839268990500,3.744990478515625,5.160720348358154,-0.34636107087135315,-5.112265586853027
1750928839287814100,3.763814208984375,7.558328628540039,1.2424731254577637,-6.6245293617248535
1750928839306637800,3.782637939453125,8.812167167663574,1.2664014101028442,-8.534002304077148
1750928839325461800,3.801461669921875,6.821339130401611,0.7160521745681763,-7.959724426269531
1750928839344285400,3.820285400390625,7.266404151916504,-0.34636107087135315,-7.58644437789917
1750928839363109000,3.839109130859375,7.850253105163574,-0.48035913705825806,-6.763313293457031
1750928839381933000,3.85793310546875,7.0031938552856445,-0.753140926361084,-5.9306111335754395
1750928839400756700,3.8767568359375,7.189833641052246,0.05563312768936157,-6.313462734222412
1750928839419580400,3.895580322265625,7.606184959411621,0.7591229677200317,-7.409375190734863
1750928839438404000,3.914404052734375,7.386045455932617,0.20877377688884735,-7.122236728668213
1750928839457228000,3.93322802734375,6.366703033447266,0.20877377688884735,-6.978667259216309
1750928839476051700,3.9520517578125,5.778068542480469,0.5150550603866577,-6.394818305969238
1750928839494875600,3.970875732421875,7.2951178550720215,0.5533402562141418,-6.806384086608887
1750928839513699300,3.98969921875,7.347760200500488,0.47676992416381836,-7.351947784423828
1750928839532523000,4.00852294921875,6.1704912185668945,-0.5521438121795654,-7.026523590087891
1750928839551346700,4.0273466796875,6.692126750946045,0.23748764395713806,-6.887740135192871
1750928839570170600,4.046170654296875,8.271389961242676,0.7591229677200317,-8.132007598876953
1750928839588994300,4.064994384765625,6.27577543258667,0.08434699475765228,-7.950153350830078
1750928839607818000,4.08381787109375,5.998208045959473,0.050847481936216354,-8.538787841796875
1750928839626642000,4.102641845703125,6.060421466827393,-0.10229317098855972,-8.251648902893066
1750928839645465600,4.121465576171875,7.2472615242004395,0.18484555184841156,-7.945367813110352
1750928839664289300,4.140289306640625,6.419344902038574,0.44327038526535034,-7.33759069442749
1750928839683113000,4.159113037109375,6.40020227432251,0.6251249313354492,-7.552944660186768
1750928839701937000,4.17793701171875,6.084349632263184,0.31405797600746155,-7.576872825622559
1750928839720760600,4.196760498046875,5.806782245635986,0.3858426511287689,-7.950153350830078
1750928839739584300,4.215584228515625,5.696712493896484,0.1704886108636856,-6.667600154876709
1750928839758408200,4.234408203125,6.031707763671875,0.6299105882644653,-7.217949390411377
1750928839777232000,4.25323193359375,6.0987067222595215,1.1467602252960205,-8.304290771484375
1750928839796055600,4.2720556640625,5.160720348358154,0.7782655358314514,-8.203792572021484
1750928839814879500,4.29087939453125,5.49092960357666,0.6299105882644653,-8.70628547668457
1750928839833703200,4.309703125,6.21356201171875,0.5964110493659973,-8.443074226379395
1750928839852526800,4.32852685546875,6.13699197769165,0.582054078578949,-8.26121997833252
1750928839871350800,4.347350830078125,5.486144065856934,0.582054078578949,-8.376075744628906
1750928839890174500,4.366174560546875,5.208576679229736,0.36191442608833313,-8.624929428100586
1750928839908998100,4.384998046875,5.567500114440918,0.39062830805778503,-8.5100736618042
1750928839927821800,4.40382177734375,5.304289817810059,0.2949153780937195,-8.543573379516602
1750928839946645800,4.422645751953125,5.146363258361816,0.3858426511287689,-7.926225185394287
1750928839965469400,4.441469482421875,5.313860893249512,0.3858426511287689,-8.184649467468262
1750928839984293000,4.460293212890625,5.648856163024902,0.41934216022491455,-8.691927909851074
1750928840003117000,4.479116943359375,5.825924873352051,0.36191442608833313,-8.24686336517334
1750928840021940700,4.497940673828125,5.7062835693359375,-0.12143574655056,-8.127222061157227
1750928840040764400,4.516764404296875,5.9886369705200195,-0.16450655460357666,-8.577073097229004
1750928840059588400,4.53558837890625,5.653641700744629,0.13220344483852386,-8.443074226379395
1750928840078412000,4.554412109375,5.5005011558532715,0.12741780281066895,-8.361719131469727
1750928840097235700,4.573235595703125,5.438287734985352,0.0891326442360878,-8.668000221252441
1750928840116059600,4.5920595703125,4.868795871734619,-0.29371899366378784,-8.58185863494873
1750928840134883300,4.61088330078125,5.088935375213623,-0.34636107087135315,-8.672785758972168
1750928840153707000,4.62970703125,4.423730850219727,-0.494716078042984,-8.500502586364746
1750928840172531000,4.648531005859375,4.313661098480225,-0.8919246196746826,-8.524430274963379
1750928840191354600,4.667354736328125,4.696512699127197,-1.4231312274932861,-8.907281875610352
1750928840210178300,4.68617822265625,5.093721389770508,-1.5284154415130615,-9.21834945678711
1750928840229002000,4.705001953125,3.5479576587677,-0.9110672473907471,-9.117850303649902
1750928840247826000,4.723825927734375,3.9212381839752197,-0.7770691514015198,-9.146564483642578
1750928840266649600,4.742649658203125,4.117449760437012,-1.1264212131500244,-9.074779510498047
1750928840285473300,4.761473388671875,4.055236339569092,-1.6911274194717407,-9.007781028747559
1750928840304297200,4.780297119140625,4.500301361083984,-1.5284154415130615,-9.060422897338867
1750928840323121000,4.799120849609375,4.35673189163208,-1.41834557056427,-8.916853904724121
1750928840341944600,4.817944580078125,3.9020955562591553,-1.1072787046432495,-9.247062683105469
1750928840360768500,4.8367685546875,4.256233215332031,-1.0019944906234741,-9.223134994506836
1750928840379592200,4.85559228515625,3.8255252838134766,-1.4039887189865112,-8.916853904724121
1750928840398416000,4.874415771484375,3.8255252838134766,-1.3800604343414307,-9.06999397277832
1750928840417239800,4.89323974609375,4.217947959899902,-0.9876375198364258,-9.084351539611816
1750928840436063500,4.9120634765625,4.194019794464111,-0.9158528447151184,-8.98385238647461
1750928840454887200,4.93088720703125,3.9451663494110107,-0.8584251403808594,-9.117850303649902
1750928840473711000,4.949711181640625,3.792025566101074,-0.753140926361084,-9.046066284179688
1750928840492534800,4.96853466796875,3.744169235229492,-0.9206385016441345,-8.921639442443848
1750928840511358500,4.9873583984375,3.8398821353912354,-1.0259226560592651,-9.117850303649902
1750928840530182400,5.006182373046875,3.9738802909851074,-0.6622136831283569,-9.495916366577148
1750928840549006000,5.025006103515625,4.0217366218566895,-0.4420739710330963,-9.486345291137695
1750928840567829800,5.043829833984375,3.7489547729492188,-0.4899304509162903,-9.290133476257324
1750928840586653700,5.06265380859375,3.9212381839752197,-0.5856433510780334,-9.160921096801758
1750928840605477400,5.081477294921875,3.8733816146850586,-0.4181457459926605,-9.208778381347656
1750928840624301000,5.100301025390625,3.8590247631073,-0.18364913761615753,-9.33320426940918
1750928840643124700,5.119124755859375,3.500101327896118,-0.2554338276386261,-9.041280746459961
1750928840661948700,5.13794873046875,3.246462106704712,-0.37028929591178894,-9.299705505371094
1750928840680772400,5.1567724609375,3.0071799755096436,-0.48514479398727417,-9.151350021362305
1750928840699596000,5.175595947265625,4.524229526519775,-0.389431893825531,-9.696913719177246
1750928840718420000,5.194419921875,3.3708889484405518,-0.7674978375434875,-8.9312105178833
1750928840737243600,5.21324365234375,3.1268210411071777,-0.5904290080070496,-9.160921096801758
1750928840756067300,5.2320673828125,2.743969440460205,-0.2602194547653198,-9.294919967651367
1750928840774891300,5.250891357421875,2.6291139125823975,-0.24107688665390015,-9.227920532226562
1750928840793715000,5.26971484375,2.6147570610046387,-0.10229317098855972,-9.438488960266113
1750928840812538600,5.28853857421875,2.499901533126831,-0.29371899366378784,-9.663414001464844
1750928840831362600,5.307362548828125,2.964108943939209,-0.37028929591178894,-10.060623168945312
1750928840850186200,5.326186279296875,2.8588249683380127,-0.5856433510780334,-9.79262638092041
1750928840869010000,5.345010009765625,2.940180778503418,-0.3655036687850952,-9.806983947753906
1750928840887833900,5.363833740234375,2.0548365116119385,-0.15493527054786682,-10.15155029296875
1750928840906657500,5.382657470703125,1.8059829473495483,-0.5473581552505493,-9.830911636352539
1750928840925481200,5.401481201171875,1.5571293830871582,-0.5808576941490173,-9.05563735961914
1750928840944305200,5.42030517578125,1.547558069229126,-0.23629122972488403,-9.45763111114502
1750928840963128800,5.43912890625,1.6911274194717407,0.18005990982055664,-9.347561836242676
1750928840981952500,5.457952392578125,1.8059829473495483,0.18484555184841156,-9.984052658081055
1750928841000776400,5.4767763671875,1.7676976919174194,-0.15972091257572174,-10.031908988952637
1750928841019600100,5.49560009765625,1.7102699279785156,-0.42771705985069275,-10.261619567871094
1750928841038423800,5.514423828125,1.633699655532837,-0.6095715761184692,-10.395618438720703
1750928841057247700,5.533247802734375,0.7914260625839233,-0.5952146053314209,-9.701699256896973
1750928841076071400,5.552071533203125,0.42771705985069275,-0.3080759048461914,-9.850054740905762
1750928841094895000,5.57089501953125,0.3128615617752075,0.07956135272979736,-10.18026351928711
1750928841113719000,5.589718994140625,0.7627122402191162,-0.21714866161346436,-10.012765884399414
1750928841132542700,5.608542724609375,0.666999340057373,-0.8201399445533752,-9.826126098632812
1750928841151366400,5.627366455078125,1.0402796268463135,-0.34636107087135315,-10.122836112976074
1750928841170190300,5.6461904296875,0.8632107973098755,-0.05922235921025276,-9.893125534057617
1750928841189014000,5.665013916015625,0.9493523836135864,-0.03529413416981697,-10.055837631225586
1750928841207837700,5.683837646484375,0.7483552694320679,-0.19800607860088348,-10.007980346679688
1750928841226661600,5.70266162109375,0.5186443328857422,-0.25064817070961,-10.295119285583496
1750928841245485300,5.7214853515625,0.786640465259552,-0.24107688665390015,-9.960124015808105
1750928841264309000,5.74030908203125,0.8009973764419556,-0.1740778535604477,-9.759127616882324
1750928841283133000,5.7591328125,-0.23270200192928314,-0.04007977992296219,-9.9409818649292
1750928841301956600,5.77795654296875,-0.2997010350227356,0.13220344483852386,-10.405189514160156
1750928841320780300,5.7967802734375,0.05922235921025276,-0.2745763957500458,-10.070194244384766
1750928841339604200,5.815604248046875,0.5856433510780334,-0.29850462079048157,-10.620543479919434
1750928841358428000,5.834427978515625,0.8488538265228271,-0.2745763957500458,-10.409975051879883
1750928841377251600,5.85325146484375,-0.2997010350227356,-0.32721850275993347,-9.869196891784668
1750928841396075500,5.872075439453125,-0.6777670383453369,-0.45643091201782227,-9.280562400817871
1750928841414899200,5.890899169921875,-0.2805584669113159,-0.3320041298866272,-9.984052658081055
1750928841433723000,5.909722900390625,-0.18484555184841156,-0.4468596279621124,-9.294919967651367
1750928841452546800,5.928546875,-0.5054838061332703,-0.3320041298866272,-9.519845008850098
1750928841471370500,5.94737060546875,-0.3044866919517517,-0.18843477964401245,-9.682557106018066
1750928841490194200,5.966194091796875,-0.5437689423561096,-0.054436713457107544,-9.854840278625488
1750928841509018000,5.98501806640625,-1.0462616682052612,-0.1740778535604477,-9.91705322265625
1750928841527841800,6.003841796875,-1.319043517112732,-0.14057832956314087,-9.744770050048828
1750928841546665500,6.02266552734375,-0.8356932997703552,0.10348957777023315,-10.232906341552734
1750928841565489400,6.041489501953125,-0.9505487680435181,0.08434699475765228,-10.429117202758789
1750928841584313000,6.06031298828125,-0.7926225066184998,-0.13579268753528595,-9.76391315460205
1750928841603136800,6.07913671875,-1.252044439315796,-0.2745763957500458,-9.682557106018066
1750928841621960700,6.097960693359375,-1.347757339477539,-0.32243284583091736,-9.65384292602539
1750928841640784400,6.116784423828125,-1.4578272104263306,-0.26500511169433594,-9.759127616882324
1750928841659608000,6.135608154296875,-1.6109678745269775,-0.20757736265659332,-10.098908424377441
1750928841678432000,6.154431884765625,-2.142174482345581,-0.3846462368965149,-9.424132347106934
1750928841697255700,6.173255615234375,-1.8646070957183838,-0.3798605799674988,-9.644271850585938
1750928841716079400,6.192079345703125,-1.9746768474578857,-0.3655036687850952,-9.414560317993164
1750928841734903300,6.2109033203125,-1.9746768474578857,-0.14057832956314087,-9.314062118530273
1750928841753727000,6.22972705078125,-2.0895323753356934,0.1657029688358307,-9.672985076904297
1750928841772550700,6.248550537109375,-1.9938194751739502,0.22791635990142822,-9.854840278625488
1750928841791374600,6.26737451171875,-2.572882652282715,0.046061836183071136,-9.912267684936523
1750928841810198300,6.2861982421875,-2.3958137035369873,-0.19322042167186737,-9.735198974609375
1750928841829022000,6.30502197265625,-2.2187447547912598,-0.0687936544418335,-9.629914283752441
1750928841847846000,6.323845947265625,-2.922234535217285,0.31405797600746155,-9.615557670593262
1750928841866669600,6.342669677734375,-2.9796624183654785,0.33798620104789734,-9.42891788482666
1750928841885493200,6.3614931640625,-2.788236618041992,0.1417747437953949,-9.390632629394531
1750928841904317200,6.380317138671875,-2.7690939903259277,0.04127619042992592,-9.52941608428955
1750928841923140900,6.399140869140625,-3.132802963256836,0.06520441919565201,-9.486345291137695
1750928841941964500,6.417964599609375,-3.252444267272949,0.08434699475765228,-9.591629981994629
1750928841960788500,6.43678857421875,-3.094517946243286,-0.001794616924598813,-9.438488960266113
1750928841979612200,6.455612060546875,-3.108874797821045,-0.054436713457107544,-9.328418731689453
1750928841998435800,6.474435791015625,-3.305086374282837,-0.04007977992296219,-9.347561836242676
1750928842017259800,6.493259765625,-3.1615169048309326,-0.04007977992296219,-9.299705505371094
1750928842036083500,6.51208349609375,-3.228515863418579,0.0029910283628851175,-9.390632629394531
1750928842054907100,6.5309072265625,-3.5060834884643555,0.012562318705022335,-9.462417602539062
1750928842073731000,6.54973095703125,-3.486940860748291,0.06999006122350693,-9.395418167114258
1750928842092554800,6.5685546875,-3.4582269191741943,0.050847481936216354,-9.237491607666016
1750928842111378400,6.58737841796875,-3.3003005981445312,-0.030508488416671753,-9.299705505371094
1750928842130202400,6.606202392578125,-3.3433713912963867,-0.05922235921025276,-9.30449104309082
1750928842149026000,6.625026123046875,-3.8602211475372314,0.012562318705022335,-9.395418167114258
1750928842167849700,6.643849609375,-3.6257245540618896,-0.07357929646968842,-9.175278663635254
1750928842186673700,6.662673583984375,-3.534797191619873,-0.1453639715909958,-9.10827922821045
1750928842205497300,6.681497314453125,-3.472583770751953,-0.21236300468444824,-9.199206352233887
1750928842224321000,6.700321044921875,-3.6640095710754395,-0.10229317098855972,-9.232706069946289
1750928842243145000,6.71914501953125,-3.9080774784088135,-0.16929219663143158,-9.151350021362305
1750928842261968600,6.73796875,-3.888935089111328,-0.18364913761615753,-9.117850303649902
1750928842280792600,6.75679248046875,-3.841078519821167,-0.3080759048461914,-8.998209953308105
1750928842299616300,6.7756162109375,-3.93679141998291,-0.1740778535604477,-9.065208435058594
1750928842318440000,6.79443994140625,-4.1042890548706055,0.15613168478012085,-9.208778381347656
1750928842337263900,6.813263916015625,-4.18564510345459,0.1417747437953949,-9.098708152770996
1750928842356087600,6.832087646484375,-4.12343168258667,0.09391828626394272,-9.079565048217773
1750928842374911200,6.8509111328125,-4.381856441497803,0.13220344483852386,-8.979066848754883
1750928842393735200,6.869735107421875,-4.400999069213867,0.07477571070194244,-9.089137077331543
1750928842412558800,6.888558837890625,-4.496711730957031,-0.07357929646968842,-8.897710800170898
1750928842431382500,6.907382568359375,-4.305285930633545,-0.18843477964401245,-8.979066848754883
1750928842450206500,6.92620654296875,-4.195216178894043,-0.19322042167186737,-9.09392261505127
1750928842469030100,6.945030029296875,-4.305285930633545,-0.20757736265659332,-8.993423461914062
1750928842487854000,6.96385400390625,-4.692923545837402,-0.04007977992296219,-8.548358917236328
1750928842506677800,6.982677734375,-4.707280158996582,0.2997010350227356,-8.586644172668457
1750928842525501400,7.00150146484375,-4.922634601593018,0.39541393518447876,-8.672785758972168
1750928842544325400,7.020325439453125,-4.793421745300293,0.2231307178735733,-8.577073097229004
1750928842563149000,7.039149169921875,-4.975276470184326,-0.09272187948226929,-8.653642654418945
1750928842581972700,7.05797265625,-4.6785664558410645,-0.01136590726673603,-8.58185863494873
1750928842600796700,7.076796630859375,-4.6785664558410645,0.2757728099822998,-8.557929992675781
1750928842619620400,7.095620361328125,-5.2145586013793945,0.251844584941864,-8.127222061157227
1750928842638444000,7.114444091796875,-5.24327278137207,0.33798620104789734,-8.294719696044922
1750928842657268000,7.13326806640625,-5.315057277679443,0.21355941891670227,-8.758927345275879
1750928842676091600,7.152091552734375,-5.228915691375732,-0.10229317098855972,-8.428717613220215
1750928842694915300,7.170915283203125,-5.224130153656006,-0.12622138857841492,-8.342576026916504
1750928842713739300,7.1897392578125,-5.353342533111572,0.18484555184841156,-8.476573944091797
1750928842732563000,7.20856298828125,-5.516054630279541,0.2949153780937195,-8.366504669189453
1750928842751386600,7.22738671875,-5.7792649269104,0.050847481936216354,-8.294719696044922
1750928842770210600,7.24621044921875,-5.870192050933838,0.022133609279990196,-8.490931510925293
1750928842789034200,7.2650341796875,-5.2384867668151855,-0.03529413416981697,-8.045866012573242
1750928842807858000,7.28385791015625,-5.616552829742432,0.08434699475765228,-7.7491559982299805
1750928842826681900,7.302681884765625,-6.334399700164795,-0.006580262444913387,-7.792226791381836
1750928842845505500,7.321505615234375,-5.932405471801758,0.06041877344250679,-8.088936805725098
1750928842864329500,7.34032958984375,-5.678766250610352,0.0364905446767807,-8.02193832397461
1750928842883153200,7.359153076171875,-6.190830230712891,0.03170489892363548,-7.883154392242432
1750928842901976800,7.377976806640625,-6.396613121032715,0.2709871530532837,-8.041080474853516
1750928842920800800,7.39680078125,-6.004190444946289,0.44327038526535034,-7.744370460510254
1750928842939624400,7.41562451171875,-5.98026180267334,0.41934216022491455,-7.490731239318848
1750928842958448000,7.4344482421875,-6.02811861038208,0.2709871530532837,-7.361518859863281
1750928842977272000,7.45327197265625,-6.085546016693115,0.4097708761692047,-7.672585964202881
1750928842996095700,7.472095703125,-6.396613121032715,0.5150550603866577,-7.706085205078125
1750928843014919400,7.49091943359375,-6.3152570724487305,0.4624129831790924,-7.2227349281311035
1750928843033743400,7.509743408203125,-6.468397617340088,0.6921239495277405,-7.371089935302734
1750928843052567000,7.528567138671875,-6.50189733505249,0.5485545992851257,-7.361518859863281
1750928843071390700,7.547390625,-6.430112838745117,0.33798620104789734,-7.418946743011475
1750928843090214700,7.566214599609375,-6.544968128204346,0.30927231907844543,-7.241877555847168
1750928843109038300,7.585038330078125,-6.7316083908081055,0.4911268353462219,-7.323233604431152
1750928843127862300,7.6038623046875,-6.774679183959961,0.3188436031341553,-7.055237770080566
1750928843146686000,7.62268603515625,-6.9134626388549805,0.12741780281066895,-6.897311210632324
1750928843165509600,7.641509521484375,-7.104888439178467,0.09391828626394272,-6.921239376068115
1750928843184333600,7.66033349609375,-7.34895658493042,-0.01615155301988125,-6.86381196975708
1750928843203157200,7.6791572265625,-6.990033149719238,-0.01136590726673603,-6.81595516204834
1750928843221981000,7.69798095703125,-7.128817081451416,-0.05922235921025276,-6.849454879760742
1750928843240804900,7.716804931640625,-7.521239757537842,-0.1788634955883026,-6.7106709480285645
1750928843259628500,7.735628662109375,-7.415955543518066,-0.10229317098855972,-6.284748554229736
1750928843278452200,7.7544521484375,-7.789236068725586,-0.2554338276386261,-6.246463298797607
1750928843297276200,7.773276123046875,-7.798807144165039,-0.3798605799674988,-6.538387775421143
1750928843316099800,7.792099853515625,-7.444669246673584,-0.21714866161346436,-6.662814617156982
1750928843334923800,7.810923828125,-7.234101295471191,-0.07836493849754333,-6.504888534545898
1750928843353747500,7.82974755859375,-7.114459991455078,-0.15493527054786682,-6.4187469482421875
1750928843372571100,7.848571044921875,-7.516454219818115,-0.2315055876970291,-6.323033809661865
1750928843391395000,7.86739501953125,-7.530810832977295,-0.3367897868156433,-6.265605926513672
1750928843410218800,7.88621875,-7.258029460906982,-0.18843477964401245,-6.265605926513672
1750928843429042400,7.90504248046875,-7.3537421226501465,-0.01136590726673603,-6.375676155090332
1750928843447866400,7.923866455078125,-7.923233985900879,0.07477571070194244,-6.351747512817383
1750928843466690000,7.94268994140625,-7.918448448181152,-0.0687936544418335,-6.4426751136779785
1750928843485514000,7.961513916015625,-7.626523971557617,-0.2745763957500458,-6.40438985824585
1750928843504337700,7.980337646484375,-7.506882667541504,-0.32721850275993347,-6.117250919342041
1750928843523161300,7.999161376953125,-7.602595806121826,-0.4372883439064026,-5.96889591217041
1750928843541985300,8.0179853515625,-7.8418779373168945,-0.11665010452270508,-6.232106685638428
1750928843560809000,8.03680908203125,-7.971090316772461,-0.025722842663526535,-6.165107727050781
1750928843579632600,8.055632568359375,-8.00937557220459,0.04127619042992592,-6.0263237953186035
1750928843598456600,8.07445654296875,-8.172087669372559,-0.07836493849754333,-6.088537216186523
1750928843617280300,8.0932802734375,-8.34437084197998,-0.2267199456691742,-5.949753284454346
1750928843636104000,8.11210400390625,-8.090731620788574,0.012562318705022335,-5.882754325866699
1750928843654928000,8.130927978515626,-7.755736351013184,-0.0687936544418335,-5.5381879806518555
1750928843673751600,8.14975146484375,-7.540382385253906,0.20877377688884735,-5.413761138916016
1750928843692575500,8.168575439453125,-8.253443717956543,0.529412031173706,-5.863611698150635
1750928843711399200,8.187399169921875,-8.377870559692383,0.36670008301734924,-5.456831932067871
1750928843730222800,8.206222900390625,-8.042875289916992,-0.11665010452270508,-5.30847692489624
1750928843749046800,8.225046875,-7.392027378082275,-0.3655036687850952,-5.5860443115234375
1750928843767870500,8.243870361328124,-8.554939270019531,-0.2602194547653198,-5.748756408691406
1750928843786694100,8.262694091796876,-7.937591075897217,-0.0975075215101242,-5.361119270324707
1750928843805518000,8.28151806640625,-8.373085021972656,0.10827522724866867,-5.198407173156738
1750928843824341800,8.300341796875,-8.215158462524414,0.39541393518447876,-5.040481090545654
1750928843843165700,8.319165771484375,-8.27258586883545,0.4097708761692047,-4.95912504196167
1750928843861989400,8.3379892578125,-8.502297401428223,0.12263216078281403,-4.9878387451171875
1750928843880813000,8.35681298828125,-8.602795600891113,0.10827522724866867,-5.24626350402832
1750928843899637000,8.375636962890624,-8.545368194580078,0.05563312768936157,-4.738985061645508
1750928843918460700,8.394460693359376,-8.420941352844238,0.3332005441188812,-4.695914268493652
1750928843937284600,8.41328466796875,-8.27258586883545,-0.07836493849754333,-4.2556352615356445
1750928843956108300,8.4321083984375,-8.588438987731934,-0.35114672780036926,-4.542773723602295
1750928843974932000,8.450931884765625,-9.33021354675293,-0.4995017349720001,-4.590630054473877
1750928843993756000,8.469755859375,-9.296713829040527,-0.3655036687850952,-4.164707660675049
1750928844012579600,8.48857958984375,-8.837292671203613,0.06041877344250679,-3.8153557777404785
1750928844031403300,8.5074033203125,-9.406784057617188,-0.020937198773026466,-4.078566074371338
1750928844050227200,8.526227294921876,-9.143573760986328,-0.8105686902999878,-4.3178486824035645
1750928844069051000,8.54505078125,-8.976076126098633,-1.6863417625427246,-4.016352653503418
1750928844087874800,8.563874755859375,-8.578866958618164,-0.9302098155021667,-3.992424488067627
1750928844106698500,8.582698486328125,-9.622138023376465,-0.5569294691085815,-4.073780536651611
1750928844125522200,8.601522216796875,-9.751350402832031,-0.5952146053314209,-3.8488552570343018
1750928844144346000,8.62034619140625,-9.119645118713379,-0.9924231767654419,-3.2410783767700195
1750928844163169800,8.639169677734374,-8.69372272491455,-0.8727820515632629,-3.4133615493774414
1750928844181993500,8.657993408203126,-8.688937187194824,-0.48035913705825806,-3.8153557777404785
1750928844200817400,8.6768173828125,-9.000003814697266,-0.29850462079048157,-3.762713670730591
1750928844219641000,8.69564111328125,-9.736993789672852,-1.0067801475524902,-3.126222848892212
1750928844238465000,8.714465087890625,-9.047860145568848,-1.1647064685821533,-3.260220766067505
1750928844257288700,8.733288818359375,-8.248658180236816,-0.8919246196746826,-3.3990044593811035
1750928844276112400,8.7521123046875,-8.353941917419434,-0.24107688665390015,-3.6957144737243652
1750928844294936300,8.770936279296874,-8.96650505065918,-0.45643091201782227,-3.8775691986083984
1750928844313760000,8.789760009765626,-10.158130645751953,-1.174277663230896,-3.5569307804107666
1750928844332584000,8.808583984375,-10.143773078918457,-1.0498509407043457,-3.3511481285095215
1750928844351407600,8.82740771484375,-8.765507698059082,-0.5665007829666138,-3.1310083866119385
1750928844370231300,8.846231201171875,-9.043074607849121,-0.3655036687850952,-3.0687949657440186
1750928844389055200,8.86505517578125,-9.401998519897461,-0.9684949517250061,-3.3367912769317627
1750928844407879000,8.88387890625,-8.92821979522705,-0.8584251403808594,-4.021138668060303
1750928844426702800,8.902702880859374,-9.349356651306152,-0.48514479398727417,-3.8153557777404785
1750928844445526500,8.921526611328124,-9.5264253616333,0.012562318705022335,-3.820141315460205
1750928844464350200,8.94035009765625,-8.894720077514648,-0.6957131624221802,-3.2410783767700195
1750928844483174100,8.959174072265625,-8.933005332946777,-0.844068169593811,-3.451646566390991
1750928844501997800,8.977997802734375,-8.904291152954102,-0.48035913705825806,-3.9972102642059326
1750928844520821500,8.996821533203125,-8.889934539794922,0.08434699475765228,-4.131208419799805
1750928844539645400,9.0156455078125,-8.904291152954102,-0.3607180118560791,-3.686143398284912
1750928844558469000,9.03446923828125,-9.306285858154297,-1.3178470134735107,-3.5808591842651367
1750928844577293000,9.05329296875,-9.937990188598633,-1.6815561056137085,-2.9012975692749023
1750928844596116700,9.07211669921875,-9.306285858154297,-0.26500511169433594,-2.8007988929748535
1750928844614940400,9.0909404296875,-8.899505615234375,0.9026923179626465,-3.9972102642059326
1750928844633764400,9.109764404296875,-9.062217712402344,0.16091732680797577,-3.9493536949157715
1750928844652588000,9.128588134765625,-9.818349838256836,-1.0785647630691528,-3.968496322631836
1750928844671412000,9.147411865234375,-9.713065147399902,-1.2460623979568481,-4.030709743499756
1750928844690235600,9.166235595703125,-8.277371406555176,0.21355941891670227,-3.733999729156494
1750928844709059300,9.185059326171874,-7.765307903289795,0.01734796352684498,-3.078366279602051
1750928844727883300,9.20388330078125,-8.8707914352417,-0.8249256014823914,-4.021138668060303
1750928844746707000,9.22270703125,-10.215558052062988,-1.4709876775741577,-3.9158542156219482
1750928844765531000,9.24153076171875,-9.89013385772705,-1.3178470134735107,-3.260220766067505
1750928844784354600,9.2603544921875,-8.583653450012207,-0.15493527054786682,-3.671786308288574
1750928844803178200,9.27917822265625,-8.200801849365234,-0.2027917206287384,-3.968496322631836
1750928844822002200,9.298002197265625,-10.067203521728516,-1.174277663230896,-3.0065815448760986
1750928844840825900,9.316825927734374,-10.502696990966797,-0.7770691514015198,-3.0113673210144043
1750928844859649800,9.33564990234375,-9.684351921081543,-0.030508488416671753,-3.700500249862671
1750928844878473500,9.354473388671876,-8.904291152954102,-0.3607180118560791,-3.810570001602173
1750928844897297200,9.373297119140625,-9.253643035888672,-0.6382854580879211,-3.4372897148132324
1750928844916121000,9.39212109375,-9.210572242736816,-0.5856433510780334,-3.073580741882324
1750928844934944800,9.41094482421875,-8.114660263061523,-0.9254241585731506,-3.748356580734253
1750928844953768700,9.429768798828125,-7.87059211730957,-1.9351953268051147,-3.3272199630737305
1750928844972592400,9.44859228515625,-9.282357215881348,-1.2795618772506714,-2.9874391555786133
1750928844991416000,9.467416015625,-9.086145401000977,-0.9684949517250061,-2.843869686126709
1750928845010240000,9.486239990234376,-9.832706451416016,-0.4085744619369507,-2.915654420852661
1750928845029063700,9.505063720703125,-10.229914665222168,-0.4420739710330963,-2.8965117931365967
1750928845047887600,9.5238876953125,-9.732208251953125,-0.7100701332092285,-2.853440999984741
1750928845066711300,9.542711181640625,-9.076574325561523,-0.37028929591178894,-3.001796007156372
1750928845085535000,9.561534912109375,-9.823135375976562,-0.5569294691085815,-2.4945175647735596
1750928845104359000,9.58035888671875,-10.220343589782715,-0.9110672473907471,-2.0542383193969727
1750928845123182600,9.5991826171875,-10.095916748046875,-0.7674978375434875,-2.451446771621704
1750928845142006500,9.618006591796876,-9.818349838256836,-0.6382854580879211,-2.585444927215576
1750928845160830200,9.636830322265626,-9.784850120544434,-0.35114672780036926,-2.5663022994995117
1750928845179654000,9.65565380859375,-9.34457015991211,0.08434699475765228,-2.551945447921753
1750928845198477800,9.674477783203125,-8.8707914352417,-0.030508488416671753,-2.6572296619415283
1750928845217301500,9.693301513671875,-9.497711181640625,-0.19800607860088348,-2.3700907230377197
1750928845236125200,9.712125244140625,-10.071989059448242,0.0891326442360878,-2.1260228157043457
1750928845254949000,9.73094921875,-9.478569030761719,-0.355932354927063,-1.7431713342666626
1750928845273772800,9.749772705078126,-9.612566947937012,-0.8632107973098755,-2.087737798690796
1750928845292596700,9.7685966796875,-9.296713829040527,-0.39421752095222473,-2.5088746547698975
1750928845311420400,9.78742041015625,-9.531210899353027,0.5772684812545776,-2.5950162410736084
1750928845330244400,9.806244384765625,-9.239286422729492,0.3523431420326233,-1.7240287065505981
1750928845349068000,9.825068115234375,-9.942776679992676,0.251844584941864,-1.1258230209350586
1750928845367891700,9.8438916015625,-9.239286422729492,0.5533402562141418,-1.470389485359192
1750928845386715600,9.862715576171874,-8.918647766113281,0.649053156375885,-1.211964726448059
1750928845405539300,9.881539306640626,-10.057631492614746,0.07956135272979736,-1.1593226194381714
1750928845424363300,9.90036328125,-9.856635093688965,-0.21714866161346436,-0.8721838593482971
1750928845443187000,9.91918701171875,-9.358927726745605,0.1944168359041214,-1.0827522277832031
1750928845462010600,9.9380107421875,-9.990633010864258,0.046061836183071136,-0.714257538318634
1750928845480834600,9.95683447265625,-8.191229820251465,-0.5282155871391296,0.6496513485908508
1750928845499658200,9.975658203125,-9.339784622192383,0.03170489892363548,-0.7812566161155701
1750928845518482200,9.994482177734374,-10.27777099609375,0.05563312768936157,-0.45583271980285645
1750928845537305900,10.013305908203124,-10.627123832702637,0.3332005441188812,-0.029910283163189888
1750928845556129800,10.0321298828125,-10.564909934997559,0.5246263742446899,-0.4701896607875824
1750928845574953500,10.050953369140625,-10.349555969238281,0.8261220455169678,-1.2406785488128662
1750928845593777200,10.069777099609375,-9.655637741088867,0.6729813814163208,-1.8197416067123413
1750928845612601000,10.08860107421875,-8.913862228393555,1.017547845840454,-2.231307029724121
1750928845631424800,10.1074248046875,-9.311071395874023,1.0893324613571167,-2.011167526245117
1750928845650248700,10.126248779296875,-9.368498802185059,0.5676971673965454,-0.4366901218891144
1750928845669072400,10.145072265625,-10.13898754119873,0.26620152592658997,-0.25004997849464417
1750928845687896000,10.16389599609375,-9.818349838256836,0.5198407173156738,-0.833898663520813
1750928845706720000,10.182719970703126,-10.115059852600098,0.5676971673965454,-1.058824062347412
1750928845725543700,10.201543701171875,-9.263215065002441,0.6059823632240295,-1.4081761837005615
1750928845744367600,10.22036767578125,-9.05264663696289,0.8691928386688232,-1.207179069519043
1750928845763191300,10.23919140625,-10.182058334350586,0.6538388133049011,0.1136590763926506
1750928845782015000,10.258014892578124,-10.03848934173584,0.6777670383453369,-0.3601198196411133
1750928845800839000,10.2768388671875,-9.019146919250488,0.893121063709259,-0.9583254456520081
1750928845819662600,10.29566259765625,-9.521639823913574,0.3044866919517517,-0.45104706287384033
1750928845838486500,10.314486572265626,-10.019346237182617,-0.030508488416671753,-0.4366901218891144
1750928845857310200,10.333310302734375,-9.435498237609863,0.5772684812545776,-0.6520441770553589
1750928845876134000,10.3521337890625,-9.765707015991211,0.5006981492042542,-0.656829833984375
1750928845894957800,10.370957763671875,-9.325428009033203,0.357128769159317,-0.9104689955711365
1750928845913781500,10.389781494140625,-9.535996437072754,0.3332005441188812,-0.11126625537872314
1750928845932605400,10.40860546875,-10.244272232055664,-0.12143574655056,0.5874379873275757
1750928845951429000,10.42742919921875,-9.57906723022461,-0.15972091257572174,-0.364905446767807
1750928845970252800,10.446252685546876,-8.92821979522705,0.18005990982055664,-1.5182459354400635
1750928845989076700,10.46507666015625,-10.033703804016113,0.7304090857505798,-0.37926238775253296
1750928846007900400,10.483900390625,-10.52662467956543,0.8644071817398071,-0.029910283163189888
1750928846026724400,10.502724365234375,-10.115059852600098,0.6394818425178528,-0.2069791555404663
1750928846045548000,10.521548095703125,-9.847063064575195,0.3762713670730591,-0.5802595019340515
1750928846064372000,10.5403720703125,-9.866206169128418,0.2757728099822998,-0.35054850578308105
1750928846083195600,10.559195556640624,-9.832706451416016,0.49591249227523804,-0.4893322288990021
1750928846102019300,10.578019287109376,-10.167701721191406,0.13698910176753998,-0.1495514214038849
1750928846120843300,10.59684326171875,-10.225129127502441,-0.3128615617752075,0.4582255482673645
1750928846139667000,10.6156669921875,-9.966704368591309,0.15134602785110474,0.10887342691421509
1750928846158491000,10.634490966796875,-9.626923561096191,0.08434699475765228,-0.2835494875907898
1750928846177314600,10.653314453125,-9.593423843383789,0.03170489892363548,-0.47976094484329224
1750928846196138500,10.672138427734374,-9.89013385772705,0.16091732680797577,-0.29790642857551575
1750928846214962200,10.690962158203124,-9.923633575439453,-0.04486542567610741,0.28115665912628174
1750928846233785900,10.709785888671876,-9.492925643920898,-0.14057832956314087,0.4821537733078003
1750928846252609800,10.72860986328125,-9.708279609680176,0.05563312768936157,-0.05383851006627083
1750928846271433500,10.74743359375,-9.473783493041992,0.44327038526535034,-0.2787638306617737
1750928846290257400,10.76625732421875,-9.770493507385254,0.5341976284980774,0.1136590763926506
1750928846309081000,10.7850810546875,-9.751350402832031,0.4815555512905121,0.2763710021972656
1750928846327904800,10.80390478515625,-9.966704368591309,0.18005990982055664,0.7022934556007385
1750928846346728700,10.822728759765624,-10.16291618347168,0.0029910283628851175,0.625723123550415
1750928846365552400,10.841552490234376,-10.253843307495117,0.30927231907844543,0.2763710021972656
1750928846384376300,10.860376220703126,-9.971489906311035,0.2805584669113159,0.04666004329919815
1750928846403200000,10.879199951171875,-9.722636222839355,0.1657029688358307,0.24287149310112
1750928846422023700,10.898023681640625,-9.760921478271484,0.31405797600746155,0.6687939167022705
1750928846440847600,10.91684765625,-9.837491989135742,0.529412031173706,0.39122650027275085
1750928846459671300,10.93567138671875,-9.995418548583984,0.04127619042992592,0.3720839321613312
1750928846478495200,10.9544951171875,-10.028918266296387,-0.3367897868156433,0.4582255482673645
1750928846497319000,10.97331884765625,-9.866206169128418,-0.21714866161346436,0.3002992272377014
1750928846516142800,10.992142822265626,-9.808777809143066,-0.025722842663526535,-0.02512463741004467
1750928846553790200,11.029790283203125,-9.497711181640625,0.2231307178735733,0.16151553392410278
1750928846572614100,11.0486142578125,-9.655637741088867,0.06999006122350693,0.31465616822242737
1750928846591437800,11.067437744140625,-9.70349407196045,-0.12143574655056,0.33858439326286316
1750928846610261800,11.08626171875,-9.909276962280273,0.0364905446767807,0.31465616822242737
1750928846629085400,11.10508544921875,-9.952347755432129,0.21355941891670227,0.1950150430202484
1750928846647909400,11.123909423828126,-9.799206733703613,0.0891326442360878,0.4582255482673645
1750928846666733000,11.142733154296875,-9.760921478271484,0.11306086927652359,0.44386860728263855
1750928846685557000,11.161556884765625,-9.641280174255371,0.3762713670730591,-0.11126625537872314
1750928846704380700,11.180380615234375,-9.708279609680176,0.42412781715393066,-0.04426721855998039
1750928846723204400,11.199204345703125,-10.033703804016113,0.18963119387626648,0.24287149310112
1750928846742028300,11.2180283203125,-9.856635093688965,-0.006580262444913387,0.381655216217041
1750928846760852000,11.23685205078125,-9.866206169128418,-0.025722842663526535,0.26201409101486206
1750928846779676000,11.255676025390626,-9.942776679992676,0.12263216078281403,0.2955136001110077
1750928846798499600,11.27449951171875,-9.794421195983887,0.34277185797691345,0.25722843408584595
1750928846817323300,11.2933232421875,-9.851848602294922,0.5581258535385132,-0.19740787148475647
1750928846836147200,11.312147216796875,-9.593423843383789,0.47676992416381836,-0.32662028074264526
1750928846854971000,11.330970947265625,-9.378069877624512,0.06041877344250679,-0.015553346835076809
1750928846873794800,11.349794921875,-9.68913745880127,0.1417747437953949,-0.12083754688501358
1750928846892618500,11.368618408203124,-9.741779327392578,0.5150550603866577,-0.3026920557022095
1750928846911442400,11.3874423828125,-9.870991706848145,0.5006981492042542,-0.19740787148475647
1750928846930266000,11.40626611328125,-9.933204650878906,0.30927231907844543,-0.020338991656899452
1750928846949089800,11.42508984375,-9.583852767944336,0.26620152592658997,-0.5132604837417603
1750928846967913700,11.443913818359375,-9.545567512512207,0.4576273262500763,-0.8721838593482971
1750928846986737400,11.4627373046875,-9.81356430053711,0.4863412082195282,-0.4701896607875824
1750928847005561300,11.481561279296875,-10.01456069946289,0.5054838061332703,-0.43190449476242065
1750928847024385000,11.500385009765624,-9.837491989135742,0.3810569941997528,-0.5802595019340515
1750928847043209000,11.519208984375,-9.756135940551758,0.4576273262500763,-0.9726824164390564
1750928847062032600,11.53803271484375,-9.516854286193848,0.529412031173706,-1.0492527484893799
1750928847080856600,11.556856689453125,-9.531210899353027,0.1704886108636856,-0.589830756187439
1750928847099680300,11.57568017578125,-9.894919395446777,0.14656038582324982,-0.7094719409942627
1750928847118504000,11.59450390625,-9.861420631408691,0.4336991012096405,-0.9678967595100403
1750928847137327900,11.613327880859375,-9.760921478271484,0.3188436031341553,-1.3986048698425293
1750928847156151600,11.632151611328124,-9.612566947937012,0.16091732680797577,-1.5230315923690796
1750928847174975500,11.6509755859375,-9.746564865112305,0.30927231907844543,-1.3459627628326416
1750928847193799200,11.669799072265626,-9.933204650878906,0.5437689423561096,-1.2215359210968018
1750928847212622800,11.688622802734375,-9.990633010864258,0.6634100675582886,-1.4416756629943848
1750928847231446800,11.70744677734375,-9.512067794799805,0.3475574851036072,-1.7527425289154053
1750928847250270500,11.7262705078125,-9.612566947937012,0.15134602785110474,-1.810170292854309
1750928847269094400,11.745094482421875,-9.646066665649414,0.22791635990142822,-1.5900306701660156
1750928847287918000,11.76391796875,-9.574281692504883,0.3810569941997528,-1.7479569911956787
1750928847306742000,11.782741943359374,-9.100502967834473,0.3762713670730591,-2.049452543258667
1750928847325565700,11.801565673828126,-9.521639823913574,0.3762713670730591,-2.2360928058624268
1750928847344389600,11.8203896484375,-10.033703804016113,0.18005990982055664,-1.9920248985290527
1750928847363213300,11.83921337890625,-9.401998519897461,0.2757728099822998,-2.355733871459961
1750928847382037200,11.858037353515625,-9.253643035888672,0.5676971673965454,-2.5663022994995117
1750928847410272800,11.886272705078126,-10.17727279663086,0.582054078578949,-1.9920248985290527
1750928847429096700,11.9050966796875,-9.502496719360352,0.29012975096702576,-2.3748764991760254
1750928847447920400,11.92392041015625,-9.186644554138184,0.2949153780937195,-2.9012975692749023
1750928847466744300,11.942744384765625,-9.095717430114746,0.34277185797691345,-2.8630123138427734
1750928847485568000,11.961568115234375,-9.181859016418457,0.37148571014404297,-2.93001127243042
1750928847504391700,11.9803916015625,-9.138788223266602,0.3810569941997528,-2.9970104694366455
1750928847523215600,11.999215576171874,-9.894919395446777,0.4384847581386566,-2.9252257347106934
1750928847542039300,12.018039306640626,-9.78963565826416,0.5246263742446899,-3.087937593460083
1750928847560863200,12.03686328125,-9.311071395874023,0.29012975096702576,-3.322434186935425
1750928847579687000,12.05568701171875,-9.019146919250488,0.1417747437953949,-3.4372897148132324
1750928847598510800,12.0745107421875,-9.08135986328125,0.18963119387626648,-3.298506021499634
1750928847617334500,12.09333447265625,-9.459425926208496,0.31405797600746155,-3.456432342529297
1750928847636158200,12.112158203125,-9.411569595336914,0.09870393574237823,-3.48993182182312
1750928847654982100,12.130982177734374,-9.153144836425781,0.1657029688358307,-3.8488552570343018
1750928847673805800,12.149805908203126,-8.866005897521973,0.3188436031341553,-4.18863582611084
1750928847692629800,12.168629638671876,-8.377870559692383,0.26620152592658997,-4.059423446655273
1750928847711453400,12.187453369140625,-9.076574325561523,0.1944168359041214,-3.9493536949157715
1750928847730277400,12.20627734375,-9.162715911865234,0.29012975096702576,-4.092923164367676
1750928847749101000,12.22510107421875,-8.813364028930664,0.4049852192401886,-4.370490550994873
1750928847767925000,12.243925048828125,-8.46879768371582,0.4097708761692047,-4.552345275878906
1750928847786748700,12.262748779296874,-8.775078773498535,0.36670008301734924,-4.590630054473877
1750928847805572600,12.281572509765626,-8.83250617980957,0.1944168359041214,-4.614558696746826
1750928847824396300,12.300396240234376,-8.688937187194824,0.17527425289154053,-4.4997029304504395
1750928847843220000,12.319219970703125,-8.267800331115723,0.4049852192401886,-4.753342151641846
1750928847862044000,12.3380439453125,-7.889734268188477,0.5868397355079651,-4.9878387451171875
1750928847880867600,12.35686767578125,-7.593024253845215,0.5437689423561096,-5.1840500831604
1750928847899691500,12.37569140625,-7.937591075897217,0.4624129831790924,-5.2941203117370605
1750928847918515200,12.39451513671875,-8.00937557220459,0.3762713670730591,-5.260620594024658
1750928847937339100,12.413339111328124,-8.152944564819336,0.357128769159317,-5.203192710876465
1750928847956162800,12.432162841796876,-8.564510345458984,0.31405797600746155,-5.107480049133301
1750928847974986500,12.450986572265625,-9.354142189025879,0.6251249313354492,-5.777470111846924
1750928847993810400,12.469810546875,-8.00937557220459,0.39541393518447876,-5.739185333251953
1750928848012634000,12.488634033203125,-7.540382385253906,0.251844584941864,-5.4951171875
1750928848031458000,12.5074580078125,-8.866005897521973,0.39062830805778503,-5.715256690979004
1750928848050281700,12.52628173828125,-8.483154296875,0.2757728099822998,-5.916254043579102
1750928848069105700,12.545105712890624,-9.31585693359375,-0.389431893825531,-4.040280818939209
1750928848087929300,12.563929443359376,-7.923233985900879,0.33798620104789734,-6.351747512817383
1750928848106753300,12.582753173828126,-7.69830846786499,0.2183450609445572,-5.854040622711182
1750928848125577000,12.601576904296875,-8.157731056213379,0.15613168478012085,-5.466403484344482
1750928848144401000,12.62040087890625,-7.463811874389648,-0.054436713457107544,-5.43290376663208
1750928848163224600,12.639224609375,-5.793622016906738,-0.12622138857841492,-6.0741801261901855
1750928848182048300,12.65804833984375,-6.243472576141357,-0.24107688665390015,-6.064609050750732
1750928848200872200,12.6768720703125,-9.46899700164795,-0.3415754437446594,-4.537988185882568
1750928848219695900,12.69569580078125,-10.282557487487793,0.39541393518447876,-5.284548759460449
1750928848238519800,12.714519775390626,-9.2919282913208,0.4336991012096405,-5.337191104888916
1750928848257343500,12.733343505859375,-8.46879768371582,0.10348957777023315,-5.767899036407471
1750928848276167400,12.75216748046875,-8.325227737426758,-0.4420739710330963,-5.700900077819824
1750928848294991000,12.7709912109375,-7.908876895904541,-0.2267199456691742,-5.624329566955566
1750928848313815000,12.78981494140625,-7.856235027313232,0.12263216078281403,-5.542973518371582
1750928848332638700,12.808638671875,-8.11944580078125,0.3858426511287689,-5.361119270324707
1750928848351462700,12.827462646484374,-8.181658744812012,-0.07357929646968842,-5.729613780975342
1750928848370286300,12.846286376953126,-7.554739475250244,-0.5234299302101135,-5.552545070648193
1750928848389110300,12.8651103515625,-7.937591075897217,0.026919255033135414,-6.045466423034668
1750928848407934000,12.883933837890625,-8.38265609741211,0.4576273262500763,-6.835097789764404
1750928848426757600,12.902757568359375,-8.181658744812012,0.3236292600631714,-6.236892223358154
1750928848445581600,12.92158154296875,-8.583653450012207,0.5102694034576416,-5.4759745597839355
1750928848464405200,12.9404052734375,-6.171687602996826,0.31405797600746155,-6.882954120635986
1750928848483229200,12.959229248046874,-6.468397617340088,0.5964110493659973,-6.782455921173096
1750928848502052900,12.978052978515626,-7.248457908630371,0.4576273262500763,-6.011966705322266
1750928848520876800,12.996876708984376,-7.650452136993408,0.706480860710144,-6.547959327697754
1750928848539700500,13.015700439453125,-7.435098171234131,0.8883354067802429,-6.9930243492126465
1750928848558524400,13.0345244140625,-7.34895658493042,0.4863412082195282,-6.533602237701416
1750928848577348000,13.05334814453125,-6.2051873207092285,-0.08315058797597885,-6.945167541503906
1750928848596172000,13.072172119140625,-5.932405471801758,-0.19800607860088348,-6.62931489944458
1750928848614995700,13.09099560546875,-7.128817081451416,0.2709871530532837,-6.6484575271606445
1750928848633819600,13.109819580078126,-8.200801849365234,0.45284169912338257,-7.442874908447266
1750928848652643300,13.128643310546876,-7.248457908630371,0.5485545992851257,-8.199007034301758
1750928848671467000,13.147467041015625,-6.224329948425293,0.18484555184841156,-7.409375190734863
1750928848690291000,13.166291015625,-6.243472576141357,-0.054436713457107544,-7.562515735626221
1750928848709114600,13.185114501953125,-6.262615203857422,-0.3080759048461914,-7.581658363342285
1750928848727938600,13.2039384765625,-6.410970211029053,-0.01136590726673603,-7.7491559982299805
1750928848746762200,13.22276220703125,-6.3152570724487305,0.26620152592658997,-7.782655715942383
1750928848765586200,13.241586181640624,-5.812764644622803,0.13220344483852386,-7.706085205078125
1750928848784409900,13.260409912109376,-5.578267574310303,0.12741780281066895,-7.8113694190979
1750928848803233800,13.27923388671875,-5.985047817230225,-0.23629122972488403,-7.557730197906494
1750928848822057500,13.298057373046875,-5.941977024078369,-0.3367897868156433,-8.84506893157959
1750928848840881400,13.31688134765625,-5.807978630065918,-0.049651071429252625,-8.23250675201416
1750928848859705000,13.335705078125,-5.037489891052246,-0.09272187948226929,-8.141578674316406
1750928848878529000,13.354529052734375,-5.109274387359619,-0.0687936544418335,-8.155936241149902
1750928848897352700,13.373352783203124,-5.228915691375732,-0.10707881301641464,-8.170292854309082
1750928848916176400,13.39217626953125,-5.755336761474609,0.15134602785110474,-8.34736156463623
1750928848935000300,13.411000244140626,-5.645267009735107,0.28534409403800964,-8.5100736618042
1750928848953824000,13.429823974609375,-4.831707000732422,0.07956135272979736,-8.395217895507812
1750928848972648000,13.44864794921875,-4.779065132141113,-0.11665010452270508,-8.423932075500488
1750928848991471600,13.4674716796875,-5.042275428771973,-0.0687936544418335,-8.486145973205566
1750928849010295600,13.486295654296875,-5.1667022705078125,-0.025722842663526535,-8.409575462341309
1750928849029119200,13.505119140625,-4.90827751159668,0.046061836183071136,-8.486145973205566
1750928849047943200,13.523943115234376,-4.831707000732422,0.022133609279990196,-8.572287559509277
1750928849066766800,13.542766845703126,-4.884349346160889,0.14656038582324982,-8.634500503540039
1750928849085590800,13.5615908203125,-4.798207759857178,0.1657029688358307,-8.715856552124023
1750928849104414500,13.58041455078125,-4.779065132141113,0.046061836183071136,-8.768498420715332
1750928849123238400,13.59923828125,-5.157131195068359,-0.15972091257572174,-8.715856552124023
1750928849142062000,13.61806201171875,-4.927420139312744,0.026919255033135414,-8.849854469299316
1750928849160886000,13.636885986328124,-4.491926193237305,0.022133609279990196,-8.792427062988281
1750928849179709700,13.655709716796874,-4.046861171722412,-0.03529413416981697,-8.677571296691895
1750928849198533600,13.67453369140625,-4.070789337158203,-0.15972091257572174,-8.773283958435059
1750928849217357300,13.693357421875,-4.501497745513916,-0.07836493849754333,-8.83071231842041
1750928849236181200,13.71218115234375,-4.563711166381836,0.3188436031341553,-8.868997573852539
1750928849255005000,13.7310048828125,-4.233501434326172,-0.05922235921025276,-8.998209953308105
1750928849273828900,13.749828857421875,-4.085146427154541,-0.26979073882102966,-9.1657075881958
1750928849292652500,13.768652587890625,-4.142574310302734,-0.09272187948226929,-9.098708152770996
1750928849311476500,13.7874765625,-4.089931964874268,-0.01136590726673603,-9.18006420135498
1750928849330300200,13.806300048828126,-4.195216178894043,-0.1453639715909958,-9.122636795043945
1750928849349123800,13.825123779296876,-4.0803608894348145,-0.04007977992296219,-9.074779510498047
1750928849367947800,13.84394775390625,-3.9463627338409424,-0.04007977992296219,-9.026923179626465
1750928849386771500,13.862771484375,-3.5443685054779053,-0.1788634955883026,-8.9312105178833
1750928849405595400,13.881595458984375,-3.989433526992798,-0.13579268753528595,-9.184849739074707
1750928849424419000,13.900419189453125,-3.9463627338409424,-0.13579268753528595,-9.242277145385742
1750928849443243000,13.919242919921874,-3.989433526992798,-0.21714866161346436,-9.275776863098145
1750928849462066700,13.938066650390626,-3.5635111331939697,-0.24107688665390015,-9.189635276794434
1750928849480890600,13.956890625,-3.3194432258605957,-0.24107688665390015,-9.151350021362305
1750928849499714300,13.97571435546875,-3.281157970428467,-0.09272187948226929,-9.242277145385742
1750928849518538200,13.994538330078125,-3.5682966709136963,-0.01136590726673603,-9.414560317993164
1750928849537362000,14.01336181640625,-3.644867181777954,-0.42293140292167664,-9.261420249938965
1750928849556185900,14.032185791015625,-3.3720853328704834,-0.4995017349720001,-9.10827922821045
1750928849575009500,14.051009521484374,-2.960519790649414,-0.2554338276386261,-9.247062683105469
1750928849593833500,14.06983349609375,-2.6111676692962646,-0.07357929646968842,-9.42891788482666
1750928849612657200,14.0886572265625,-2.4197418689727783,-0.18843477964401245,-9.385847091674805
1750928849631481000,14.107481201171876,-2.6877379417419434,-0.04007977992296219,-9.912267684936523
1750928849650304800,14.1263046875,-2.4771697521209717,-0.4325026869773865,-9.519845008850098
1750928849669128700,14.145128662109375,-2.3192434310913086,-0.5808576941490173,-9.615557670593262
1750928849687952400,14.163952392578125,-2.3096721172332764,-0.5617151260375977,-9.649057388305664
1750928849706776300,14.1827763671875,-1.7353945970535278,-0.39900317788124084,-9.883553504943848
1750928849725600000,14.20160009765625,-1.9555343389511108,-0.3798605799674988,-9.80219841003418
1750928849744423700,14.220423583984376,-2.0656042098999023,-0.42771705985069275,-9.835697174072266
1750928849763247600,14.23924755859375,-1.960319995880127,-0.4899304509162903,-9.797411918640137
1750928849782071300,14.2580712890625,-1.9363917112350464,-0.3655036687850952,-9.744770050048828
1750928849800895200,14.276895263671875,-2.0273189544677734,-0.4372883439064026,-9.811769485473633
1750928849819719200,14.29571923828125,-1.9172492027282715,-0.7674978375434875,-9.644271850585938
1750928849838542800,14.31454296875,-2.132603168487549,-0.42293140292167664,-9.950552940368652
1750928849857366800,14.33336669921875,-1.7784653902053833,-0.24586252868175507,-9.826126098632812
1750928849876190500,14.3521904296875,-1.4626128673553467,-0.4707878530025482,-9.725627899169922
1750928849895014100,14.37101416015625,-1.6013965606689453,-0.3415754437446594,-9.850054740905762
1750928849913838000,14.389838134765625,-1.5296118259429932,-0.28893333673477173,-9.912267684936523
1750928849932661800,14.408661865234375,-1.0606186389923096,-0.19322042167186737,-9.926624298095703
1750928849951485700,14.427485595703125,-0.9936196208000183,-0.3080759048461914,-9.744770050048828
1750928849970309400,14.446309326171875,-1.017547845840454,-0.3367897868156433,-10.146764755249023
1750928849989133300,14.46513330078125,-0.7782655358314514,-0.48035913705825806,-10.074979782104492
1750928850007957000,14.48395703125,-0.6969096064567566,-0.5330012440681458,-9.893125534057617
1750928850026781000,14.502781005859376,-0.7974081635475159,-0.5282155871391296,-9.9409818649292
1750928850045604600,14.5216044921875,-0.4576273262500763,-0.6909275650978088,-9.979267120361328
1750928850064428500,14.540428466796875,-0.07956135272979736,-0.42771705985069275,-9.744770050048828
1750928850083252200,14.559252197265625,0.1788634955883026,-0.2793620526790619,-9.744770050048828
1750928850102076200,14.578076171875,-0.07477571070194244,-0.03529413416981697,-10.094121932983398
1750928850120899800,14.59689990234375,0.04486542567610741,-0.2841476798057556,-9.840482711791992
1750928850139723800,14.615723876953124,0.47557350993156433,-0.48514479398727417,-10.156335830688477
1750928850158547500,14.63454736328125,0.10229317098855972,-0.5234299302101135,-10.237691879272461
1750928850177371400,14.653371337890626,0.6430711150169373,-0.6526423692703247,-10.065408706665039
1750928850196195000,14.672195068359375,0.9302098155021667,-0.5234299302101135,-9.864411354064941
1750928850215019000,14.69101904296875,1.0019944906234741,-0.16929219663143158,-9.964909553527832
1750928850233842700,14.7098427734375,1.2604193687438965,-0.21236300468444824,-9.840482711791992
1750928850252666600,14.72866650390625,1.633699655532837,-0.22193430364131927,-9.625128746032715
1750928850271490300,14.747490234375,1.4949159622192383,-0.16450655460357666,-9.725627899169922
1750928850290314200,14.766314208984374,2.083550214767456,-0.15493527054786682,-9.687342643737793
1750928850309138000,14.785137939453126,1.8203397989273071,-0.1501496136188507,-9.54377269744873
1750928850327961900,14.8039619140625,2.3467607498168945,-0.2554338276386261,-9.716055870056152
1750928850346785500,14.82278564453125,1.944766640663147,-0.16450655460357666,-9.658628463745117
1750928850365609500,14.841609375,2.193620204925537,-0.09272187948226929,-9.701699256896973
1750928850384433200,14.86043310546875,2.4568307399749756,-0.14057832956314087,-9.424132347106934
1750928850403257000,14.879257080078125,2.600399971008301,-0.12622138857841492,-9.620343208312988
1750928850422080800,14.898080810546874,2.6434707641601562,-0.07836493849754333,-9.7064847946167
1750928850440904700,14.91690478515625,2.6769702434539795,-0.23629122972488403,-9.610772132873535
1750928850459728400,14.935728271484376,2.7535407543182373,-0.1788634955883026,-9.471988677978516
1750928850478552300,14.95455224609375,2.9593234062194824,-0.28893333673477173,-9.510273933410645
1750928850497376000,14.9733759765625,2.925823926925659,-0.14057832956314087,-9.864411354064941
1750928850516200000,14.992199951171875,3.2273194789886475,-0.18364913761615753,-9.601201057434082
1750928850535023600,15.011023681640625,3.7489547729492188,-0.19322042167186737,-9.66819953918457
1750928850553847600,15.02984765625,3.2991042137145996,-0.10229317098855972,-9.625128746032715
1750928850572671200,15.048671142578126,3.710669755935669,-0.35114672780036926,-9.376275062561035
1750928850591495200,15.0674951171875,3.9978084564208984,-0.12143574655056,-9.404989242553711
1750928850610318800,15.08631884765625,3.868596076965332,-0.15493527054786682,-9.189635276794434
1750928850629142800,15.105142822265625,4.079164505004883,-0.3798605799674988,-9.031708717346191
1750928850647966500,15.123966552734375,4.17009162902832,-0.35114672780036926,-8.888139724731445
1750928850666790400,15.142790283203125,4.189234256744385,0.03170489892363548,-8.993423461914062
1750928850685614000,15.161614013671874,4.323232173919678,0.07477571070194244,-9.05563735961914
1750928850704438000,15.18043798828125,4.332803726196289,-0.12622138857841492,-9.103493690490723
1750928850723261700,15.19926171875,4.3998026847839355,-0.4468596279621124,-8.959924697875977
1750928850742085600,15.218085693359376,4.586442947387695,-0.21714866161346436,-8.888139724731445
1750928850760909300,15.236909423828125,4.538586139678955,-0.07357929646968842,-8.950352668762207
1750928850779733200,15.255733154296875,5.098506927490234,-0.11665010452270508,-9.30449104309082
1750928850798557000,15.274556884765625,4.763511657714844,-0.35114672780036926,-8.797212600708008
1750928850817380900,15.293380859375,4.864010334014893,-0.26979073882102966,-8.59621524810791
1750928850836204500,15.31220458984375,4.9022955894470215,-0.26979073882102966,-8.500502586364746
1750928850855028500,15.331028564453124,5.07936429977417,-0.10229317098855972,-8.562715530395508
1750928850873852200,15.34985205078125,5.088935375213623,0.10827522724866867,-8.7445707321167
1750928850892676000,15.368676025390625,5.1320061683654785,0.09870393574237823,-8.586644172668457
1750928850911499800,15.387499755859375,5.227719306945801,-0.15972091257572174,-8.26121997833252
1750928850930323700,15.40632373046875,5.309075355529785,-0.16450655460357666,-8.361719131469727
1750928850949147400,15.4251474609375,5.275575637817383,0.07477571070194244,-8.45743179321289
1750928850967971300,15.443971435546874,5.2181477546691895,0.06999006122350693,-8.605786323547363
1750928850986795000,15.462794921875,5.208576679229736,0.050847481936216354,-8.768498420715332
1750928851005619000,15.481618896484376,5.347360610961914,0.0364905446767807,-8.476573944091797
1750928851024442600,15.500442626953125,5.438287734985352,-0.07357929646968842,-8.304290771484375
1750928851043266600,15.5192666015625,5.567500114440918,-0.001794616924598813,-8.62014389038086
1750928851062090200,15.53809033203125,5.562714576721191,-0.13100704550743103,-8.151150703430176
1750928851080914200,15.5569140625,5.404788017272949,-0.29371899366378784,-8.203792572021484
1750928851099737900,15.57573779296875,5.567500114440918,-0.001794616924598813,-8.534002304077148
1750928851118561800,15.594561767578124,5.5244293212890625,-0.020937198773026466,-8.275577545166016
1750928851137385500,15.613385498046876,5.701498031616211,-0.40378883481025696,-6.935596466064453
1750928851156209400,15.63220947265625,6.203990936279297,-0.12143574655056,-8.400003433227539
1750928851175033300,15.651033447265625,5.514857769012451,0.18005990982055664,-8.61057186126709
1750928851193857000,15.66985693359375,5.931209087371826,-0.054436713457107544,-8.165507316589355
1750928851212680700,15.6886806640625,5.883352756500244,-0.12622138857841492,-7.921439170837402
1750928851231504600,15.707504638671875,5.648856163024902,-0.18364913761615753,-8.328219413757324
1750928851250328300,15.726328369140624,5.80199670791626,-0.2841476798057556,-8.141578674316406
1750928851269152300,15.74515234375,6.0125651359558105,-0.13579268753528595,-8.14636516571045
1750928851287976200,15.76397607421875,5.998208045959473,0.251844584941864,-8.304290771484375
1750928851306799900,15.7827998046875,6.055635929107666,0.13220344483852386,-8.175078392028809
1750928851325623800,15.801623779296875,6.27577543258667,-0.054436713457107544,-7.902296543121338
1750928851344447500,15.820447509765625,6.247061729431152,-0.09272187948226929,-8.055437088012695
1750928851363271400,15.839271484375,6.19920539855957,-0.1453639715909958,-8.103293418884277
1750928851382095000,15.85809521484375,6.21356201171875,-0.12143574655056,-7.744370460510254
1750928851400919000,15.8769189453125,6.299703598022461,-0.1788634955883026,-7.52423095703125
1750928851419742700,15.89574267578125,6.347560405731201,0.10827522724866867,-7.916653633117676
1750928851438566700,15.914566650390626,6.629913330078125,-0.2745763957500458,-6.806384086608887
1750928851457390300,15.933390380859375,6.601199626922607,0.6011967062950134,-8.806783676147461
1750928851476214300,15.95221435546875,6.395416736602783,-0.01615155301988125,-7.6390862464904785
1750928851495038000,15.971037841796875,6.625127792358398,-0.4420739710330963,-7.122236728668213
1750928851513862000,15.98986181640625,6.629913330078125,-0.45643091201782227,-7.189235687255859
1750928851532685600,16.008685546875,6.739983081817627,-0.025722842663526535,-7.753942012786865
1750928851551509500,16.027509521484376,7.1132636070251465,-0.15493527054786682,-7.442874908447266
1750928851570333200,16.046333251953126,7.012764930725098,-0.049651071429252625,-7.256234645843506
1750928851589157000,16.0651572265625,7.06062126159668,0.01734796352684498,-7.256234645843506
1750928851607981000,16.08398095703125,7.0654072761535645,-0.10707881301641464,-7.074379920959473
1750928851626804700,16.1028046875,7.0031938552856445,-0.5521438121795654,-6.643671989440918
1750928851645628400,16.12162841796875,7.0654072761535645,-0.6478567123413086,-6.729813575744629
1750928851664452400,16.140452392578126,7.323832035064697,-0.06400800496339798,-6.9068827629089355
1750928851683276000,16.159276123046876,7.462615489959717,-0.07836493849754333,-6.892525672912598
1750928851702100000,16.178099853515626,7.476972579956055,-0.16450655460357666,-6.94038200378418
1750928851720924000,16.196923828125,7.500900745391846,-0.3415754437446594,-6.696314334869385
1750928851739747600,16.21574755859375,7.563114166259766,-0.19322042167186737,-6.4666032791137695
1750928851758571500,16.234571533203123,7.677969455718994,0.10827522724866867,-6.437889099121094
1750928851777395200,16.253395263671877,7.701898097991943,0.050847481936216354,-6.0263237953186035
1750928851796219100,16.27221923828125,7.898109436035156,-0.01615155301988125,-6.0263237953186035
1750928851815042800,16.291042724609376,7.965108394622803,-0.1501496136188507,-6.294320106506348
1750928851833866800,16.30986669921875,7.926823139190674,-0.1788634955883026,-6.327819347381592
1750928851852690400,16.3286904296875,7.725826263427734,-0.08793623000383377,-6.27996301651001
1750928851871514400,16.347514404296874,7.821538925170898,0.046061836183071136,-6.040680885314941
1750928851899750100,16.375750244140626,8.113463401794434,-0.0975075215101242,-6.09332275390625
1750928851918573800,16.39457373046875,8.089534759521484,-0.0975075215101242,-5.873183250427246
1750928851937397800,16.413397705078125,8.003393173217773,-0.06400800496339798,-5.523830890655518
1750928851956221400,16.432221435546875,7.979465484619141,-0.13579268753528595,-5.523830890655518
1750928851975045400,16.45104541015625,8.156534194946289,-0.030508488416671753,-6.289534091949463
1750928851993869000,16.469869140625,8.309675216674805,0.0077766734175384045,-6.011966705322266
1750928852012693000,16.48869287109375,7.989036560058594,-0.025722842663526535,-5.5381879806518555
1750928852031516700,16.5075166015625,8.180462837219238,-0.06400800496339798,-5.5381879806518555
1750928852050340600,16.526340576171876,8.357531547546387,-0.12622138857841492,-5.787041664123535
1750928852069164300,16.545164306640626,8.534600257873535,-0.049651071429252625,-5.873183250427246
1750928852087988200,16.56398828125,8.515457153320312,0.0029910283628851175,-5.480760097503662
1750928852106812000,16.58281201171875,8.123034477233887,-0.04486542567610741,-5.236692428588867
1750928852125635800,16.6016357421875,8.596813201904297,-0.13579268753528595,-5.160121917724609
1750928852144459800,16.620459716796876,8.582456588745117,-0.16929219663143158,-4.983053207397461
1750928852163283500,16.639283447265626,8.649456024169922,0.03170489892363548,-5.207978248596191
1750928852182107400,16.658107421875,8.448458671569824,0.13220344483852386,-5.198407173156738
1750928852200931000,16.67693115234375,8.458029747009277,-0.1453639715909958,-4.485345840454102
1750928852219755000,16.695755126953124,8.726025581359863,-0.2793620526790619,-4.58584451675415
1750928852238578700,16.71457861328125,8.836095809936523,-0.025722842663526535,-5.140979290008545
1750928852257402600,16.733402587890627,8.754739761352539,0.10348957777023315,-5.212764263153076
1750928852276226300,16.752226318359376,8.793025016784668,0.0077766734175384045,-4.624129772186279
1750928852295050200,16.77105029296875,8.764310836791992,-0.10229317098855972,-4.590630054473877
1750928852313874000,16.7898740234375,8.8648099899292,-0.18843477964401245,-4.652843475341797
1750928852332697900,16.80869775390625,8.893523216247559,-0.15493527054786682,-4.729413986206055
1750928852351521800,16.827521728515624,8.955737113952637,-0.1788634955883026,-4.557130813598633
1750928852370345500,16.846345458984374,9.080163955688477,-0.24586252868175507,-4.552345275878906
1750928852389169400,16.86516943359375,9.080163955688477,-0.1788634955883026,-4.514060020446777
1750928852407993000,16.8839931640625,8.922237396240234,-0.20757736265659332,-4.088137626647949
1750928852426817000,16.902817138671875,8.96530818939209,-0.06400800496339798,-4.131208419799805
1750928852445640700,16.921640625,9.032307624816895,-0.0975075215101242,-4.011567115783691
1750928852464464600,16.940464599609374,8.989236831665039,-0.1788634955883026,-3.8009986877441406
1750928852483288300,16.959288330078124,9.046664237976074,-0.1453639715909958,-4.021138668060303
1750928852502112300,16.9781123046875,9.290732383728027,-0.0975075215101242,-4.284348964691162
1750928852520936000,16.99693603515625,9.295517921447754,-0.020937198773026466,-4.336990833282471
1750928852539759900,17.015759765625,9.204590797424316,-0.16450655460357666,-3.992424488067627
1750928852558583800,17.034583740234375,9.099306106567383,-0.2267199456691742,-3.786641836166382
1750928852577407500,17.053407470703124,9.21416187286377,-0.0975075215101242,-3.834498405456543
1750928852596231400,17.0722314453125,9.295517921447754,0.0364905446767807,-3.944568157196045
1750928852615055000,17.09105517578125,9.238089561462402,-0.06400800496339798,-3.930211305618286
1750928852633879000,17.109879150390626,9.238089561462402,-0.26500511169433594,-3.8153557777404785
1750928852652702700,17.12870263671875,9.266803741455078,-0.32243284583091736,-3.5808591842651367
1750928852671526700,17.147526611328125,9.290732383728027,-0.2793620526790619,-3.5712878704071045
1750928852690350300,17.166350341796875,9.333803176879883,-0.1453639715909958,-3.858426570892334
1750928852709174300,17.18517431640625,9.247661590576172,-0.04486542567610741,-3.662214994430542
1750928852727998000,17.203998046875,9.329017639160156,-0.0687936544418335,-3.59043025970459
1750928852746822000,17.22282177734375,9.405587196350098,-0.15972091257572174,-3.5617165565490723
1750928852765645800,17.241645751953126,9.42473030090332,-0.24107688665390015,-3.518645763397217
1750928852784469500,17.260469482421875,9.515657424926758,-0.13100704550743103,-3.786641836166382
1750928852803293400,17.27929345703125,9.372088432312012,-0.16450655460357666,-3.456432342529297
1750928852822117000,17.2981171875,9.448657989501953,-0.13579268753528595,-3.269792079925537
1750928852840941000,17.316941162109377,9.419944763183594,-0.14057832956314087,-3.135794162750244
1750928852859764700,17.3357646484375,9.257232666015625,-0.04007977992296219,-3.0927233695983887
1750928852878588700,17.354588623046876,9.295517921447754,-0.08315058797597885,-2.8342983722686768
1750928852897412400,17.373412353515626,9.68794059753418,-0.04007977992296219,-3.245863914489746
1750928852916236300,17.392236328125,9.400801658630371,-0.01615155301988125,-2.9587252140045166
1750928852935060200,17.411060302734374,9.396016120910645,0.03170489892363548,-2.8773691654205322
1750928852953884000,17.4298837890625,9.419944763183594,0.046061836183071136,-2.8630123138427734
1750928852972707800,17.448707763671877,9.276374816894531,0.050847481936216354,-2.5950162410736084
1750928852991531500,17.467531494140626,9.419944763183594,-0.07836493849754333,-2.671586513519287
1750928853010355500,17.48635546875,9.56351375579834,-0.030508488416671753,-2.8677978515625
1750928853029179100,17.50517919921875,9.611370086669922,0.06041877344250679,-3.073580741882324
1750928853048003000,17.524003173828124,9.654440879821777,0.026919255033135414,-2.906083106994629
1750928853066826800,17.54282666015625,9.750154495239258,-0.07357929646968842,-2.8869404792785645
1750928853085650700,17.561650634765623,9.831509590148926,-0.11665010452270508,-2.8869404792785645
1750928853104474400,17.580474365234377,9.616155624389648,-0.11665010452270508,-2.575873613357544
1750928853123298300,17.59929833984375,9.673583984375,-0.13579268753528595,-2.5232315063476562
1750928853142122200,17.618122314453124,9.654440879821777,-0.15972091257572174,-2.551945447921753
1750928853160946000,17.63694580078125,9.530014038085938,-0.05922235921025276,-2.2887349128723145
1750928853179769900,17.655769775390624,9.601799011230469,0.0029910283628851175,-2.341377019882202
1750928853198593500,17.674593505859374,9.740582466125488,0.026919255033135414,-2.283949136734009
1750928853217417500,17.69341748046875,9.716654777526855,0.18484555184841156,-2.4131617546081543
1750928853236241200,17.7122412109375,9.396016120910645,0.15613168478012085,-2.231307029724121
1750928853255065000,17.731065185546875,9.553942680358887,0.2231307178735733,-2.2791635990142822
1750928853273889000,17.749888916015625,10.051650047302246,0.16091732680797577,-2.882154941558838
1750928853292712700,17.768712646484374,9.92243766784668,-0.11665010452270508,-2.39401912689209
1750928853311536600,17.78753662109375,9.620942115783691,-0.29850462079048157,-1.810170292854309
1750928853330360300,17.8063603515625,9.41037368774414,-0.19800607860088348,-1.5900306701660156
1750928853349184300,17.825184326171875,9.707083702087402,0.0077766734175384045,-1.9154545068740845
1750928853368008000,17.844008056640625,10.726426124572754,-0.01615155301988125,-2.1020946502685547
1750928853386832000,17.862831787109375,9.855438232421875,-0.054436713457107544,-2.623729944229126
1750928853405655600,17.881655517578125,10.300503730773926,-0.13579268753528595,-2.748156785964966
1750928853424479500,17.9004794921875,10.941780090332031,0.0364905446767807,-3.212364435195923
1750928853443303400,17.919303466796876,9.951150894165039,0.20398813486099243,-2.183450698852539
1750928853462127000,17.938127197265626,9.262018203735352,0.022133609279990196,-1.1880364418029785
1750928853480951000,17.956950927734376,9.501300811767578,0.14656038582324982,-0.3840480446815491
1750928853499774700,17.975774658203125,9.625727653503418,-0.3655036687850952,0.8506484627723694
1750928853518598700,17.9945986328125,9.07537841796875,0.06999006122350693,0.2763710021972656
1750928853537422300,18.01342236328125,10.42492961883545,0.3332005441188812,0.39601215720176697
1750928853556246300,18.032246337890626,10.13300609588623,0.5054838061332703,-0.7286145091056824
1750928853575070200,18.0510703125,9.386445045471191,0.3858426511287689,-0.22133609652519226
1750928853593894000,18.069893798828126,9.247661590576172,0.3236292600631714,0.381655216217041
1750928853612717800,18.0887177734375,9.726225852966309,0.3523431420326233,0.4342973232269287
1750928853631541500,18.10754150390625,10.25743293762207,0.21355941891670227,-0.03469592705368996
1750928853650365400,18.126365478515623,9.664012908935547,0.17527425289154053,-0.4414757788181305
1750928853669189000,18.145189208984377,9.510871887207031,0.17527425289154053,0.15672987699508667
1750928853688013000,18.164012939453126,9.625727653503418,0.2997010350227356,-0.17347964644432068
1750928853706837000,18.1828369140625,10.362716674804688,0.2949153780937195,-0.3122633695602417
1750928853725660700,18.20166064453125,9.965508460998535,0.2757728099822998,-0.3074777126312256
1750928853744484600,18.220484619140624,9.606584548950195,0.2757728099822998,0.592223584651947
1750928853763308300,18.239308349609374,9.620942115783691,0.20877377688884735,0.6975077986717224
1750928853782132200,18.25813232421875,9.711869239807129,0.3762713670730591,-0.16869398951530457
1750928853800956000,18.276955810546873,9.754940032958984,0.2949153780937195,-0.4175475537776947
1750928853819779800,18.29577978515625,10.070792198181152,0.09870393574237823,-0.03469592705368996
1750928853838603500,18.314603515625,10.578070640563965,-0.1740778535604477,0.1663011759519577
1750928853857427500,18.333427490234374,9.845867156982422,-0.025722842663526535,-0.0011964113218709826
1750928853876251400,18.35225146484375,10.042078018188477,0.1657029688358307,0.06580262631177902
1750928853895075000,18.371074951171874,9.726225852966309,0.3236292600631714,0.19980068504810333
1750928853913899000,18.38989892578125,9.443872451782227,0.33798620104789734,0.43908295035362244
1750928853932722700,18.40872265625,9.721440315246582,0.33798620104789734,0.7166503667831421
1750928853951546600,18.427546630859375,10.712068557739258,0.06999006122350693,0.5491527915000916
1750928853970370600,18.44637060546875,9.81236743927002,-0.08315058797597885,0.4630111753940582
1750928853989194200,18.4651943359375,9.54915714263916,-0.04486542567610741,0.8554341197013855
1750928854008018200,18.48401806640625,9.539586067199707,0.026919255033135414,1.0755738019943237
1750928854026841900,18.502841796875,9.817152976989746,0.28534409403800964,0.7932206988334656
1750928854045665800,18.521665771484376,10.28614616394043,0.17527425289154053,0.9032905697822571
1750928854064489500,18.540489501953125,9.960722923278809,0.13698910176753998,0.381655216217041
1750928854083313400,18.5593134765625,9.793225288391113,0.01734796352684498,0.8841479420661926
1750928854102137300,18.578137451171877,9.865009307861328,-0.2267199456691742,1.176072359085083
1750928854120961000,18.5969609375,9.592227935791016,-0.10229317098855972,1.2478569746017456
1750928854139785000,18.615784912109376,9.482157707214355,-0.01136590726673603,1.1042876243591309
1750928854158608600,18.634608642578126,9.836296081542969,0.0364905446767807,0.8123632669448853
1750928854177432600,18.6534326171875,9.764511108398438,0.0029910283628851175,0.8171489238739014
1750928854196256500,18.672256591796874,10.166504859924316,0.07956135272979736,0.4582255482673645
1750928854215080200,18.691080078125,9.79801082611084,-0.12622138857841492,0.6927221417427063
1750928854233904000,18.709904052734377,9.697511672973633,0.012562318705022335,1.0277173519134521
1750928854252727800,18.728727783203126,9.553942680358887,0.16091732680797577,0.8937192559242249
1750928854271551700,18.7475517578125,10.310074806213379,-0.28893333673477173,0.8027920126914978
1750928854290375400,18.76637548828125,9.783653259277344,-0.25064817070961,0.7310073375701904
1750928854318611200,18.794611083984375,9.778867721557617,-0.08793623000383377,0.9032905697822571
1750928854337435100,18.81343505859375,9.778867721557617,-0.24107688665390015,0.9750752449035645
1750928854356258800,18.8322587890625,9.027522087097168,-0.45164528489112854,1.3100703954696655
1750928854375082800,18.851082763671876,9.740582466125488,-0.3846462368965149,1.4632110595703125
1750928854393906700,18.86990673828125,10.917851448059082,-0.3320041298866272,0.41515472531318665
1750928854412730400,18.88873046875,10.688140869140625,-0.07357929646968842,0.02751746028661728
1750928854431554300,18.90755419921875,9.874580383300781,0.3044866919517517,0.5970092415809631
1750928854450378000,18.9263779296875,9.458230018615723,0.18484555184841156,1.0325030088424683
1750928854469202000,18.945201904296876,9.635298728942871,-0.24586252868175507,1.046859860420227
1750928854488025600,18.964025634765626,10.453643798828125,-0.355932354927063,0.7022934556007385
1750928854506849500,18.982849609375,10.042078018188477,-0.37507495284080505,0.7405785918235779
1750928854525673500,19.001673583984374,10.357931137084961,-0.29371899366378784,0.7166503667831421
1750928854544497200,19.0204970703125,9.903294563293457,-0.19800607860088348,0.7645068168640137
1750928854563321000,19.039321044921873,9.70229721069336,0.012562318705022335,0.7836494445800781
1750928854582144800,19.058144775390623,9.932008743286133,-0.07357929646968842,0.6544370055198669
1750928854600968700,19.07696875,9.77408218383789,-0.1501496136188507,0.778863787651062
1750928854619792600,19.095792724609375,9.793225288391113,0.022133609279990196,0.7597211599349976
1750928854638616300,19.1146162109375,10.066006660461426,0.1178465187549591,0.4295116662979126
1750928854657440300,19.133440185546874,9.836296081542969,-0.10229317098855972,0.7022934556007385
1750928854676264000,19.152263916015624,9.903294563293457,-0.2267199456691742,0.7501499056816101
1750928854695087900,19.171087890625,9.754940032958984,-0.1740778535604477,0.8697910308837891
1750928854713911800,19.189911865234375,9.831509590148926,-0.06400800496339798,0.6735795736312866
1750928854732735500,19.208735595703125,9.740582466125488,0.16091732680797577,0.5587241053581238
1750928854751559400,19.227559326171875,9.941579818725586,0.06520441919565201,0.5491527915000916
1750928854770383000,19.246383056640624,10.075577735900879,-0.09272187948226929,0.6400800347328186
1750928854789207000,19.26520703125,9.597013473510742,-0.001794616924598813,0.9032905697822571
1750928854808030700,19.28403076171875,9.620942115783691,0.09870393574237823,0.865005373954773
1750928854826854700,19.302854736328126,9.711869239807129,0.05563312768936157,0.7405785918235779
1750928854845678600,19.3216787109375,9.955936431884766,0.09870393574237823,0.47258245944976807
1750928854864502300,19.340502197265625,9.860223770141602,0.050847481936216354,0.6017948985099792
1750928854883326200,19.359326171875,10.0612211227417,-0.08315058797597885,0.6017948985099792
1750928854902150000,19.37814990234375,9.821938514709473,-0.11665010452270508,0.7310073375701904
1750928854920973800,19.396973876953126,9.754940032958984,-0.0687936544418335,0.7501499056816101
1750928854939797800,19.4157978515625,9.960722923278809,0.01734796352684498,0.5300102233886719
1750928854958621400,19.434621337890626,10.027721405029297,0.09391828626394272,0.4821537733078003
1750928854977445400,19.4534453125,9.88415241241455,-0.006580262444913387,0.5491527915000916
1750928854996269000,19.47226904296875,9.802796363830566,-0.07357929646968842,0.6879364848136902
1750928855015093000,19.491093017578127,10.156933784484863,-0.19800607860088348,0.7645068168640137
1750928855033917000,19.5099169921875,9.965508460998535,-0.06400800496339798,0.7070791125297546
1750928855052740600,19.52874072265625,9.81236743927002,0.0029910283628851175,0.6783652305603027
1750928855071564500,19.547564453125,9.817152976989746,-0.10229317098855972,0.6879364848136902
1750928855090388200,19.56638818359375,10.051650047302246,-0.15493527054786682,0.49172505736351013
1750928855109212200,19.585212158203124,10.262218475341797,-0.28893333673477173,0.7357929348945618
1750928855128036000,19.6040361328125,9.754940032958984,-0.1501496136188507,0.8745766878128052
1750928855146859800,19.62285986328125,9.352945327758789,0.012562318705022335,1.2287144660949707
1750928855165683700,19.64168359375,9.678369522094727,0.0891326442360878,0.9224331378936768
1750928855184507400,19.66050732421875,10.472786903381348,0.06041877344250679,0.5108676552772522
1750928855203331300,19.679331298828124,9.697511672973633,0.18484555184841156,0.7214360237121582
1750928855222155300,19.6981552734375,9.534799575805664,0.21355941891670227,0.9990034699440002
1750928855240979000,19.71697900390625,9.659226417541504,0.09391828626394272,0.9080761671066284
1750928855259803000,19.735802978515625,9.927223205566406,-0.09272187948226929,0.8123632669448853
1750928855278626600,19.75462646484375,9.975079536437988,0.0364905446767807,0.7262216806411743
1750928855297450500,19.773450439453125,9.917651176452637,0.23748764395713806,0.5156532526016235
1750928855316274400,19.7922744140625,10.415358543395996,0.08434699475765228,0.39601215720176697
1750928855335098000,19.81109814453125,10.089935302734375,-0.21236300468444824,0.3720839321613312
1750928855353922000,19.829922119140626,9.807581901550293,-0.07357929646968842,0.46779683232307434
1750928855372745700,19.848745849609376,9.860223770141602,-0.11665010452270508,0.9798609018325806
1750928855391569700,19.867569580078126,9.89850902557373,-0.0687936544418335,0.7740781307220459
1750928855410393600,19.8863935546875,10.080363273620605,-0.0975075215101242,0.8027920126914978
1750928855429217300,19.90521728515625,10.032506942749023,0.06041877344250679,0.5778666734695435
1750928855448041200,19.924041259765627,9.711869239807129,0.03170489892363548,0.7310073375701904
1750928855466865000,19.942864990234376,10.219147682189941,-0.09272187948226929,0.6783652305603027
1750928855485688800,19.961688720703126,10.03729248046875,-0.07357929646968842,0.8075776696205139
1750928855504512800,19.9805126953125,9.396016120910645,0.012562318705022335,1.290927767753601
1750928855523336400,19.99933642578125,9.42473030090332,0.18005990982055664,1.7120646238327026
1750928855542160400,20.018160400390624,9.664012908935547,0.0364905446767807,1.0947163105010986
1750928855579808000,20.05580810546875,9.8267240524292,0.21355941891670227,0.8745766878128052
1750928855598632000,20.0746318359375,9.592227935791016,0.2805584669113159,1.0612168312072754
1750928855617455600,20.09345556640625,9.831509590148926,0.19920247793197632,0.9463613629341125
1750928855636279600,20.112279541015624,9.640084266662598,0.046061836183071136,0.9080761671066284
1750928855655103200,20.131103271484374,9.778867721557617,0.09870393574237823,0.9655039310455322
1750928855673927200,20.14992724609375,9.860223770141602,0.16091732680797577,0.865005373954773
1750928855692751000,20.168751220703125,9.716654777526855,0.1178465187549591,1.0755738019943237
1750928855711574800,20.18757470703125,9.419944763183594,0.06999006122350693,1.2717852592468262
1750928855730398700,20.206398681640625,9.601799011230469,-0.01615155301988125,1.2861422300338745
1750928855749222700,20.22522265625,9.917651176452637,-0.09272187948226929,1.0755738019943237
1750928855768046300,20.24404638671875,9.740582466125488,-0.054436713457107544,0.9607182741165161
1750928855786870300,20.262870361328126,9.697511672973633,-0.049651071429252625,0.9272187948226929
1750928855805694000,20.28169384765625,9.807581901550293,-0.025722842663526535,0.836291491985321
1750928855824518000,20.300517822265626,10.056435585021973,-0.14057832956314087,0.9702895879745483
1750928855843341800,20.319341796875,10.305289268493652,-0.08315058797597885,0.4486542344093323
1750928855862165500,20.33816552734375,10.204790115356445,-0.11186445504426956,0.7645068168640137
1750928855880989400,20.356989501953127,10.329216957092285,-0.01136590726673603,0.3720839321613312
1750928855899813000,20.375813232421876,10.209575653076172,-0.07357929646968842,0.25722843408584595
1750928855918637000,20.394636962890626,10.166504859924316,0.01734796352684498,0.5635097622871399
1750928855937461000,20.4134609375,10.04686450958252,0.09870393574237823,1.0660024881362915
1750928855956284700,20.43228466796875,9.8267240524292,0.3284149169921875,0.6065805554389954
1750928855975108600,20.451108642578124,10.099506378173828,0.36191442608833313,0.1663011759519577
1750928855993932300,20.469932373046873,10.14736270904541,-0.030508488416671753,0.46779683232307434
1750928856012756200,20.488756103515627,10.14736270904541,-0.22193430364131927,0.7214360237121582
1750928856031580200,20.507580078125,9.821938514709473,-0.09272187948226929,0.9511470198631287
1750928856050403800,20.52640380859375,9.544371604919434,0.3332005441188812,1.200000524520874
1750928856069227800,20.545227783203124,9.683155059814453,0.4911268353462219,1.1282159090042114
1750928856088051500,20.564051513671874,9.984650611877441,0.4863412082195282,0.5826523303985596
1750928856106875400,20.58287548828125,10.491929054260254,0.26141586899757385,0.04187439754605293
1750928856125699300,20.60169921875,9.927223205566406,0.2183450609445572,0.4486542344093323
1750928856144523000,20.62052294921875,9.707083702087402,0.36670008301734924,0.9990034699440002
1750928856163347000,20.639346923828125,9.68794059753418,0.4863412082195282,1.0612168312072754
1750928856182171000,20.6581708984375,9.903294563293457,0.4624129831790924,0.7645068168640137
1750928856200994600,20.67699462890625,9.951150894165039,0.2997010350227356,0.5252245664596558
1750928856219818500,20.695818603515626,9.817152976989746,0.3762713670730591,0.08973085135221481
1750928856238642200,20.71464208984375,10.051650047302246,0.7830511927604675,0.10887342691421509
1750928856257466000,20.733466064453125,9.735796928405762,0.7878368496894836,0.3242274820804596
1750928856276290000,20.7522900390625,9.587442398071289,0.7543373107910156,1.4632110595703125
1750928856295113700,20.77111376953125,9.606584548950195,0.8117650747299194,1.3627125024795532
1750928856313937700,20.789937744140627,9.845867156982422,0.9601200819015503,0.6065805554389954
1750928856332761300,20.80876123046875,9.697511672973633,0.9361918568611145,0.36729827523231506
1750928856351585300,20.827585205078126,9.391230583190918,0.9553344249725342,0.6783652305603027
1750928856370409200,20.8464091796875,9.429515838623047,0.9696913957595825,0.8554341197013855
1750928856389233000,20.86523291015625,9.68794059753418,0.9266205430030823,0.7932206988334656
1750928856408056800,20.884056884765624,9.81236743927002,1.012762188911438,0.5635097622871399
1750928856426880800,20.902880859375,9.865009307861328,1.0701899528503418,0.3529413342475891
1750928856445704400,20.921704345703127,10.080363273620605,1.0223335027694702,0.21415762603282928
1750928856464528400,20.9405283203125,9.975079536437988,0.8979067206382751,0.50129634141922
1750928856483352000,20.95935205078125,9.769296646118164,0.7974081635475159,1.0707881450653076
1750928856502176000,20.978176025390624,10.00857925415039,0.8979067206382751,0.7549355626106262
1750928856521000000,20.997,10.740782737731934,1.036690354347229,-0.020338991656899452
1750928856539823600,21.01582373046875,10.788639068603516,0.9266205430030823,-0.21176479756832123
1750928856558647600,21.0346474609375,10.075577735900879,1.0606186389923096,0.49651068449020386
1750928856577471500,21.053471435546875,9.381659507751465,1.0654042959213257,1.0277173519134521
1750928856596295200,21.072295166015625,9.711869239807129,1.2664014101028442,0.7310073375701904
1750928856615119000,21.091119140625,9.625727653503418,1.2041879892349243,0.8171489238739014
1750928856633943000,21.109943115234376,9.778867721557617,1.2855439186096191,0.8315058946609497
1750928856652766700,21.1287666015625,9.850652694702148,1.3094722032546997,0.6927221417427063
1750928856671590700,21.147590576171876,9.582656860351562,1.3621143102645874,1.046859860420227
1750928856690414300,21.166414306640625,9.587442398071289,1.4865410327911377,0.7692924737930298
1750928856709238300,21.18523828125,10.601999282836914,1.6396816968917847,0.33858439326286316
1750928856728062200,21.204062255859377,9.568299293518066,1.7736797332763672,-0.05383851006627083
1750928856746886000,21.222885986328127,9.587442398071289,1.7736797332763672,-0.11605189740657806
1750928856765709800,21.241709716796876,9.903294563293457,1.6683956384658813,0.7310073375701904
1750928856784533800,21.26053369140625,9.70229721069336,1.8885352611541748,1.5302101373672485
1750928856803357400,21.279357421875,8.984451293945312,2.314457654953003,1.2478569746017456
1750928856822181400,21.298181396484374,8.6303129196167,2.3336002826690674,0.4295116662979126
1750928856841005000,21.317005126953124,9.807581901550293,2.05603289604187,-0.1782652884721756
1750928856859829000,21.3358291015625,11.386844635009766,1.7258232831954956,-0.5228317379951477
1750928856878653000,21.35465283203125,10.310074806213379,2.0368902683258057,0.3577269911766052
1750928856897476600,21.3734765625,8.807381629943848,2.386242389678955,1.2717852592468262
1750928856916300500,21.392300537109374,8.85523796081543,2.362314224243164,0.41994038224220276
1750928856935124500,21.41112451171875,9.108877182006836,2.3670997619628906,-1.0301101207733154
1750928856953948200,21.4299482421875,10.472786903381348,2.5920250415802,-0.8865407705307007
1750928856972772000,21.448772216796876,11.228918075561523,2.5393829345703125,0.33379876613616943
1750928856991595800,21.467595703125,9.357730865478516,2.5872395038604736,0.7166503667831421
1750928857010419700,21.486419677734375,9.056235313415527,2.8935208320617676,0.8697910308837891
1750928857029243600,21.50524365234375,9.640084266662598,2.7738797664642334,0.003589233849197626
1750928857048067300,21.5240673828125,9.094520568847656,2.5489542484283447,-1.0157532691955566
1750928857066891300,21.542891357421876,9.46301555633545,2.850450038909912,-0.35533416271209717
1750928857085715200,21.561715087890626,9.994221687316895,3.2141590118408203,-0.12083754688501358
1750928857104539000,21.580538818359376,9.448657989501953,3.3242287635803223,-0.2021935135126114
1750928857123362800,21.59936279296875,9.195018768310547,3.391227960586548,0.11844471842050552
1750928857142186800,21.618186767578123,9.625727653503418,3.2715866565704346,-0.005982056725770235
1750928857161010400,21.637010498046877,8.529814720153809,3.472583770751953,-0.32183465361595154
1750928857179834400,21.65583447265625,9.027522087097168,3.2380871772766113,-0.3936193287372589
1750928857198658000,21.674657958984376,9.644869804382324,2.764308452606201,-0.039481572806835175
1750928857217482000,21.69348193359375,9.745368003845215,3.1615169048309326,0.13280165195465088
1750928857236306000,21.712305908203124,9.831509590148926,3.4438700675964355,0.19980068504810333
1750928857255129900,21.7311298828125,9.486943244934082,3.486940860748291,0.5060819983482361
1750928857273953500,21.74995361328125,10.166504859924316,2.668595552444458,1.353141188621521
1750928857292777500,21.768777587890625,8.486743927001953,2.290529489517212,0.2715853750705719
1750928857311601200,21.78760107421875,9.08973503112793,2.936591625213623,-0.40797626972198486
1750928857330425000,21.806425048828125,9.415159225463867,4.0803608894348145,-0.537188708782196
1750928857349249000,21.8252490234375,8.974879264831543,4.587639331817627,0.15672987699508667
1750928857368072700,21.84407275390625,8.812167167663574,4.903491973876953,0.745364248752594
1750928857386896600,21.862896728515626,8.314460754394531,4.448855400085449,1.0277173519134521
1750928857405720600,21.881720458984375,8.448458671569824,4.171288013458252,0.7740781307220459
1750928857424544300,21.900544189453125,8.333602905273438,4.133002758026123,0.836291491985321
1750928857443368200,21.9193681640625,9.037093162536621,4.501497745513916,0.5682953596115112
1750928857462192000,21.938192138671877,8.922237396240234,4.855635166168213,1.2382856607437134
1750928857481015800,21.957015869140626,8.931808471679688,4.587639331817627,1.7312071323394775
1750928857499839700,21.97583984375,8.706883430480957,4.1042890548706055,1.6211373805999756
1750928857518663400,21.994663330078126,8.845666885375977,3.9846479892730713,1.3770694732666016
1750928857537487400,22.0134873046875,9.601799011230469,4.735994338989258,0.8793623447418213
1750928857556311300,22.032311279296874,9.099306106567383,5.262415409088135,0.7357929348945618
1750928857575135000,22.051135009765623,8.682954788208008,5.1188459396362305,1.0707881450653076
1750928857593959000,22.069958984375,8.563314437866211,4.47278356552124,1.5014961957931519
1750928857612782800,22.088782958984375,8.68774127960205,4.439284324645996,1.357926845550537
1750928857631606800,22.107606689453124,7.950751304626465,5.2767720222473145,0.9415757060050964
1750928857650430500,22.126430419921874,7.433901786804199,5.6069817543029785,1.2813565731048584
1750928857669254400,22.14525439453125,8.525029182434082,5.19541597366333,1.7120646238327026
1750928857688078300,22.164078369140626,8.6303129196167,4.78385066986084,1.8077775239944458
1750928857706902000,22.182902099609375,8.0081787109375,5.1188459396362305,1.3722838163375854
1750928857725726000,22.201725830078125,6.381059646606445,5.956333637237549,0.06580262631177902
1750928857744549600,22.220549560546875,6.7351975440979,6.1812591552734375,-0.3170489966869354
1750928857763373600,22.23937353515625,8.6303129196167,5.941977024078369,0.15194423496723175
1750928857782197500,22.258197509765626,7.912466049194336,5.90369176864624,-0.5659025311470032
1750928857801021200,22.277021240234376,7.534400463104248,6.075974941253662,-0.9822536706924438
1750928857819845000,22.29584521484375,8.089534759521484,6.353542327880859,-0.9535398483276367
1750928857838669000,22.3146689453125,8.14217758178711,6.3631134033203125,-0.5132604837417603
1750928857857492700,22.33349267578125,7.7353973388671875,5.946762561798096,-0.29312077164649963
1750928857876316700,22.352316650390627,8.24267578125,5.827121257781982,-0.03469592705368996
1750928857895140600,22.371140625,8.146963119506836,6.300900459289551,-0.3888336718082428
1750928857913964500,22.389964599609375,7.165905475616455,7.03788948059082,-0.900897741317749
1750928857932788200,22.408788330078124,7.1132636070251465,7.018746852874756,-0.6185446381568909
1750928857951612200,22.427612060546874,7.548757076263428,6.257829189300537,-0.19740787148475647
1750928857970436000,22.44643603515625,7.658827304840088,6.320042610168457,-0.010767702013254166
1750928857989259800,22.465259765625,7.429116249084473,6.7794647216796875,-0.3601198196411133
1750928858008083700,22.484083740234375,6.993622303009033,6.908677101135254,-0.503689169883728
1750928858026907600,22.50290771484375,7.041478633880615,6.994818687438965,-0.4175475537776947
1750928858045731300,22.5217314453125,6.7208404541015625,7.071389198303223,-0.17347964644432068
1750928858064555300,22.54055517578125,6.572485446929932,7.181458950042725,0.15672987699508667
1750928858083379200,22.559379150390626,6.165705680847168,7.004390239715576,0.22851456701755524
1750928858102203000,22.578202880859376,6.352345943450928,7.090531826019287,0.15672987699508667
1750928858121026800,22.59702685546875,6.471987247467041,7.545167922973633,0.04666004329919815
1750928858139850800,22.615850830078124,6.371488571166992,7.554739475250244,0.10887342691421509
1750928858158674400,22.63467431640625,6.237490653991699,7.344171047210693,0.18065811693668365
1750928858177498400,22.653498291015627,6.390631198883057,7.645666599273682,0.008374879136681557
1750928858196322300,22.672322265625,6.438487529754639,7.9519476890563965,-0.19740787148475647
1750928858215146000,22.69114599609375,5.859424591064453,7.736593723297119,-0.35054850578308105
1750928858233970000,22.709969970703124,6.577271461486816,7.985447406768799,-0.13998012244701385
1750928858252793900,22.7287939453125,6.6729841232299805,7.779664516448975,0.003589233849197626
1750928858271617500,22.747617431640624,6.33798885345459,7.827520847320557,-0.09690931439399719
1750928858290441500,22.76644140625,5.782854080200195,8.124231338500977,-0.2883351147174835
1750928858309265400,22.785265380859375,5.423930644989014,8.306085586547852,-0.19262222945690155
1750928858328089300,22.80408935546875,5.146363258361816,8.23430061340332,-0.2021935135126114
1750928858346913000,22.8229130859375,5.423930644989014,8.11944580078125,-0.7190431952476501
1750928858365737000,22.841737060546876,5.921638011932373,8.066802978515625,-0.5754738450050354
1750928858384561000,22.860560791015626,5.7062835693359375,8.062017440795898,-0.7381857633590698
1750928858403384600,22.879384521484376,5.591428279876709,7.9519476890563965,-0.39840495586395264
1750928858422208500,22.89820849609375,5.687141418457031,8.440083503723145,-1.695314884185791
1750928858441032400,22.917032470703123,5.7062835693359375,8.373085021972656,-1.4847464561462402
1750928858459856100,22.935856201171877,5.6584272384643555,8.440083503723145,-1.4847464561462402
1750928858478680000,22.95468017578125,5.443073272705078,8.339585304260254,-0.9343972206115723
1750928858497504000,22.97350390625,4.921437740325928,8.502297401428223,-0.5946164131164551
1750928858516327700,22.99232763671875,4.586442947387695,8.918647766113281,-0.2835494875907898
1750928858535151600,23.011151611328124,4.6199421882629395,8.918647766113281,-0.2309073805809021
1750928858553975600,23.0299755859375,4.763511657714844,8.492725372314453,-0.16390834748744965
1750928858572799200,23.04879931640625,4.572085857391357,8.83250617980957,-0.7094719409942627
1750928858591623200,23.067623046875,4.5338006019592285,8.995218276977539,-0.8578268885612488
1750928858610447000,23.086447021484375,4.552943229675293,8.775078773498535,-0.6329016089439392
1750928858629271000,23.10527099609375,4.4955153465271,8.564510345458984,-0.6424728631973267
1750928858648094700,23.1240947265625,4.820939540863037,8.516654014587402,-0.6329016089439392
1750928858666918700,23.142918701171876,4.811367988586426,8.602795600891113,-0.7668996453285217
1750928858685742600,23.16174267578125,4.275375843048096,8.985647201538086,-0.7668996453285217
1750928858704566300,23.180566162109375,4.184448719024658,8.846863746643066,-0.5706881880760193
1750928858723390200,23.19939013671875,4.682155609130859,8.550153732299805,-0.4701896607875824
1750928858742214100,23.218214111328123,4.452444553375244,8.698508262634277,-0.8243274092674255
1750928858761037800,23.237037841796877,4.414159774780273,8.765507698059082,-0.8051848411560059
1750928858779861800,23.25586181640625,4.567300319671631,8.784649848937988,-0.5132604837417603
1750928858798685700,23.274685791015624,4.246662139892578,8.59322452545166,-0.29312077164649963
1750928858817509600,23.293509521484374,4.35673189163208,8.779864311218262,-0.26440688967704773
1750928858836333300,23.312333251953124,4.270590305328369,9.722636222839355,-1.867598056793213
1750928858855157200,23.3311572265625,4.088735580444336,9.354142189025879,-1.4656038284301758
1750928858873981200,23.349981201171875,3.418745279312134,9.08135986328125,-0.9296116232872009
1750928858892804900,23.368804931640625,3.059821844100952,9.258428573608398,-0.5324030518531799
1750928858911628800,23.38762890625,2.758326292037964,9.756135940551758,-0.8961120843887329
1750928858930452700,23.40645263671875,3.418745279312134,9.81356430053711,-0.7334001660346985
1750928858949276700,23.425276611328126,3.246462106704712,9.81356430053711,-1.5326029062271118
1750928858968100400,23.444100341796876,3.3278181552886963,9.378069877624512,-0.9631111025810242
1750928858986924300,23.46292431640625,3.7250266075134277,9.44028377532959,-0.6376872062683105
1750928859005748200,23.481748291015624,3.710669755935669,9.507282257080078,-0.6376872062683105
1750928859024572000,23.500572021484373,3.4953157901763916,9.392427444458008,-0.6137589812278748
1750928859043395800,23.519395751953127,3.4570305347442627,9.263215065002441,-0.5659025311470032
1750928859062219800,23.5382197265625,3.404388427734375,9.248857498168945,-0.5467599630355835
1750928859081043700,23.557043701171875,3.2608189582824707,9.224929809570312,-0.40797626972198486
1750928859099867400,23.575867431640624,3.4331023693084717,9.277571678161621,-0.46061834692955017
1750928859118691300,23.59469140625,3.8111681938171387,9.119645118713379,-0.15912270545959473
1750928859137515300,23.613515380859376,3.835096597671509,9.004789352416992,-0.26919254660606384
1750928859156339000,23.6323388671875,3.1651060581207275,8.971290588378906,-0.623330295085907
1750928859175163000,23.651162841796875,3.07417893409729,8.913862228393555,-0.5515456199645996
1750928859193986800,23.66998681640625,3.2129626274108887,9.31585693359375,-0.4175475537776947
1750928859212810800,23.688810791015626,3.026322364807129,9.713065147399902,-0.40319061279296875
1750928859231634400,23.707634521484376,2.2510478496551514,9.46899700164795,-0.1543370634317398
1750928859250458400,23.726458251953126,2.767897605895996,9.215357780456543,0.23330020904541016
1750928859269282300,23.7452822265625,1.485344648361206,9.746564865112305,-0.2356930375099182
1750928859288106000,23.76410595703125,0.35114672780036926,9.990633010864258,-0.7381857633590698
1750928859306930000,23.782929931640624,-0.23748764395713806,9.631709098815918,-0.7334001660346985
1750928859325753900,23.80175390625,-0.7112665176391602,10.028918266296387,-0.6616154313087463
1750928859344577500,23.82057763671875,-0.8261220455169678,10.234700202941895,-0.35054850578308105
1750928859363401500,23.8394013671875,-0.0029910283628851175,10.03848934173584,0.04187439754605293
1750928859382225400,23.858225341796874,0.3080759048461914,9.760921478271484,0.15672987699508667
1750928859401049300,23.87704931640625,0.025722842663526535,10.028918266296387,-0.03469592705368996
1750928859419873000,23.895873046875,-0.4097708761692047,10.258628845214844,-0.3074777126312256
1750928859438697000,23.914697021484375,-0.44805604219436646,9.823135375976562,-0.4749752879142761
1750928859457521000,23.93352099609375,0.10229317098855972,10.009775161743164,-0.48454657196998596
1750928859476344600,23.952344482421875,-0.046061836183071136,9.492925643920898,-0.015553346835076809
1750928859495168500,23.97116845703125,0.0687936544418335,9.512067794799805,0.2476571500301361
1750928859513992400,23.989992431640626,-0.4289134442806244,9.535996437072754,0.137587308883667
1750928859532816400,24.00881640625,-0.802193820476532,9.56471061706543,-0.18783657252788544
