time,seconds_elapsed,z,y,x
1750928835689979400,0.1659794921875,9.775372505187988,0.22435157001018524,0.7497580051422119
1750928835755862300,0.2318623046875,9.776243209838867,0.274634450674057,0.7211369872093201
1750928835793510000,0.269510009765625,9.77718734741211,0.31964004039764404,0.6890783905982971
1750928835812333600,0.28833349609375,9.775674819946289,0.3436932861804962,0.6989016532897949
1750928835831157200,0.3071572265625,9.774724006652832,0.34727686643600464,0.710320770740509
1750928835849981000,0.32598095703125,9.773722648620605,0.33555400371551514,0.7294758558273315
1750928835868804900,0.344804931640625,9.771944046020508,0.3194240927696228,0.7599083781242371
1750928835887628500,0.363628662109375,9.769956588745117,0.32014042139053345,0.7847471833229065
1750928835906452200,0.3824521484375,9.769706726074219,0.3249995708465576,0.7858681678771973
1750928835925276000,0.40127587890625,9.771303176879883,0.32142820954322815,0.7672807574272156
1750928835944099600,0.420099609375,9.773192405700684,0.3081793785095215,0.7484152913093567
1750928835962923300,0.43892333984375,9.77410888671875,0.305660218000412,0.737387478351593
1750928835981747000,0.457746826171875,9.77356243133545,0.31376224756240845,0.7412187457084656
1750928836000571000,0.47657080078125,9.773195266723633,0.32306188344955444,0.7420670390129089
1750928836019394600,0.49539453125,9.774528503417969,0.3275516927242279,0.7222813367843628
1750928836038218200,0.51421826171875,9.777220726013184,0.3320365846157074,0.6827058792114258
1750928836057042000,0.5330419921875,9.7803316116333,0.32940438389778137,0.6379551291465759
1750928836075865600,0.551865478515625,9.783729553222656,0.30995067954063416,0.5941034555435181
1750928836094689300,0.570689208984375,9.786866188049316,0.28326132893562317,0.5544410943984985
1750928836113513200,0.58951318359375,9.789788246154785,0.2557695508003235,0.5147817134857178
1750928836132337000,0.6083369140625,9.79234504699707,0.23062914609909058,0.4766368269920349
1750928836151160600,0.62716064453125,9.793850898742676,0.21572378277778625,0.4520372450351715
1750928836169984300,0.645984375,9.794890403747559,0.20715372264385223,0.4331215023994446
1750928836188808000,0.664807861328125,9.79523754119873,0.2018771767616272,0.42772191762924194
1750928836207632000,0.6836318359375,9.795434951782227,0.20003709197044373,0.42406487464904785
1750928836226455600,0.70245556640625,9.795797348022461,0.1979314684867859,0.41662079095840454
1750928836245279200,0.721279296875,9.796239852905273,0.19019417464733124,0.40975627303123474
1750928836264103000,0.74010302734375,9.796826362609863,0.18008841574192047,0.4001882076263428
1750928836282926600,0.758926513671875,9.797569274902344,0.17139798402786255,0.38554540276527405
1750928836301750500,0.77775048828125,9.798020362854004,0.16664205491542816,0.37603312730789185
1750928836320574200,0.79657421875,9.798007011413574,0.1598261296749115,0.3793240785598755
1750928836339398000,0.81539794921875,9.797916412353516,0.15746402740478516,0.38266950845718384
1750928836358221600,0.8342216796875,9.79771900177002,0.15508446097373962,0.38863521814346313
1750928836377045200,0.853045166015625,9.797865867614746,0.14923469722270966,0.3872194290161133
1750928836395869200,0.871869140625,9.79798698425293,0.15145885944366455,0.38327816128730774
1750928836414692900,0.89069287109375,9.79853343963623,0.14447735249996185,0.37180960178375244
1750928836433516500,0.9095166015625,9.79918098449707,0.1452656090259552,0.354044109582901
1750928836452340200,0.92834033203125,9.799426078796387,0.1438678652048111,0.3477676510810852
1750928836471164000,0.947163818359375,9.799899101257324,0.1338334083557129,0.33830490708351135
1750928836489987600,0.965987548828125,9.800089836120605,0.132186159491539,0.3333774507045746
1750928836508811500,0.9848115234375,9.800227165222168,0.12933918833732605,0.3304744064807892
1750928836527635200,1.00363525390625,9.800727844238281,0.12428952008485794,0.31729137897491455
1750928836546459000,1.022458984375,9.800870895385742,0.12946264445781708,0.310717910528183
1750928836565282600,1.041282470703125,9.800801277160645,0.12639406323432922,0.3141736090183258
1750928836584106500,1.0601064453125,9.801376342773438,0.10953482240438461,0.3023258447647095
1750928836612342000,1.088342041015625,9.801717758178711,0.10433643311262131,0.292961984872818
1750928836631165700,1.107165771484375,9.802361488342285,0.09711900353431702,0.27327191829681396
1750928836659401500,1.1354013671875,9.802640914916992,0.10382898896932602,0.26046279072761536
1750928836678225200,1.15422509765625,9.80292797088623,0.09278342872858047,0.2537350356578827
1750928836697048800,1.173048828125,9.803481101989746,0.07516242563724518,0.2377001941204071
1750928836715872500,1.19187255859375,9.803653717041016,0.06279142946004868,0.23415042459964752
1750928836734696200,1.2106962890625,9.80352783203125,0.07097934186458588,0.237035870552063
1750928836753519900,1.229519775390625,9.803466796875,0.09229731559753418,0.23220135271549225
1750928836772343800,1.24834375,9.803396224975586,0.10959974676370621,0.22757798433303833
1750928836791167500,1.26716748046875,9.80345344543457,0.11882787942886353,0.22037746012210846
1750928836809991200,1.2859912109375,9.804254531860352,0.10798022896051407,0.18797048926353455
1750928836828814800,1.30481494140625,9.80521297454834,0.10685710608959198,0.12940801680088043
1750928836847638800,1.323638671875,9.805517196655273,0.11156539618968964,0.09890017658472061
1750928836866462500,1.34246240234375,9.805476188659668,0.11869040131568909,0.0945633053779602
1750928836885286100,1.3612861328125,9.805673599243164,0.1107325404882431,0.08301613479852676
1750928836904109800,1.38010986328125,9.80608081817627,0.09680529683828354,0.04235750064253807
1750928836922933800,1.398933837890625,9.806293487548828,0.08365897834300995,-0.0010150788584724069
1750928836941757400,1.41775732421875,9.806272506713867,0.08159032464027405,-0.02741496078670025
1750928836960581000,1.4365810546875,9.806081771850586,0.08211779594421387,-0.06636437028646469
1750928836979404800,1.45540478515625,9.80592155456543,0.07501575350761414,-0.0930684432387352
1750928836998228500,1.474228515625,9.806203842163086,0.07380661368370056,-0.0574587918817997
1750928837017052400,1.493052490234375,9.806300163269043,0.08257569372653961,-0.006773814558982849
1750928837035876000,1.5118759765625,9.80618667602539,0.0944075956940651,-0.013225897215306759
1750928837054699800,1.53069970703125,9.805994033813477,0.11298444122076035,0.010202594101428986
1750928837073523700,1.549523681640625,9.805727005004883,0.12844084203243256,0.04016818851232529
1750928837092347400,1.568347412109375,9.805651664733887,0.13373452425003052,0.041206348687410355
1750928837111171000,1.587171142578125,9.805660247802734,0.13690224289894104,0.025950314477086067
1750928837129994800,1.605994873046875,9.805957794189453,0.1160404309630394,0.011491462588310242
1750928837148818400,1.624818359375,9.806178092956543,0.0932842493057251,-0.023703714832663536
1750928837167642400,1.643642333984375,9.80579948425293,0.09514367580413818,-0.08737843483686447
1750928837186466000,1.662466064453125,9.80518913269043,0.14713039994239807,-0.08369608968496323
1750928837205289700,1.681289794921875,9.80429458618164,0.21424353122711182,-0.01703718677163124
1750928837224113400,1.700113525390625,9.802848815917969,0.26395270228385925,0.06968431919813156
1750928837242937300,1.718937255859375,9.80031681060791,0.33059510588645935,0.12205208092927933
1750928837261761000,1.737760986328125,9.796810150146484,0.41406136751174927,0.14646057784557343
1750928837280584700,1.756584716796875,9.7930269241333,0.4856277406215668,0.17655259370803833
1750928837299408400,1.775408447265625,9.791810989379883,0.48979508876800537,0.2256782054901123
1750928837318232300,1.794232421875,9.790881156921387,0.43607980012893677,0.34478214383125305
1750928837337056000,1.813055908203125,9.78658390045166,0.3891724646091461,0.49162617325782776
1750928837355879700,1.831879638671875,9.780736923217773,0.38518664240837097,0.5993372797966003
1750928837374703400,1.850703369140625,9.777393341064453,0.3945823311805725,0.645962119102478
1750928837393527300,1.86952734375,9.780268669128418,0.38435375690460205,0.6074531078338623
1750928837412351000,1.88835107421875,9.784061431884766,0.36521846055984497,0.5560047626495361
1750928837431174700,1.907174560546875,9.788707733154297,0.33749377727508545,0.4875236451625824
1750928837449998300,1.925998291015625,9.795872688293457,0.25680628418922424,0.3811989426612854
1750928837468822300,1.944822265625,9.802947044372559,0.13321706652641296,0.23422648012638092
1750928837487646000,1.96364599609375,9.806558609008789,0.0400664396584034,0.013907192274928093
1750928837506469600,1.9824697265625,9.805706024169922,0.03306012228131294,-0.13199111819267273
1750928837525293300,2.001293212890625,9.805068016052246,0.03251092508435249,-0.17314356565475464
1750928837544117200,2.0201171875,9.804702758789062,0.025682734325528145,-0.19369949400424957
1750928837562941000,2.03894091796875,9.804405212402344,0.04069477692246437,-0.20578652620315552
1750928837581764600,2.0577646484375,9.804671287536621,0.053460657596588135,-0.1896117478609085
1750928837600588300,2.07658837890625,9.804856300354004,0.05091506987810135,-0.1804981678724289
1750928837619412200,2.095412109375,9.804102897644043,0.03393259644508362,-0.22094188630580902
1750928837638236000,2.11423583984375,9.802713394165039,0.018568798899650574,-0.2772100269794464
1750928837657059600,2.1330595703125,9.800085067749023,0.009380661882460117,-0.35864612460136414
1750928837675883300,2.15188330078125,9.7960844039917,-0.0047082980163395405,-0.45508232712745667
1750928837694707200,2.170707275390625,9.789186477661133,-0.0125307347625494,-0.5848556756973267
1750928837713531000,2.18953076171875,9.7818603515625,-0.005793018266558647,-0.6968251466751099
1750928837732354600,2.2083544921875,9.777848243713379,0.004769878461956978,-0.7510316371917725
1750928837751178200,2.22717822265625,9.77734661102295,0.0045354594476521015,-0.7575377225875854
1750928837770002200,2.246002197265625,9.77779483795166,-0.0025163579266518354,-0.7517344951629639
1750928837788825900,2.264825927734375,9.776607513427734,-0.002705399179831147,-0.7670282125473022
1750928837807649500,2.2836494140625,9.772303581237793,0.010962126776576042,-0.8199747800827026
1750928837826473200,2.30247314453125,9.765582084655762,0.012100128456950188,-0.8964617848396301
1750928837845297200,2.321297119140625,9.76060962677002,-0.003957055974751711,-0.9491474032402039
1750928837864120800,2.340120849609375,9.758459091186523,-0.021613288670778275,-0.9707738161087036
1750928837882944500,2.358944580078125,9.759143829345703,-0.024929452687501907,-0.9637880325317383
1750928837901768400,2.3777685546875,9.758652687072754,-0.024822350591421127,-0.9687476754188538
1750928837920592100,2.396592041015625,9.759214401245117,-0.028653539717197418,-0.9629641771316528
1750928837939415800,2.415415771484375,9.759852409362793,-0.03595215454697609,-0.9562339186668396
1750928837958239500,2.434239501953125,9.757864952087402,-0.050683215260505676,-0.9756529927253723
1750928837977063400,2.4530634765625,9.75318717956543,-0.06767772883176804,-1.0203609466552734
1750928837995887000,2.47188720703125,9.748106956481934,-0.07606572657823563,-1.0672441720962524
1750928838014710800,2.490710693359375,9.743183135986328,-0.06989160180091858,-1.1117030382156372
1750928838033534500,2.509534423828125,9.737160682678223,-0.047429751604795456,-1.1643966436386108
1750928838052358400,2.5283583984375,9.730091094970703,-0.01504389476031065,-1.2229100465774536
1750928838071182000,2.54718212890625,9.722256660461426,0.01689941994845867,-1.2836793661117554
1750928838090005800,2.566005859375,9.715278625488281,0.03952544927597046,-1.3349833488464355
1750928838108829700,2.58482958984375,9.705988883972168,0.05003185197710991,-1.4005917310714722
1750928838127653400,2.6036533203125,9.6953763961792,0.06386052817106247,-1.4717276096343994
1750928838146477000,2.62247705078125,9.683801651000977,0.08344902098178864,-1.5451240539550781
1750928838165300700,2.64130078125,9.66822338104248,0.10078462213277817,-1.6388063430786133
1750928838184124700,2.660124755859375,9.652168273925781,0.11179320514202118,-1.7301791906356812
1750928838202948400,2.6789482421875,9.639562606811523,0.10638438910245895,-1.7994126081466675
1750928838221772000,2.69777197265625,9.631851196289062,0.09013089537620544,-1.8411152362823486
1750928838240595700,2.716595703125,9.623126983642578,0.06271647661924362,-1.8872956037521362
1750928838259419600,2.735419677734375,9.606745719909668,0.03605270758271217,-1.9696472883224487
1750928838278243300,2.754243408203125,9.586214065551758,0.020937565714120865,-2.0674731731414795
1750928838297067000,2.77306689453125,9.57077693939209,0.029279548674821854,-2.137700319290161
1750928838315891000,2.791890869140625,9.557401657104492,0.044196806848049164,-2.1964774131774902
1750928838334714600,2.810714599609375,9.53393840789795,0.05225108563899994,-2.2960126399993896
1750928838353538300,2.829538330078125,9.499731063842773,0.04687632992863655,-2.433784008026123
1750928838372362000,2.848362060546875,9.464837074279785,0.04861246049404144,-2.56610107421875
1750928838391186000,2.86718603515625,9.430075645446777,0.056263040751218796,-2.6908912658691406
1750928838410009600,2.886009521484375,9.394460678100586,0.04277008771896362,-2.8129465579986572
1750928838428833300,2.904833251953125,9.364266395568848,-0.006922861095517874,-2.9121909141540527
1750928838447657000,2.923656982421875,9.327348709106445,-0.06716804206371307,-3.0276129245758057
1750928838466481000,2.94248095703125,9.285884857177734,-0.11965376138687134,-3.150937795639038
1750928838485304600,2.9613046875,9.24459457397461,-0.14600425958633423,-3.2690279483795166
1750928838504128300,2.980128173828125,9.211666107177734,-0.15666042268276215,-3.3602168560028076
1750928838522952200,2.9989521484375,9.175073623657227,-0.1712588369846344,-3.4581921100616455
1750928838541776000,3.01777587890625,9.129781723022461,-0.20837005972862244,-3.574079751968384
1750928838560599600,3.036599609375,9.076505661010742,-0.27129125595092773,-3.7032203674316406
1750928838579423200,3.05542333984375,9.025308609008789,-0.34228581190109253,-3.8206076622009277
1750928838598247200,3.0742470703125,8.989649772644043,-0.39621880650520325,-3.898664712905884
1750928838617070800,3.09307080078125,8.965774536132812,-0.414690762758255,-3.951366424560547
1750928838635894500,3.11189453125,8.943607330322266,-0.4117434322834015,-4.001593112945557
1750928838654718500,3.130718505859375,8.913311004638672,-0.4110282063484192,-4.068701267242432
1750928838673542100,3.149542236328125,8.871376991271973,-0.4171398878097534,-4.158732891082764
1750928838692365800,3.16836572265625,8.825908660888672,-0.42599818110466003,-4.253498554229736
1750928838711189800,3.187189697265625,8.792248725891113,-0.42490655183792114,-4.322754383087158
1750928838730013400,3.206013427734375,8.761194229125977,-0.42100033164024353,-4.38572883605957
1750928838748837000,3.224837158203125,8.73063850402832,-0.42333367466926575,-4.446023464202881
1750928838767660800,3.243660888671875,8.697432518005371,-0.4314270317554474,-4.509868621826172
1750928838786484700,3.262484619140625,8.652114868164062,-0.4414788484573364,-4.5952582359313965
1750928838805308400,3.281308349609375,8.594942092895508,-0.4499635696411133,-4.700521945953369
1750928838824132000,3.300132080078125,8.550808906555176,-0.4537331759929657,-4.7799787521362305
1750928838842956000,3.3189560546875,8.529083251953125,-0.4622979462146759,-4.817821025848389
1750928838861779700,3.33777978515625,8.51183032989502,-0.4719163775444031,-4.8473124504089355
1750928838880603400,3.356603271484375,8.48735523223877,-0.4749734401702881,-4.889743328094482
1750928838899427000,3.375427001953125,8.443636894226074,-0.4751638174057007,-4.964836597442627
1750928838918251000,3.3942509765625,8.391581535339355,-0.4611203968524933,-5.053623199462891
1750928838937074700,3.41307470703125,8.339051246643066,-0.4270309805870056,-5.142787933349609
1750928838955898400,3.4318984375,8.290410041809082,-0.3684100806713104,-5.225300312042236
1750928838974722300,3.450722412109375,8.224719047546387,-0.28054845333099365,-5.33344841003418
1750928838993546000,3.4695458984375,8.137385368347168,-0.1818930208683014,-5.469940662384033
1750928839012369700,3.48836962890625,8.03233814239502,-0.060007501393556595,-5.62568473815918
1750928839031193300,3.507193359375,7.928231716156006,0.08937838673591614,-5.771094799041748
1750928839050017300,3.526017333984375,7.837229251861572,0.20703467726707458,-5.8911261558532715
1750928839068841000,3.544841064453125,7.770998954772949,0.2891181409358978,-5.974811553955078
1750928839087664600,3.56366455078125,7.703979015350342,0.37847432494163513,-6.056058406829834
1750928839106488600,3.582488525390625,7.637143611907959,0.4622025787830353,-6.134394645690918
1750928839125312300,3.601312255859375,7.569011688232422,0.5358540415763855,-6.212351322174072
1750928839144136000,3.620135986328125,7.493767261505127,0.5885018110275269,-6.298214435577393
1750928839162959600,3.638959716796875,7.442203044891357,0.6049802899360657,-6.357514381408691
1750928839181783600,3.657783447265625,7.420428276062012,0.583892285823822,-6.384881019592285
1750928839200607200,3.676607177734375,7.411221027374268,0.5493625402450562,-6.398623943328857
1750928839219431000,3.695430908203125,7.386106014251709,0.4280487596988678,-6.436814785003662
1750928839238254800,3.7142548828125,7.381575107574463,0.3211584985256195,-6.44822359085083
1750928839257078500,3.73307861328125,7.362309455871582,0.3177417516708374,-6.470380783081055
1750928839275902200,3.751902099609375,7.328025817871094,0.26978179812431335,-6.511347770690918
1750928839294726100,3.77072607421875,7.310910701751709,0.1956898272037506,-6.53319787979126
1750928839313549800,3.7895498046875,7.268372058868408,0.20172348618507385,-6.580307960510254
1750928839332373500,3.80837353515625,7.210249423980713,0.2356584370136261,-6.64282751083374
1750928839351197200,3.827197265625,7.162877559661865,0.2656056582927704,-6.6927595138549805
1750928839370021000,3.846021240234375,7.100310325622559,0.3006957769393921,-6.757630348205566
1750928839388844800,3.8648447265625,7.0427656173706055,0.3159349262714386,-6.816892623901367
1750928839407668500,3.88366845703125,7.003118515014648,0.3015466630458832,-6.85826301574707
1750928839426492400,3.902492431640625,6.950798034667969,0.3053606450557709,-6.911117076873779
1750928839445316000,3.921316162109375,6.879814624786377,0.3318817913532257,-6.980572700500488
1750928839464139800,3.940139892578125,6.797030448913574,0.3472471833229065,-7.060466766357422
1750928839482963700,3.958963623046875,6.745919227600098,0.315906822681427,-7.11077880859375
1750928839501787400,3.977787353515625,6.717942237854004,0.2594110071659088,-7.139491558074951
1750928839520611000,3.996611083984375,6.673343181610107,0.22825314104557037,-7.182253360748291
1750928839539435000,4.01543505859375,6.5890583992004395,0.19398576021194458,-7.2606520652771
1750928839558258700,4.0342587890625,6.534144878387451,0.12099917978048325,-7.311682224273682
1750928839577082400,4.053082275390625,6.490769386291504,0.07627372443675995,-7.350815773010254
1750928839595906000,4.071906005859375,6.416292667388916,0.07628194242715836,-7.415913105010986
1750928839614730000,4.09072998046875,6.324010372161865,0.1000542864203453,-7.494482040405273
1750928839633553700,4.1095537109375,6.260454177856445,0.11460750550031662,-7.547447681427002
1750928839652377300,4.12837744140625,6.174412727355957,0.16819557547569275,-7.617002487182617
1750928839671201300,4.147201171875,6.087427139282227,0.21642282605171204,-7.685492515563965
1750928839690025000,4.16602490234375,5.99275016784668,0.2591109871864319,-7.758234024047852
1750928839708848600,4.1848486328125,5.897392272949219,0.29378360509872437,-7.82974100112915
1750928839727672600,4.203672607421875,5.813775062561035,0.3138677775859833,-7.891254425048828
1750928839746496300,4.222496337890625,5.745193958282471,0.3072924315929413,-7.941580772399902
1750928839765320000,4.24131982421875,5.690967559814453,0.2796232998371124,-7.981546401977539
1750928839784144000,4.260143798828125,5.630892753601074,0.26473763585090637,-8.02454662322998
1750928839802967600,4.278967529296875,5.546946048736572,0.24055637419223785,-8.083558082580566
1750928839821791200,4.297791259765625,5.478984832763672,0.21658459305763245,-8.130449295043945
1750928839840615000,4.316614990234375,5.44493293762207,0.19783811271190643,-8.153769493103027
1750928839859438800,4.33543896484375,5.407425880432129,0.1928166300058365,-8.178811073303223
1750928839878262500,4.354262451171875,5.365877151489258,0.19150681793689728,-8.206160545349121
1750928839897086200,4.373086181640625,5.327627182006836,0.1854156255722046,-8.231184005737305
1750928839915910100,4.39191015625,5.307922840118408,0.1835612654685974,-8.243946075439453
1750928839934733800,4.41073388671875,5.3008527755737305,0.17675070464611053,-8.248642921447754
1750928839953557500,4.4295576171875,5.2897491455078125,0.15652520954608917,-8.256176948547363
1750928839972381400,4.44838134765625,5.2954421043396,0.10742467641830444,-8.253310203552246
1750928839991205000,4.467205078125,5.318003177642822,0.02696642093360424,-8.239447593688965
1750928840010028800,4.48602880859375,5.329153537750244,-0.05351543799042702,-8.232110977172852
1750928840028852500,4.5048525390625,5.306530475616455,-0.11929518729448318,-8.246021270751953
1750928840047676400,4.523676513671875,5.243453025817871,-0.1857718527317047,-8.285052299499512
1750928840066500000,4.5425,5.184405326843262,-0.2645450830459595,-8.31999683380127
1750928840085324000,4.561323974609375,5.08929443359375,-0.3541918992996216,-8.375203132629395
1750928840104147700,4.580147705078125,4.9608845710754395,-0.44371435046195984,-8.447670936584473
1750928840122971400,4.598971435546875,4.777664661407471,-0.5269484519958496,-8.54790210723877
1750928840141795300,4.61779541015625,4.627135276794434,-0.6173881888389587,-8.624316215515137
1750928840160619000,4.636618896484375,4.540359973907471,-0.7056674361228943,-8.66357707977295
1750928840179442700,4.655442626953125,4.472414970397949,-0.8163674473762512,-8.689156532287598
1750928840198266400,4.674266357421875,4.3716511726379395,-0.9431177973747253,-8.727519035339355
1750928840217090300,4.69309033203125,4.248301982879639,-1.0532879829406738,-8.775699615478516
1750928840235914000,4.7119140625,4.140469074249268,-1.1371796131134033,-8.816672325134277
1750928840254737700,4.730737548828125,4.034571170806885,-1.1932612657546997,-8.858259201049805
1750928840273561600,4.7495615234375,3.969405174255371,-1.2318657636642456,-8.8823823928833
1750928840292385300,4.76838525390625,3.945305347442627,-1.2664740085601807,-8.888250350952148
1750928840311209000,4.787208984375,3.9494237899780273,-1.286096215248108,-8.883602142333984
1750928840330033000,4.806032958984375,3.9579825401306152,-1.296040654182434,-8.878347396850586
1750928840348856600,4.824856689453125,3.9496684074401855,-1.2887498140335083,-8.883109092712402
1750928840367680300,4.84368017578125,3.9217801094055176,-1.2408874034881592,-8.90225887298584
1750928840386504000,4.86250390625,3.923238754272461,-1.1800780296325684,-8.909882545471191
1750928840405328000,4.881327880859375,3.9287474155426025,-1.1049641370773315,-8.917084693908691
1750928840424151600,4.900151611328125,3.9130122661590576,-1.033225178718567,-8.93259048461914
1750928840442975500,4.9189755859375,3.904494285583496,-0.9677888751029968,-8.94364070892334
1750928840461799200,4.937799072265625,3.9079701900482178,-0.9088315963745117,-8.9483060836792
1750928840480622800,4.956622802734375,3.8969852924346924,-0.8529322743415833,-8.95859432220459
1750928840499446800,4.97544677734375,3.8613545894622803,-0.8017666935920715,-8.97872543334961
1750928840518270500,4.9942705078125,3.8138551712036133,-0.7614753246307373,-9.00250244140625
1750928840537094100,5.01309423828125,3.766209840774536,-0.7290655374526978,-9.025215148925781
1750928840555917800,5.031917724609375,3.72638201713562,-0.701971709728241,-9.043876647949219
1750928840574741800,5.05074169921875,3.6873247623443604,-0.6703505516052246,-9.062265396118164
1750928840593565400,5.0695654296875,3.657559871673584,-0.6432939171791077,-9.076277732849121
1750928840612389000,5.08838916015625,3.6321136951446533,-0.6173058152198792,-9.088293075561523
1750928840631213000,5.107213134765625,3.588198661804199,-0.5803713202476501,-9.108150482177734
1750928840650036700,5.12603662109375,3.530691623687744,-0.5547245740890503,-9.132189750671387
1750928840668860400,5.1448603515625,3.442845106124878,-0.5413171648979187,-9.166470527648926
1750928840687684400,5.163684326171875,3.3173584938049316,-0.5349707007408142,-9.212997436523438
1750928840706508000,5.182508056640625,3.229673147201538,-0.5142441391944885,-9.245278358459473
1750928840725331700,5.201331787109375,3.201385498046875,-0.5050352811813354,-9.25561809539795
1750928840744155600,5.22015576171875,3.1477420330047607,-0.5105862021446228,-9.27369499206543
1750928840762979300,5.238979248046875,3.040022373199463,-0.5062998533248901,-9.309796333312988
1750928840781803000,5.257802978515625,2.8984687328338623,-0.4990041255950928,-9.35522747039795
1750928840800627000,5.276626953125,2.725114583969116,-0.4913974106311798,-9.407586097717285
1750928840819450600,5.29545068359375,2.508769989013672,-0.48423194885253906,-9.467945098876953
1750928840838274300,5.3142744140625,2.324899196624756,-0.4710158109664917,-9.51542854309082
1750928840857098200,5.33309814453125,2.2271907329559326,-0.4592055380344391,-9.539346694946289
1750928840875922000,5.351921875,2.1982295513153076,-0.46160486340522766,-9.54594612121582
1750928840894745600,5.37074560546875,2.1684815883636475,-0.45834651589393616,-9.552905082702637
1750928840913569500,5.389569580078125,2.1145377159118652,-0.4381113648414612,-9.565937995910645
1750928840932393200,5.408393310546875,1.9876238107681274,-0.44893696904182434,-9.592611312866211
1750928840951217000,5.427216796875,1.7611197233200073,-0.46479499340057373,-9.636015892028809
1750928840970040800,5.446040771484375,1.4859086275100708,-0.47480347752571106,-9.681788444519043
1750928840988864500,5.464864501953125,1.2287192344665527,-0.47795775532722473,-9.717622756958008
1750928841007688200,5.483688232421875,1.0203351974487305,-0.4677271842956543,-9.742203712463379
1750928841026512100,5.50251220703125,0.9012561440467834,-0.4544670879840851,-9.754568099975586
1750928841045335800,5.521335693359375,0.9002563953399658,-0.4307243525981903,-9.7557373046875
1750928841064159500,5.540159423828125,0.9673745632171631,-0.4077237546443939,-9.750299453735352
1750928841082983200,5.558983154296875,0.9929738640785217,-0.38574936985969543,-9.74862003326416
1750928841101807000,5.57780712890625,0.9515562653541565,-0.3651086390018463,-9.753543853759766
1750928841120630800,5.596630859375,0.8825427293777466,-0.3341589570045471,-9.761139869689941
1750928841139454500,5.615454345703125,0.8082456588745117,-0.2991407513618469,-9.768707275390625
1750928841158278400,5.6342783203125,0.7327775359153748,-0.275191992521286,-9.775362014770508
1750928841177102000,5.65310205078125,0.6598767042160034,-0.2601045072078705,-9.780965805053711
1750928841195925800,5.67192578125,0.587002158164978,-0.24864715337753296,-9.785907745361328
1750928841214749700,5.690749755859375,0.5201297402381897,-0.24900443851947784,-9.789681434631348
1750928841233573400,5.709573486328125,0.438139408826828,-0.2542303800582886,-9.793558120727539
1750928841252397300,5.728397216796875,0.3466114401817322,-0.26015564799308777,-9.79706859588623
1750928841271221000,5.747220947265625,0.2622072696685791,-0.27670061588287354,-9.799238204956055
1750928841290044700,5.766044677734375,0.1507793515920639,-0.2966797947883606,-9.80100154876709
1750928841308868600,5.78486865234375,0.010405640117824078,-0.3056040406227112,-9.801881790161133
1750928841327692300,5.8036923828125,-0.1312914788722992,-0.3127489387989044,-9.800783157348633
1750928841346516000,5.822515869140625,-0.2593505382537842,-0.30887919664382935,-9.798352241516113
1750928841365340000,5.84133984375,-0.31319722533226013,-0.28006109595298767,-9.797646522521973
1750928841384163600,5.86016357421875,-0.2738317549228668,-0.23950053751468658,-9.79990005493164
1750928841402987300,5.8789873046875,-0.25193342566490173,-0.22070062160491943,-9.800929069519043
1750928841421811200,5.897811279296875,-0.26679185032844543,-0.2022792398929596,-9.800933837890625
1750928841440635000,5.916634765625,-0.297855406999588,-0.18579453229904175,-9.80036449432373
1750928841459458600,5.93545849609375,-0.3665602207183838,-0.18953636288642883,-9.797964096069336
1750928841478282200,5.9542822265625,-0.47932860255241394,-0.20902040600776672,-9.79269790649414
1750928841497106200,5.973106201171875,-0.5949633121490479,-0.23915880918502808,-9.785662651062012
1750928841515929900,5.991929931640625,-0.7036817669868469,-0.2723269760608673,-9.777579307556152
1750928841534753500,6.01075341796875,-0.8014674782752991,-0.29645293951034546,-9.769347190856934
1750928841553577500,6.029577392578125,-0.8795119524002075,-0.3078854978084564,-9.762277603149414
1750928841572401200,6.048401123046875,-0.9670754075050354,-0.3030204772949219,-9.754144668579102
1750928841591224800,6.067224853515625,-1.068620204925537,-0.2956421673297882,-9.743769645690918
1750928841610048800,6.086048828125,-1.1591873168945312,-0.29174304008483887,-9.733527183532715
1750928841628872400,6.10487255859375,-1.2495789527893066,-0.28621888160705566,-9.722500801086426
1750928841647696100,6.123696044921875,-1.3669137954711914,-0.276522159576416,-9.706979751586914
1750928841666520000,6.14252001953125,-1.4981237649917603,-0.26096218824386597,-9.688029289245605
1750928841685343700,6.16134375,-1.6369602680206299,-0.2466820329427719,-9.665914535522461
1750928841704167400,6.18016748046875,-1.7865440845489502,-0.2261534035205841,-9.639890670776367
1750928841722991400,6.198991455078125,-1.96628999710083,-0.20913805067539215,-9.605225563049316
1750928841741815000,6.21781494140625,-2.1773509979248047,-0.19738376140594482,-9.559842109680176
1750928841760639000,6.236638916015625,-2.3860104084014893,-0.18240222334861755,-9.510209083557129
1750928841779462700,6.255462646484375,-2.5485641956329346,-0.15956585109233856,-9.468355178833008
1750928841798286300,6.274286376953125,-2.682298183441162,-0.12465512752532959,-9.431868553161621
1750928841817110300,6.2931103515625,-2.7874207496643066,-0.07904494553804398,-9.40183162689209
1750928841835934000,6.311933837890625,-2.8515398502349854,-0.04147222638130188,-9.382823944091797
1750928841854757600,6.330757568359375,-2.8838815689086914,-0.011897680349647999,-9.373018264770508
1750928841873581600,6.34958154296875,-2.91198992729187,0.016713228076696396,-9.3643159866333
1750928841892405200,6.3684052734375,-2.948160409927368,0.0347423329949379,-9.35294246673584
1750928841911229000,6.38722900390625,-2.977745294570923,0.04112863913178444,-9.343539237976074
1750928841930052900,6.406052978515625,-2.9959511756896973,0.041264086961746216,-9.337717056274414
1750928841948876500,6.42487646484375,-3.023425817489624,0.04018089175224304,-9.328861236572266
1750928841967700200,6.4437001953125,-3.055793523788452,0.03741980716586113,-9.318321228027344
1750928841986524200,6.462524169921875,-3.093585968017578,0.026391278952360153,-9.30588150024414
1750928842005347800,6.481347900390625,-3.1517584323883057,0.007353098131716251,-9.28637409210205
1750928842024171500,6.500171630859375,-3.2200920581817627,-0.019050588831305504,-9.262884140014648
1750928842042995500,6.518995361328125,-3.2724521160125732,-0.04990556091070175,-9.244400978088379
1750928842061819100,6.537819091796875,-3.316709280014038,-0.07657429575920105,-9.228432655334473
1750928842080642800,6.556642822265625,-3.3659021854400635,-0.09617695957422256,-9.210419654846191
1750928842099466800,6.575466796875,-3.424490451812744,-0.11165649443864822,-9.18862247467041
1750928842118290400,6.59429052734375,-3.485339641571045,-0.12474533170461655,-9.165546417236328
1750928842137114000,6.613114013671875,-3.5261731147766113,-0.136712446808815,-9.149744033813477
1750928842155938000,6.63193798828125,-3.571146011352539,-0.13783161342144012,-9.132267951965332
1750928842174761700,6.65076171875,-3.621403217315674,-0.13131195306777954,-9.112550735473633
1750928842193585400,6.66958544921875,-3.6798369884490967,-0.1312670111656189,-9.089112281799316
1750928842212409300,6.688409423828125,-3.731585741043091,-0.1386229544878006,-9.067879676818848
1750928842231233000,6.70723291015625,-3.7614104747772217,-0.14513397216796875,-9.05544662475586
1750928842250056700,6.726056640625,-3.784755229949951,-0.15016667544841766,-9.045632362365723
1750928842268880600,6.744880615234375,-3.8068580627441406,-0.1558072417974472,-9.03625774383545
1750928842287704300,6.763704345703125,-3.8331925868988037,-0.1680324673652649,-9.024897575378418
1750928842306528000,6.782528076171875,-3.8714282512664795,-0.1788259893655777,-9.008354187011719
1750928842325352000,6.80135205078125,-3.920971155166626,-0.17002920806407928,-8.987071990966797
1750928842344175600,6.820175537109375,-3.984130382537842,-0.1512877494096756,-8.959588050842285
1750928842362999600,6.83899951171875,-4.052820682525635,-0.12881365418434143,-8.929079055786133
1750928842381823200,6.8578232421875,-4.1414713859558105,-0.10024420917034149,-8.888675689697266
1750928842400647000,6.87664697265625,-4.262062072753906,-0.06768970936536789,-8.831796646118164
1750928842419470800,6.895470947265625,-4.400994300842285,-0.03629216551780701,-8.763578414916992
1750928842438294500,6.91429443359375,-4.5132951736450195,-0.010056155733764172,-8.706345558166504
1750928842466530000,6.942530029296875,-4.570692539215088,0.02121681161224842,-8.67633056640625
1750928842485354000,6.96135400390625,-4.5832061767578125,0.036708928644657135,-8.66967487335205
1750928842504177700,6.980177734375,-4.619061470031738,0.05264885723590851,-8.650542259216309
1750928842523001300,6.99900146484375,-4.693576335906982,0.07697921246290207,-8.610157012939453
1750928842541825300,7.0178251953125,-4.793362617492676,0.10259640961885452,-8.55473804473877
1750928842560649000,7.03664892578125,-4.876277923583984,0.10852502286434174,-8.507675170898438
1750928842579473000,7.055472900390625,-4.932900905609131,0.08870149403810501,-8.475199699401855
1750928842598296600,7.074296630859375,-4.9550557136535645,0.06495454162359238,-8.462481498718262
1750928842617120300,7.093120361328125,-4.982715606689453,0.05466470494866371,-8.446297645568848
1750928842635944200,7.111944091796875,-5.04648494720459,0.045371897518634796,-8.408408164978027
1750928842654767900,7.130767822265625,-5.119987964630127,0.03209683671593666,-8.36391544342041
1750928842673591600,7.149591552734375,-5.1937432289123535,0.016630476340651512,-8.31836223602295
1750928842692415500,7.16841552734375,-5.24464750289917,-0.006295407190918922,-8.286375045776367
1750928842711239200,7.1872392578125,-5.271885395050049,-0.021447470411658287,-8.269046783447266
1750928842730062800,7.206062744140625,-5.294370174407959,-0.012791295535862446,-8.254688262939453
1750928842748886800,7.22488671875,-5.348630428314209,0.014807705767452717,-8.219630241394043
1750928842767710500,7.24371044921875,-5.453108310699463,0.051044583320617676,-8.150545120239258
1750928842786534100,7.2625341796875,-5.599837779998779,0.08157885074615479,-8.050189018249512
1750928842805358000,7.281358154296875,-5.72459077835083,0.09243419021368027,-7.96183967590332
1750928842824181800,7.300181640625,-5.828232288360596,0.10078857839107513,-7.886186122894287
1750928842843005700,7.319005615234375,-5.899410724639893,0.11975335329771042,-7.832815170288086
1750928842861829400,7.337829345703125,-5.932744026184082,0.15097138285636902,-7.807056903839111
1750928842880653000,7.356653076171875,-5.962308406829834,0.17961712181568146,-7.78389310836792
1750928842899477000,7.37547705078125,-6.014814376831055,0.20471146702766418,-7.742769718170166
1750928842918300700,7.39430078125,-6.075126647949219,0.23613081872463226,-7.694638729095459
1750928842937124400,7.413124267578125,-6.116549491882324,0.2713324725627899,-7.660586357116699
1750928842955948300,7.4319482421875,-6.14361572265625,0.2988164722919464,-7.637871742248535
1750928842974772000,7.45077197265625,-6.166738033294678,0.31856071949005127,-7.618415355682373
1750928842993596000,7.469595947265625,-6.19670295715332,0.3433007299900055,-7.592983722686768
1750928843012419600,7.488419677734375,-6.2546706199646,0.3674655556678772,-7.544166564941406
1750928843031243300,7.5072431640625,-6.3331828117370605,0.37666431069374084,-7.4779205322265625
1750928843050067200,7.526067138671875,-6.4290571212768555,0.38304805755615234,-7.395329475402832
1750928843068891000,7.544890869140625,-6.5405049324035645,0.3847459554672241,-7.296858787536621
1750928843087714600,7.563714599609375,-6.646186828613281,0.3601280450820923,-7.202005863189697
1750928843106538500,7.58253857421875,-6.74631404876709,0.3058980107307434,-7.110841751098633
1750928843125362200,7.601362060546875,-6.8265838623046875,0.2512345612049103,-7.035981178283691
1750928843144185900,7.620185791015625,-6.87496280670166,0.20454031229019165,-6.990238666534424
1750928843163009800,7.639009765625,-6.912359714508057,0.16396479308605194,-6.954335689544678
1750928843181833500,7.65783349609375,-6.968513488769531,0.12156992405653,-6.8989434242248535
1750928843200657400,7.676657470703125,-7.050015926361084,0.0681067481637001,-6.816379070281982
1750928843219481000,7.695481201171875,-7.14035177230835,-0.004955810960382223,-6.72203254699707
1750928843238304800,7.7143046875,-7.231049537658691,-0.07502128928899765,-6.623948097229004
1750928843257128700,7.733128662109375,-7.312686920166016,-0.12478290498256683,-6.532949924468994
1750928843275952400,7.751952392578125,-7.3767476081848145,-0.16092780232429504,-6.459727764129639
1750928843294776000,7.770776123046875,-7.421810626983643,-0.1818534880876541,-6.40734338760376
1750928843313600000,7.78960009765625,-7.444048881530762,-0.18895459175109863,-6.381287097930908
1750928843332423700,7.808423583984375,-7.444645881652832,-0.19533149898052216,-6.380397796630859
1750928843351247400,7.827247314453125,-7.435486793518066,-0.20930786430835724,-6.390626907348633
1750928843370071300,7.8460712890625,-7.429253578186035,-0.226429283618927,-6.397288799285889
1750928843388895000,7.86489501953125,-7.435553550720215,-0.23291592299938202,-6.389732837677002
1750928843407719000,7.883718994140625,-7.448573112487793,-0.2314607799053192,-6.37460470199585
1750928843426542600,7.90254248046875,-7.459477424621582,-0.22941160202026367,-6.361913681030273
1750928843445366300,7.9213662109375,-7.469934463500977,-0.22452165186405182,-6.3498077392578125
1750928843464190200,7.940190185546875,-7.487687587738037,-0.20709751546382904,-6.329458236694336
1750928843483014000,7.959013916015625,-7.514533519744873,-0.17994925379753113,-6.298395156860352
1750928843501837600,7.977837646484375,-7.548900127410889,-0.15161094069480896,-6.257915496826172
1750928843520661500,7.99666162109375,-7.588076591491699,-0.13383342325687408,-6.2107625007629395
1750928843539485200,8.015485107421876,-7.620472431182861,-0.12593483924865723,-6.171136856079102
1750928843558308900,8.034308837890626,-7.646546840667725,-0.10922233760356903,-6.1391191482543945
1750928843577132800,8.0531328125,-7.681024551391602,-0.08931759744882584,-6.096250057220459
1750928843595956500,8.07195654296875,-7.728706359863281,-0.06493660807609558,-6.035998821258545
1750928843614780400,8.090780517578125,-7.791370868682861,-0.042014025151729584,-5.955094337463379
1750928843633604000,8.10960400390625,-7.87246561050415,-0.018292024731636047,-5.847592830657959
1750928843652427800,8.128427734375,-7.965695381164551,0.005670416634529829,-5.719968795776367
1750928843671251700,8.147251708984374,-8.053520202636719,0.015833448618650436,-5.595617771148682
1750928843690075400,8.166075439453126,-8.10309886932373,0.036878716200590134,-5.523478031158447
1750928843708899000,8.184899169921875,-8.131770133972168,0.07861361652612686,-5.480742454528809
1750928843727723000,8.203722900390625,-8.157341957092285,0.11657095700502396,-5.441926956176758
1750928843746546700,8.222546630859375,-8.168567657470703,0.11682237684726715,-5.4250569343566895
1750928843765370600,8.24137060546875,-8.160574913024902,0.08820056170225143,-5.437613487243652
1750928843784194300,8.2601943359375,-8.159773826599121,0.04329715296626091,-5.439356327056885
1750928843803018000,8.27901806640625,-8.178133964538574,-0.006071346811950207,-5.411881446838379
1750928843821842000,8.297842041015626,-8.227686882019043,-0.03002532199025154,-5.336164951324463
1750928843840665600,8.31666552734375,-8.294330596923828,-0.029632961377501488,-5.231977939605713
1750928843859489300,8.3354892578125,-8.375061988830566,-0.02244074083864689,-5.101787090301514
1750928843878313200,8.354313232421875,-8.457691192626953,-0.011242363601922989,-4.9636406898498535
1750928843897137000,8.373136962890625,-8.527755737304688,0.016077222302556038,-4.8422651290893555
1750928843915960800,8.3919609375,-8.597014427185059,0.04503113031387329,-4.718019008636475
1750928843934784500,8.410784423828124,-8.663763046264648,0.05229080095887184,-4.5942206382751465
1750928843953608200,8.429608154296876,-8.722670555114746,0.015692245215177536,-4.481645107269287
1750928843972432100,8.44843212890625,-8.76932144165039,-0.054567646235227585,-4.389352321624756
1750928843991255800,8.467255859375,-8.812052726745605,-0.14087438583374023,-4.300961017608643
1750928844010079700,8.486079833984375,-8.85336685180664,-0.22360914945602417,-4.211684226989746
1750928844028903400,8.5049033203125,-8.89904499053955,-0.32934579253196716,-4.107176780700684
1750928844047727000,8.52372705078125,-8.944820404052734,-0.47381776571273804,-3.991999387741089
1750928844066551000,8.542551025390624,-8.96656608581543,-0.6335822939872742,-3.920414924621582
1750928844085374700,8.561374755859376,-8.966741561889648,-0.7563810348510742,-3.8981845378875732
1750928844104198400,8.580198486328126,-8.970569610595703,-0.8359907269477844,-3.8730344772338867
1750928844123022300,8.599022216796875,-9.00232982635498,-0.8830390572547913,-3.7879652976989746
1750928844141846000,8.617845947265625,-9.047492980957031,-0.8998208045959473,-3.6747214794158936
1750928844160670000,8.636669921875,-9.085284233093262,-0.8798890709877014,-3.585218906402588
1750928844179493600,8.65549365234375,-9.103256225585938,-0.844571590423584,-3.5479319095611572
1750928844198317300,8.6743173828125,-9.100825309753418,-0.8163198828697205,-3.560756206512451
1750928844217141200,8.693141357421876,-9.094700813293457,-0.8054274916648865,-3.578840732574463
1750928844235965000,8.71196484375,-9.101411819458008,-0.8030920624732971,-3.5622665882110596
1750928844254788900,8.730788818359375,-9.105792045593262,-0.8019177913665771,-3.5513198375701904
1750928844273612500,8.749612548828125,-9.093084335327148,-0.8029744625091553,-3.5834949016571045
1750928844292436200,8.768436279296875,-9.073150634765625,-0.8025959730148315,-3.6337530612945557
1750928844311260200,8.78726025390625,-9.072250366210938,-0.7915564775466919,-3.638420820236206
1750928844330083800,8.806083740234374,-9.10236644744873,-0.7484692335128784,-3.571708917617798
1750928844348907500,8.824907470703126,-9.135595321655273,-0.6551339626312256,-3.504580020904541
1750928844367731500,8.8437314453125,-9.143592834472656,-0.5618342757225037,-3.4999189376831055
1750928844386555100,8.86255517578125,-9.130887985229492,-0.4954879879951477,-3.5428457260131836
1750928844405379000,8.881379150390625,-9.112200736999512,-0.4320439100265503,-3.5988237857818604
1750928844424202800,8.90020263671875,-9.09867000579834,-0.34719160199165344,-3.641983985900879
1750928844443026400,8.9190263671875,-9.103144645690918,-0.25372427701950073,-3.63851261138916
1750928844461850400,8.937850341796874,-9.116583824157715,-0.1981819123029709,-3.6081879138946533
1750928844480674000,8.956674072265624,-9.119030952453613,-0.19392219185829163,-3.602227210998535
1750928844499498000,8.975498046875,-9.110847473144531,-0.20084388554096222,-3.622502088546753
1750928844518321700,8.99432177734375,-9.099896430969238,-0.19847600162029266,-3.650050163269043
1750928844537145300,9.013145263671875,-9.092602729797363,-0.1943216770887375,-3.668407917022705
1750928844555969300,9.03196923828125,-9.083174705505371,-0.21524767577648163,-3.690528392791748
1750928844574793000,9.05079296875,-9.067939758300781,-0.2732391655445099,-3.7240023612976074
1750928844593617000,9.069616943359375,-9.060093879699707,-0.34334424138069153,-3.7372705936431885
1750928844612440600,9.088440673828124,-9.059975624084473,-0.4003838002681732,-3.731879949569702
1750928844631264300,9.10726416015625,-9.049524307250977,-0.44080740213394165,-3.752624988555908
1750928844650088200,9.126088134765626,-9.017219543457031,-0.46894410252571106,-3.826256275177002
1750928844668911900,9.144911865234375,-8.970061302185059,-0.49157777428627014,-3.9327785968780518
1750928844687735600,9.163735595703125,-8.936695098876953,-0.5171604752540588,-4.004797458648682
1750928844706559500,9.1825595703125,-8.935273170471191,-0.5596967935562134,-4.002251625061035
1750928844725383200,9.201383056640625,-8.953824043273926,-0.6397562623023987,-3.948434352874756
1750928844744207000,9.22020703125,-8.975351333618164,-0.7245292663574219,-3.884394645690918
1750928844763030800,9.23903076171875,-9.004583358764648,-0.7967995405197144,-3.8017077445983887
1750928844781854500,9.2578544921875,-9.04043960571289,-0.8604669570922852,-3.7014105319976807
1750928844800678400,9.276678466796875,-9.074024200439453,-0.9172282814979553,-3.6043269634246826
1750928844819502000,9.295502197265625,-9.105928421020508,-0.9652842879295349,-3.5100839138031006
1750928844838325800,9.31432568359375,-9.142523765563965,-0.9881284236907959,-3.4070866107940674
1750928844857149700,9.333149658203125,-9.179548263549805,-0.9636415243148804,-3.313258409500122
1750928844875973400,9.351973388671874,-9.208426475524902,-0.8920900821685791,-3.2526047229766846
1750928844894797300,9.37079736328125,-9.231929779052734,-0.8028299808502197,-3.2089431285858154
1750928844913621000,9.38962109375,-9.251172065734863,-0.6953529119491577,-3.1784746646881104
1750928844932444700,9.408444580078125,-9.26515007019043,-0.5772489309310913,-3.1613543033599854
1750928844951268600,9.4272685546875,-9.270097732543945,-0.5151075720787048,-3.157583713531494
1750928844970092300,9.44609228515625,-9.266449928283691,-0.5208227634429932,-3.1673407554626465
1750928844988916200,9.464916259765625,-9.273741722106934,-0.5386868119239807,-3.1429147720336914
1750928845007740000,9.483739990234374,-9.292571067810059,-0.5480408072471619,-3.0851504802703857
1750928845026563800,9.502563720703124,-9.32315731048584,-0.5343064069747925,-2.9939374923706055
1750928845045387500,9.521387451171876,-9.359612464904785,-0.5150133371353149,-2.8814597129821777
1750928845064211200,9.540211181640625,-9.383459091186523,-0.5117117166519165,-2.8034324645996094
1750928845083035100,9.55903515625,-9.386656761169434,-0.5090407133102417,-2.7931957244873047
1750928845101858800,9.57785888671875,-9.387910842895508,-0.49415069818496704,-2.7916507720947266
1750928845120682800,9.596682861328125,-9.402505874633789,-0.47965362668037415,-2.7446696758270264
1750928845139506400,9.61550634765625,-9.429586410522461,-0.46064117550849915,-2.6535072326660156
1750928845158330000,9.634330078125,-9.46586799621582,-0.4164716899394989,-2.5286924839019775
1750928845177154000,9.653154052734376,-9.50228214263916,-0.34721118211746216,-2.3992624282836914
1750928845195977700,9.671977783203126,-9.528279304504395,-0.2801301181316376,-2.3029980659484863
1750928845214801700,9.6908017578125,-9.539887428283691,-0.2168150246143341,-2.2614004611968994
1750928845233625300,9.709625244140625,-9.54854965209961,-0.14400167763233185,-2.2304396629333496
1750928845252449000,9.728448974609375,-9.56029987335205,-0.06336510926485062,-2.1833584308624268
1750928845271273000,9.74727294921875,-9.573168754577637,0.006154367700219154,-2.1271560192108154
1750928845290096600,9.7660966796875,-9.582539558410645,0.06672953814268112,-2.083479166030884
1750928845308920600,9.784920654296876,-9.598295211791992,0.13800881803035736,-2.006010055541992
1750928845327744300,9.803744140625,-9.632671356201172,0.2125624716281891,-1.8267035484313965
1750928845346568000,9.82256787109375,-9.671585083007812,0.28381574153900146,-1.5969631671905518
1750928845365392000,9.841391845703125,-9.704511642456055,0.34474730491638184,-1.3689335584640503
1750928845384215600,9.860215576171875,-9.724475860595703,0.380123108625412,-1.208498477935791
1750928845403039500,9.87903955078125,-9.738289833068848,0.39382344484329224,-1.0867371559143066
1750928845421863200,9.89786328125,-9.753527641296387,0.40363946557044983,-0.9360451102256775
1750928845440687000,9.91668701171875,-9.768590927124023,0.3967912197113037,-0.7665346264839172
1750928845459510800,9.9355107421875,-9.780160903930664,0.3683575987815857,-0.618988573551178
1750928845478334500,9.95433447265625,-9.783556938171387,0.34189698100090027,-0.5792357325553894
1750928845497158400,9.973158447265625,-9.770263671875,0.346343457698822,-0.7696532011032104
1750928845515982000,9.991982177734375,-9.746756553649902,0.3711893558502197,-1.0165374279022217
1750928845534805800,10.0108056640625,-9.730766296386719,0.39524775743484497,-1.1516757011413574
1750928845553629700,10.029629638671874,-9.729126930236816,0.4195840060710907,-1.15690016746521
1750928845572453400,10.048453369140624,-9.731295585632324,0.45531708002090454,-1.1247050762176514
1750928845591277300,10.06727734375,-9.732036590576172,0.5069218873977661,-1.095848798751831
1750928845610101000,10.08610107421875,-9.733707427978516,0.540402352809906,-1.0645568370819092
1750928845628924700,10.104924560546875,-9.734060287475586,0.5399287343025208,-1.0615719556808472
1750928845647748600,10.12374853515625,-9.734162330627441,0.5335450172424316,-1.0638678073883057
1750928845666572300,10.142572265625,-9.737336158752441,0.5279242992401123,-1.0372880697250366
1750928845685396200,10.161396240234374,-9.743282318115234,0.5213506817817688,-0.9833762049674988
1750928845704220000,10.180219970703124,-9.748595237731934,0.517471194267273,-0.9314060807228088
1750928845723043600,10.199043701171876,-9.75438404083252,0.519084632396698,-0.8677076101303101
1750928845741867500,10.217867431640625,-9.757612228393555,0.5146517753601074,-0.8333910703659058
1750928845760691200,10.236691162109375,-9.757793426513672,0.5109425783157349,-0.8335496187210083
1750928845779515100,10.25551513671875,-9.758699417114258,0.5246444940567017,-0.8141918778419495
1750928845798338800,10.2743388671875,-9.761381149291992,0.5465906858444214,-0.7661989331245422
1750928845817162800,10.293162841796875,-9.765106201171875,0.5686560869216919,-0.6997919082641602
1750928845835986400,10.311986328125,-9.770626068115234,0.588292121887207,-0.599304735660553
1750928845854810000,10.33081005859375,-9.771604537963867,0.6060408353805542,-0.5646741390228271
1750928845873634000,10.349634033203126,-9.770405769348145,0.6020419597625732,-0.5891583561897278
1750928845892457700,10.368457763671875,-9.772409439086914,0.5809736251831055,-0.5769489407539368
1750928845911281700,10.38728173828125,-9.774150848388672,0.5571218132972717,-0.5709412097930908
1750928845930105300,10.406105224609375,-9.777024269104004,0.5120324492454529,-0.5639137625694275
1750928845948929300,10.42492919921875,-9.784451484680176,0.4375084638595581,-0.4934450685977936
1750928845967753000,10.4437529296875,-9.792353630065918,0.3338894546031952,-0.4107571542263031
1750928845986576600,10.46257666015625,-9.797396659851074,0.21635407209396362,-0.36686867475509644
1750928846005400600,10.481400634765626,-9.79888916015625,0.1426324099302292,-0.3630622625350952
1750928846024224300,10.500224365234375,-9.79892635345459,0.11417128890752792,-0.37203115224838257
1750928846043048200,10.519048095703125,-9.799284934997559,0.10614409297704697,-0.3648989200592041
1750928846061871900,10.537871826171875,-9.799756050109863,0.11010339856147766,-0.3507934808731079
1750928846080695600,10.556695556640625,-9.800089836120605,0.12828807532787323,-0.33491337299346924
1750928846099519500,10.57551953125,-9.800233840942383,0.15499918162822723,-0.319023072719574
1750928846118343200,10.59434326171875,-9.800211906433105,0.18473970890045166,-0.3034971356391907
1750928846137167000,10.6131669921875,-9.799544334411621,0.23488590121269226,-0.2900812327861786
1750928846155990800,10.63199072265625,-9.798105239868164,0.3000929653644562,-0.278312623500824
1750928846174814500,10.650814453125,-9.797452926635742,0.3500073254108429,-0.24039754271507263
1750928846193638400,10.669638427734375,-9.79784107208252,0.3786424398422241,-0.17126882076263428
1750928846212462000,10.688462158203125,-9.798678398132324,0.3912585973739624,-0.05666433647274971
1750928846231286000,10.7072861328125,-9.798995018005371,0.3874019384384155,0.003860222175717354
1750928846250109700,10.726109619140624,-9.7994384765625,0.37571799755096436,0.015082350932061672
1750928846268933600,10.74493359375,-9.800317764282227,0.3506154716014862,0.03504189848899841
1750928846287757300,10.76375732421875,-9.80121898651123,0.3180234730243683,0.07318302243947983
1750928846306581000,10.7825810546875,-9.801583290100098,0.28155991435050964,0.14169611036777496
1750928846325405000,10.801405029296875,-9.801880836486816,0.23274415731430054,0.1983863115310669
1750928846344228600,10.820228515625,-9.801433563232422,0.1828719973564148,0.2624121308326721
1750928846363052500,10.839052490234375,-9.800761222839355,0.1445869654417038,0.30752888321876526
1750928846381876200,10.857876220703124,-9.800700187683105,0.13291166722774506,0.31464266777038574
1750928846400700200,10.8767001953125,-9.800928115844727,0.12892669439315796,0.30912429094314575
1750928846419523800,10.89552392578125,-9.800376892089844,0.1278112381696701,0.3265990614891052
1750928846438347500,10.914347412109375,-9.799517631530762,0.13763152062892914,0.3476986289024353
1750928846457171500,10.93317138671875,-9.799376487731934,0.15247762203216553,0.3454713225364685
1750928846475995100,10.9519951171875,-9.800110816955566,0.15096673369407654,0.3246923089027405
1750928846494819000,10.970819091796875,-9.801176071166992,0.13519209623336792,0.29843616485595703
1750928846513642800,10.989642822265624,-9.802302360534668,0.12834186851978302,0.2622545659542084
1750928846532466700,11.008466796875,-9.802645683288574,0.13222570717334747,0.24707384407520294
1750928846551290400,11.027290283203126,-9.802471160888672,0.14079375565052032,0.24921952188014984
1750928846570114000,11.046114013671875,-9.802814483642578,0.1512058675289154,0.22881287336349487
1750928846588938000,11.06493798828125,-9.803423881530762,0.14456358551979065,0.20587606728076935
1750928846607761700,11.08376171875,-9.803780555725098,0.12707208096981049,0.2002953290939331
1750928846626585600,11.102585693359375,-9.803443908691406,0.11835705488920212,0.22103627026081085
1750928846645409300,11.1214091796875,-9.802936553955078,0.12254790216684341,0.2403915673494339
1750928846664233000,11.14023291015625,-9.802611351013184,0.13185320794582367,0.24862469732761383
1750928846683057000,11.159056884765626,-9.802634239196777,0.1465732306241989,0.2393234670162201
1750928846701880600,11.177880615234375,-9.803359985351562,0.16718479990959167,0.1912490874528885
1750928846720704500,11.19670458984375,-9.803702354431152,0.18646197021007538,0.15183693170547485
1750928846739528200,11.215528076171875,-9.803548812866211,0.20570433139801025,0.13603320717811584
1750928846758352100,11.23435205078125,-9.8034029006958,0.22831608355045319,0.1075453907251358
1750928846777175800,11.25317578125,-9.803085327148438,0.2584426701068878,0.05580263212323189
1750928846795999500,11.27199951171875,-9.80218505859375,0.29585471749305725,0.004707221873104572
1750928846814823400,11.290823486328126,-9.80083179473877,0.3360269367694855,-0.034227948635816574
1750928846833647000,11.309647216796876,-9.799090385437012,0.3786056637763977,-0.06972885876893997
1750928846852471000,11.328470947265625,-9.797842979431152,0.40423497557640076,-0.09617333114147186
1750928846871294700,11.347294677734375,-9.797646522521973,0.39969402551651,-0.12943579256534576
1750928846890118700,11.36611865234375,-9.796449661254883,0.39558911323547363,-0.2085309475660324
1750928846908942300,11.3849423828125,-9.793922424316406,0.40267980098724365,-0.29548799991607666
1750928846927766300,11.403766357421874,-9.791891098022461,0.40988776087760925,-0.34820300340652466
1750928846946590000,11.42258984375,-9.790387153625488,0.40542468428611755,-0.3928705155849457
1750928846965413600,11.44141357421875,-9.786600112915039,0.3952396810054779,-0.48646220564842224
1750928846984237600,11.460237548828125,-9.781064987182617,0.38737213611602783,-0.5925276875495911
1750928847003061200,11.479061279296875,-9.775139808654785,0.38903990387916565,-0.6824066042900085
1750928847021885000,11.497885009765625,-9.768113136291504,0.396706223487854,-0.7726410031318665
1750928847040708900,11.516708984375,-9.761290550231934,0.3990585505962372,-0.8534314632415771
1750928847059532500,11.535532470703124,-9.75447940826416,0.40455949306488037,-0.9256556034088135
1750928847078356500,11.5543564453125,-9.746804237365723,0.407457560300827,-1.0020842552185059
1750928847097180200,11.57318017578125,-9.738896369934082,0.387005478143692,-1.0837527513504028
1750928847116004000,11.592004150390625,-9.730029106140137,0.3677324652671814,-1.1669132709503174
1750928847134827800,11.610827880859375,-9.721246719360352,0.36216768622398376,-1.2395882606506348
1750928847153651700,11.629651611328125,-9.7125825881958,0.35392746329307556,-1.3079982995986938
1750928847172475400,11.648475341796875,-9.70411491394043,0.3389992117881775,-1.373180866241455
1750928847191299300,11.66729931640625,-9.694419860839844,0.3334624767303467,-1.4413191080093384
1750928847210123000,11.686123046875,-9.684182167053223,0.3467673361301422,-1.5055710077285767
1750928847228946700,11.70494677734375,-9.673389434814453,0.3727751076221466,-1.567470908164978
1750928847247770600,11.7237705078125,-9.661123275756836,0.38353946805000305,-1.6389029026031494
1750928847266594300,11.74259423828125,-9.649831771850586,0.3836762607097626,-1.7040895223617554
1750928847285418200,11.761418212890625,-9.640252113342285,0.38378503918647766,-1.7574541568756104
1750928847304242000,11.780241943359375,-9.624045372009277,0.3906030058860779,-1.842707633972168
1750928847323065900,11.79906591796875,-9.596675872802734,0.3955038785934448,-1.979332685470581
1750928847341889500,11.8178896484375,-9.57109546661377,0.3952651917934418,-2.0995943546295166
1750928847360713200,11.836713134765626,-9.55368423461914,0.38731056451797485,-2.1788718700408936
1750928847379537200,11.855537109375,-9.53206729888916,0.3799847364425659,-2.2728145122528076
1750928847407773000,11.88377294921875,-9.492145538330078,0.3765493631362915,-2.4347002506256104
1750928847426596600,11.9025966796875,-9.474245071411133,0.3791254162788391,-2.5030670166015625
1750928847445420300,11.921420166015626,-9.449411392211914,0.37172019481658936,-2.5963165760040283
1750928847464244200,11.940244140625,-9.41093921661377,0.3624747097492218,-2.733722448348999
1750928847483068000,11.95906787109375,-9.367953300476074,0.35047709941864014,-2.8790628910064697
1750928847501891800,11.977891845703125,-9.328288078308105,0.33232587575912476,-3.007157564163208
1750928847520715500,11.996715576171875,-9.289835929870605,0.3085889220237732,-3.126359701156616
1750928847539539500,12.01553955078125,-9.25936222076416,0.2972698509693146,-3.2165563106536865
1750928847558363100,12.034363037109374,-9.237698554992676,0.2898637354373932,-3.278916120529175
1750928847577186800,12.053186767578126,-9.216111183166504,0.2759461998939514,-3.340289354324341
1750928847596010800,12.0720107421875,-9.18527889251709,0.2625328302383423,-3.4252169132232666
1750928847614834400,12.09083447265625,-9.142841339111328,0.2621435523033142,-3.5369653701782227
1750928847633658400,12.109658447265625,-9.099875450134277,0.2757716178894043,-3.6450791358947754
1750928847652482000,12.12848193359375,-9.064956665039062,0.28684675693511963,-3.7302370071411133
1750928847671306000,12.147305908203125,-9.03418254852295,0.29271388053894043,-3.803715944290161
1750928847690129700,12.166129638671874,-8.99724006652832,0.2990891933441162,-3.889808177947998
1750928847708953600,12.18495361328125,-8.946991920471191,0.3008273243904114,-4.00390100479126
1750928847727777300,12.20377734375,-8.888274192810059,0.3125670552253723,-4.131740570068359
1750928847746601200,12.222601318359375,-8.827157974243164,0.332879900932312,-4.259210109710693
1750928847765425000,12.2414248046875,-8.76379108428955,0.3491170406341553,-4.386850833892822
1750928847784248600,12.26024853515625,-8.697522163391113,0.36224469542503357,-4.515781402587891
1750928847803072500,12.279072509765625,-8.643898963928223,0.3758823871612549,-4.61650276184082
1750928847821896200,12.297896240234374,-8.611272811889648,0.3764795660972595,-4.677032947540283
1750928847840720100,12.31672021484375,-8.580294609069824,0.36669987440109253,-4.734392166137695
1750928847859543800,12.335543701171876,-8.52823257446289,0.3573340177536011,-4.828245162963867
1750928847878367700,12.35436767578125,-8.45190143585205,0.34977370500564575,-4.961191654205322
1750928847897191400,12.37319140625,-8.371109008789062,0.32890889048576355,-5.097720623016357
1750928847916015400,12.392015380859375,-8.296856880187988,0.3018910884857178,-5.21933126449585
1750928847934839000,12.410839111328125,-8.212803840637207,0.278741717338562,-5.35187292098999
1750928847953663000,12.4296630859375,-8.11445140838623,0.2653580904006958,-5.500512599945068
1750928847972486700,12.448486572265624,-8.05125904083252,0.23665130138397217,-5.59389066696167
1750928847991310300,12.467310302734376,-8.055927276611328,0.19374044239521027,-5.588817119598389
1750928848010134300,12.48613427734375,-8.069424629211426,0.1466345489025116,-5.570751667022705
1750928848028958000,12.5049580078125,-8.090069770812988,0.10593991726636887,-5.541654109954834
1750928848047782000,12.523781982421875,-8.113341331481934,0.08281227201223373,-5.507923126220703
1750928848066605600,12.54260546875,-8.113621711730957,0.08505207300186157,-5.507477283477783
1750928848085429500,12.561429443359375,-8.124126434326172,0.09673327207565308,-5.4917755126953125
1750928848104253200,12.580253173828124,-8.10860824584961,0.10829909145832062,-5.514448165893555
1750928848123076900,12.599076904296876,-8.085124015808105,0.11135000735521317,-5.548762321472168
1750928848141900800,12.61790087890625,-8.088125228881836,0.11081530898809433,-5.544397830963135
1750928848160724500,12.636724365234375,-8.119046211242676,0.07240670919418335,-5.499657154083252
1750928848179548400,12.65554833984375,-8.1185884475708,-0.01057268213480711,-5.500800132751465
1750928848198372000,12.6743720703125,-8.077153205871582,-0.10614035278558731,-5.560459613800049
1750928848217196000,12.693196044921875,-8.061799049377441,-0.16545583307743073,-5.581254959106445
1750928848236019700,12.712019775390624,-8.066160202026367,-0.15764452517032623,-5.575178623199463
1750928848254843600,12.73084375,-8.07877254486084,-0.11139103025197983,-5.558002948760986
1750928848273667300,12.749667236328126,-8.08525562286377,-0.047682784497737885,-5.5494818687438965
1750928848292491300,12.7684912109375,-8.078153610229492,0.001991809345781803,-5.560019016265869
1750928848311315000,12.78731494140625,-8.061516761779785,0.022258421406149864,-5.584068298339844
1750928848330138600,12.806138671875,-8.038543701171875,0.03785806894302368,-5.617006778717041
1750928848348962600,12.824962646484375,-8.010939598083496,0.08743906021118164,-5.655757904052734
1750928848367786200,12.8437861328125,-7.960718631744385,0.15347307920455933,-5.724839687347412
1750928848386610200,12.862610107421874,-7.881835460662842,0.1965291053056717,-5.831674575805664
1750928848405433900,12.881433837890626,-7.79780912399292,0.2442721575498581,-5.941791534423828
1750928848424257800,12.9002578125,-7.7198333740234375,0.3132021725177765,-6.03957462310791
1750928848443081500,12.91908154296875,-7.6553192138671875,0.3710908591747284,-6.117905139923096
1750928848461905400,12.937905517578125,-7.603662490844727,0.40836596488952637,-6.179640293121338
1750928848480729000,12.95672900390625,-7.524180889129639,0.4024515151977539,-6.276552677154541
1750928848499553000,12.975552978515625,-7.417883396148682,0.39594992995262146,-6.40223503112793
1750928848518376700,12.994376708984374,-7.298150539398193,0.3899019956588745,-6.538758754730225
1750928848537200600,13.01320068359375,-7.209792613983154,0.3648810386657715,-6.637479782104492
1750928848556024300,13.0320244140625,-7.165112018585205,0.3291451334953308,-6.687541961669922
1750928848574848000,13.050847900390625,-7.130672454833984,0.28725749254226685,-6.72617244720459
1750928848593672000,13.069671875,-7.040095329284668,0.21652726829051971,-6.8235297203063965
1750928848612495600,13.08849560546875,-6.894615650177002,0.11926174908876419,-6.972835540771484
1750928848631319600,13.107319580078125,-6.739509105682373,0.040357209742069244,-7.123746395111084
1750928848650143200,13.126143310546874,-6.600887298583984,0.011008813977241516,-7.252486705780029
1750928848668967200,13.14496728515625,-6.4909820556640625,0.008605409413576126,-7.351017951965332
1750928848687790800,13.163790771484376,-6.413433074951172,0.001833495800383389,-7.418777942657471
1750928848706614800,13.18261474609375,-6.354416370391846,-0.005209670402109623,-7.469387531280518
1750928848725438500,13.2014384765625,-6.281026363372803,-0.014384947717189789,-7.531195163726807
1750928848744262400,13.220262451171875,-6.175858020782471,-0.020739957690238953,-7.617659091949463
1750928848763086000,13.239086181640625,-6.035089492797852,-0.02075033076107502,-7.729660987854004
1750928848781910000,13.257909912109374,-5.877985954284668,-0.020323507487773895,-7.849793910980225
1750928848800733700,13.276733642578124,-5.741735458374023,-0.01738252490758896,-7.9500041007995605
1750928848819557600,13.2955576171875,-5.656362056732178,-0.02078402414917946,-8.01096248626709
1750928848838381300,13.31438134765625,-5.609893798828125,-0.02073299139738083,-8.043572425842285
1750928848857205200,13.333205322265625,-5.557253837585449,-0.013922832906246185,-8.080045700073242
1750928848876029000,13.35202880859375,-5.470524787902832,-0.011523728258907795,-8.139018058776855
1750928848894852600,13.3708525390625,-5.383791923522949,-0.01643270067870617,-8.196640014648438
1750928848913676500,13.389676513671875,-5.307640552520752,-0.02583010122179985,-8.24613094329834
1750928848932500200,13.408500244140624,-5.252494812011719,-0.024359064176678658,-8.28136920928955
1750928848951324200,13.42732421875,-5.20408821105957,-0.010565463453531265,-8.311903953552246
1750928848970147800,13.44614794921875,-5.140200138092041,0.001524052582681179,-8.351570129394531
1750928848988971800,13.4649716796875,-5.066781520843506,0.008691268973052502,-8.396310806274414
1750928849007795500,13.48379541015625,-5.027210712432861,0.010901338420808315,-8.420060157775879
1750928849026619400,13.502619384765625,-5.027397155761719,0.011191695928573608,-8.419949531555176
1750928849045443000,13.521443115234375,-5.0093607902526855,0.006019278895109892,-8.430697441101074
1750928849064267000,13.54026708984375,-4.958327770233154,-0.011972229927778244,-8.46080493927002
1750928849083090700,13.559090576171876,-4.88295316696167,-0.03341244161128998,-8.504472732543945
1750928849101914600,13.57791455078125,-4.785710334777832,-0.050208285450935364,-8.559488296508789
1750928849120738300,13.59673828125,-4.683741092681885,-0.059688545763492584,-8.61564826965332
1750928849139562200,13.615562255859375,-4.615345478057861,-0.05980154871940613,-8.65247917175293
1750928849158386000,13.634385986328125,-4.581695079803467,-0.05271387845277786,-8.670391082763672
1750928849177209900,13.6532099609375,-4.556499481201172,-0.04864523932337761,-8.683682441711426
1750928849196033500,13.672033447265624,-4.505742073059082,-0.053551625460386276,-8.710099220275879
1750928849214857200,13.690857177734374,-4.415668487548828,-0.06858764588832855,-8.756001472473145
1750928849233681200,13.70968115234375,-4.316518783569336,-0.08252576738595963,-8.805182456970215
1750928849252504800,13.7285048828125,-4.230060577392578,-0.08046000450849533,-8.847061157226562
1750928849271328800,13.747328857421875,-4.162566661834717,-0.08763931691646576,-8.878949165344238
1750928849290152400,13.76615234375,-4.113250255584717,-0.10891278833150864,-8.901668548583984
1750928849308976400,13.784976318359375,-4.097021579742432,-0.1176576167345047,-8.909038543701172
1750928849327800000,13.803800048828125,-4.072758674621582,-0.1201709732413292,-8.920123100280762
1750928849346624000,13.8226240234375,-4.036816596984863,-0.12540367245674133,-8.936373710632324
1750928849365447700,13.84144775390625,-3.9922261238098145,-0.12445874512195587,-8.956396102905273
1750928849384271600,13.860271728515626,-3.9289629459381104,-0.12652727961540222,-8.984298706054688
1750928849403095300,13.87909521484375,-3.837494373321533,-0.14081056416034698,-9.02353572845459
1750928849421919200,13.897919189453125,-3.769261598587036,-0.15448220074176788,-9.052026748657227
1750928849440743000,13.916742919921875,-3.717571258544922,-0.1625479906797409,-9.073236465454102
1750928849459566800,13.93556689453125,-3.680233955383301,-0.16993039846420288,-9.088310241699219
1750928849478390500,13.954390625,-3.6374759674072266,-0.17484375834465027,-9.105414390563965
1750928849497214500,13.97321435546875,-3.584427833557129,-0.183841273188591,-9.126252174377441
1750928849516038100,13.9920380859375,-3.528256416320801,-0.19106413424015045,-9.147967338562012
1750928849534862000,14.010862060546875,-3.45170259475708,-0.19795532524585724,-9.176980018615723
1750928849553685800,14.029685791015625,-3.339097738265991,-0.22004006803035736,-9.218047142028809
1750928849572509700,14.048509765625,-3.1774559020996094,-0.2538522779941559,-9.274142265319824
1750928849591333400,14.06733349609375,-2.9665422439575195,-0.28242141008377075,-9.342926025390625
1750928849610157300,14.0861572265625,-2.710937023162842,-0.30743715167045593,-9.419485092163086
1750928849628981000,14.10498095703125,-2.4569482803344727,-0.33460602164268494,-9.487983703613281
1750928849647804700,14.1238046875,-2.2483344078063965,-0.3571818470954895,-9.538751602172852
1750928849666628600,14.142628662109376,-2.1141135692596436,-0.3970838487148285,-9.567822456359863
1750928849685452300,14.161452392578125,-2.056218385696411,-0.4321317672729492,-9.578914642333984
1750928849704276200,14.180276123046875,-2.050966501235962,-0.4531530439853668,-9.579070091247559
1750928849723100000,14.199099853515625,-2.0517196655273438,-0.45862507820129395,-9.578648567199707
1750928849741923800,14.217923828125,-2.042752742767334,-0.4519478678703308,-9.580881118774414
1750928849760747500,14.23674755859375,-2.0309982299804688,-0.4395862817764282,-9.583954811096191
1750928849779571500,14.255571533203126,-2.021239757537842,-0.4272604286670685,-9.58657455444336
1750928849798395100,14.27439501953125,-2.010913848876953,-0.41708478331565857,-9.589194297790527
1750928849817219000,14.293218994140625,-2.0009071826934814,-0.4138440787792206,-9.591426849365234
1750928849836042800,14.312042724609375,-1.9699040651321411,-0.42060109972953796,-9.597549438476562
1750928849854866700,14.33086669921875,-1.9200406074523926,-0.41885679960250854,-9.607726097106934
1750928849873690400,14.3496904296875,-1.816889762878418,-0.4096587598323822,-9.62816047668457
1750928849892514300,14.368514404296874,-1.6520711183547974,-0.40710511803627014,-9.657915115356445
1750928849911338000,14.387337890625,-1.4803335666656494,-0.4019823372364044,-9.685938835144043
1750928849930162000,14.406161865234376,-1.3043214082717896,-0.3929508328437805,-9.711577415466309
1750928849948985600,14.424985595703125,-1.0931376218795776,-0.38193389773368835,-9.73804759979248
1750928849967809500,14.4438095703125,-0.8793593645095825,-0.3642624616622925,-9.760350227355957
1750928849986633200,14.46263330078125,-0.678424596786499,-0.34025195240974426,-9.777235984802246
1750928850005457200,14.48145703125,-0.5144315361976624,-0.32198649644851685,-9.787854194641113
1750928850024280800,14.50028076171875,-0.406618595123291,-0.3199743628501892,-9.792990684509277
1750928850043104800,14.519104736328124,-0.34205737709999084,-0.3334802985191345,-9.79500675201416
1750928850061928400,14.537928466796876,-0.2852092385292053,-0.35733145475387573,-9.795987129211426
1750928850080752400,14.55675244140625,-0.20728641748428345,-0.38002127408981323,-9.797091484069824
1750928850099576000,14.575576171875,-0.09487880766391754,-0.39371684193611145,-9.798283576965332
1750928850118400000,14.59439990234375,0.027078378945589066,-0.38992705941200256,-9.798857688903809
1750928850137223700,14.6132236328125,0.1685246080160141,-0.3760034739971161,-9.797990798950195
1750928850156047600,14.632047607421875,0.3796288073062897,-0.3557504713535309,-9.792839050292969
1750928850174871300,14.650871337890624,0.627534031867981,-0.3197828531265259,-9.781325340270996
1750928850193695200,14.6696953125,0.8831593990325928,-0.2780546247959137,-9.762843132019043
1750928850212519000,14.688518798828126,1.0945489406585693,-0.24150517582893372,-9.742383003234863
1750928850231342800,14.7073427734375,1.226007103919983,-0.208077073097229,-9.727485656738281
1750928850250166500,14.72616650390625,1.3035454750061035,-0.18188048899173737,-9.717926025390625
1750928850268990500,14.744990478515625,1.3870229721069336,-0.1588468700647354,-9.706767082214355
1750928850287814100,14.763814208984375,1.5030139684677124,-0.1379542052745819,-9.689803123474121
1750928850306638000,14.78263818359375,1.6628901958465576,-0.12365832179784775,-9.663844108581543
1750928850325461800,14.801461669921874,1.8741214275360107,-0.11302817612886429,-9.625242233276367
1750928850344285700,14.82028564453125,2.0958468914031982,-0.11261669546365738,-9.579411506652832
1750928850363109400,14.839109375,2.249077558517456,-0.11420071125030518,-9.544580459594727
1750928850381933300,14.857933349609375,2.3398654460906982,-0.11675979942083359,-9.522698402404785
1750928850400757000,14.876757080078125,2.42230224609375,-0.12232811748981476,-9.501993179321289
1750928850419581000,14.895580810546875,2.5197815895080566,-0.12572279572486877,-9.47656536102295
1750928850438404600,14.914404541015625,2.626723527908325,-0.1245061382651329,-9.447497367858887
1750928850457228500,14.933228515625,2.7292847633361816,-0.12484460324048996,-9.418375968933105
1750928850476052200,14.95205224609375,2.8319482803344727,-0.13119588792324066,-9.387930870056152
1750928850494876200,14.970876220703126,2.9553780555725098,-0.14657793939113617,-9.349579811096191
1750928850513699800,14.989699951171875,3.0994138717651367,-0.1572909951210022,-9.302648544311523
1750928850532523500,15.0085234375,3.2727131843566895,-0.15237191319465637,-9.24318790435791
1750928850551347500,15.027347412109375,3.4601893424987793,-0.1379247009754181,-9.174880981445312
1750928850570171400,15.04617138671875,3.6149778366088867,-0.1176297590136528,-9.115288734436035
1750928850588995000,15.0649951171875,3.7454490661621094,-0.1063188910484314,-9.062599182128906
1750928850607819000,15.083819091796874,3.865518093109131,-0.09879885613918304,-9.012125015258789
1750928850626642700,15.102642578125,3.9834001064300537,-0.09388117492198944,-8.960697174072266
1750928850645466600,15.121466552734375,4.0801682472229,-0.10121731460094452,-8.916970252990723
1750928850664290300,15.140290283203125,4.14387845993042,-0.11906430870294571,-8.887321472167969
1750928850683114200,15.1591142578125,4.187419414520264,-0.1366005390882492,-8.866636276245117
1750928850701938000,15.17793798828125,4.250110626220703,-0.15048331022262573,-8.836532592773438
1750928850720761900,15.196761962890625,4.32495641708374,-0.16170772910118103,-8.799942970275879
1750928850739585500,15.21558544921875,4.398444175720215,-0.1704138070344925,-8.763278007507324
1750928850758409500,15.234409423828126,4.470594882965088,-0.16599266231060028,-8.726777076721191
1750928850777233200,15.253233154296876,4.569343566894531,-0.1388258934020996,-8.675955772399902
1750928850796057000,15.27205712890625,4.7095770835876465,-0.10788968950510025,-8.601082801818848
1750928850814880800,15.290880859375,4.827862739562988,-0.08290432393550873,-8.535528182983398
1750928850833704700,15.30970458984375,4.89393949508667,-0.06492097675800323,-8.49797248840332
1750928850852528400,15.3285283203125,4.923657417297363,-0.04867061227560043,-8.480896949768066
1750928850871352300,15.347352294921874,4.956202030181885,-0.030882542952895164,-8.462002754211426
1750928850890176000,15.366176025390626,4.997715473175049,-0.0112224742770195,-8.437601089477539
1750928850909000000,15.385,5.032818794250488,0.0018411558121442795,-8.416716575622559
1750928850927823600,15.40382373046875,5.061635494232178,0.0032467381097376347,-8.399417877197266
1750928850946647600,15.4226474609375,5.091447353363037,0.000050214457587571815,-8.381381034851074
1750928850965471200,15.44147119140625,5.1238250732421875,-0.0015175408916547894,-8.361625671386719
1750928850984295200,15.460295166015625,5.166899681091309,-0.00014310432015918195,-8.335078239440918
1750928851003118800,15.479118896484374,5.217391014099121,0.0067784758284688,-8.303563117980957
1750928851021942800,15.49794287109375,5.26084041595459,0.021623002365231514,-8.276078224182129
1750928851040766500,15.516766357421876,5.301255226135254,0.03754157945513725,-8.250192642211914
1750928851059590400,15.53559033203125,5.362118721008301,0.051484089344739914,-8.210688591003418
1750928851078414000,15.5544140625,5.427828311920166,0.04859995096921921,-8.1674165725708
1750928851097238000,15.573238037109375,5.467900276184082,0.041393570601940155,-8.140684127807617
1750928851116061700,15.592061767578125,5.498376369476318,0.04572669044137001,-8.120107650756836
1750928851134885600,15.6108857421875,5.534551620483398,0.046196579933166504,-8.095492362976074
1750928851153709300,15.629709228515624,5.626943111419678,0.002006181050091982,-8.031681060791016
1750928851172533200,15.648533203125,5.684930801391602,-0.01037941500544548,-7.990734577178955
1750928851191357000,15.66735693359375,5.705536842346191,-0.0067868162877857685,-7.976038455963135
1750928851210180900,15.686180908203125,5.751185417175293,-0.009930708445608616,-7.943182945251465
1750928851229004500,15.705004638671875,5.80706262588501,-0.022557232528924942,-7.902399063110352
1750928851247828500,15.723828369140625,5.839653015136719,-0.039020802825689316,-7.878281593322754
1750928851266652400,15.74265234375,5.861125469207764,-0.055892717093229294,-7.862218856811523
1750928851285476000,15.76147607421875,5.888215065002441,-0.0585017204284668,-7.8419318199157715
1750928851304299800,15.7802998046875,5.922253131866455,-0.043298427015542984,-7.816356182098389
1750928851323123700,15.799123779296876,5.957235813140869,-0.030102385208010674,-7.78978967666626
1750928851341947400,15.817947509765625,6.011781215667725,-0.025841930881142616,-7.7477874755859375
1750928851360771300,15.836771240234375,6.083751678466797,-0.02465650625526905,-7.691407203674316
1750928851379595300,15.85559521484375,6.159067153930664,-0.024107573553919792,-7.631232261657715
1750928851398419000,15.8744189453125,6.220121383666992,-0.026791460812091827,-7.581540107727051
1750928851417243000,15.893242919921875,6.285820960998535,-0.03986411914229393,-7.527101039886475
1750928851436066600,15.912066650390624,6.381145000457764,-0.06436292082071304,-7.446289539337158
1750928851454890500,15.930890380859376,6.485028266906738,-0.09044045954942703,-7.355718612670898
1750928851473714200,15.949714111328126,6.573511600494385,-0.0880633071064949,-7.2767839431762695
1750928851492538000,15.9685380859375,6.625417709350586,-0.08735840767621994,-7.229564189910889
1750928851511361800,15.98736181640625,6.664984703063965,-0.09691217541694641,-7.1929802894592285
1750928851530185700,16.006185791015625,6.691143989562988,-0.11054926365613937,-7.168456554412842
1750928851549009400,16.025009521484375,6.720654487609863,-0.11770603060722351,-7.140682220458984
1750928851567833300,16.043833251953124,6.774372577667236,-0.12301783263683319,-7.089649677276611
1750928851586657000,16.062656982421874,6.848658084869385,-0.12492651492357254,-7.017881393432617
1750928851605481000,16.08148095703125,6.9292893409729,-0.11553126573562622,-6.938443183898926
1750928851624304600,16.1003046875,7.003486633300781,-0.10298919677734375,-6.863741874694824
1750928851643128600,16.119128662109375,7.067498207092285,-0.10336491465568542,-6.797806262969971
1750928851661952300,16.1379521484375,7.128408908843994,-0.10764972865581512,-6.7338385581970215
1750928851680776200,16.156776123046875,7.201559543609619,-0.1085459515452385,-6.6555352210998535
1750928851699600000,16.175599853515624,7.298030376434326,-0.10791148245334625,-6.549618721008301
1750928851718423800,16.194423828125,7.401489734649658,-0.10562312602996826,-6.432509899139404
1750928851737247500,16.21324755859375,7.4903459548950195,-0.10333453863859177,-6.328855514526367
1750928851756071400,16.232071533203126,7.553394794464111,-0.10060445964336395,-6.253518104553223
1750928851774895400,16.250895263671875,7.593481540679932,-0.0893736481666565,-6.204953193664551
1750928851793719000,16.269718994140625,7.616548538208008,-0.0730297788977623,-6.176831245422363
1750928851812543000,16.28854296875,7.639150619506836,-0.054083988070487976,-6.149051189422607
1750928851831366700,16.30736669921875,7.671390533447266,-0.0363343320786953,-6.108914852142334
1750928851850190600,16.326190673828126,7.706376552581787,-0.023262271657586098,-6.064783573150635
1750928851869014300,16.34501416015625,7.735480785369873,-0.015420228242874146,-6.027642726898193
1750928851897250000,16.37325,7.7786688804626465,-0.008197125047445297,-5.971819877624512
1750928851916073700,16.39207373046875,7.821249961853027,-0.004939962178468704,-5.915945529937744
1750928851934897700,16.410897705078124,7.867427349090576,-0.0038048841524869204,-5.854396343231201
1750928851953721600,16.4297216796875,7.909825325012207,-0.007710153702646494,-5.796980381011963
1750928851972545300,16.448545166015624,7.956742763519287,-0.01718667894601822,-5.732394218444824
1750928851991369200,16.467369140625,8.018875122070312,-0.019262244924902916,-5.645145416259766
1750928852010193000,16.48619287109375,8.090814590454102,-0.014901679009199142,-5.54155969619751
1750928852029016800,16.505016845703125,8.14840316772461,-0.011798694729804993,-5.456535339355469
1750928852047840500,16.523840576171875,8.184473991394043,-0.006730655673891306,-5.402289867401123
1750928852066664400,16.54266455078125,8.219594955444336,-0.0012866887263953686,-5.348705291748047
1750928852085488000,16.561488037109374,8.263458251953125,0.01221045944839716,-5.280672073364258
1750928852104312000,16.58031201171875,8.30685806274414,0.02980051189661026,-5.212062835693359
1750928852123135700,16.5991357421875,8.339112281799316,0.038862790912389755,-5.160240650177002
1750928852141959700,16.617959716796875,8.373486518859863,0.041331931948661804,-5.10425329208374
1750928852160783400,16.636783447265625,8.419587135314941,0.03593924641609192,-5.02788782119751
1750928852179607300,16.655607177734375,8.464631080627441,0.03530583530664444,-4.95168399810791
1750928852198431200,16.67443115234375,8.49127197265625,0.03479684144258499,-4.905861854553223
1750928852217255000,16.6932548828125,8.517512321472168,0.015452250838279724,-4.8602614402771
1750928852236078800,16.712078857421876,8.548532485961914,-0.011740162037312984,-4.805501937866211
1750928852254902500,16.730902587890625,8.580517768859863,-0.02742588147521019,-4.748088359832764
1750928852273726500,16.7497265625,8.611621856689453,-0.036252763122320175,-4.691380023956299
1750928852292550100,16.768550048828125,8.650216102600098,-0.0481889434158802,-4.61972188949585
1750928852311374000,16.7873740234375,8.689332008361816,-0.06012541800737381,-4.545579433441162
1750928852330197800,16.80619775390625,8.72603702545166,-0.0691196471452713,-4.474581241607666
1750928852349021700,16.825021728515626,8.76090145111084,-0.07511334121227264,-4.405831336975098
1750928852367845400,16.843845458984376,8.798773765563965,-0.08027313649654388,-4.329610347747803
1750928852386669300,16.86266943359375,8.836950302124023,-0.0845009833574295,-4.251066207885742
1750928852405493200,16.8814931640625,8.873741149902344,-0.0844123363494873,-4.173725128173828
1750928852424317000,16.90031689453125,8.905388832092285,-0.08658961206674576,-4.105719089508057
1750928852443140900,16.919140869140627,8.927285194396973,-0.08295152336359024,-4.057966232299805
1750928852461964500,16.937964599609376,8.942415237426758,-0.08516424149274826,-4.024468421936035
1750928852480788500,16.95678857421875,8.950791358947754,-0.09404550492763519,-4.005605220794678
1750928852499612200,16.975612060546876,8.957067489624023,-0.10171181708574295,-3.9913623332977295
1750928852518436000,16.99443603515625,8.969894409179688,-0.10504458099603653,-3.9623680114746094
1750928852537259800,17.013259765625,8.988744735717773,-0.10546524077653885,-3.9194064140319824
1750928852556083700,17.032083740234373,9.008600234985352,-0.11085441708564758,-3.873399496078491
1750928852574907400,17.050907470703127,9.0224609375,-0.11795128881931305,-3.8407914638519287
1750928852593731300,17.0697314453125,9.035109519958496,-0.11927676945924759,-3.8109004497528076
1750928852612555300,17.08855517578125,9.048738479614258,-0.11213382333517075,-3.77864146232605
1750928852631379000,17.10737890625,9.061178207397461,-0.10644233226776123,-3.7488796710968018
1750928852650203000,17.126202880859374,9.078409194946289,-0.10730892419815063,-3.7069337368011475
1750928852669026600,17.145026611328124,9.104294776916504,-0.11410250514745712,-3.6426877975463867
1750928852687850500,17.1638505859375,9.130825996398926,-0.1222277283668518,-3.575397253036499
1750928852706674200,17.182674072265623,9.150279998779297,-0.12029395252466202,-3.5253796577453613
1750928852725498000,17.201498046875,9.164685249328613,-0.11004550755023956,-3.488096237182617
1750928852744321800,17.22032177734375,9.17841625213623,-0.09874139726161957,-3.452148199081421
1750928852763145700,17.239145751953124,9.193132400512695,-0.09030836820602417,-3.412996768951416
1750928852781969400,17.257969482421874,9.207646369934082,-0.08285784721374512,-3.373837471008301
1750928852800793300,17.27679345703125,9.222535133361816,-0.06675327569246292,-3.3332812786102295
1750928852819617300,17.2956171875,9.243551254272461,-0.05418306216597557,-3.2747833728790283
1750928852838441000,17.31444091796875,9.269216537475586,-0.04350358992815018,-3.2015793323516846
1750928852857265000,17.333264892578125,9.289353370666504,-0.03261222317814827,-3.142805814743042
1750928852876088600,17.352088623046875,9.302068710327148,-0.023755088448524475,-3.105051279067993
1750928852894912500,17.37091259765625,9.315055847167969,-0.018694467842578888,-3.0659027099609375
1750928852913736200,17.389736083984374,9.329218864440918,-0.010196035727858543,-3.022575855255127
1750928852932560100,17.40856005859375,9.34840202331543,-0.005699560511857271,-2.962723731994629
1750928852951383800,17.4273837890625,9.365971565246582,-0.0010965672554448247,-2.906708240509033
1750928852970207700,17.446207763671875,9.37946891784668,0.0013373078545555472,-2.862854480743408
1750928852989031700,17.46503173828125,9.390314102172852,-0.001952919876202941,-2.8270819187164307
1750928853007855400,17.48385546875,9.402006149291992,-0.012219072319567204,-2.7879254817962646
1750928853026679300,17.50267919921875,9.414122581481934,-0.02249220386147499,-2.7466676235198975
1750928853045503000,17.5215029296875,9.423832893371582,-0.023936212062835693,-2.713151216506958
1750928853064327000,17.540326904296876,9.433144569396973,-0.024144982919096947,-2.6805951595306396
1750928853083150600,17.559150634765626,9.44481372833252,-0.023524293676018715,-2.6391897201538086
1750928853101974500,17.577974609375,9.457624435424805,-0.017814163118600845,-2.592952251434326
1750928853120798200,17.596798095703125,9.472126007080078,-0.013085138984024525,-2.5395004749298096
1750928853139622100,17.6156220703125,9.486685752868652,-0.012547354213893414,-2.48455548286438
1750928853158446000,17.634446044921877,9.49898910522461,-0.015048797242343426,-2.4370827674865723
1750928853177269800,17.653269775390626,9.50933837890625,-0.0150820417329669,-2.396378755569458
1750928853196093700,17.67209375,9.521441459655762,-0.012848032638430595,-2.347846508026123
1750928853214917400,17.69091748046875,9.536114692687988,-0.007406543008983135,-2.287539482116699
1750928853233741300,17.7097412109375,9.547353744506836,0.005088689271360636,-2.240180253982544
1750928853252565000,17.72856494140625,9.548264503479004,0.019626108929514885,-2.2362139225006104
1750928853271389000,17.747388916015623,9.542381286621094,0.04065794497728348,-2.2609057426452637
1750928853290212600,17.766212646484377,9.542445182800293,0.06788348406553268,-2.259981870651245
1750928853309036500,17.78503662109375,9.557059288024902,0.08068635314702988,-2.1969287395477295
1750928853327860500,17.803860595703124,9.57787799835205,0.07228513807058334,-2.1046175956726074
1750928853346684200,17.82268408203125,9.592775344848633,0.05570102110505104,-2.036160707473755
1750928853365508000,17.841508056640624,9.601242065429688,0.05006945878267288,-1.9960014820098877
1750928853384331800,17.860331787109374,9.613357543945312,0.05584518983960152,-1.9366508722305298
1750928853403155700,17.87915576171875,9.633867263793945,0.05643974244594574,-1.831886887550354
1750928853421979400,17.8979794921875,9.662853240966797,0.06707410514354706,-1.6718671321868896
1750928853440803300,17.91680322265625,9.698976516723633,0.10133155435323715,-1.4456753730773926
1750928853459627000,17.935626953125,9.737581253051758,0.13143666088581085,-1.1543891429901123
1750928853478451000,17.954450927734374,9.76727294921875,0.14530108869075775,-0.865821123123169
1750928853497275000,17.97327490234375,9.782687187194824,0.1613764613866806,-0.6658663153648376
1750928853516098600,17.9920986328125,9.790148735046387,0.16838371753692627,-0.5431492924690247
1750928853534922500,18.010922607421875,9.79502010345459,0.16166098415851593,-0.4492539167404175
1750928853553746200,18.02974609375,9.79997730255127,0.16438712179660797,-0.3221741020679474
1750928853572570000,18.048570068359375,9.801980018615723,0.18759891390800476,-0.2374265193939209
1750928853591393800,18.067393798828125,9.801756858825684,0.2142047882080078,-0.2237585484981537
1750928853610217700,18.0862177734375,9.800480842590332,0.2398170381784439,-0.25188204646110535
1750928853629041700,18.105041748046876,9.799081802368164,0.26631346344947815,-0.2783188223838806
1750928853647865300,18.123865234375,9.797941207885742,0.2933598458766937,-0.2909899353981018
1750928853666689300,18.142689208984375,9.797708511352539,0.30379995703697205,-0.2880898118019104
1750928853685513000,18.161512939453125,9.799267768859863,0.2913902699947357,-0.24457497894763947
1750928853704337000,18.1803369140625,9.801481246948242,0.26992854475975037,-0.1688385307788849
1750928853723160600,18.19916064453125,9.803020477294922,0.25586235523223877,-0.07550704479217529
1750928853741984500,18.217984619140626,9.803478240966797,0.24910478293895721,-0.011913662776350975
1750928853760808400,18.236808349609376,9.803601264953613,0.24450884759426117,-0.0021648607216775417
1750928853779632000,18.255632080078126,9.80380630493164,0.23602955043315887,-0.007397486828267574
1750928853798456000,18.2744560546875,9.804167747497559,0.22040140628814697,0.01078256219625473
1750928853817279700,18.29327978515625,9.804441452026367,0.19959750771522522,0.059051353484392166
1750928853836103700,18.312103759765623,9.80421257019043,0.18245428800582886,0.12049815058708191
1750928853854927600,18.330927734375,9.803253173828125,0.1759106069803238,0.18886710703372955
1750928853873751300,18.349751220703126,9.802079200744629,0.17171065509319305,0.24523557722568512
1750928853892575200,18.3685751953125,9.800636291503906,0.1692769080400467,0.2987491488456726
1750928853911399000,18.38739892578125,9.79902172088623,0.16292890906333923,0.35074982047080994
1750928853930222800,18.406222900390624,9.797331809997559,0.15409648418426514,0.3986753523349762
1750928853949046500,18.425046630859374,9.79525089263916,0.14719097316265106,0.4492208957672119
1750928853967870500,18.443870361328123,9.792362213134766,0.14565409719944,0.5087381601333618
1750928853986694100,18.462694091796877,9.789655685424805,0.1357192099094391,0.5608994960784912
1750928854005518000,18.48151806640625,9.786815643310547,0.11784568428993225,0.612163782119751
1750928854024342000,18.500342041015625,9.78451919555664,0.1043754294514656,0.6501425504684448
1750928854043165700,18.519165771484374,9.783440589904785,0.10210459679365158,0.6665263175964355
1750928854061989600,18.53798974609375,9.78174114227295,0.10471846163272858,0.6906263828277588
1750928854080813300,18.556813232421874,9.781137466430664,0.11056863516569138,0.6982334852218628
1750928854099637200,18.57563720703125,9.779158592224121,0.10313510149717331,0.7265080213546753
1750928854118461200,18.594461181640625,9.775693893432617,0.08449345827102661,0.7739872336387634
1750928854137284900,18.613284912109375,9.77303409576416,0.07057742029428482,0.8082117438316345
1750928854156108800,18.63210888671875,9.773892402648926,0.059844378381967545,0.798644483089447
1750928854174932500,18.650932373046874,9.775684356689453,0.052767977118492126,0.7769224643707275
1750928854193756400,18.66975634765625,9.776763916015625,0.045648831874132156,0.7636740803718567
1750928854212580000,18.688580078125,9.77669906616211,0.04222288727760315,0.764687180519104
1750928854231404000,18.707404052734375,9.77459716796875,0.028778987005352974,0.7917210459709167
1750928854250228000,18.72622802734375,9.773042678833008,0.017499947920441628,0.81099933385849
1750928854269051600,18.7450517578125,9.773541450500488,0.0045462436974048615,0.8051508665084839
1750928854287875600,18.76387548828125,9.773460388183594,-0.020624203607439995,0.8058688044548035
1750928854316111400,18.792111328125,9.772302627563477,-0.057422854006290436,0.8180492520332336
1750928854334935000,18.81093505859375,9.770292282104492,-0.08664281666278839,0.839213490486145
1750928854353759000,18.829759033203125,9.768501281738281,-0.1232302188873291,0.8553181290626526
1750928854372582700,18.848582763671875,9.76807689666748,-0.17504402995109558,0.8511309623718262
1750928854391406600,18.867406494140624,9.765506744384766,-0.2252313792705536,0.8686438202857971
1750928854410230500,18.88623046875,9.764147758483887,-0.2428741753101349,0.8791036605834961
1750928854429054200,18.90505419921875,9.766319274902344,-0.22303974628448486,0.8600320219993591
1750928854447878100,18.923878173828125,9.768312454223633,-0.1898021250963211,0.8452534079551697
1750928854466701800,18.942701904296875,9.768896102905273,-0.1741076409816742,0.8418704867362976
1750928854485525800,18.96152587890625,9.76962661743164,-0.17583179473876953,0.8329898715019226
1750928854504349700,18.980349609375,9.770769119262695,-0.16925574839115143,0.820854127407074
1750928854523173400,18.99917333984375,9.773003578186035,-0.15441037714481354,0.7968401312828064
1750928854541997300,19.017997314453126,9.775993347167969,-0.1286972016096115,0.7640646696090698
1750928854560821000,19.036821044921876,9.77884292602539,-0.10073170065879822,0.731067419052124
1750928854579645000,19.05564501953125,9.781291007995605,-0.07610601931810379,0.7006675004959106
1750928854598468600,19.074468505859375,9.783064842224121,-0.05691967159509659,0.6773462891578674
1750928854617292500,19.09329248046875,9.784200668334961,-0.0442410446703434,0.661719799041748
1750928854636116500,19.112116455078127,9.786033630371094,-0.022854333743453026,0.6351420879364014
1750928854654940200,19.130940185546876,9.787178039550781,0.0004436347517184913,0.6176903247833252
1750928854673764000,19.14976416015625,9.786748886108398,0.010237830691039562,0.6243637204170227
1750928854692587800,19.168587890625,9.786139488220215,0.014611187390983105,0.633760929107666
1750928854711411700,19.18741162109375,9.786186218261719,0.016898874193429947,0.6329732537269592
1750928854730235400,19.2062353515625,9.786677360534668,0.02125195786356926,0.6252056956291199
1750928854749059300,19.225059326171873,9.787100791931152,0.027048151940107346,0.6183198094367981
1750928854767883300,19.24388330078125,9.786514282226562,0.026926081627607346,0.627536952495575
1750928854786707000,19.26270703125,9.78506851196289,0.02399936318397522,0.6498085260391235
1750928854805531000,19.28153076171875,9.784582138061523,0.024064427241683006,0.6570941805839539
1750928854824354600,19.3003544921875,9.785091400146484,0.026308057829737663,0.6493710875511169
1750928854843178500,19.319178466796874,9.786006927490234,0.026131534948945045,0.6354320049285889
1750928854862002400,19.33800244140625,9.787025451660156,0.02752459980547428,0.6194911599159241
1750928854880826000,19.356826171875,9.787158012390137,0.024668801575899124,0.6175108551979065
1750928854899650000,19.375650146484375,9.786291122436523,0.01625172235071659,0.6313585042953491
1750928854918473700,19.3944736328125,9.785689353942871,0.005787513218820095,0.6408186554908752
1750928854937297700,19.413297607421875,9.785983085632324,-0.002784054260700941,0.6363382935523987
1750928854956121600,19.43212158203125,9.786541938781738,-0.005257678218185902,0.6276558637619019
1750928854974945300,19.4509453125,9.78676986694336,-0.004538467153906822,0.6240997314453125
1750928854993769200,19.469769287109376,9.786103248596191,-0.010790889151394367,0.6343902349472046
1750928855012593000,19.488593017578125,9.784750938415527,-0.024014296010136604,0.6545774936676025
1750928855031416800,19.507416748046875,9.783534049987793,-0.036408714950084686,0.6719555258750916
1750928855050240800,19.52624072265625,9.783379554748535,-0.040788326412439346,0.6739514470100403
1750928855069064400,19.545064453125,9.783191680908203,-0.04353536292910576,0.6764931678771973
1750928855087888400,19.563888427734376,9.781906127929688,-0.05215327441692352,0.6942516565322876
1750928855106712000,19.582712158203126,9.780069351196289,-0.05536020174622536,0.7194201350212097
1750928855125536000,19.601535888671876,9.777336120605469,-0.0543057918548584,0.7557317614555359
1750928855144360000,19.62035986328125,9.775595664978027,-0.04746406152844429,0.7783806920051575
1750928855163183600,19.63918359375,9.774994850158691,-0.043748632073402405,0.7861003875732422
1750928855182007600,19.658007568359373,9.774556159973145,-0.03962712362408638,0.7917512059211731
1750928855200831200,19.676831298828127,9.774835586547852,-0.025317437946796417,0.788877546787262
1750928855219655200,19.6956552734375,9.775612831115723,-0.011495214886963367,0.7795130610466003
1750928855238479000,19.71447900390625,9.775403022766113,-0.010009265504777431,0.7821563482284546
1750928855257302800,19.733302734375,9.775094985961914,-0.019591061398386955,0.7858246564865112
1750928855276126700,19.752126708984374,9.775552749633789,-0.03266004100441933,0.7796716094017029
1750928855294950400,19.770950439453124,9.77765941619873,-0.03193617984652519,0.752828061580658
1750928855313774300,19.7897744140625,9.780345916748047,-0.02043827995657921,0.7175013422966003
1750928855332598300,19.808598388671875,9.781717300415039,-0.004086254630237818,0.6988387107849121
1750928855351422000,19.827421875,9.7821683883667,0.007826052606105804,0.6924638152122498
1750928855370246000,19.846245849609375,9.782118797302246,0.02223089709877968,0.6928512454032898
1750928855389069600,19.865069580078124,9.780872344970703,0.033515747636556625,0.7097880840301514
1750928855407893500,19.8838935546875,9.779324531555176,0.04311814531683922,0.7302997708320618
1750928855426717400,19.902717529296876,9.778216361999512,0.05512579157948494,0.7441991567611694
1750928855445541000,19.921541015625,9.777078628540039,0.07075659930706024,0.7577019929885864
1750928855464365000,19.940364990234375,9.773764610290527,0.07335610687732697,0.7990813255310059
1750928855483188700,19.959188720703125,9.768409729003906,0.06912102550268173,0.8624250292778015
1750928855502012700,19.9780126953125,9.762221336364746,0.06700082868337631,0.9300150275230408
1750928855520836600,19.996836669921876,9.75794506072998,0.06939458847045898,0.973691999912262
1750928855539660300,20.015660400390626,9.756929397583008,0.07430495321750641,0.983463704586029
1750928855558484200,20.034484130859376,9.758944511413574,0.08042590320110321,0.9627575278282166
1750928855577308000,20.053307861328125,9.759818077087402,0.09402859956026077,0.9526320695877075
1750928855596131800,20.0721318359375,9.759722709655762,0.10812580585479736,0.9521034359931946
1750928855614955800,20.090955810546873,9.759781837463379,0.11817973107099533,0.9503024220466614
1750928855633779500,20.109779541015627,9.760283470153809,0.12380020320415497,0.9444174766540527
1750928855652603400,20.128603271484376,9.760448455810547,0.11784962564706802,0.9434759020805359
1750928855671427000,20.147427001953126,9.759504318237305,0.11014237999916077,0.9541175365447998
1750928855690251000,20.1662509765625,9.758809089660645,0.10218658298254013,0.962075412273407
1750928855709075000,20.185074951171874,9.758123397827148,0.08785559237003326,0.970400869846344
1750928855727898600,20.203898681640624,9.757079124450684,0.06450814753770828,0.9826737642288208
1750928855746722600,20.22272265625,9.757018089294434,0.03868883475661278,0.9846237301826477
1750928855765546200,20.241546142578127,9.757925987243652,0.015140904113650322,0.9762333631515503
1750928855784370200,20.2603701171875,9.759337425231934,-0.00670034671202302,0.9621155261993408
1750928855803194000,20.279194091796874,9.761368751525879,-0.029782922938466072,0.940850555896759
1750928855822017800,20.298017822265624,9.764569282531738,-0.05068660527467728,0.9060948491096497
1750928855840841700,20.316841796875,9.76806926727295,-0.06969401240348816,0.8662294149398804
1750928855859665400,20.33566552734375,9.772029876708984,-0.076983243227005,0.8196883201599121
1750928855878489300,20.3544892578125,9.775430679321289,-0.0734538659453392,0.7784338593482971
1750928855897313300,20.373313232421875,9.779727935791016,-0.054521214216947556,0.7241080403327942
1750928855916137000,20.392136962890625,9.782790184020996,-0.030873825773596764,0.6829683184623718
1750928855934961000,20.4109609375,9.78349494934082,-0.0017489012097939849,0.6735088229179382
1750928855953784800,20.429784912109376,9.784469604492188,0.034621961414813995,0.6582887172698975
1750928855972608500,20.4486083984375,9.786870002746582,0.07996955513954163,0.6173967123031616
1750928855991432400,20.467432373046876,9.788178443908691,0.12247118353843689,0.5890259146690369
1750928856010256100,20.486256103515625,9.787256240844727,0.15051168203353882,0.5977906584739685
1750928856029080000,20.505080078125,9.785037994384766,0.17067687213420868,0.6279248595237732
1750928856047904000,20.523904052734373,9.782916069030762,0.1903064101934433,0.65476393699646
1750928856066727700,20.542727783203127,9.781193733215332,0.21685463190078735,0.6720123291015625
1750928856085551600,20.561551513671876,9.780485153198242,0.25309860706329346,0.6696653962135315
1750928856104375300,20.580375244140626,9.782011985778809,0.29896748065948486,0.6270884871482849
1750928856123199200,20.59919921875,9.782722473144531,0.34892264008522034,0.5890519022941589
1750928856142023200,20.618023193359374,9.781213760375977,0.3983713388442993,0.5827071666717529
1750928856160846800,20.636846923828124,9.778106689453125,0.4495263993740082,0.5974586606025696
1750928856179670800,20.6556708984375,9.775672912597656,0.5053218007087708,0.5926711559295654
1750928856198494700,20.67449462890625,9.77430534362793,0.560090959072113,0.5653628706932068
1750928856217318400,20.693318359375,9.772374153137207,0.5987592339515686,0.5590827465057373
1750928856236142300,20.712142333984374,9.768182754516602,0.625359833240509,0.6015895009040833
1750928856254966300,20.73096630859375,9.762292861938477,0.6668983697891235,0.6505932807922363
1750928856273790000,20.7497900390625,9.7564697265625,0.7161186337471008,0.6847378611564636
1750928856292614000,20.76861376953125,9.75113296508789,0.7532745003700256,0.7199746370315552
1750928856311437600,20.7874375,9.749403953552246,0.7926241755485535,0.7008922696113586
1750928856330261500,20.806261474609375,9.750046730041504,0.8422147631645203,0.6306056380271912
1750928856349085200,20.825085205078125,9.749292373657227,0.8820440173149109,0.5862603187561035
1750928856367909000,20.8439091796875,9.746403694152832,0.9035118222236633,0.6013785004615784
1750928856386733000,20.862733154296876,9.743518829345703,0.9086183905601501,0.6392529606819153
1750928856405556700,20.881556640625,9.742193222045898,0.907582700252533,0.660559356212616
1750928856424380700,20.900380615234376,9.74179744720459,0.9086034297943115,0.6649997234344482
1750928856443204600,20.91920458984375,9.741338729858398,0.9120667576789856,0.6669535636901855
1750928856462028300,20.9380283203125,9.739754676818848,0.9150013327598572,0.6858029961585999
1750928856480852200,20.956852294921877,9.737518310546875,0.916439950466156,0.71501624584198
1750928856499676200,20.97567626953125,9.735869407653809,0.9190446138381958,0.7338889837265015
1750928856518499800,20.994499755859376,9.735221862792969,0.9378639459609985,0.7185077667236328
1750928856537323800,21.01332373046875,9.733766555786133,0.9857727885246277,0.672629177570343
1750928856556147500,21.0321474609375,9.730456352233887,1.0609130859375,0.6025493741035461
1750928856574971400,21.050971435546874,9.724347114562988,1.1528419256210327,0.5276495218276978
1750928856593795300,21.06979541015625,9.716270446777344,1.2334065437316895,0.4931182563304901
1750928856612619000,21.088618896484373,9.706870079040527,1.308161973953247,0.48556652665138245
1750928856631443000,21.10744287109375,9.69829273223877,1.3702802658081055,0.48562100529670715
1750928856650267000,21.126266845703125,9.69030475616455,1.426509141921997,0.4831627607345581
1750928856669090600,21.145090576171874,9.682734489440918,1.480814814567566,0.47141045331954956
1750928856687914500,21.16391455078125,9.675925254821777,1.5309978723526,0.4504537880420685
1750928856706738200,21.18273828125,9.668391227722168,1.584342122077942,0.42712557315826416
1750928856725562000,21.20156201171875,9.656390190124512,1.657320261001587,0.4216668903827667
1750928856744386000,21.220385986328125,9.64277458190918,1.7425475120544434,0.38836419582366943
1750928856763209700,21.239209716796875,9.628750801086426,1.8242688179016113,0.35998260974884033
1750928856782033700,21.25803369140625,9.613435745239258,1.8991117477416992,0.3815818130970001
1750928856800857600,21.276857666015626,9.595839500427246,1.9833766222000122,0.3955494463443756
1750928856819681300,21.295681396484376,9.582690238952637,2.056556463241577,0.3361864387989044
1750928856838505200,21.314505126953126,9.573580741882324,2.1076574325561523,0.27331453561782837
1750928856857329000,21.333328857421876,9.562383651733398,2.160407066345215,0.25267350673675537
1750928856876152800,21.35215283203125,9.543685913085938,2.242366075515747,0.24544575810432434
1750928856894976800,21.370976806640623,9.521732330322266,2.3358891010284424,0.2249889075756073
1750928856913800400,21.389800537109377,9.504918098449707,2.4056015014648438,0.19999468326568604
1750928856932624400,21.408624267578126,9.497397422790527,2.436129331588745,0.1873597949743271
1750928856951448300,21.4274482421875,9.4951171875,2.446418285369873,0.16783039271831512
1750928856970272000,21.44627197265625,9.488405227661133,2.473301649093628,0.15273112058639526
1750928856989096000,21.465095947265624,9.473445892333984,2.5317087173461914,0.12105948477983475
1750928857007919600,21.483919677734374,9.456230163574219,2.597323417663574,0.06329414248466492
1750928857026743600,21.50274365234375,9.435900688171387,2.670811891555786,-0.030435670167207718
1750928857045567500,21.5215673828125,9.414015769958496,2.745025873184204,-0.10730773210525513
1750928857064391200,21.54039111328125,9.397950172424316,2.798840284347534,-0.12410490959882736
1750928857083215000,21.559215087890625,9.383475303649902,2.8477871417999268,-0.10430526733398438
1750928857102039000,21.5780390625,9.366156578063965,2.9056763648986816,-0.0504208467900753
1750928857120862700,21.59686279296875,9.347225189208984,2.966434955596924,-0.005665173754096031
1750928857139686700,21.615686767578126,9.325868606567383,3.0328989028930664,-0.008701561950147152
1750928857158510600,21.634510498046875,9.30191421508789,3.1053977012634277,-0.03574385866522789
1750928857177334300,21.653334228515625,9.281357765197754,3.1656863689422607,-0.07212664932012558
1750928857196158200,21.672158203125,9.265775680541992,3.2117979526519775,-0.011714373715221882
1750928857214982100,21.690982177734377,9.254043579101562,3.2429940700531006,0.1267816722393036
1750928857233805800,21.709805908203126,9.240715026855469,3.270773410797119,0.28566449880599976
1750928857252629800,21.728629638671876,9.221573829650879,3.306992292404175,0.44357427954673767
1750928857271453400,21.747453369140626,9.193684577941895,3.364506483078003,0.5715320706367493
1750928857290277400,21.76627734375,9.1566743850708,3.4408657550811768,0.6972379088401794
1750928857309101300,21.785101318359374,9.126054763793945,3.4999053478240967,0.7976042628288269
1750928857327925000,21.803925048828123,9.096092224121094,3.562410593032837,0.8606558442115784
1750928857346749000,21.8227490234375,9.05374526977539,3.6583738327026367,0.9035464525222778
1750928857365572900,21.84157275390625,8.998207092285156,3.7919840812683105,0.9074776768684387
1750928857384396500,21.860396484375,8.936226844787598,3.9539601802825928,0.8248852491378784
1750928857403220500,21.879220458984374,8.880396842956543,4.099879264831543,0.7070567607879639
1750928857422044400,21.89804443359375,8.836490631103516,4.201554775238037,0.6586141586303711
1750928857440868000,21.9168681640625,8.80754280090332,4.251132011413574,0.7248881459236145
1750928857459692000,21.935692138671875,8.780699729919434,4.281896591186523,0.8573510050773621
1750928857478516000,21.954515869140625,8.751750946044922,4.322262763977051,0.9461923837661743
1750928857497339600,21.973339599609375,8.723471641540527,4.375969409942627,0.9603780508041382
1750928857516163600,21.99216357421875,8.69897174835205,4.4304304122924805,0.9325045347213745
1750928857534987500,22.010987548828126,8.670269966125488,4.494668960571289,0.8914963006973267
1750928857553811200,22.029811279296876,8.621515274047852,4.597716331481934,0.8371760845184326
1750928857572635100,22.04863525390625,8.54918098449707,4.739704608917236,0.785561203956604
1750928857591459000,22.067458984375,8.462636947631836,4.899385452270508,0.7417461276054382
1750928857610282800,22.08628271484375,8.3742094039917,5.056028366088867,0.6925215125083923
1750928857629106700,22.105106689453127,8.285187721252441,5.208675384521484,0.6290870904922485
1750928857647930600,22.1239306640625,8.196442604064941,5.356633186340332,0.5433218479156494
1750928857666754300,22.14275439453125,8.115713119506836,5.485504150390625,0.46349823474884033
1750928857685578200,22.161578125,8.045611381530762,5.590993881225586,0.4234450161457062
1750928857704402000,22.18040185546875,7.98222017288208,5.682382106781006,0.40630006790161133
1750928857723225900,22.199225830078124,7.931342601776123,5.754546642303467,0.38652560114860535
1750928857742049800,22.2180498046875,7.897755146026611,5.805540084838867,0.30258166790008545
1750928857760873500,22.23687353515625,7.871049404144287,5.846414566040039,0.1908160150051117
1750928857779697400,22.255697509765625,7.836971282958984,5.893897533416748,0.11932528018951416
1750928857798521300,22.274521240234375,7.801926612854004,5.94113826751709,0.05658706650137901
1750928857817345300,22.29334521484375,7.765773773193359,5.988568305969238,-0.013704891316592693
1750928857836169000,22.3121689453125,7.714144706726074,6.054469108581543,-0.07586216181516647
1750928857854993000,22.330992919921876,7.6544904708862305,6.12890100479126,-0.1253546178340912
1750928857873816800,22.34981689453125,7.600990295410156,6.194176197052002,-0.16589100658893585
1750928857892640500,22.368640625,7.5447163581848145,6.26200532913208,-0.1869099885225296
1750928857911464400,22.38746435546875,7.473470211029053,6.346356391906738,-0.20344628393650055
1750928857930288400,22.406288330078127,7.395711421966553,6.436144828796387,-0.2233300507068634
1750928857949112000,22.425112060546876,7.323127269744873,6.518288612365723,-0.23263894021511078
1750928857967936000,22.44393603515625,7.252045154571533,6.597182750701904,-0.2353665977716446
1750928857986760000,22.462760009765624,7.175151824951172,6.680876731872559,-0.23123736679553986
1750928858005583600,22.48158349609375,7.090384006500244,6.771193027496338,-0.21859325468540192
1750928858024407600,22.500407470703124,7.002766132354736,6.862407207489014,-0.1975371390581131
1750928858043231500,22.5192314453125,6.909202575683594,6.957274913787842,-0.1721143275499344
1750928858062055200,22.53805517578125,6.813043117523193,7.052138805389404,-0.14196212589740753
1750928858080879000,22.556879150390625,6.72263240814209,7.13898229598999,-0.10741633176803589
1750928858099703000,22.575703125,6.6459150314331055,7.210761070251465,-0.0844174474477768
1750928858118526700,22.594526611328124,6.579695224761963,7.271358013153076,-0.07308664172887802
1750928858137350700,22.6133505859375,6.521852493286133,7.3234381675720215,-0.05551915988326073
1750928858156174600,22.632174560546876,6.460046291351318,7.378084659576416,-0.04546085372567177
1750928858174998300,22.650998291015625,6.394029140472412,7.435305595397949,-0.05491161718964577
1750928858193822200,22.669822265625,6.331408500671387,7.488577365875244,-0.06977398693561554
1750928858212646100,22.688646240234377,6.270966053009033,7.538806915283203,-0.10840853303670883
1750928858231469800,22.7074697265625,6.190946578979492,7.603384494781494,-0.17636555433273315
1750928858250293800,22.726293701171876,6.098076343536377,7.676547050476074,-0.23337753117084503
1750928858269117700,22.74511767578125,5.988350868225098,7.760572910308838,-0.2890471816062927
1750928858287941600,22.763941650390624,5.870662212371826,7.848053932189941,-0.3372894525527954
1750928858306765300,22.782765380859374,5.761744976043701,7.9262847900390625,-0.38301488757133484
1750928858325589200,22.80158935546875,5.668042182922363,7.990964889526367,-0.4337829351425171
1750928858344413200,22.8204130859375,5.58599853515625,8.044389724731445,-0.5047740340232849
1750928858363236900,22.83923681640625,5.522747039794922,8.08241081237793,-0.5867615342140198
1750928858382060800,22.858060791015625,5.4730401039123535,8.11068058013916,-0.6580869555473328
1750928858400884700,22.876884765625,5.426652908325195,8.137016296386719,-0.7146861553192139
1750928858419708400,22.89570849609375,5.37774658203125,8.16563892364502,-0.7566847801208496
1750928858438532400,22.914532470703126,5.3189005851745605,8.201805114746094,-0.7810717821121216
1750928858457356300,22.933356201171875,5.259269714355469,8.241168975830078,-0.7704519629478455
1750928858476180000,22.952179931640625,5.19635534286499,8.284042358398438,-0.7368428111076355
1750928858495004000,22.97100390625,5.121842384338379,8.33322525024414,-0.7031810879707336
1750928858513827800,22.989827880859377,5.029489040374756,8.389995574951172,-0.6947050094604492
1750928858532651500,23.008651611328126,4.94207763671875,8.441024780273438,-0.7038089036941528
1750928858551475500,23.027475341796876,4.877029895782471,8.477411270141602,-0.7200478315353394
1750928858570299400,23.04629931640625,4.821049213409424,8.50683879852295,-0.7493751049041748
1750928858589123300,23.065123291015624,4.759897708892822,8.538661003112793,-0.7778316140174866
1750928858607947000,23.083947021484374,4.709925174713135,8.56521224975586,-0.7900224924087524
1750928858626771000,23.10277099609375,4.683655738830566,8.579930305480957,-0.7864878177642822
1750928858645595000,23.121594970703125,4.662187099456787,8.59232234954834,-0.7787190079689026
1750928858664418600,23.14041845703125,4.620001792907715,8.61562442779541,-0.772646963596344
1750928858683242500,23.159242431640624,4.562559127807617,8.64703369140625,-0.7630472183227539
1750928858702066400,23.17806640625,4.514135360717773,8.673653602600098,-0.7488030195236206
1750928858720890000,23.19689013671875,4.475619792938232,8.694221496582031,-0.741431713104248
1750928858739714000,23.215714111328126,4.425604820251465,8.719327926635742,-0.7468094825744629
1750928858758538000,23.2345380859375,4.358585357666016,8.751275062561035,-0.7670149803161621
1750928858777361700,23.253361572265625,4.264894962310791,8.794835090637207,-0.7949478626251221
1750928858796185600,23.272185546875,4.147375106811523,8.84842586517334,-0.8215889930725098
1750928858815009500,23.291009521484376,4.0051703453063965,8.910441398620605,-0.8561785817146301
1750928858833833500,23.30983349609375,3.8537933826446533,8.975534439086914,-0.870891273021698
1750928858852657200,23.3286572265625,3.7103328704833984,9.038305282592773,-0.8443076610565186
1750928858871481000,23.347481201171874,3.6000499725341797,9.087749481201172,-0.7892008423805237
1750928858890305000,23.366304931640624,3.5221240520477295,9.122438430786133,-0.7390165328979492
1750928858909128700,23.385128662109373,3.4755258560180664,9.143181800842285,-0.7023724317550659
1750928858927952600,23.40395263671875,3.442401647567749,9.156972885131836,-0.6856327652931213
1750928858946776600,23.422776611328125,3.4328160285949707,9.162165641784668,-0.6639916896820068
1750928858965600500,23.4416005859375,3.4490151405334473,9.15771484375,-0.6410486102104187
1750928858984424200,23.460424072265624,3.4603233337402344,9.155077934265137,-0.6173363924026489
1750928859003248000,23.479248046875,3.438755750656128,9.16507339477539,-0.588870108127594
1750928859022072000,23.498072021484376,3.395411491394043,9.183505058288574,-0.5520976781845093
1750928859040895700,23.516895751953125,3.3531243801116943,9.201103210449219,-0.5163853168487549
1750928859059719700,23.5357197265625,3.317919969558716,9.215378761291504,-0.4884565472602844
1750928859078543600,23.554543701171873,3.2848851680755615,9.228402137756348,-0.46531590819358826
1750928859097367600,23.573367431640627,3.2540361881256104,9.240538597106934,-0.4405505061149597
1750928859116191200,23.592191162109376,3.2032339572906494,9.259015083312988,-0.4246603846549988
1750928859135015200,23.61101513671875,3.1154468059539795,9.289332389831543,-0.4155559539794922
1750928859153839000,23.629839111328124,2.985869884490967,9.332112312316895,-0.40820902585983276
1750928859172662800,23.648662841796874,2.8283402919769287,9.381426811218262,-0.3996458053588867
1750928859191486700,23.66748681640625,2.642947196960449,9.436030387878418,-0.3828158974647522
1750928859210310700,23.686310546875,2.4249298572540283,9.49545669555664,-0.35554519295692444
1750928859229134600,23.705134521484375,2.170036792755127,9.557758331298828,-0.33254870772361755
1750928859247958300,23.723958251953125,1.898154854774475,9.61578369140625,-0.3226222097873688
1750928859266782200,23.7427822265625,1.5907036066055298,9.671345710754395,-0.32423126697540283
1750928859285606100,23.761606201171876,1.2683085203170776,9.71841812133789,-0.3378249406814575
1750928859304429800,23.780429931640626,0.9705045223236084,9.752145767211914,-0.35238102078437805
1750928859323253800,23.799253662109376,0.7228423953056335,9.7735595703125,-0.35412201285362244
1750928859342077700,23.81807763671875,0.5442436337471008,9.786150932312012,-0.3246825933456421
1750928859360901600,23.836901611328123,0.43533727526664734,9.793106079101562,-0.27558717131614685
1750928859379725300,23.855725341796877,0.3518708050251007,9.797342300415039,-0.24216939508914948
1750928859398549200,23.87454931640625,0.25633561611175537,9.800395965576172,-0.23857586085796356
1750928859417373200,23.893373291015624,0.14720728993415833,9.802599906921387,-0.24029068648815155
1750928859436196900,23.91219677734375,0.04360340163111687,9.804079055786133,-0.2202344685792923
1750928859455020800,23.931020751953124,-0.05390014499425888,9.804951667785645,-0.1743788719177246
1750928859473844700,23.9498447265625,-0.16211463510990143,9.804707527160645,-0.10867255926132202
1750928859492668400,23.96866845703125,-0.2854633033275604,9.802342414855957,-0.054723381996154785
