time,seconds_elapsed,z,y,x
1750928835784098000,0.26009814453125,0.0824667438864708,0.019394956529140472,-0.18600831925868988
1750928835812333600,0.28833349609375,0.21807873249053955,-0.15042544901371002,-0.09315688163042068
1750928835831157200,0.3071572265625,0.2009745091199875,-0.08078686892986298,0.05940660089254379
1750928835849981000,0.32598095703125,0.17287473380565643,-0.11499529331922531,0.1363755613565445
1750928835868804900,0.344804931640625,0.10567960888147354,-0.09789107739925385,0.09605848789215088
1750928835887628500,0.363628662109375,0.0409279391169548,0.002290742937475443,0.08384118974208832
1750928835906452200,0.3824521484375,0.009162971749901772,0.12431098520755768,0.039858926087617874
1750928835925276000,0.40127587890625,-0.01649334840476513,0.16707152128219604,0.016646064817905426
1750928835944099600,0.420099609375,-0.017715077847242355,0.08399390429258347,0.03130681812763214
1750928835962923300,0.43892333984375,0.029932374134659767,-0.06856957077980042,0.039858926087617874
1750928835981747000,0.457746826171875,0.05803215503692627,-0.06490438431501389,0.045967575162649155
1750928836000571000,0.47657080078125,0.0360410213470459,0.05833758786320686,0.06062832847237587
1750928836019394600,0.49539453125,-0.02626718580722809,0.21838416159152985,0.06795870512723923
1750928836038218200,0.51421826171875,-0.0665842592716217,0.28435754776000977,0.010537417605519295
1750928836057042000,0.5330419921875,-0.0665842592716217,0.24526220560073853,-0.061391908675432205
1750928836075865600,0.551865478515625,-0.07269290834665298,0.20372340083122253,-0.12125665694475174
1750928836094689300,0.570689208984375,-0.08124501258134842,0.19639302790164948,-0.13225223124027252
1750928836113513200,0.58951318359375,-0.09468404203653336,0.21227550506591797,-0.13469567894935608
1750928836132337000,0.6083369140625,-0.07147117704153061,0.17073670029640198,-0.1127045527100563
1750928836151160600,0.62716064453125,-0.05192350596189499,0.10109812021255493,-0.05894844979047775
1750928836169984300,0.645984375,-0.007941242307424545,0.03145953640341759,-0.035735588520765305
1750928836188808000,0.664807861328125,0.001832594396546483,0.004734201822429895,-0.009010255336761475
1750928836207632000,0.6836318359375,-0.006719512399286032,0.03634645417332649,0.008093958720564842
1750928836226455600,0.70245556640625,-0.017715077847242355,0.06933315098285675,-0.005345067009329796
1750928836245279200,0.721279296875,-0.025045456364750862,0.054672397673130035,-0.03940077871084213
1750928836264103000,0.74010302734375,-0.047036588191986084,0.07422006875276566,-0.03817904740571976
1750928836282926600,0.758926513671875,-0.05803215503692627,0.07055488228797913,-0.03817904740571976
1750928836301750500,0.77775048828125,-0.025045456364750862,-0.009926552884280682,-0.04550942778587341
1750928836320574200,0.79657421875,-0.029932374134659767,-0.02214384824037552,-0.024740023538470268
1750928836339398000,0.81539794921875,-0.01649334840476513,-0.016035201027989388,-0.01740964688360691
1750928836358221600,0.8342216796875,-0.02260199747979641,-0.0001527161948615685,-0.007788525894284248
1750928836377045200,0.853045166015625,-0.0409279391169548,0.04016435891389847,-0.006566796451807022
1750928836395869200,0.871869140625,-0.029932374134659767,0.030390523374080658,-0.009010255336761475
1750928836414692900,0.89069287109375,-0.07024945318698883,0.10598503798246384,-0.018631376326084137
1750928836433516500,0.9095166015625,-0.03848448023200035,0.0668896958231926,-0.019853105768561363
1750928836452340200,0.92834033203125,-0.025045456364750862,0.018173227086663246,-0.01511890348047018
1750928836471164000,0.947163818359375,-0.049480047076940536,0.06933315098285675,-0.031001387163996696
1750928836489987600,0.965987548828125,-0.015271619893610477,0.002290742937475443,-0.04306596517562866
1750928836508811500,0.9848115234375,-0.006719512399286032,0.007177661173045635,-0.013744457624852657
1750928836527635200,1.00363525390625,-0.043371398001909256,0.08399390429258347,0.0154243353754282
1750928836546459000,1.022458984375,-0.025045456364750862,0.025503603741526604,0.004428769461810589
1750928836565282600,1.041282470703125,-0.0616973415017128,0.024281874299049377,-0.041844237595796585
1750928836584106500,1.0601064453125,-0.07635809481143951,0.06811141967773438,-0.08949168771505356
1750928836612342000,1.088342041015625,-0.020158538594841957,0.014508038759231567,-0.024740023538470268
1750928836631165700,1.107165771484375,-0.037262752652168274,0.10354158282279968,-0.006566796451807022
1750928836649989400,1.1259892578125,-0.031154103577136993,0.07299833744764328,0.020311253145337105
1750928836668813300,1.144813232421875,-0.037262752652168274,0.03390299528837204,0.0019853105768561363
1750928836687637000,1.163636962890625,-0.07880155742168427,0.08521563559770584,-0.07605266571044922
1750928836706460700,1.182460693359375,-0.06536252796649933,0.0668896958231926,-0.0821613147854805
1750928836725284400,1.201284423828125,-0.049480047076940536,-0.0038179049734026194,0.0154243353754282
1750928836744108300,1.2201083984375,0.006719512399286032,-0.02458730712532997,0.09117157012224197
1750928836762932000,1.238931884765625,0.010384701192378998,0.01695149764418602,0.09239330142736435
1750928836781755600,1.257755615234375,-0.004276053514331579,0.032681263983249664,0.06673697382211685
1750928836800579300,1.276579345703125,-0.049480047076940536,0.12431098520755768,0.0032070400193333626
1750928836819403000,1.295403076171875,-0.08368847519159317,0.30634868144989014,-0.019853105768561363
1750928836838227000,1.31422705078125,-0.07269290834665298,0.22693626582622528,0.026419902220368385
1750928836857050600,1.333050537109375,-0.027488915249705315,0.029016077518463135,0.03497200831770897
1750928836875874300,1.351874267578125,-0.0616973415017128,0.038789913058280945,-0.016340631991624832
1750928836894698000,1.370697998046875,-0.11667517572641373,0.16584978997707367,-0.057726722210645676
1750928836913521700,1.389521728515625,-0.09957095980644226,0.2367101013660431,-0.08460476994514465
1750928836932345600,1.408345703125,-0.05803215503692627,0.14019346237182617,-0.041844237595796585
1750928836951169300,1.427169189453125,-0.03848448023200035,0.19761475920677185,0.0032070400193333626
1750928836969993000,1.445992919921875,-0.0409279391169548,0.16340632736682892,-0.024740023538470268
1750928836988816600,1.464816650390625,-0.04214967042207718,-0.04780016839504242,-0.02718348242342472
1750928837007640600,1.483640625,-0.049480047076940536,-0.3263545036315918,-0.022296564653515816
1750928837026464300,1.50246435546875,-0.09712749719619751,0.08521563559770584,0.10583232343196869
1750928837045288000,1.521287841796875,-0.08857539296150208,-0.09300415962934494,0.10094540566205978
1750928837064111600,1.540111572265625,-0.039706211537122726,-0.22739441692829132,0.0850629210472107
1750928837082935600,1.558935546875,-0.03237583488225937,0.008399390615522861,0.07284562289714813
1750928837101759200,1.57775927734375,0.01282816007733345,0.04978547990322113,-0.007788525894284248
1750928837120583000,1.5965830078125,0.05925388261675835,0.054672397673130035,-0.10415244847536087
1750928837139406600,1.615406494140625,-0.014049889519810677,0.15118902921676636,-0.08949168771505356
1750928837158230500,1.63423046875,-0.04459312930703163,0.3393353819847107,0.005650499369949102
1750928837177054200,1.65305419921875,0.047036588191986084,0.09621120244264603,0.19013166427612305
1750928837195878000,1.6718779296875,0.15699224174022675,-0.37400195002555847,0.3917170464992523
1750928837214701600,1.69070166015625,0.1496618688106537,-0.46196648478507996,0.3416261374950409
1750928837233525200,1.709525146484375,0.09834922850131989,-0.3678933084011078,0.3685041666030884
1750928837252349200,1.72834912109375,0.2315177470445633,-0.31413722038269043,0.4747946560382843
1750928837271172900,1.7471728515625,0.2156352698802948,-0.20662501454353333,0.4344775676727295
1750928837289996500,1.76599658203125,0.1997527778148651,-0.1931859850883484,0.10705405473709106
1750928837308820500,1.784820556640625,0.1337793916463852,-0.5438223481178284,-0.282524973154068
1750928837327644200,1.80364404296875,0.19730933010578156,-0.8297070860862732,-0.31551164388656616
1750928837346467800,1.8224677734375,0.29993459582328796,-0.6537780165672302,-0.06383536756038666
1750928837365291500,1.84129150390625,0.35246896743774414,-0.38011062145233154,0.06307178735733032
1750928837384115200,1.860115234375,0.3744601011276245,0.11331541836261749,-0.03817904740571976
1750928837402939100,1.878939208984375,0.2828303873538971,0.3686569035053253,-0.1029307171702385
1750928837421762800,1.8977626953125,0.19853104650974274,0.3955349326133728,-0.08338304609060287
1750928837440586500,1.91658642578125,-0.03481929376721382,0.6459894776344299,-0.34727662801742554
1750928837459410400,1.935410400390625,-0.38301220536231995,0.8402445316314697,-0.6514872908592224
1750928837478234000,1.954234130859375,-0.6835576891899109,1.2470804452896118,-0.6539307236671448
1750928837497057800,1.973057861328125,-0.5137372612953186,0.9660826325416565,-0.0565049909055233
1750928837515881500,1.991881591796875,-0.26450446248054504,0.23793183267116547,0.09850194305181503
1750928837534705200,2.010705078125,0.03481929376721382,0.03756818547844887,-0.05039634555578232
1750928837553529000,2.029529052734375,0.13500112295150757,0.04367683082818985,0.08628465235233307
1750928837572352800,2.048352783203125,0.13622283935546875,-0.06734783947467804,0.09117157012224197
1750928837591176400,2.067176513671875,0.10445787757635117,-0.11255183815956116,0.020311253145337105
1750928837610000400,2.08600048828125,0.0360410213470459,0.2257145345211029,-0.06994401663541794
1750928837628824000,2.104823974609375,-0.09834922850131989,0.3197877109050751,-0.08582650125026703
1750928837647647700,2.123647705078125,-0.17043127119541168,0.4309650957584381,-0.051618073135614395
1750928837666471400,2.142471435546875,-0.2107483446598053,0.5238165259361267,-0.06383536756038666
1750928837685295400,2.16129541015625,-0.19853104650974274,0.6789761781692505,-0.05283980444073677
1750928837704119000,2.180119140625,-0.15210533142089844,0.7009673118591309,0.06307178735733032
1750928837722942700,2.198942626953125,-0.04214967042207718,0.3295615613460541,0.06673697382211685
1750928837741766400,2.217766357421875,0.02626718580722809,0.07544180005788803,0.030085090547800064
1750928837760590000,2.236590087890625,0.007941242307424545,-0.0539088174700737,-0.05283980444073677
1750928837779414000,2.2554140625,0.06780599057674408,0.04978547990322113,-0.028405211865901947
1750928837798237700,2.27423779296875,0.15210533142089844,0.22327107191085815,0.05696314200758934
1750928837817061400,2.293061279296875,0.1337793916463852,0.42852163314819336,0.02519817277789116
1750928837835885300,2.31188525390625,0.08124501258134842,0.33322674036026,-0.1029307171702385
1750928837854709000,2.330708984375,0.07391463965177536,0.1646280586719513,-0.1127045527100563
1750928837873532700,2.34953271484375,0.13500112295150757,-0.023365577682852745,-0.04550942778587341
1750928837892356400,2.3683564453125,0.09712749719619751,0.029016077518463135,-0.012675444595515728
1750928837911180300,2.38718017578125,0.0922405794262886,-0.009926552884280682,-0.029626941308379173
1750928837930004000,2.40600390625,0.01282816007733345,-0.05757400393486023,-0.04062250629067421
1750928837948827600,2.42482763671875,-0.05070177838206291,0.0925460159778595,-0.06994401663541794
1750928837967651600,2.443651611328125,-0.11423171311616898,0.25870123505592346,-0.09193515032529831
1750928837986475300,2.462475341796875,-0.12400554865598679,0.28435754776000977,-0.05039634555578232
1750928838005299000,2.481298828125,-0.07147117704153061,0.2415970265865326,0.02764163166284561
1750928838024122600,2.50012255859375,-0.020158538594841957,0.25992295145988464,0.10827577859163284
1750928838042946600,2.518946533203125,0.009162971749901772,0.3075704276561737,0.16936226189136505
1750928838061770200,2.537770263671875,-0.006719512399286032,0.3491092324256897,0.17791436612606049
1750928838080594000,2.556593994140625,-0.04459312930703163,0.3136790692806244,0.15225805342197418
1750928838099417600,2.57541748046875,-0.0616973415017128,0.37720900774002075,0.1156061589717865
1750928838118241500,2.594241455078125,-0.04214967042207718,0.3992001414299011,0.09361502528190613
1750928838137065200,2.613065185546875,-0.01893680728971958,0.39675667881965637,0.1302669197320938
1750928838155889000,2.631888916015625,0.0054977829568088055,0.4932733178138733,0.13881902396678925
1750928838174712800,2.650712890625,0.02260199747979641,0.5299251675605774,0.09605848789215088
1750928838193536500,2.66953662109375,-0.01282816007733345,0.3698786199092865,-0.023518294095993042
1750928838212360200,2.688360107421875,-0.09346231073141098,0.17806708812713623,-0.11026109009981155
1750928838231184000,2.707183837890625,-0.15699224174022675,0.2306014597415924,-0.11881320178508759
1750928838250007800,2.7260078125,-0.1594357043504715,0.4175260663032532,-0.09682206809520721
1750928838268831500,2.74483154296875,-0.08002328872680664,0.562911868095398,-0.06505709886550903
1750928838287655200,2.7636552734375,0.025045456364750862,0.3894262909889221,-0.009010255336761475
1750928838306478800,2.782478759765625,0.0922405794262886,0.27458372712135315,0.05451968312263489
1750928838325302800,2.801302734375,0.04459312930703163,0.499381959438324,0.05818486958742142
1750928838344126500,2.82012646484375,-0.10445787757635117,0.7241802215576172,0.020311253145337105
1750928838362950100,2.8389501953125,-0.17898337543010712,0.7803797721862793,0.03252854943275452
1750928838381774000,2.857774169921875,-0.16676609218120575,0.6789761781692505,0.10216713696718216
1750928838400597800,2.87659765625,-0.11545344442129135,0.7205150127410889,0.0154243353754282
1750928838419421400,2.89542138671875,-0.047036588191986084,0.5751292109489441,-0.21410810947418213
1750928838438245000,2.9142451171875,0.01893680728971958,0.6411026120185852,-0.33628106117248535
1750928838457069000,2.933069091796875,-0.01649334840476513,0.7192932963371277,-0.32650721073150635
1750928838475892700,2.951892822265625,-0.16554436087608337,0.7046325206756592,-0.15179990231990814
1750928838494716400,2.97071630859375,-0.2412915825843811,0.5494728684425354,-0.006566796451807022
1750928838513540000,2.9895400390625,-0.1802051067352295,0.537255585193634,-0.002901607658714056
1750928838532364000,3.008364013671875,-0.049480047076940536,0.6520981788635254,-0.1334739476442337
1750928838551187700,3.027187744140625,-0.023823726922273636,0.7583886384963989,-0.3179551064968109
1750928838570011400,3.046011474609375,-0.027488915249705315,0.7498365044593811,-0.40714138746261597
1750928838588835300,3.06483544921875,-0.0409279391169548,0.5262600183486938,-0.35216355323791504
1750928838607659000,3.083658935546875,-0.043371398001909256,0.33567020297050476,-0.16768237948417664
1750928838626482700,3.102482666015625,-0.03481929376721382,0.29046618938446045,0.0032070400193333626
1750928838645306600,3.121306640625,-0.03481929376721382,0.36621344089508057,0.036193739622831345
1750928838664130300,3.14013037109375,-0.043371398001909256,0.527481734752655,-0.009010255336761475
1750928838682954000,3.1589541015625,-0.029932374134659767,0.6032289862632751,-0.047952886670827866
1750928838701777700,3.177777587890625,0.037262752652168274,0.46028661727905273,-0.04062250629067421
1750928838720601600,3.1966015625,0.006719512399286032,0.3845393657684326,0.026419902220368385
1750928838739425300,3.21542529296875,-0.08979712426662445,0.3796524703502655,0.0386371985077858
1750928838758249000,3.2342490234375,-0.1288924664258957,0.374765545129776,0.02519817277789116
1750928838777072600,3.25307275390625,-0.1081230640411377,0.499381959438324,0.0007635809597559273
1750928838795896600,3.271896484375,-0.09957095980644226,0.6508764028549194,0.0007635809597559273
1750928838814720300,3.29072021484375,-0.05192350596189499,0.5702422857284546,0.009315688163042068
1750928838833544000,3.3095439453125,-0.009162971749901772,0.2831358313560486,-0.03222311660647392
1750928838852368000,3.328367919921875,0.006719512399286032,0.16707152128219604,-0.06017018109560013
1750928838871191600,3.347191650390625,-0.010384701192378998,0.23793183267116547,-0.022296564653515816
1750928838890015200,3.36601513671875,-0.07757982611656189,0.4370737373828888,0.03741546720266342
1750928838908839200,3.384839111328125,-0.06291907280683517,0.5519163012504578,0.07651081681251526
1750928838927662800,3.403662841796875,0.03237583488225937,0.5934551358222961,0.14981459081172943
1750928838946486500,3.422486572265625,0.18264856934547424,0.5067123174667358,0.21945317089557648
1750928838965310200,3.441310302734375,0.44898560643196106,0.6191114783287048,0.25121814012527466
1750928838984134100,3.460134033203125,0.5699368119239807,0.8121446967124939,0.2756527364253998
1750928839002957800,3.478957763671875,0.5613847374916077,1.0442733764648438,0.3196350038051605
1750928839021781500,3.497781494140625,0.545502245426178,1.0015127658843994,0.585972011089325
1750928839040605400,3.51660546875,0.5064069032669067,0.907439649105072,0.5090031027793884
1750928839059429000,3.53542919921875,0.3072649836540222,0.6239983439445496,0.366060733795166
1750928839078252800,3.554252685546875,0.29016077518463135,0.5702422857284546,0.346513032913208
1750928839097076700,3.57307666015625,0.30970844626426697,0.5946768522262573,0.3477347791194916
1750928839115900400,3.591900390625,0.23029601573944092,0.5189296007156372,0.33307403326034546
1750928839134724000,3.61072412109375,0.17898337543010712,0.6386591196060181,0.25243985652923584
1750928839153547800,3.6295478515625,0.16676609218120575,0.48960810899734497,0.07040216773748398
1750928839172371700,3.648371826171875,-0.015271619893610477,0.26480987668037415,-0.06627883017063141
1750928839191195400,3.6671953125,-0.18631376326084137,0.05222893878817558,-0.05406153202056885
1750928839210019000,3.68601904296875,-0.5516108870506287,0.2770271897315979,-0.1432477980852127
1750928839228843000,3.704843017578125,-0.8680388331413269,0.09132428467273712,-0.314289927482605
1750928839247666700,3.723666748046875,-0.22663083672523499,0.07544180005788803,0.12782345712184906
1750928839266490400,3.742490478515625,-0.28405213356018066,0.2770271897315979,0.06551524996757507
1750928839285314000,3.76131396484375,-0.5320632457733154,0.16218459606170654,-0.16035200655460358
1750928839304138000,3.780137939453125,-0.30482152104377747,0.2562577724456787,0.141262486577034
1750928839322961700,3.798961669921875,-0.08979712426662445,0.45906487107276917,0.30741769075393677
1750928839341785300,3.817785400390625,0.07147117704153061,0.323452889919281,0.16569706797599792
1750928839360609300,3.836609375,0.15821397304534912,0.4786125421524048,0.1363755613565445
1750928839379433000,3.855432861328125,0.1386663019657135,0.4969384968280792,0.08628465235233307
1750928839398256600,3.874256591796875,0.031154103577136993,0.3430005609989166,-0.08949168771505356
1750928839417080600,3.89308056640625,0.03237583488225937,0.3686569035053253,-0.08093958348035812
1750928839435904300,3.911904296875,0.11545344442129135,0.5128209590911865,0.0691804364323616
1750928839454728000,3.93072802734375,0.10201441496610641,0.6508764028549194,0.08261945843696594
1750928839473551600,3.949551513671875,0.02626718580722809,0.44440412521362305,-0.17256930470466614
1750928839492375600,3.96837548828125,-0.09101885557174683,0.2929096519947052,-0.37781986594200134
1750928839511199200,3.98719921875,-0.11911863088607788,0.22449280321598053,-0.18845178186893463
1750928839530023000,4.00602294921875,-0.08979712426662445,0.6472112536430359,-0.08460476994514465
1750928839548846800,4.024846923828125,-0.1997527778148651,0.4615083336830139,-0.32528549432754517
1750928839567670500,4.04367041015625,-0.22785256803035736,0.3173442482948303,-0.25809037685394287
1750928839586494200,4.062494140625,0.02626718580722809,0.4883863925933838,-0.08460476994514465
1750928839605318100,4.081318115234375,0.31093016266822815,0.6753110289573669,-0.16035200655460358
1750928839624141800,4.100141845703125,0.2987128794193268,0.4101957082748413,-0.2715294063091278
1750928839642965500,4.118965576171875,0.4612029194831848,0.6032289862632751,-0.14217877388000488
1750928839661789400,4.13778955078125,0.3744601011276245,0.6227766275405884,-0.02611446939408779
1750928839680613000,4.156613037109375,0.24495677649974823,0.6459894776344299,0.04474584385752678
1750928839699436800,4.175436767578125,0.20341797173023224,0.6814196705818176,0.0691804364323616
1750928839718260500,4.194260498046875,0.15821397304534912,0.5897899270057678,-0.004123337101191282
1750928839737084400,4.21308447265625,0.08491020649671555,0.4981602132320404,-0.07971785217523575
1750928839755908000,4.231908203125,-0.10323614627122879,0.40897396206855774,-0.12125665694475174
1750928839774731800,4.250731689453125,-0.09468404203653336,0.374765545129776,-0.06261363625526428
1750928839793555700,4.2695556640625,-0.15699224174022675,0.5335903763771057,-0.006566796451807022
1750928839812379400,4.28837939453125,-0.14599667489528656,0.4969384968280792,-0.04428769648075104
1750928839831203000,4.307203125,-0.053145237267017365,0.25870123505592346,-0.16279546916484833
1750928839850027000,4.326027099609375,-0.015271619893610477,0.24526220560073853,-0.06261363625526428
1750928839868850700,4.3448505859375,-0.03848448023200035,0.28069236874580383,0.030085090547800064
1750928839887674400,4.36367431640625,-0.0409279391169548,0.2733619809150696,-0.02718348242342472
1750928839906498000,4.382498046875,0.0665842592716217,0.15729768574237823,-0.12736530601978302
1750928839925322000,4.401322021484375,0.0665842592716217,0.048563748598098755,-0.16646064817905426
1750928839944145700,4.420145751953125,0.043371398001909256,0.08888082206249237,-0.2360992431640625
1750928839962969600,4.438969482421875,-0.07024945318698883,0.008399390615522861,-0.30085089802742004
1750928839981793300,4.457793212890625,-0.21685700118541718,-0.13209950923919678,-0.44990190863609314
1750928840000617000,4.476616943359375,-0.23762640357017517,-0.08567378669977188,-0.49632763862609863
1750928840019440600,4.495440673828125,-0.16798780858516693,0.06566796451807022,-0.4266890585422516
1750928840038264600,4.5142646484375,-0.23884813487529755,0.40897396206855774,-0.27397283911705017
1750928840057088300,4.533088134765625,-0.2938259541988373,0.364991694688797,-0.3032943606376648
1750928840075912000,4.551911865234375,-0.31581708788871765,0.5396990180015564,-0.4303542375564575
1750928840094736000,4.57073583984375,-0.29504770040512085,0.7168498039245605,-0.49999281764030457
1750928840113559600,4.5895595703125,-0.3182605504989624,1.089477300643921,-0.3643808364868164
1750928840132383200,4.60838330078125,-0.43921178579330444,1.0491602420806885,-0.2263254076242447
1750928840151207200,4.627207275390625,-0.5283980369567871,0.5934551358222961,-0.03222311660647392
1750928840170030800,4.64603076171875,-0.6493492722511292,0.4114174246788025,0.009315688163042068
1750928840188854500,4.6648544921875,-0.7348703145980835,0.5458076596260071,-0.057726722210645676
1750928840207678200,4.68367822265625,-0.6860011219978333,0.78648841381073,-0.03451386094093323
1750928840226502100,4.702502197265625,-0.5320632457733154,0.6484329700469971,-0.031001387163996696
1750928840245325800,4.721325927734375,-0.35613417625427246,0.6411026120185852,-0.06383536756038666
1750928840264149800,4.740149658203125,-0.25350889563560486,0.4627300798892975,-0.005345067009329796
1750928840282973400,4.758973388671875,-0.22296564280986786,0.20372340083122253,0.02153298258781433
1750928840301797000,4.777797119140625,-0.1496618688106537,0.014508038759231567,0.03130681812763214
1750928840320621000,4.79662109375,-0.07757982611656189,-0.04169152304530144,0.0386371985077858
1750928840339444700,4.81544482421875,-0.021380268037319183,0.024281874299049377,0.02519817277789116
1750928840358268400,4.834268310546875,0.21197007596492767,0.17562362551689148,0.04230238497257233
1750928840377092000,4.853092041015625,0.347582072019577,0.04016435891389847,-0.02611446939408779
1750928840395916000,4.871916015625,0.46975502371788025,-0.07589995115995407,-0.035735588520765305
1750928840414739700,4.89073974609375,0.4514290690422058,0.08032871782779694,-0.04673115536570549
1750928840433563400,4.9095634765625,0.4098902642726898,0.08155044913291931,-0.03329212963581085
1750928840452387300,4.92838720703125,0.3585776388645172,-0.01359174121171236,-0.011453714221715927
1750928840471211000,4.9472109375,0.33536475896835327,0.0206166859716177,-0.021227551624178886
1750928840490034700,4.96603466796875,0.3194822669029236,0.18661919236183167,-0.004123337101191282
1750928840508858600,4.984858642578125,0.268169641494751,0.26969680190086365,-0.02611446939408779
1750928840527682300,5.003682373046875,0.20830489695072174,0.28557929396629333,-0.0102319847792387
1750928840546506000,5.022506103515625,0.15210533142089844,0.250149130821228,-0.004123337101191282
1750928840565330000,5.041329833984375,0.1545487940311432,0.22693626582622528,0.008093958720564842
1750928840584153600,5.060153564453125,0.15210533142089844,0.21960589289665222,-0.007788525894284248
1750928840602977300,5.078977294921875,0.12278381735086441,0.16707152128219604,-0.022296564653515816
1750928840621801200,5.09780126953125,0.13133592903614044,0.2684750556945801,0.023976443335413933
1750928840640625000,5.116625,0.0922405794262886,0.323452889919281,0.02519817277789116
1750928840659448600,5.135448486328125,0.029932374134659767,0.43951719999313354,0.016646064817905426
1750928840678272500,5.1542724609375,0.05192350596189499,0.6252201199531555,-0.05894844979047775
1750928840697096200,5.17309619140625,0.09834922850131989,0.7412844300270081,-0.07605266571044922
1750928840715920000,5.191919921875,0.1288924664258957,0.31612253189086914,-0.009010255336761475
1750928840734743800,5.210743896484375,0.007941242307424545,0.25992295145988464,-0.035735588520765305
1750928840753567500,5.2295673828125,0.000610864779446274,0.5213730931282043,-0.016340631991624832
1750928840772391200,5.24839111328125,0.014049889519810677,0.7339540123939514,-0.035735588520765305
1750928840791214800,5.26721484375,-0.001832594396546483,0.8817833065986633,-0.10537417232990265
1750928840810038800,5.286038818359375,0.020158538594841957,1.1688897609710693,-0.12980876863002777
1750928840828862500,5.304862548828125,0.08124501258134842,1.13712477684021,-0.1285870373249054
1750928840847686100,5.32368603515625,0.11911863088607788,0.6753110289573669,-0.13469567894935608
1750928840866510000,5.342510009765625,0.025045456364750862,0.23304490745067596,-0.12980876863002777
1750928840885333800,5.361333740234375,-0.025045456364750862,0.1366809904575348,-0.023518294095993042
1750928840904157400,5.380157470703125,0.1337793916463852,0.24037529528141022,-0.028405211865901947
1750928840922981400,5.3989814453125,-0.001832594396546483,0.5531380772590637,-0.08460476994514465
1750928840941805000,5.41780517578125,-0.08124501258134842,1.1261292695999146,-0.09926552325487137
1750928840960628700,5.436628662109375,-0.06536252796649933,1.4999784231185913,-0.05039634555578232
1750928840979452700,5.45545263671875,-0.06780599057674408,1.477987289428711,0.07162389904260635
1750928840998276400,5.4742763671875,0.010384701192378998,1.2592977285385132,0.16569706797599792
1750928841017100000,5.49310009765625,0.037262752652168274,0.8268054723739624,0.1925751268863678
1750928841035924000,5.511924072265625,0.10201441496610641,0.19639302790164948,0.14248420298099518
1750928841054747600,5.53074755859375,0.13500112295150757,-0.347123920917511,-0.022296564653515816
1750928841073571300,5.5495712890625,0.13744457066059113,-0.25671592354774475,-0.15668681263923645
1750928841092395300,5.568395263671875,0.12034036219120026,0.13041962683200836,-0.24465134739875793
1750928841111219000,5.587218994140625,0.15821397304534912,0.3430005609989166,-0.24465134739875793
1750928841130042600,5.606042724609375,0.2205221801996231,0.39797839522361755,-0.14569124579429626
1750928841148866600,5.624866455078125,0.15577052533626556,0.4101957082748413,-0.1078176349401474
1750928841167690200,5.643690185546875,0.09712749719619751,0.4016436040401459,-0.06872228533029556
1750928841186514000,5.662513916015625,0.056810423731803894,0.406530499458313,-0.04550942778587341
1750928841205337900,5.681337890625,0.009162971749901772,0.37354379892349243,-0.001679878099821508
1750928841224161500,5.70016162109375,-0.0409279391169548,0.4199695289134979,0.08384118974208832
1750928841242985200,5.718985107421875,-0.031154103577136993,0.5140427350997925,0.14004075527191162
1750928841261809200,5.73780908203125,-0.08857539296150208,0.4761691093444824,0.23655737936496735
1750928841280632800,5.7566328125,-0.12767073512077332,0.5677987933158875,0.2548833191394806
1750928841299456500,5.77545654296875,-0.08491020649671555,0.7327322959899902,0.18890993297100067
1750928841318280400,5.794280517578125,-0.0409279391169548,0.7999274134635925,0.18280129134655
1750928841337104100,5.813104248046875,-0.020158538594841957,0.7449495792388916,0.19379685819149017
1750928841355927800,5.831927734375,0.14110976457595825,0.48960810899734497,0.22434009611606598
1750928841374751700,5.850751708984375,0.22785256803035736,-0.14431680738925934,0.20723587274551392
1750928841393575400,5.869575439453125,0.1386663019657135,-0.18829907476902008,0.0850629210472107
1750928841412399000,5.888399169921875,0.08368847519159317,0.0412333719432354,0.09972367435693741
1750928841431223000,5.90722314453125,0.1130099818110466,0.15485422313213348,0.1363755613565445
1750928841450046700,5.926046630859375,0.01893680728971958,0.29535311460494995,0.12782345712184906
1750928841468870400,5.944870361328125,-0.08979712426662445,0.6056724190711975,0.17302745580673218
1750928841487694300,5.9636943359375,-0.14477495849132538,0.6362156867980957,0.1925751268863678
1750928841506518000,5.98251806640625,-0.18753549456596375,0.6056724190711975,0.18280129134655
1750928841525341700,6.001341796875,-0.14233149588108063,0.5421425104141235,0.05329795181751251
1750928841544165600,6.02016552734375,-0.10323614627122879,0.4407389461994171,-0.04550942778587341
1750928841562989300,6.0389892578125,-0.011606430634856224,0.4529562294483185,-0.05894844979047775
1750928841581813000,6.05781298828125,0.039706211537122726,0.5506945848464966,-0.0102319847792387
1750928841600637000,6.076636962890625,0.017715077847242355,0.5213730931282043,0.022754713892936707
1750928841619460600,6.095460693359375,0.01893680728971958,0.47006043791770935,-0.01511890348047018
1750928841638284300,6.1142841796875,0.039706211537122726,0.6044507026672363,-0.02718348242342472
1750928841657108200,6.133108154296875,0.0616973415017128,0.7205150127410889,-0.04673115536570549
1750928841675932000,6.151931884765625,0.05925388261675835,0.72173672914505,-0.1285870373249054
1750928841694755600,6.170755615234375,0.08979712426662445,0.8011491298675537,-0.12736530601978302
1750928841713579500,6.18957958984375,0.07635809481143951,0.9392045736312866,-0.13591741025447845
1750928841732403200,6.2084033203125,0.03848448023200035,1.1334595680236816,-0.12614357471466064
1750928841751227000,6.227226806640625,0.02626718580722809,1.21287202835083,-0.15302163362503052
1750928841770050800,6.24605078125,0.06047561392188072,0.9880737662315369,-0.1640172004699707
1750928841788874500,6.26487451171875,0.1130099818110466,0.7901535630226135,-0.16035200655460358
1750928841807698200,6.2836982421875,0.205861434340477,0.6508764028549194,-0.16523891687393188
1750928841826522000,6.302522216796875,0.1948658674955368,0.44440412521362305,-0.1127045527100563
1750928841845345800,6.321345703125,0.1484401375055313,0.2208276242017746,-0.03329212963581085
1750928841864169500,6.34016943359375,0.1533270627260208,0.14996729791164398,-0.004123337101191282
1750928841882993400,6.358993408203125,0.12156209349632263,0.20127993822097778,0.04474584385752678
1750928841901817000,6.377817138671875,0.07391463965177536,0.20372340083122253,0.09239330142736435
1750928841920640800,6.396640869140625,0.03237583488225937,0.10720676928758621,0.10094540566205978
1750928841939464700,6.415464599609375,0.011606430634856224,0.13775001466274261,0.08017600327730179
1750928841958288400,6.434288330078125,0.004276053514331579,0.18417572975158691,0.052076224237680435
1750928841977112000,6.453112060546875,-0.033597562462091446,0.2000582218170166,0.05818486958742142
1750928841995936000,6.47193603515625,-0.07269290834665298,0.29901832342147827,0.0850629210472107
1750928842014759700,6.490759765625,-0.10934479534626007,0.3992001414299011,0.10338886082172394
1750928842033583600,6.50958349609375,-0.143553227186203,0.33689191937446594,0.1107192412018776
1750928842052407300,6.5284072265625,-0.14233149588108063,0.2525925934314728,0.07895427197217941
1750928842071231000,6.54723095703125,-0.12156209349632263,0.2721402645111084,0.022754713892936707
1750928842090055000,6.566054931640625,-0.10567960888147354,0.32589635252952576,-0.002901607658714056
1750928842108878600,6.584878662109375,-0.08857539296150208,0.37110036611557007,-0.009010255336761475
1750928842127702300,6.603702392578125,-0.08124501258134842,0.3039052188396454,0.01908952370285988
1750928842146526200,6.622526123046875,-0.049480047076940536,0.24892739951610565,0.026419902220368385
1750928842165350000,6.641349853515625,0.0054977829568088055,0.26969680190086365,-0.0102319847792387
1750928842184173600,6.660173583984375,0.004276053514331579,0.3491092324256897,0.008093958720564842
1750928842202997500,6.67899755859375,-0.011606430634856224,0.374765545129776,0.03252854943275452
1750928842221821200,6.6978212890625,-0.03237583488225937,0.2525925934314728,0.0435241162776947
1750928842240644900,6.716644775390625,-0.023823726922273636,0.1389717310667038,0.03375028073787689
1750928842259468800,6.73546875,-0.020158538594841957,0.12186752259731293,0.03130681812763214
1750928842278292500,6.75429248046875,-0.03481929376721382,0.14263692498207092,0.0386371985077858
1750928842297116200,6.7731162109375,-0.047036588191986084,0.20372340083122253,0.02764163166284561
1750928842315940000,6.791940185546875,-0.027488915249705315,0.2672533392906189,-0.013744457624852657
1750928842334763800,6.810763671875,0.007941242307424545,0.3381136655807495,-0.05039634555578232
1750928842353587500,6.82958740234375,0.04214967042207718,0.3894262909889221,-0.06750056147575378
1750928842372411400,6.848411376953125,0.09346231073141098,0.46883872151374817,-0.03451386094093323
1750928842391235000,6.867235107421875,0.143553227186203,0.6594285368919373,-0.002901607658714056
1750928842410058800,6.886058837890625,0.16798780858516693,0.8292489647865295,-0.02718348242342472
1750928842428882700,6.904882568359375,0.1496618688106537,0.7840449213981628,-0.07605266571044922
1750928842447706400,6.923706298828125,0.11178825795650482,0.4944950342178345,-0.11148282140493393
1750928842466530000,6.942530029296875,0.09101885557174683,0.17684535682201385,-0.13713914155960083
1750928842485354000,6.96135400390625,0.06536252796649933,0.10965022444725037,-0.11636973917484283
1750928842504177700,6.980177734375,0.043371398001909256,0.24892739951610565,-0.06627883017063141
1750928842523001300,6.99900146484375,0.08491020649671555,0.5152644515037537,-0.019853105768561363
1750928842541825300,7.0178251953125,0.08979712426662445,0.620333194732666,-0.00045814859913662076
1750928842560649000,7.03664892578125,0.03237583488225937,0.48594292998313904,0.055741410702466965
1750928842579473000,7.055472900390625,-0.0616973415017128,0.3271180987358093,0.09850194305181503
1750928842598296600,7.074296630859375,-0.07391463965177536,0.17318016290664673,0.1363755613565445
1750928842617120300,7.093120361328125,-0.031154103577136993,0.2257145345211029,0.12171480804681778
1750928842635944200,7.111944091796875,-0.053145237267017365,0.38331764936447144,0.11804962158203125
1750928842654767900,7.130767822265625,-0.05070177838206291,0.4712821841239929,0.16081015765666962
1750928842673591600,7.149591552734375,-0.02871064469218254,0.47494736313819885,0.14981459081172943
1750928842692415500,7.16841552734375,-0.05192350596189499,0.29901832342147827,0.1314886510372162
1750928842711239200,7.1872392578125,-0.04581485688686371,0.15118902921676636,0.04841103404760361
1750928842730062800,7.206062744140625,0.017715077847242355,0.16707152128219604,-0.016340631991624832
1750928842748886800,7.22488671875,0.09712749719619751,0.4016436040401459,-0.06994401663541794
1750928842767710500,7.24371044921875,0.205861434340477,0.7657189965248108,-0.06994401663541794
1750928842786534100,7.2625341796875,0.1948658674955368,0.9831868410110474,-0.011453714221715927
1750928842805358000,7.281358154296875,0.12644900381565094,0.8426879644393921,0.09239330142736435
1750928842824181800,7.300181640625,0.07147117704153061,0.6288852691650391,0.023976443335413933
1750928842843005700,7.319005615234375,0.05192350596189499,0.38331764936447144,-0.15546508133411407
1750928842861829400,7.337829345703125,0.07147117704153061,0.20127993822097778,-0.18600831925868988
1750928842880653000,7.356653076171875,0.0824667438864708,0.2415970265865326,-0.1334739476442337
1750928842899477000,7.37547705078125,0.0922405794262886,0.3943132162094116,-0.1029307171702385
1750928842918300700,7.39430078125,0.09957095980644226,0.4101957082748413,-0.1383608728647232
1750928842937124400,7.413124267578125,0.09468404203653336,0.2929096519947052,-0.12736530601978302
1750928842955948300,7.4319482421875,0.0360410213470459,0.16707152128219604,-0.14813470840454102
1750928842974772000,7.45077197265625,0.004276053514331579,0.17318016290664673,-0.15668681263923645
1750928842993596000,7.469595947265625,0.03481929376721382,0.2721402645111084,-0.13958260416984558
1750928843012419600,7.488419677734375,0.027488915249705315,0.45539969205856323,-0.12736530601978302
1750928843031243300,7.5072431640625,-0.007941242307424545,0.5849030017852783,-0.04306596517562866
1750928843050067200,7.526067138671875,0.033597562462091446,0.7229584455490112,0.004428769461810589
1750928843068891000,7.544890869140625,0.04825831577181816,0.8255837559700012,0.07651081681251526
1750928843087714600,7.563714599609375,-0.05925388261675835,0.796262264251709,0.20723587274551392
1750928843106538500,7.58253857421875,-0.1337793916463852,0.731510579586029,0.3220784664154053
1750928843125362200,7.601362060546875,-0.0616973415017128,0.537255585193634,0.3623955249786377
1750928843144185900,7.620185791015625,-0.01893680728971958,0.31123560667037964,0.3379609286785126
1750928843163009800,7.639009765625,-0.03848448023200035,0.2880227565765381,0.27198755741119385
1750928843181833500,7.65783349609375,-0.06902772188186646,0.4786125421524048,0.2695440948009491
1750928843200657400,7.676657470703125,-0.1081230640411377,0.6630937457084656,0.3379609286785126
1750928843219481000,7.695481201171875,-0.1496618688106537,0.7205150127410889,0.439364492893219
1750928843238304800,7.7143046875,-0.09957095980644226,0.7327322959899902,0.3929387629032135
1750928843257128700,7.733128662109375,-0.08368847519159317,0.6325504779815674,0.2683223485946655
1750928843275952400,7.751952392578125,-0.10934479534626007,0.48594292998313904,0.14370593428611755
1750928843294776000,7.770776123046875,-0.13500112295150757,0.32589635252952576,0.012980876490473747
1750928843313600000,7.78960009765625,-0.14233149588108063,0.1328630894422531,-0.08582650125026703
1750928843332423700,7.808423583984375,-0.1545487940311432,-0.020922118797898293,-0.06750056147575378
1750928843351247400,7.827247314453125,-0.12400554865598679,-0.07345648854970932,0.016646064817905426
1750928843370071300,7.8460712890625,-0.08613193035125732,-0.02458730712532997,0.052076224237680435
1750928843388895000,7.86489501953125,-0.07147117704153061,0.07299833744764328,-0.03451386094093323
1750928843407719000,7.883718994140625,-0.05558869615197182,0.11087195575237274,-0.057726722210645676
1750928843426542600,7.90254248046875,-0.020158538594841957,0.08765909820795059,-0.019853105768561363
1750928843445366300,7.9213662109375,0.009162971749901772,0.09376774728298187,-0.02611446939408779
1750928843464190200,7.940190185546875,0.021380268037319183,0.1597411334514618,-0.1127045527100563
1750928843483014000,7.959013916015625,0.02871064469218254,0.2415970265865326,-0.1737910360097885
1750928843501837600,7.977837646484375,0.047036588191986084,0.31612253189086914,-0.17745621502399445
1750928843520661500,7.99666162109375,0.014049889519810677,0.30634868144989014,-0.14569124579429626
1750928843539485200,8.015485107421876,-0.011606430634856224,0.23548837006092072,-0.09804379940032959
1750928843558308900,8.034308837890626,0.027488915249705315,0.20861032605171204,-0.08826996386051178
1750928843577132800,8.0531328125,0.04459312930703163,0.29046618938446045,-0.07360920310020447
1750928843595956500,8.07195654296875,0.06536252796649933,0.4150826036930084,-0.09437860548496246
1750928843614780400,8.090780517578125,0.053145237267017365,0.5568032264709473,-0.13713914155960083
1750928843633604000,8.10960400390625,0.031154103577136993,0.7425061464309692,-0.16523891687393188
1750928843652427800,8.128427734375,0.015271619893610477,0.8903354406356812,-0.12736530601978302
1750928843671251700,8.147251708984374,-0.039706211537122726,0.7938187718391418,-0.0821613147854805
1750928843690075400,8.166075439453126,-0.02871064469218254,0.4407389461994171,-0.12003492563962936
1750928843708899000,8.184899169921875,0.01282816007733345,0.25992295145988464,-0.17745621502399445
1750928843727723000,8.203722900390625,0.014049889519810677,0.2415970265865326,-0.19333870708942413
1750928843746546700,8.222546630859375,-0.0409279391169548,0.11087195575237274,-0.041844237595796585
1750928843765370600,8.24137060546875,-0.09468404203653336,-0.03802633285522461,0.061850059777498245
1750928843784194300,8.2601943359375,-0.10934479534626007,0.03756818547844887,0.2023489624261856
1750928843803018000,8.27901806640625,-0.08002328872680664,0.23426663875579834,0.25243985652923584
1750928843821842000,8.297842041015626,-0.015271619893610477,0.509155809879303,0.16447533667087555
1750928843840665600,8.31666552734375,0.05558869615197182,0.6911935210227966,0.12293653935194016
1750928843859489300,8.3354892578125,0.07269290834665298,0.8280271887779236,0.0642935186624527
1750928843878313200,8.354313232421875,0.05436696484684944,0.878118097782135,-0.03329212963581085
1750928843897137000,8.373136962890625,0.039706211537122726,0.776714563369751,-0.14813470840454102
1750928843915960800,8.3919609375,0.014049889519810677,0.7816014885902405,-0.13591741025447845
1750928843934784500,8.410784423828124,0.01649334840476513,0.7706059217453003,0.05940660089254379
1750928843953608200,8.429608154296876,0.015271619893610477,0.6520981788635254,0.2842048406600952
1750928843972432100,8.44843212890625,0.033597562462091446,0.5494728684425354,0.48334676027297974
1750928843991255800,8.467255859375,0.015271619893610477,0.5311469435691833,0.5248855352401733
1750928844010079700,8.486079833984375,0.017715077847242355,0.537255585193634,0.5151117444038391
1750928844028903400,8.5049033203125,0.039706211537122726,0.6594285368919373,0.7289143800735474
1750928844047727000,8.52372705078125,0.04214967042207718,0.6704241037368774,0.9390518665313721
1750928844066551000,8.542551025390624,-0.006719512399286032,0.3381136655807495,0.9146173000335693
1750928844085374700,8.561374755859376,-0.043371398001909256,0.08032871782779694,0.6226239204406738
1750928844104198400,8.580198486328126,-0.08002328872680664,0.21716243028640747,0.3917170464992523
1750928844123022300,8.599022216796875,-0.10934479534626007,0.5787943601608276,0.20479241013526917
1750928844141846000,8.617845947265625,-0.05925388261675835,0.6496546864509583,0.03375028073787689
1750928844160670000,8.636669921875,-0.0360410213470459,0.45539969205856323,-0.18234314024448395
1750928844179493600,8.65549365234375,0.01649334840476513,0.1438586562871933,-0.18600831925868988
1750928844198317300,8.6743173828125,0.16065743565559387,-0.09911280870437622,-0.06872228533029556
1750928844217141200,8.693141357421876,0.25473061203956604,-0.04535670951008797,0.07895427197217941
1750928844235965000,8.71196484375,0.205861434340477,0.1366809904575348,0.05818486958742142
1750928844254788900,8.730788818359375,0.19608759880065918,0.03634645417332649,0.07284562289714813
1750928844273612500,8.749612548828125,0.20463970303535461,-0.22250749170780182,0.09605848789215088
1750928844292436200,8.768436279296875,0.25350889563560486,-0.24083344638347626,0.11194097250699997
1750928844311260200,8.78726025390625,0.23273947834968567,0.10476330667734146,0.009315688163042068
1750928844330083800,8.806083740234374,0.11545344442129135,0.4566214084625244,-0.28496840596199036
1750928844348907500,8.824907470703126,0.0873536616563797,0.3222311735153198,-0.5586358308792114
1750928844367731500,8.8437314453125,0.18753549456596375,-0.058795735239982605,-0.4218021333217621
1750928844386555100,8.86255517578125,0.23518294095993042,-0.2860374450683594,-0.26542073488235474
1750928844405379000,8.881379150390625,0.1545487940311432,-0.3165806829929352,-0.3387245237827301
1750928844424202800,8.90020263671875,0.12156209349632263,-0.18829907476902008,-0.4877755343914032
1750928844443026400,8.9190263671875,0.14233149588108063,0.10354158282279968,-0.4621191918849945
1750928844461850400,8.937850341796874,0.19608759880065918,0.1805105358362198,-0.1591302752494812
1750928844480674000,8.956674072265624,0.1899789422750473,-0.020922118797898293,0.08628465235233307
1750928844499498000,8.975498046875,0.17531819641590118,-0.13942988216876984,0.09850194305181503
1750928844518321700,8.99432177734375,0.08368847519159317,-0.13454297184944153,0.009315688163042068
1750928844537145300,9.013145263671875,0.1288924664258957,-0.07712167501449585,0.052076224237680435
1750928844555969300,9.03196923828125,0.19730933010578156,-0.1516471803188324,0.25121814012527466
1750928844574793000,9.05079296875,0.10567960888147354,-0.19929464161396027,0.3831649422645569
1750928844593617000,9.069616943359375,-0.08979712426662445,-0.06979130208492279,0.35384342074394226
1750928844612440600,9.088440673828124,-0.09957095980644226,0.02306014485657215,0.3000873327255249
1750928844631264300,9.10726416015625,0.11178825795650482,-0.16875138878822327,0.2952004075050354
1750928844650088200,9.126088134765626,0.20463970303535461,-0.5059487819671631,0.24266603589057922
1750928844668911900,9.144911865234375,-0.001832594396546483,-0.6366738080978394,0.11804962158203125
1750928844687735600,9.163735595703125,-0.16187916696071625,-0.34345871210098267,0.08872810751199722
1750928844706559500,9.1825595703125,-0.08857539296150208,0.12431098520755768,0.2952004075050354
1750928844725383200,9.201383056640625,-0.0824667438864708,0.3430005609989166,0.49312058091163635
1750928844744207000,9.22020703125,-0.09834922850131989,0.38698282837867737,0.4344775676727295
1750928844763030800,9.23903076171875,-0.2364046722650528,0.48960810899734497,0.29764387011528015
1750928844781854500,9.2578544921875,-0.35124725103378296,0.5543597936630249,0.22556181252002716
1750928844800678400,9.276678466796875,-0.22663083672523499,0.5568032264709473,0.2683223485946655
1750928844819502000,9.295502197265625,-0.18264856934547424,0.5384773015975952,0.1925751268863678
1750928844838325800,9.31432568359375,-0.2889390289783478,0.5580250024795532,-0.022296564653515816
1750928844857149700,9.333149658203125,-0.26939135789871216,0.4676169753074646,-0.29596397280693054
1750928844875973400,9.351973388671874,-0.14721840620040894,0.31490078568458557,-0.48044514656066895
1750928844894797300,9.37079736328125,-0.07635809481143951,0.24770566821098328,-0.5439751148223877
1750928844913621000,9.38962109375,-0.08979712426662445,0.14263692498207092,-0.6722567081451416
1750928844932444700,9.408444580078125,-0.01282816007733345,0.10965022444725037,-0.6624828577041626
1750928844951268600,9.4272685546875,0.07147117704153061,0.01695149764418602,-0.23243404924869537
1750928844970092300,9.44609228515625,-0.011606430634856224,-0.02825249545276165,0.039858926087617874
1750928844988916200,9.464916259765625,-0.10323614627122879,0.18784092366695404,0.06795870512723923
1750928845007740000,9.483739990234374,-0.15699224174022675,0.36132651567459106,-0.031001387163996696
1750928845026563800,9.502563720703124,-0.12767073512077332,0.5568032264709473,-0.1383608728647232
1750928845045387500,9.521387451171876,-0.10323614627122879,0.630107045173645,-0.12003492563962936
1750928845064211200,9.540211181640625,-0.07513637095689774,0.3503309488296509,-0.019853105768561363
1750928845083035100,9.55903515625,-0.01282816007733345,-0.01359174121171236,-0.024740023538470268
1750928845101858800,9.57785888671875,-0.056810423731803894,0.03390299528837204,-0.11514800786972046
1750928845120682800,9.596682861328125,-0.10934479534626007,0.3124573230743408,-0.11392628401517868
1750928845139506400,9.61550634765625,-0.1130099818110466,0.5568032264709473,-0.16157373785972595
1750928845158330000,9.634330078125,-0.18387030065059662,0.7351757884025574,-0.33750277757644653
1750928845177154000,9.653154052734376,-0.15821397304534912,0.7021890878677368,-0.4376846253871918
1750928845195977700,9.671977783203126,-0.0824667438864708,0.47372564673423767,-0.3582721948623657
1750928845214801700,9.6908017578125,-0.053145237267017365,0.18417572975158691,-0.3692677617073059
1750928845233625300,9.709625244140625,-0.07147117704153061,0.1951712965965271,-0.435241162776947
1750928845252449000,9.728448974609375,-0.04214967042207718,0.27947062253952026,-0.44990190863609314
1750928845271273000,9.74727294921875,-0.0824667438864708,0.3075704276561737,-0.3998109996318817
1750928845290096600,9.7660966796875,-0.15577052533626556,0.22815799713134766,-0.3790415823459625
1750928845308920600,9.784920654296876,-0.04581485688686371,0.5934551358222961,-0.42302384972572327
1750928845327744300,9.803744140625,0.07757982611656189,1.109025001525879,-0.3802633285522461
1750928845346568000,9.82256787109375,0.05070177838206291,1.2959495782852173,-0.37781986594200134
1750928845365392000,9.841391845703125,0.07269290834665298,1.193324327468872,-0.28985533118247986
1750928845384215600,9.860215576171875,0.14599667489528656,0.7718276381492615,-0.12003492563962936
1750928845403039500,9.87903955078125,0.21685700118541718,0.6728675365447998,-0.028405211865901947
1750928845421863200,9.89786328125,0.14477495849132538,0.8646790981292725,-0.04673115536570549
1750928845440687000,9.91668701171875,0.10690133273601532,0.9330959320068359,0.08017600327730179
1750928845459510800,9.9355107421875,0.19730933010578156,0.7363975048065186,0.18280129134655
1750928845478334500,9.95433447265625,0.0409279391169548,-0.07834340631961823,0.10705405473709106
1750928845497158400,9.973158447265625,-0.10690133273601532,-1.2780818939208984,-0.08093958348035812
1750928845515982000,9.991982177734375,-0.15210533142089844,-1.2756383419036865,-0.15790854394435883
1750928845534805800,10.0108056640625,-0.24984370172023773,-0.5694786906242371,-0.16768237948417664
1750928845553629700,10.029629638671874,-0.2877173125743866,0.09987638890743256,-0.1640172004699707
1750928845572453400,10.048453369140624,-0.4013381600379944,0.1695149689912796,-0.25931209325790405
1750928845591277300,10.06727734375,-0.4416552484035492,0.20127993822097778,-0.3326158821582794
1750928845610101000,10.08610107421875,-0.05925388261675835,0.18173226714134216,-0.12247838824987411
1750928845628924700,10.104924560546875,0.23273947834968567,0.003512472379952669,0.07406735420227051
1750928845647748600,10.12374853515625,0.337808221578598,0.018173227086663246,0.09117157012224197
1750928845666572300,10.142572265625,0.2107483446598053,0.16096286475658417,0.049632761627435684
1750928845685396200,10.161396240234374,0.1386663019657135,0.281914085149765,0.05085449293255806
1750928845704220000,10.180219970703124,0.12644900381565094,0.29535311460494995,0.03375028073787689
1750928845723043600,10.199043701171876,0.11056652665138245,0.3552178740501404,0.0007635809597559273
1750928845741867500,10.217867431640625,0.14721840620040894,0.11942406743764877,0.06307178735733032
1750928845760691200,10.236691162109375,0.1594357043504715,-0.030695954337716103,0.02153298258781433
1750928845779515100,10.25551513671875,0.07513637095689774,0.1389717310667038,-0.0772743970155716
1750928845798338800,10.2743388671875,0.07024945318698883,0.2770271897315979,-0.1078176349401474
1750928845817162800,10.293162841796875,0.10201441496610641,0.4004218578338623,-0.09804379940032959
1750928845835986400,10.311986328125,-0.07269290834665298,0.547029435634613,-0.1334739476442337
1750928845854810000,10.33081005859375,-0.1533270627260208,0.04978547990322113,-0.09071341902017593
1750928845873634000,10.349634033203126,-0.0616973415017128,-0.11377356201410294,0.05696314200758934
1750928845892457700,10.368457763671875,-0.023823726922273636,0.11942406743764877,0.1204930767416954
1750928845911281700,10.38728173828125,0.0030543238390237093,-0.0013744457392022014,0.13881902396678925
1750928845930105300,10.406105224609375,-0.000610864779446274,0.06811141967773438,0.2793179154396057
1750928845948929300,10.42492919921875,-0.0360410213470459,0.45417797565460205,0.4283689260482788
1750928845967753000,10.4437529296875,0.031154103577136993,0.40775224566459656,0.5981893539428711
1750928845986576600,10.46257666015625,0.0616973415017128,0.22815799713134766,0.6409498453140259
1750928846005400600,10.481400634765626,-0.07757982611656189,-0.04169152304530144,0.3428478538990021
1750928846024224300,10.500224365234375,-0.08979712426662445,-0.039248060435056686,0.12415826320648193
1750928846043048200,10.519048095703125,-0.04459312930703163,0.0717766135931015,0.04474584385752678
1750928846061871900,10.537871826171875,-0.056810423731803894,0.08155044913291931,-0.03222311660647392
1750928846080695600,10.556695556640625,0.025045456364750862,0.08521563559770584,-0.10659590363502502
1750928846099519500,10.57551953125,0.143553227186203,0.10109812021255493,-0.13469567894935608
1750928846118343200,10.59434326171875,0.04459312930703163,0.0668896958231926,-0.17256930470466614
1750928846137167000,10.6131669921875,-0.13133592903614044,0.048563748598098755,-0.324063777923584
1750928846155990800,10.63199072265625,-0.1288924664258957,0.08032871782779694,-0.35094180703163147
1750928846174814500,10.650814453125,-0.05925388261675835,0.2623664140701294,-0.24465134739875793
1750928846193638400,10.669638427734375,0.047036588191986084,0.43340855836868286,-0.1334739476442337
1750928846212462000,10.688462158203125,0.1081230640411377,0.6313287615776062,-0.04306596517562866
1750928846231286000,10.7072861328125,-0.021380268037319183,0.1792888194322586,-0.013744457624852657
1750928846250109700,10.726109619140624,-0.07269290834665298,0.04978547990322113,0.07162389904260635
1750928846268933600,10.74493359375,-0.014049889519810677,0.14630211889743805,0.15958842635154724
1750928846287757300,10.76375732421875,0.10567960888147354,0.29413139820098877,0.22189663350582123
1750928846306581000,10.7825810546875,0.16065743565559387,0.35643959045410156,0.26099199056625366
1750928846325405000,10.801405029296875,0.12156209349632263,0.2367101013660431,0.29275694489479065
1750928846344228600,10.820228515625,0.05192350596189499,0.2868010103702545,0.25610506534576416
1750928846363052500,10.839052490234375,-0.011606430634856224,0.19761475920677185,0.18402300775051117
1750928846381876200,10.857876220703124,0.017715077847242355,0.038789913058280945,0.08139773458242416
1750928846400700200,10.8767001953125,0.017715077847242355,0.02306014485657215,0.030085090547800064
1750928846419523800,10.89552392578125,0.02260199747979641,0.08521563559770584,0.01908952370285988
1750928846438347500,10.914347412109375,0.07757982611656189,0.0668896958231926,-0.005345067009329796
1750928846457171500,10.93317138671875,0.13255766034126282,-0.042913250625133514,-0.04428769648075104
1750928846475995100,10.9519951171875,0.07147117704153061,-0.1406516134738922,-0.023518294095993042
1750928846494819000,10.970819091796875,-0.006719512399286032,-0.17119485139846802,0.009315688163042068
1750928846513642800,10.989642822265624,-0.05436696484684944,-0.16386447846889496,-0.016340631991624832
1750928846532466700,11.008466796875,-0.07757982611656189,0.004734201822429895,-0.051618073135614395
1750928846551290400,11.027290283203126,-0.05070177838206291,0.0010690133785828948,-0.057726722210645676
1750928846570114000,11.046114013671875,0.029932374134659767,-0.12965604662895203,-0.028405211865901947
1750928846588938000,11.06493798828125,0.033597562462091446,-0.1418733447790146,0.023976443335413933
1750928846607761700,11.08376171875,0.007941242307424545,-0.007483093533664942,0.06307178735733032
1750928846626585600,11.102585693359375,-0.004276053514331579,0.12675444781780243,0.03497200831770897
1750928846645409300,11.1214091796875,-0.025045456364750862,0.08277218043804169,-0.021227551624178886
1750928846664233000,11.14023291015625,-0.06780599057674408,-0.008704823441803455,-0.05894844979047775
1750928846683057000,11.159056884765626,-0.043371398001909256,-0.09056070446968079,-0.07116574794054031
1750928846701880600,11.177880615234375,0.0824667438864708,-0.2188423126935959,-0.06017018109560013
1750928846720704500,11.19670458984375,0.12644900381565094,-0.17486004531383514,-0.07360920310020447
1750928846739528200,11.215528076171875,0.07024945318698883,-0.09911280870437622,-0.1285870373249054
1750928846758352100,11.23435205078125,-0.039706211537122726,-0.233503058552742,-0.1750127524137497
1750928846777175800,11.25317578125,-0.1386663019657135,-0.3263545036315918,-0.21166464686393738
1750928846795999500,11.27199951171875,-0.16187916696071625,-0.31291547417640686,-0.21655155718326569
1750928846814823400,11.290823486328126,-0.07147117704153061,-0.20540328323841095,-0.1957821547985077
1750928846833647000,11.309647216796876,0.05436696484684944,-0.1406516134738922,-0.1847866028547287
1750928846852471000,11.328470947265625,0.08979712426662445,-0.1052214577794075,-0.11636973917484283
1750928846871294700,11.347294677734375,0.025045456364750862,-0.25793763995170593,-0.007788525894284248
1750928846890118700,11.36611865234375,-0.015271619893610477,-0.46196648478507996,-0.00045814859913662076
1750928846908942300,11.3849423828125,-0.015271619893610477,-0.458301305770874,-0.013744457624852657
1750928846927766300,11.403766357421874,0.0360410213470459,-0.28848087787628174,-0.019853105768561363
1750928846946590000,11.42258984375,0.009162971749901772,-0.31902414560317993,0.012980876490473747
1750928846965413600,11.44141357421875,0.021380268037319183,-0.5145008563995361,0.05818486958742142
1750928846984237600,11.460237548828125,0.047036588191986084,-0.5254964232444763,0.05940660089254379
1750928847003061200,11.479061279296875,0.023823726922273636,-0.5364919900894165,-0.001679878099821508
1750928847021885000,11.497885009765625,0.02626718580722809,-0.541378915309906,-0.018631376326084137
1750928847040708900,11.516708984375,0.02260199747979641,-0.4387536346912384,-0.009010255336761475
1750928847059532500,11.535532470703124,0.05436696484684944,-0.35934120416641235,-0.00045814859913662076
1750928847078356500,11.5543564453125,0.08979712426662445,-0.44730573892593384,0.020311253145337105
1750928847097180200,11.57318017578125,0.020158538594841957,-0.5560396909713745,0.08139773458242416
1750928847116004000,11.592004150390625,-0.02871064469218254,-0.49984011054039,0.07651081681251526
1750928847134827800,11.610827880859375,-0.02871064469218254,-0.39599308371543884,0.03252854943275452
1750928847153651700,11.629651611328125,-0.011606430634856224,-0.33368489146232605,0.03375028073787689
1750928847172475400,11.648475341796875,0.011606430634856224,-0.3361283540725708,0.061850059777498245
1750928847191299300,11.66729931640625,0.01282816007733345,-0.4082103967666626,0.04108065739274025
1750928847210123000,11.686123046875,-0.017715077847242355,-0.388662725687027,-0.05528326332569122
1750928847228946700,11.70494677734375,-0.0030543238390237093,-0.33368489146232605,-0.1029307171702385
1750928847247770600,11.7237705078125,-0.000610864779446274,-0.3630063831806183,-0.06505709886550903
1750928847266594300,11.74259423828125,-0.0054977829568088055,-0.32879796624183655,-0.028405211865901947
1750928847285418200,11.761418212890625,-0.017715077847242355,-0.32268932461738586,-0.022296564653515816
1750928847304242000,11.780241943359375,-0.06414080411195755,-0.5145008563995361,-0.04550942778587341
1750928847323065900,11.79906591796875,-0.10201441496610641,-0.7466294765472412,-0.04062250629067421
1750928847341889500,11.8178896484375,-0.06536252796649933,-0.5963567495346069,0.0019853105768561363
1750928847360713200,11.836713134765626,-0.08857539296150208,-0.4130973219871521,0.028863361105322838
1750928847379537200,11.855537109375,-0.1081230640411377,-0.5572614073753357,0.012980876490473747
1750928847398360800,11.87436083984375,-0.05070177838206291,-0.6317868828773499,0.014202605932950974
1750928847417184800,11.893184814453125,-0.0030543238390237093,-0.4179842174053192,-0.006566796451807022
1750928847436008400,11.912008544921875,-0.04459312930703163,-0.45219266414642334,0.016646064817905426
1750928847454832400,11.930832275390625,-0.08124501258134842,-0.7197514176368713,0.030085090547800064
1750928847473656000,11.949656005859374,-0.11056652665138245,-0.8272636532783508,0.039858926087617874
1750928847492480000,11.96847998046875,-0.06780599057674408,-0.7405208349227905,0.07162389904260635
1750928847511303700,11.9873037109375,-0.029932374134659767,-0.6965385675430298,0.1363755613565445
1750928847530127400,12.00612744140625,-0.0054977829568088055,-0.5804742574691772,0.0948367565870285
1750928847548951300,12.024951416015625,0.02260199747979641,-0.3862192630767822,0.05085449293255806
1750928847567775000,12.04377490234375,0.027488915249705315,-0.3312414288520813,0.0899498388171196
1750928847586599000,12.062598876953125,0.006719512399286032,-0.43631017208099365,0.09728021919727325
1750928847605422600,12.081422607421874,-0.05436696484684944,-0.6232348084449768,0.009315688163042068
1750928847624246500,12.10024658203125,-0.08979712426662445,-0.6635518670082092,-0.10170898586511612
1750928847643070200,12.1190703125,-0.0922405794262886,-0.5303833484649658,-0.10903936624526978
1750928847661894000,12.137893798828125,-0.07391463965177536,-0.4289797842502594,-0.06627883017063141
1750928847680717800,12.1567177734375,-0.027488915249705315,-0.4497492015361786,-0.04428769648075104
1750928847699541500,12.17554150390625,-0.033597562462091446,-0.633008599281311,-0.021227551624178886
1750928847718365400,12.194365478515625,-0.10690133273601532,-0.7478511929512024,-0.09560033679008484
1750928847737189000,12.213189208984375,-0.13744457066059113,-0.7698423266410828,-0.17623448371887207
1750928847756013000,12.232012939453124,-0.08491020649671555,-0.7527381181716919,-0.1432477980852127
1750928847774836700,12.250836669921876,-0.047036588191986084,-0.7881683111190796,-0.09804379940032959
1750928847793660700,12.26966064453125,-0.023823726922273636,-0.6757691502571106,-0.09315688163042068
1750928847812484400,12.288484375,-0.02871064469218254,-0.4179842174053192,-0.041844237595796585
1750928847831308300,12.307308349609375,-0.06780599057674408,-0.31780239939689636,0.016646064817905426
1750928847850132000,12.326132080078125,-0.10079269111156464,-0.5022835731506348,0.016646064817905426
1750928847868956000,12.344955810546875,-0.11178825795650482,-0.7747292518615723,-0.011453714221715927
1750928847887779600,12.363779541015624,-0.0360410213470459,-0.8553634285926819,0.10094540566205978
1750928847906603300,12.382603271484374,0.039706211537122726,-0.7845031023025513,0.2084576040506363
1750928847925427200,12.40142724609375,0.05803215503692627,-0.8028290271759033,0.21090106666088104
1750928847944251000,12.4202509765625,0.021380268037319183,-0.9579886794090271,0.11316270381212234
1750928847963074800,12.43907470703125,0.004276053514331579,-0.8370374441146851,0.162031888961792
1750928847981898500,12.4578984375,0.01649334840476513,-0.0539088174700737,0.29764387011528015
1750928848000722400,12.476722412109375,0.033597562462091446,0.1279761642217636,0.3477347791194916
1750928848019546000,12.495546142578124,0.06536252796649933,0.15729768574237823,0.34406960010528564
1750928848038370000,12.5143701171875,0.06047561392188072,0.2831358313560486,0.2438877671957016
1750928848057193700,12.53319384765625,0.01893680728971958,-0.02214384824037552,0.04108065739274025
1750928848076017400,12.552017333984375,-0.17287473380565643,0.10598503798246384,-0.1798996776342392
1750928848094841300,12.57084130859375,-0.09590577334165573,-0.07101303339004517,-0.15302163362503052
1750928848113665000,12.5896650390625,-0.06902772188186646,-0.22983787953853607,-0.05894844979047775
1750928848132489000,12.608489013671875,-0.02626718580722809,-0.06734783947467804,-0.02611446939408779
1750928848151312600,12.627312744140625,-0.01893680728971958,0.28069236874580383,0.13759729266166687
1750928848170136600,12.646136474609374,-0.007941242307424545,0.23793183267116547,0.522442102432251
1750928848188960300,12.664960205078126,0.047036588191986084,-0.3837758004665375,0.6568323373794556
1750928848207784200,12.6837841796875,-0.0665842592716217,-0.23472478985786438,0.4589121639728546
1750928848226607900,12.70260791015625,-0.08491020649671555,-0.03436114266514778,0.0032070400193333626
1750928848245431600,12.721431640625,-0.07391463965177536,0.08521563559770584,-0.2861901521682739
1750928848264255500,12.74025537109375,-0.0360410213470459,0.09132428467273712,-0.425467312335968
1750928848283079200,12.7590791015625,-0.06780599057674408,-0.04413498193025589,-0.42424559593200684
1750928848301903000,12.777903076171874,-0.07757982611656189,-0.12965604662895203,-0.23243404924869537
1750928848320726800,12.796726806640624,-0.01893680728971958,-0.2078467458486557,-0.08338304609060287
1750928848339550700,12.81555078125,0.06536252796649933,-0.23716825246810913,-0.19089524447917938
1750928848358374400,12.83437451171875,0.11056652665138245,-0.38499751687049866,-0.3814850449562073
1750928848377198300,12.8531982421875,0.027488915249705315,-0.6745474338531494,-0.32528549432754517
1750928848396022000,12.87202197265625,-0.0360410213470459,-0.755181610584259,-0.2910770773887634
1750928848414846000,12.890845947265625,0.047036588191986084,-0.6769908666610718,-0.4315759539604187
1750928848433669600,12.909669677734374,0.023823726922273636,-0.6012436747550964,-0.38759371638298035
1750928848452493300,12.928493408203124,0.05070177838206291,-0.39965829253196716,-0.2935205399990082
1750928848471317200,12.947317138671876,-0.01282816007733345,-0.5951350331306458,-0.00045814859913662076
1750928848490141000,12.966140869140625,0.0054977829568088055,-0.8052725195884705,0.08384118974208832
1750928848508964900,12.98496484375,0.0360410213470459,-1.0154099464416504,0.06551524996757507
1750928848527788500,13.00378857421875,-0.021380268037319183,-0.828485369682312,0.14248420298099518
1750928848546612500,13.022612548828125,0.006719512399286032,-0.4350884258747101,0.2952004075050354
1750928848565436200,13.041436279296875,0.031154103577136993,-0.23961171507835388,0.32452189922332764
1750928848584260000,13.060260009765624,-0.015271619893610477,-0.5670352578163147,0.43569931387901306
1750928848603083800,13.079083740234376,-0.12278381735086441,-1.0581705570220947,0.605519711971283
1750928848621907700,13.09790771484375,-0.15210533142089844,-1.2121084928512573,0.5468766689300537
1750928848640731400,13.1167314453125,-0.1496618688106537,-1.089935541152954,0.19501857459545135
1750928848659555300,13.135555419921875,-0.05803215503692627,-0.8614720702171326,-0.009010255336761475
1750928848678379000,13.15437890625,-0.015271619893610477,-0.6012436747550964,0.0435241162776947
1750928848697202700,13.17320263671875,-0.006719512399286032,-0.42531460523605347,0.061850059777498245
1750928848716026600,13.192026611328124,-0.02626718580722809,-0.4692968726158142,0.028863361105322838
1750928848734850300,13.210850341796874,-0.05925388261675835,-0.6708822250366211,0.012980876490473747
1750928848753674200,13.22967431640625,-0.039706211537122726,-0.9262236952781677,-0.024740023538470268
1750928848772498000,13.248497802734375,-0.01649334840476513,-1.0813833475112915,-0.006566796451807022
1750928848791321900,13.26732177734375,0.017715077847242355,-0.9812015295028687,0.004428769461810589
1750928848810145500,13.2861455078125,-0.021380268037319183,-0.672104001045227,-0.0102319847792387
1750928848828969500,13.304969482421875,-0.021380268037319183,-0.3324631452560425,-0.012675444595515728
1750928848847793200,13.323793212890624,-0.000610864779446274,-0.28848087787628174,-0.051618073135614395
1750928848866617000,13.3426171875,0.004276053514331579,-0.5279398560523987,-0.031001387163996696
1750928848885440800,13.361440673828126,-0.014049889519810677,-0.5743656158447266,0.0154243353754282
1750928848904264700,13.3802646484375,-0.03237583488225937,-0.5169443488121033,0.055741410702466965
1750928848923088400,13.39908837890625,-0.02260199747979641,-0.39477136731147766,0.014202605932950974
1750928848941912300,13.417912353515625,0.01893680728971958,-0.30314165353775024,-0.07483093440532684
1750928848960736000,13.436736083984375,0.03481929376721382,-0.35445427894592285,-0.06872228533029556
1750928848979560000,13.455559814453125,0.020158538594841957,-0.4766272306442261,-0.05283980444073677
1750928848998383600,13.474383544921874,0.01282816007733345,-0.33001968264579773,-0.0102319847792387
1750928849017207600,13.49320751953125,0.0030543238390237093,-0.02214384824037552,0.011759147047996521
1750928849036031200,13.51203125,-0.009162971749901772,-0.04535670951008797,0.016646064817905426
1750928849054855200,13.530855224609375,-0.05192350596189499,-0.27259841561317444,0.08750637620687485
1750928849073678800,13.549678955078125,-0.07147117704153061,-0.4326449930667877,0.13393209874629974
1750928849092502500,13.56850244140625,-0.05436696484684944,-0.5633700489997864,0.12782345712184906
1750928849111326500,13.587326416015625,-0.03237583488225937,-0.662330150604248,0.0850629210472107
1750928849130150100,13.606150146484374,-0.020158538594841957,-0.4851793646812439,0.0032070400193333626
1750928849148974000,13.62497412109375,0.006719512399286032,-0.2591593861579895,-0.04917461425065994
1750928849167797800,13.6437978515625,0.009162971749901772,-0.12476912885904312,-0.03222311660647392
1750928849186621700,13.66262158203125,-0.0054977829568088055,-0.24816381931304932,0.023976443335413933
1750928849205445400,13.6814453125,-0.043371398001909256,-0.46685341000556946,0.08139773458242416
1750928849224269300,13.700269287109375,-0.0665842592716217,-0.6440041661262512,0.08384118974208832
1750928849243093000,13.719093017578125,-0.023823726922273636,-0.6024653911590576,0.05696314200758934
1750928849261917000,13.7379169921875,-0.031154103577136993,-0.4644099473953247,0.07284562289714813
1750928849280740600,13.75674072265625,-0.037262752652168274,-0.27259841561317444,0.09850194305181503
1750928849299564500,13.775564453125,-0.04581485688686371,-0.12110394239425659,0.08384118974208832
1750928849318388200,13.79438818359375,-0.014049889519810677,-0.09789107739925385,0.049632761627435684
1750928849337212200,13.813212158203125,-0.017715077847242355,-0.1980729103088379,0.04108065739274025
1750928849356035800,13.832035888671875,-0.01649334840476513,-0.25549420714378357,0.02519817277789116
1750928849374859800,13.85085986328125,-0.011606430634856224,-0.31291547417640686,0.011759147047996521
1750928849393683500,13.869683349609375,-0.04825831577181816,-0.48884454369544983,0.055741410702466965
1750928849412507400,13.88850732421875,-0.05070177838206291,-0.4546361267566681,0.08628465235233307
1750928849431331000,13.9073310546875,-0.037262752652168274,-0.3410152494907379,0.08750637620687485
1750928849450155000,13.926155029296876,-0.021380268037319183,-0.25671592354774475,0.04841103404760361
1750928849468978700,13.944978759765625,-0.01649334840476513,-0.22006404399871826,0.008093958720564842
1750928849487802600,13.963802734375,-0.033597562462091446,-0.23594652116298676,0.006872228812426329
1750928849506626300,13.982626220703125,-0.049480047076940536,-0.25060728192329407,0.07040216773748398
1750928849525450000,14.001449951171875,-0.031154103577136993,-0.38988444209098816,0.0691804364323616
1750928849544274000,14.02027392578125,-0.06780599057674408,-0.6207913160324097,0.06551524996757507
1750928849563097600,14.03909765625,-0.09712749719619751,-0.8724676370620728,0.09972367435693741
1750928849581921500,14.057921630859376,-0.1545487940311432,-1.1180353164672852,0.10094540566205978
1750928849600745200,14.0767451171875,-0.14110976457595825,-1.353829026222229,0.12415826320648193
1750928849619569200,14.095569091796875,-0.1545487940311432,-1.4417935609817505,0.1876882016658783
1750928849638392800,14.114392822265625,-0.11911863088607788,-1.2841905355453491,0.1876882016658783
1750928849657216800,14.133216796875,-0.16065743565559387,-0.8749110698699951,0.2023489624261856
1750928849676040400,14.15204052734375,-0.18387030065059662,-0.41187557578086853,0.18402300775051117
1750928849694864400,14.170864501953124,-0.11423171311616898,-0.06246092543005943,0.08139773458242416
1750928849713688000,14.18968798828125,-0.05803215503692627,0.026572618633508682,0.017867794260382652
1750928849732512000,14.208511962890626,0.01649334840476513,-0.033139415085315704,-0.01740964688360691
1750928849751335700,14.227335693359375,0.05070177838206291,-0.06734783947467804,-0.03817904740571976
1750928849770159600,14.24615966796875,0.06291907280683517,-0.05146535858511925,-0.021227551624178886
1750928849788983300,14.2649833984375,0.05925388261675835,-0.052687086164951324,0.01908952370285988
1750928849807807200,14.28380712890625,0.039706211537122726,-0.05024362727999687,0.061850059777498245
1750928849826631000,14.302630859375,-0.014049889519810677,-0.12232567369937897,0.07651081681251526
1750928849845454800,14.321454833984374,-0.001832594396546483,-0.24694208800792694,0.05696314200758934
1750928849864278500,14.340278564453126,0.06536252796649933,-0.42531460523605347,0.05818486958742142
1750928849883102500,14.3591025390625,0.02626718580722809,-0.8675807118415833,0.08384118974208832
1750928849901926100,14.377926025390625,0.02871064469218254,-0.9408844709396362,0.09850194305181503
1750928849920749800,14.396749755859375,0.06291907280683517,-0.920115053653717,0.10461059212684631
1750928849939573800,14.41557373046875,0.056810423731803894,-1.1192569732666016,0.13393209874629974
1750928849958397400,14.4343974609375,0.09346231073141098,-1.1632392406463623,0.15225805342197418
1750928849977221400,14.453221435546874,0.13622283935546875,-1.1180353164672852,0.13271036744117737
1750928849996045000,14.472045166015626,0.12400554865598679,-0.9653190970420837,0.12293653935194016
1750928850014869000,14.490868896484375,0.03848448023200035,-0.652556300163269,0.13759729266166687
1750928850033693000,14.50969287109375,-0.0409279391169548,-0.38988444209098816,0.17058399319648743
1750928850052516600,14.5285166015625,-0.12156209349632263,-0.2909243404865265,0.13881902396678925
1750928850071340300,14.54734033203125,-0.12278381735086441,-0.3666715919971466,0.08261945843696594
1750928850090164200,14.566164306640625,-0.11056652665138245,-0.5609265565872192,0.03130681812763214
1750928850108988000,14.58498779296875,-0.0054977829568088055,-0.6635518670082092,-0.047952886670827866
1750928850127811800,14.603811767578126,0.0665842592716217,-0.6830995678901672,0.010537417605519295
1750928850146635500,14.622635498046876,0.08491020649671555,-1.0642791986465454,0.02764163166284561
1750928850165459500,14.64145947265625,0.17653992772102356,-1.3208423852920532,-0.021227551624178886
1750928850184283100,14.660283203125,0.23884813487529755,-1.4161372184753418,-0.06627883017063141
1750928850203107000,14.679107177734375,0.21685700118541718,-1.2524255514144897,-0.06872228533029556
1750928850221930800,14.6979306640625,0.1899789422750473,-0.8162680864334106,-0.024740023538470268
1750928850240754700,14.716754638671874,0.1484401375055313,-0.46685341000556946,-0.021227551624178886
1750928850259578400,14.735578369140624,0.1288924664258957,-0.3984365463256836,-0.02718348242342472
1750928850278402300,14.75440234375,0.12156209349632263,-0.5816959738731384,-0.035735588520765305
1750928850297226000,14.77322607421875,0.08002328872680664,-0.8101593852043152,-0.007788525894284248
1750928850316050000,14.7920498046875,0.07147117704153061,-1.0667226314544678,0.055741410702466965
1750928850334873600,14.81087353515625,-0.007941242307424545,-1.2927426099777222,0.07040216773748398
1750928850353697500,14.829697509765625,-0.015271619893610477,-0.9567669630050659,0.039858926087617874
1750928850372521200,14.848521240234374,-0.02260199747979641,-0.5597048401832581,0.0154243353754282
1750928850391345200,14.86734521484375,-0.0360410213470459,-0.4350884258747101,0.03497200831770897
1750928850410168800,14.8861689453125,-0.037262752652168274,-0.5193877816200256,0.03375028073787689
1750928850428992800,14.90499267578125,-0.010384701192378998,-0.5926915407180786,0.02764163166284561
1750928850447816400,14.92381640625,-0.004276053514331579,-0.5853611826896667,0.036193739622831345
1750928850466640400,14.942640380859375,-0.0360410213470459,-0.5645917654037476,0.04474584385752678
1750928850485464000,14.961464111328125,-0.09834922850131989,-0.6549997329711914,0.049632761627435684
1750928850504288000,14.9802880859375,-0.08613193035125732,-0.8052725195884705,0.036193739622831345
1750928850523111700,14.999111572265624,0.000610864779446274,-0.9237802624702454,0.04718930274248123
1750928850541935600,15.017935546875,0.05070177838206291,-1.1143701076507568,0.012980876490473747
1750928850560759300,15.03675927734375,0.12156209349632263,-0.949436604976654,-0.001679878099821508
1750928850579583200,15.055583251953125,0.09101885557174683,-0.790611743927002,-0.001679878099821508
1750928850598407000,15.074406982421875,0.039706211537122726,-0.7014254927635193,-0.011453714221715927
1750928850617230800,15.09323095703125,0.04459312930703163,-0.7063124179840088,-0.004123337101191282
1750928850636054500,15.112054443359375,-0.020158538594841957,-0.6220130324363708,0.0032070400193333626
1750928850654878500,15.13087841796875,-0.10445787757635117,-0.43142324686050415,0.028863361105322838
1750928850673702100,15.1497021484375,-0.13500112295150757,-0.2530507445335388,0.039858926087617874
1750928850692526000,15.168526123046876,-0.11423171311616898,-0.3361283540725708,0.03497200831770897
1750928850711349800,15.187349853515625,-0.0824667438864708,-0.44730573892593384,0.022754713892936707
1750928850730173700,15.206173583984375,-0.06047561392188072,-0.4448622763156891,0.006872228812426329
1750928850748997400,15.224997314453125,0.000610864779446274,-0.4387536346912384,0.0007635809597559273
1750928850767821300,15.2438212890625,0.12522727251052856,-0.5047270059585571,0.03130681812763214
1750928850786645000,15.26264501953125,0.2009745091199875,-0.8639155030250549,-0.022296564653515816
1750928850805469000,15.281468994140624,0.17653992772102356,-0.800385594367981,-0.001679878099821508
1750928850824292600,15.300292724609376,0.11667517572641373,-0.49861836433410645,0.009315688163042068
1750928850843116500,15.319116455078126,0.0922405794262886,-0.1980729103088379,0.028863361105322838
1750928850861940200,15.337940185546875,0.08368847519159317,-0.18463388085365295,0.03252854943275452
1750928850880764200,15.35676416015625,0.10567960888147354,-0.2542724609375,0.026419902220368385
1750928850899587800,15.375587890625,0.07024945318698883,-0.23716825246810913,0.04474584385752678
1750928850918411800,15.394411865234375,-0.011606430634856224,-0.17486004531383514,0.061850059777498245
1750928850937235500,15.4132353515625,-0.05558869615197182,-0.1773035079240799,0.06795870512723923
1750928850956059400,15.432059326171874,-0.06536252796649933,-0.1931859850883484,0.07528908550739288
1750928850974883000,15.450883056640626,-0.04581485688686371,-0.24572035670280457,0.07773254066705704
1750928850993707000,15.46970703125,-0.010384701192378998,-0.32757624983787537,0.06551524996757507
1750928851012531000,15.488531005859375,0.039706211537122726,-0.295811265707016,0.06673697382211685
1750928851031354600,15.507354736328125,0.07880155742168427,-0.2286161482334137,0.06795870512723923
1750928851050178600,15.526178466796875,0.07757982611656189,-0.3312414288520813,0.07284562289714813
1750928851069002200,15.545002197265624,-0.009162971749901772,-0.42042768001556396,0.09605848789215088
1750928851087826000,15.563825927734374,-0.06047561392188072,-0.3092502951622009,0.08384118974208832
1750928851106649900,15.58264990234375,-0.017715077847242355,-0.2286161482334137,0.07406735420227051
1750928851125473800,15.601473876953126,-0.001832594396546483,-0.23105959594249725,0.04841103404760361
1750928851144297500,15.62029736328125,-0.17287473380565643,-0.40698865056037903,0.039858926087617874
1750928851163121400,15.639121337890625,-0.19853104650974274,-0.4864010810852051,0.06551524996757507
1750928851181945000,15.657945068359375,-0.0665842592716217,-0.2237292230129242,0.08750637620687485
1750928851200769000,15.67676904296875,-0.08124501258134842,-0.23105959594249725,0.10461059212684631
1750928851219592700,15.6955927734375,-0.12522727251052856,-0.3837758004665375,0.10461059212684631
1750928851238416600,15.714416748046874,-0.12767073512077332,-0.32757624983787537,0.07040216773748398
1750928851257240300,15.733240234375,-0.10445787757635117,-0.17486004531383514,0.04718930274248123
1750928851276064300,15.752064208984375,-0.06780599057674408,-0.18585561215877533,0.030085090547800064
1750928851294888000,15.770887939453125,0.004276053514331579,-0.25671592354774475,0.030085090547800064
1750928851313711900,15.7897119140625,0.03848448023200035,-0.2530507445335388,0.039858926087617874
1750928851332535600,15.80853564453125,0.0030543238390237093,-0.30802857875823975,0.055741410702466965
1750928851351359500,15.827359375,-0.025045456364750862,-0.47296205163002014,0.05940660089254379
1750928851370183200,15.84618310546875,-0.007941242307424545,-0.5670352578163147,0.04718930274248123
1750928851389007000,15.865007080078126,-0.01649334840476513,-0.47174033522605896,0.04108065739274025
1750928851407830800,15.883830810546876,-0.05803215503692627,-0.3556760251522064,0.03130681812763214
1750928851426654700,15.90265478515625,-0.11178825795650482,-0.4839576184749603,0.02519817277789116
1750928851445478400,15.921478515625,-0.29504770040512085,-0.8052725195884705,0.03252854943275452
1750928851464302300,15.94030224609375,-0.07880155742168427,-0.7295252680778503,0.045967575162649155
1750928851483126300,15.959126220703125,-0.04214967042207718,-0.4607447683811188,0.06551524996757507
1750928851501950000,15.977949951171874,-0.08002328872680664,-0.3092502951622009,0.036193739622831345
1750928851520773600,15.996773681640626,-0.08124501258134842,-0.21517711877822876,-0.0102319847792387
1750928851539597600,16.01559765625,-0.049480047076940536,-0.18829907476902008,-0.019853105768561363
1750928851558421200,16.034421142578125,-0.04459312930703163,-0.35934120416641235,-0.002901607658714056
1750928851577245200,16.0532451171875,-0.029932374134659767,-0.5242747068405151,0.006872228812426329
1750928851596069000,16.072069091796877,0.01893680728971958,-0.6122392416000366,0.016646064817905426
1750928851614892800,16.090892822265626,0.09712749719619751,-0.5890263915061951,0.017867794260382652
1750928851633716700,16.109716796875,0.06902772188186646,-0.5083922147750854,-0.024740023538470268
1750928851652540400,16.12854052734375,0.047036588191986084,-0.4705185890197754,-0.07116574794054031
1750928851671364400,16.1473642578125,0.049480047076940536,-0.5352702736854553,-0.051618073135614395
1750928851690188000,16.16618798828125,0.033597562462091446,-0.7307469844818115,-0.03451386094093323
1750928851709012000,16.185011962890623,0.08124501258134842,-0.8541416525840759,-0.05039634555578232
1750928851727835600,16.203835693359373,0.11667517572641373,-0.7930551767349243,-0.0772743970155716
1750928851746659600,16.22265966796875,0.09468404203653336,-0.5853611826896667,-0.06261363625526428
1750928851765483300,16.241483154296876,0.08491020649671555,-0.38499751687049866,-0.01511890348047018
1750928851784307200,16.26030712890625,0.09346231073141098,-0.21395538747310638,0.030085090547800064
1750928851803131000,16.279130859375,0.0873536616563797,-0.16508620977401733,0.05818486958742142
1750928851821954800,16.297954833984374,0.08979712426662445,-0.25549420714378357,0.061850059777498245
1750928851840778500,16.316778564453124,0.07024945318698883,-0.31291547417640686,0.049632761627435684
1750928851859602400,16.3356025390625,0.033597562462091446,-0.26648977398872375,0.0386371985077858
1750928851878426400,16.35442626953125,0.0030543238390237093,-0.23105959594249725,0.03741546720266342
1750928851897250000,16.37325,-0.017715077847242355,-0.2848156988620758,0.0386371985077858
1750928851916073700,16.39207373046875,-0.02260199747979641,-0.40088000893592834,0.0435241162776947
1750928851934897700,16.410897705078124,-0.06047561392188072,-0.4021017551422119,0.05085449293255806
1750928851953721600,16.4297216796875,-0.12400554865598679,-0.37033677101135254,0.055741410702466965
1750928851972545300,16.448545166015624,-0.13744457066059113,-0.4607447683811188,0.04108065739274025
1750928851991369200,16.467369140625,-0.05803215503692627,-0.6281217336654663,0.04230238497257233
1750928852010193000,16.48619287109375,-0.05070177838206291,-0.6830995678901672,0.06673697382211685
1750928852029016800,16.505016845703125,-0.05925388261675835,-0.49861836433410645,0.06307178735733032
1750928852047840500,16.523840576171875,-0.007941242307424545,-0.34834563732147217,0.05818486958742142
1750928852066664400,16.54266455078125,0.02260199747979641,-0.41554075479507446,0.052076224237680435
1750928852085488000,16.561488037109374,0.05925388261675835,-0.49250972270965576,0.06795870512723923
1750928852104312000,16.58031201171875,0.05803215503692627,-0.42042768001556396,0.0691804364323616
1750928852123135700,16.5991357421875,0.05070177838206291,-0.3202458620071411,0.049632761627435684
1750928852141959700,16.617959716796875,0.02626718580722809,-0.3459021747112274,0.03252854943275452
1750928852160783400,16.636783447265625,-0.023823726922273636,-0.49984011054039,0.008093958720564842
1750928852179607300,16.655607177734375,-0.021380268037319183,-0.47784897685050964,0.009315688163042068
1750928852198431200,16.67443115234375,-0.02260199747979641,-0.264046311378479,-0.007788525894284248
1750928852217255000,16.6932548828125,-0.09834922850131989,-0.212733656167984,-0.035735588520765305
1750928852236078800,16.712078857421876,-0.12522727251052856,-0.33368489146232605,-0.051618073135614395
1750928852254902500,16.730902587890625,-0.09712749719619751,-0.4045451879501343,-0.03940077871084213
1750928852273726500,16.7497265625,-0.08857539296150208,-0.3923279047012329,-0.02611446939408779
1750928852292550100,16.768550048828125,-0.11178825795650482,-0.42531460523605347,-0.013744457624852657
1750928852311374000,16.7873740234375,-0.07269290834665298,-0.45219266414642334,-0.011453714221715927
1750928852330197800,16.80619775390625,-0.031154103577136993,-0.44730573892593384,-0.009010255336761475
1750928852349021700,16.825021728515626,-0.020158538594841957,-0.44608399271965027,-0.00045814859913662076
1750928852367845400,16.843845458984376,-0.0409279391169548,-0.4851793646812439,0.010537417605519295
1750928852386669300,16.86266943359375,0.000610864779446274,-0.5071704983711243,0.014202605932950974
1750928852405493200,16.8814931640625,0.02871064469218254,-0.4631882309913635,0.009315688163042068
1750928852424317000,16.90031689453125,0.025045456364750862,-0.37033677101135254,-0.009010255336761475
1750928852443140900,16.919140869140627,0.056810423731803894,-0.26648977398872375,-0.006566796451807022
1750928852461964500,16.937964599609376,0.006719512399286032,-0.15042544901371002,-0.013744457624852657
1750928852480788500,16.95678857421875,-0.04459312930703163,-0.058795735239982605,-0.01740964688360691
1750928852499612200,16.975612060546876,-0.05558869615197182,-0.10766492038965225,-0.012675444595515728
1750928852518436000,16.99443603515625,-0.04825831577181816,-0.23716825246810913,0.0007635809597559273
1750928852537259800,17.013259765625,-0.0409279391169548,-0.29336780309677124,0.006872228812426329
1750928852556083700,17.032083740234373,-0.033597562462091446,-0.24205516278743744,-0.001679878099821508
1750928852574907400,17.050907470703127,-0.04459312930703163,-0.1565341055393219,-0.007788525894284248
1750928852593731300,17.0697314453125,-0.04459312930703163,-0.17974695563316345,0.004428769461810589
1750928852612555300,17.08855517578125,-0.02260199747979641,-0.19685117900371552,0.036193739622831345
1750928852631379000,17.10737890625,-0.02260199747979641,-0.18463388085365295,0.04718930274248123
1750928852650203000,17.126202880859374,-0.025045456364750862,-0.2689332067966461,0.03497200831770897
1750928852669026600,17.145026611328124,-0.049480047076940536,-0.36544984579086304,0.011759147047996521
1750928852687850500,17.1638505859375,-0.05803215503692627,-0.3825540542602539,0.0032070400193333626
1750928852706674200,17.182674072265623,-0.01282816007733345,-0.3006981909275055,0.028863361105322838
1750928852725498000,17.201498046875,0.0054977829568088055,-0.21517711877822876,0.05085449293255806
1750928852744321800,17.22032177734375,0.007941242307424545,-0.22006404399871826,0.06673697382211685
1750928852763145700,17.239145751953124,-0.006719512399286032,-0.2286161482334137,0.06795870512723923
1750928852781969400,17.257969482421874,0.004276053514331579,-0.25549420714378357,0.07651081681251526
1750928852800793300,17.27679345703125,0.0616973415017128,-0.28848087787628174,0.08750637620687485
1750928852819617300,17.2956171875,0.05558869615197182,-0.36544984579086304,0.07162389904260635
1750928852838441000,17.31444091796875,0.02871064469218254,-0.4033234715461731,0.06795870512723923
1750928852857265000,17.333264892578125,0.014049889519810677,-0.29703301191329956,0.07162389904260635
1750928852876088600,17.352088623046875,-0.014049889519810677,-0.16997312009334564,0.05696314200758934
1750928852894912500,17.37091259765625,-0.03481929376721382,-0.20662501454353333,0.052076224237680435
1750928852913736200,17.389736083984374,-0.0030543238390237093,-0.2860374450683594,0.045967575162649155
1750928852932560100,17.40856005859375,-0.02871064469218254,-0.3251327872276306,0.030085090547800064
1750928852951383800,17.4273837890625,-0.033597562462091446,-0.29825472831726074,0.02764163166284561
1750928852970207700,17.446207763671875,-0.06536252796649933,-0.20540328323841095,0.02764163166284561
1750928852989031700,17.46503173828125,-0.10201441496610641,-0.1565341055393219,0.004428769461810589
1750928853007855400,17.48385546875,-0.11178825795650482,-0.22495095431804657,-0.01740964688360691
1750928853026679300,17.50267919921875,-0.0824667438864708,-0.25182899832725525,-0.028405211865901947
1750928853045503000,17.5215029296875,-0.02626718580722809,-0.2237292230129242,-0.005345067009329796
1750928853064327000,17.540326904296876,-0.01893680728971958,-0.20540328323841095,0.005650499369949102
1750928853083150600,17.559150634765626,-0.015271619893610477,-0.2750418782234192,0.028863361105322838
1750928853101974500,17.577974609375,-0.006719512399286032,-0.2738201320171356,0.06307178735733032
1750928853120798200,17.596798095703125,-0.025045456364750862,-0.3043633699417114,0.049632761627435684
1750928853139622100,17.6156220703125,-0.025045456364750862,-0.29825472831726074,0.030085090547800064
1750928853158446000,17.634446044921877,-0.025045456364750862,-0.25182899832725525,0.011759147047996521
1750928853177269800,17.653269775390626,-0.021380268037319183,-0.19685117900371552,0.014202605932950974
1750928853196093700,17.67209375,-0.020158538594841957,-0.2860374450683594,0.016646064817905426
1750928853214917400,17.69091748046875,-0.025045456364750862,-0.3251327872276306,0.03130681812763214
1750928853233741300,17.7097412109375,-0.010384701192378998,-0.22983787953853607,0.049632761627435684
1750928853252565000,17.72856494140625,0.0030543238390237093,0.038789913058280945,0.05818486958742142
1750928853271389000,17.747388916015623,0.029932374134659767,0.1230892539024353,0.09361502528190613
1750928853290212600,17.766212646484377,0.07269290834665298,-0.1357647031545639,0.13515383005142212
1750928853309036500,17.78503662109375,0.015271619893610477,-0.4033234715461731,0.09605848789215088
1750928853327860500,17.803860595703124,-0.08002328872680664,-0.42164942622184753,0.016646064817905426
1750928853346684200,17.82268408203125,-0.13011419773101807,-0.2799287736415863,-0.02718348242342472
1750928853365508000,17.841508056640624,-0.15577052533626556,-0.20173808932304382,0.005650499369949102
1750928853384331800,17.860331787109374,-0.10323614627122879,-0.44608399271965027,0.05696314200758934
1750928853403155700,17.87915576171875,-0.04825831577181816,-0.7930551767349243,0.05085449293255806
1750928853421979400,17.8979794921875,0.12522727251052856,-1.16079580783844,0.10583232343196869
1750928853440803300,17.91680322265625,0.31093016266822815,-1.5554144382476807,0.19013166427612305
1750928853459627000,17.935626953125,0.3451386094093323,-1.7227914333343506,0.09728021919727325
1750928853478451000,17.954450927734374,0.3231474757194519,-1.4943280220031738,0.05940660089254379
1750928853497275000,17.97327490234375,0.2205221801996231,-0.9127846956253052,0.07651081681251526
1750928853516098600,17.9920986328125,-0.0030543238390237093,-0.5487092733383179,0.030085090547800064
1750928853534922500,18.010922607421875,-0.06291907280683517,-0.513279139995575,-0.04062250629067421
1750928853553746200,18.02974609375,-0.10690133273601532,-0.7014254927635193,0.052076224237680435
1750928853572570000,18.048570068359375,0.0824667438864708,-0.35323256254196167,0.14004075527191162
1750928853591393800,18.067393798828125,0.15210533142089844,0.01695149764418602,0.1363755613565445
1750928853610217700,18.0862177734375,0.09834922850131989,0.20738859474658966,0.14004075527191162
1750928853629041700,18.105041748046876,0.001832594396546483,0.13530655205249786,0.1510363221168518
1750928853647865300,18.123865234375,-0.039706211537122726,0.06322450190782547,0.14737112820148468
1750928853666689300,18.142689208984375,-0.07269290834665298,-0.06001746281981468,0.036193739622831345
1750928853685513000,18.161512939453125,-0.10201441496610641,-0.27259841561317444,-0.08460476994514465
1750928853704337000,18.1803369140625,-0.08491020649671555,-0.4546361267566681,-0.11026109009981155
1750928853723160600,18.19916064453125,-0.039706211537122726,-0.5083922147750854,-0.06017018109560013
1750928853741984500,18.217984619140626,-0.014049889519810677,-0.27137666940689087,-0.02611446939408779
1750928853760808400,18.236808349609376,-0.07513637095689774,0.03527744114398956,-0.022296564653515816
1750928853779632000,18.255632080078126,-0.12767073512077332,0.015729768201708794,-0.05406153202056885
1750928853798456000,18.2744560546875,-0.06414080411195755,-0.1455385386943817,-0.09682206809520721
1750928853817279700,18.29327978515625,-0.02626718580722809,-0.305585116147995,-0.1078176349401474
1750928853836103700,18.312103759765623,-0.015271619893610477,-0.3422369956970215,-0.06994401663541794
1750928853854927600,18.330927734375,0.0360410213470459,-0.3630063831806183,-0.012675444595515728
1750928853873751300,18.349751220703126,0.11056652665138245,-0.2945895493030548,-0.011453714221715927
1750928853892575200,18.3685751953125,0.15577052533626556,-0.28848087787628174,-0.009010255336761475
1750928853911399000,18.38739892578125,0.17287473380565643,-0.27137666940689087,-0.03817904740571976
1750928853930222800,18.406222900390624,0.164322629570961,-0.212733656167984,-0.0821613147854805
1750928853949046500,18.425046630859374,0.16065743565559387,-0.2591593861579895,-0.029626941308379173
1750928853967870500,18.443870361328123,0.15088360011577606,-0.3251327872276306,0.039858926087617874
1750928853986694100,18.462694091796877,0.09712749719619751,-0.2603811025619507,-0.024740023538470268
1750928854005518000,18.48151806640625,0.03481929376721382,-0.19074252247810364,-0.08093958348035812
1750928854024342000,18.500342041015625,0.029932374134659767,-0.1259908676147461,-0.08338304609060287
1750928854043165700,18.519165771484374,0.07757982611656189,-0.07589995115995407,-0.03329212963581085
1750928854061989600,18.53798974609375,0.08857539296150208,-0.11988221108913422,0.03252854943275452
1750928854080813300,18.556813232421874,0.10934479534626007,-0.07223475724458694,0.04230238497257233
1750928854099637200,18.57563720703125,0.0054977829568088055,-0.11255183815956116,-0.028405211865901947
1750928854118461200,18.594461181640625,-0.037262752652168274,-0.19685117900371552,-0.047952886670827866
1750928854137284900,18.613284912109375,-0.04214967042207718,-0.042913250625133514,-0.05283980444073677
1750928854156108800,18.63210888671875,-0.014049889519810677,0.12431098520755768,-0.03940077871084213
1750928854174932500,18.650932373046874,-0.006719512399286032,0.10965022444725037,-0.031001387163996696
1750928854193756400,18.66975634765625,-0.021380268037319183,0.05711585655808449,-0.03222311660647392
1750928854212580000,18.688580078125,-0.0054977829568088055,-0.09789107739925385,-0.011453714221715927
1750928854231404000,18.707404052734375,-0.031154103577136993,-0.13332124054431915,-0.06750056147575378
1750928854250228000,18.72622802734375,-0.025045456364750862,-0.02214384824037552,-0.07116574794054031
1750928854269051600,18.7450517578125,-0.02626718580722809,0.0668896958231926,-0.0772743970155716
1750928854287875600,18.76387548828125,-0.027488915249705315,-0.052687086164951324,-0.0821613147854805
1750928854316111400,18.792111328125,-0.07513637095689774,-0.033139415085315704,-0.14569124579429626
1750928854334935000,18.81093505859375,-0.08613193035125732,-0.11377356201410294,-0.14813470840454102
1750928854353759000,18.829759033203125,-0.1081230640411377,0.0010690133785828948,-0.1945604383945465
1750928854372582700,18.848582763671875,-0.1594357043504715,0.1340848207473755,-0.31184646487236023
1750928854391406600,18.867406494140624,-0.19853104650974274,-0.11133010685443878,-0.23976442217826843
1750928854410230500,18.88623046875,-0.12644900381565094,-0.1724165827035904,-0.04917461425065994
1750928854429054200,18.90505419921875,-0.015271619893610477,0.003512472379952669,0.07284562289714813
1750928854447878100,18.923878173828125,0.007941242307424545,0.07788526266813278,0.09361502528190613
1750928854466701800,18.942701904296875,-0.03481929376721382,0.07544180005788803,0.030085090547800064
1750928854485525800,18.96152587890625,-0.06780599057674408,0.060781046748161316,0.012980876490473747
1750928854504349700,18.980349609375,-0.02871064469218254,0.032681263983249664,0.0850629210472107
1750928854523173400,18.99917333984375,0.021380268037319183,0.14508038759231567,0.1363755613565445
1750928854541997300,19.017997314453126,0.056810423731803894,0.16829325258731842,0.17791436612606049
1750928854560821000,19.036821044921876,0.06291907280683517,0.1951712965965271,0.15347976982593536
1750928854579645000,19.05564501953125,0.047036588191986084,0.15241076052188873,0.11316270381212234
1750928854598468600,19.074468505859375,0.05070177838206291,0.10476330667734146,0.11682789027690887
1750928854617292500,19.09329248046875,-0.000610864779446274,0.1438586562871933,0.07406735420227051
1750928854636116500,19.112116455078127,0.03237583488225937,0.13164135813713074,0.11804962158203125
1750928854654940200,19.130940185546876,0.05192350596189499,0.04978547990322113,0.10949750989675522
1750928854673764000,19.14976416015625,0.029932374134659767,-0.033139415085315704,0.07773254066705704
1750928854692587800,19.168587890625,0.031154103577136993,-0.016035201027989388,0.0691804364323616
1750928854711411700,19.18741162109375,0.009162971749901772,0.05589412897825241,0.0435241162776947
1750928854730235400,19.2062353515625,0.0030543238390237093,0.04245510324835777,0.02519817277789116
1750928854749059300,19.225059326171873,0.010384701192378998,0.019394956529140472,0.005650499369949102
1750928854767883300,19.24388330078125,0.020158538594841957,-0.08933897316455841,0.010537417605519295
1750928854786707000,19.26270703125,-0.0030543238390237093,-0.09056070446968079,0.0032070400193333626
1750928854805531000,19.28153076171875,-0.017715077847242355,0.04245510324835777,0.0019853105768561363
1750928854824354600,19.3003544921875,-0.01893680728971958,0.08643736690282822,-0.00045814859913662076
1750928854843178500,19.319178466796874,-0.027488915249705315,0.07544180005788803,-0.001679878099821508
1750928854862002400,19.33800244140625,-0.02260199747979641,0.06444623321294785,-0.004123337101191282
1750928854880826000,19.356826171875,-0.01649334840476513,-0.017256930470466614,-0.01511890348047018
1750928854899650000,19.375650146484375,-0.014049889519810677,-0.08078686892986298,-0.024740023538470268
1750928854918473700,19.3944736328125,-0.027488915249705315,-0.0062613640911877155,-0.03817904740571976
1750928854937297700,19.413297607421875,-0.02626718580722809,0.04016435891389847,-0.03222311660647392
1750928854956121600,19.43212158203125,-0.01893680728971958,0.02306014485657215,-0.01511890348047018
1750928854974945300,19.4509453125,0.000610864779446274,-0.01847865991294384,-0.004123337101191282
1750928854993769200,19.469769287109376,-0.011606430634856224,-0.07834340631961823,-0.03817904740571976
1750928855012593000,19.488593017578125,-0.03237583488225937,-0.09666935354471207,-0.051618073135614395
1750928855031416800,19.507416748046875,-0.04825831577181816,-0.06123919412493706,-0.03329212963581085
1750928855050240800,19.52624072265625,-0.04581485688686371,0.004734201822429895,-0.01740964688360691
1750928855069064400,19.545064453125,-0.033597562462091446,-0.025809036567807198,-0.024740023538470268
1750928855087888400,19.563888427734376,-0.010384701192378998,-0.12110394239425659,-0.028405211865901947
1750928855106712000,19.582712158203126,0.04459312930703163,-0.19440771639347076,0.02153298258781433
1750928855125536000,19.601535888671876,0.0824667438864708,-0.19440771639347076,0.061850059777498245
1750928855144360000,19.62035986328125,0.06414080411195755,-0.023365577682852745,0.05085449293255806
1750928855163183600,19.63918359375,0.001832594396546483,0.04367683082818985,-0.002901607658714056
1750928855182007600,19.658007568359373,-0.010384701192378998,-0.06246092543005943,0.016646064817905426
1750928855200831200,19.676831298828127,-0.011606430634856224,-0.005039634648710489,0.06551524996757507
1750928855219655200,19.6956552734375,-0.04581485688686371,0.06444623321294785,0.01908952370285988
1750928855238479000,19.71447900390625,-0.06780599057674408,0.018173227086663246,-0.04062250629067421
1750928855257302800,19.733302734375,-0.06291907280683517,0.0010690133785828948,-0.06750056147575378
1750928855276126700,19.752126708984374,-0.05192350596189499,0.05589412897825241,-0.05528326332569122
1750928855294950400,19.770950439453124,-0.033597562462091446,0.14996729791164398,-0.012675444595515728
1750928855313774300,19.7897744140625,0.001832594396546483,0.13164135813713074,0.0386371985077858
1750928855332598300,19.808598388671875,0.05070177838206291,0.004734201822429895,0.10461059212684631
1750928855351422000,19.827421875,0.08124501258134842,-0.009926552884280682,0.10583232343196869
1750928855370246000,19.846245849609375,0.07513637095689774,-0.0025961752980947495,0.10949750989675522
1750928855389069600,19.865069580078124,0.049480047076940536,-0.07589995115995407,0.0850629210472107
1750928855407893500,19.8838935546875,0.02871064469218254,-0.1101083755493164,0.08017600327730179
1750928855426717400,19.902717529296876,0.020158538594841957,-0.05757400393486023,0.09605848789215088
1750928855445541000,19.921541015625,0.0360410213470459,-0.12843431532382965,0.08139773458242416
1750928855464365000,19.940364990234375,0.0054977829568088055,-0.27259841561317444,0.017867794260382652
1750928855483188700,19.959188720703125,0.023823726922273636,-0.4082103967666626,0.017867794260382652
1750928855502012700,19.9780126953125,0.06047561392188072,-0.3324631452560425,0.017867794260382652
1750928855520836600,19.996836669921876,0.06780599057674408,-0.07712167501449585,0.017867794260382652
1750928855539660300,20.015660400390626,0.01282816007733345,0.11087195575237274,0.026419902220368385
1750928855558484200,20.034484130859376,0.017715077847242355,0.09376774728298187,0.04474584385752678
1750928855577308000,20.053307861328125,0.03481929376721382,-0.007483093533664942,0.07040216773748398
1750928855596131800,20.0721318359375,0.02260199747979641,0.013286309316754341,0.049632761627435684
1750928855614955800,20.090955810546873,-0.001832594396546483,0.038789913058280945,0.03130681812763214
1750928855633779500,20.109779541015627,-0.001832594396546483,0.025503603741526604,0.023976443335413933
1750928855652603400,20.128603271484376,-0.000610864779446274,-0.0013744457392022014,-0.029626941308379173
1750928855671427000,20.147427001953126,0.009162971749901772,-0.07834340631961823,-0.03817904740571976
1750928855690251000,20.1662509765625,-0.01649334840476513,-0.029474224895238876,-0.057726722210645676
1750928855709075000,20.185074951171874,-0.0409279391169548,-0.012370011769235134,-0.08826996386051178
1750928855727898600,20.203898681640624,-0.07757982611656189,0.005955931730568409,-0.1334739476442337
1750928855746722600,20.22272265625,-0.07635809481143951,0.04245510324835777,-0.12492185086011887
1750928855765546200,20.241546142578127,-0.07024945318698883,0.06566796451807022,-0.11148282140493393
1750928855784370200,20.2603701171875,-0.05192350596189499,0.08399390429258347,-0.11148282140493393
1750928855803194000,20.279194091796874,-0.04825831577181816,0.1182023361325264,-0.12370011955499649
1750928855822017800,20.298017822265624,-0.04581485688686371,0.20127993822097778,-0.10659590363502502
1750928855840841700,20.316841796875,-0.04214967042207718,0.23426663875579834,-0.07360920310020447
1750928855859665400,20.33566552734375,-0.02871064469218254,0.18906265497207642,-0.021227551624178886
1750928855878489300,20.3544892578125,0.02626718580722809,0.20127993822097778,0.0386371985077858
1750928855897313300,20.373313232421875,0.10323614627122879,0.2098320573568344,0.1253799945116043
1750928855916137000,20.392136962890625,0.15699224174022675,0.10965022444725037,0.14492766559123993
1750928855934961000,20.4109609375,0.1081230640411377,0.05955931544303894,0.1718057245016098
1750928855953784800,20.429784912109376,0.0360410213470459,0.18906265497207642,0.18524473905563354
1750928855972608500,20.4486083984375,0.07024945318698883,0.17806708812713623,0.20479241013526917
1750928855991432400,20.467432373046876,0.12522727251052856,0.05100720748305321,0.21456626057624817
1750928856010256100,20.486256103515625,0.12156209349632263,-0.09178243577480316,0.20479241013526917
1750928856029080000,20.505080078125,0.0873536616563797,-0.13454297184944153,0.1815795600414276
1750928856047904000,20.523904052734373,0.02871064469218254,-0.04413498193025589,0.12293653935194016
1750928856066727700,20.542727783203127,-0.025045456364750862,0.01695149764418602,0.11804962158203125
1750928856085551600,20.561551513671876,-0.06414080411195755,0.10476330667734146,0.16081015765666962
1750928856104375300,20.580375244140626,0.0030543238390237093,0.19150610268115997,0.2585485279560089
1750928856123199200,20.59919921875,0.053145237267017365,0.0974329337477684,0.30741769075393677
1750928856142023200,20.618023193359374,0.06414080411195755,0.0206166859716177,0.2952004075050354
1750928856160846800,20.636846923828124,0.01893680728971958,0.024281874299049377,0.28787001967430115
1750928856179670800,20.6556708984375,-0.011606430634856224,0.129197895526886,0.3159697949886322
1750928856198494700,20.67449462890625,-0.01649334840476513,0.1695149689912796,0.3269653618335724
1750928856217318400,20.693318359375,-0.06291907280683517,-0.06246092543005943,0.23655737936496735
1750928856236142300,20.712142333984374,-0.08124501258134842,-0.38499751687049866,0.16447533667087555
1750928856254966300,20.73096630859375,-0.01282816007733345,-0.3263545036315918,0.21090106666088104
1750928856273790000,20.7497900390625,0.03848448023200035,-0.1821904182434082,0.20601414144039154
1750928856292614000,20.76861376953125,-0.0409279391169548,0.003512472379952669,0.18280129134655
1750928856311437600,20.7874375,-0.039706211537122726,0.25381430983543396,0.22067490220069885
1750928856330261500,20.806261474609375,0.01282816007733345,0.34666576981544495,0.2487746775150299
1750928856349085200,20.825085205078125,-0.004276053514331579,0.1585194170475006,0.18402300775051117
1750928856367909000,20.8439091796875,-0.06414080411195755,-0.11499529331922531,0.07651081681251526
1750928856386733000,20.862733154296876,-0.14233149588108063,-0.16019928455352783,-0.006566796451807022
1750928856405556700,20.881556640625,-0.1545487940311432,-0.10766492038965225,-0.021227551624178886
1750928856424380700,20.900380615234376,-0.12400554865598679,-0.04169152304530144,-0.01740964688360691
1750928856443204600,20.91920458984375,-0.06414080411195755,-0.11133010685443878,-0.005345067009329796
1750928856462028300,20.9380283203125,-0.027488915249705315,-0.20051635801792145,0.016646064817905426
1750928856480852200,20.956852294921877,-0.03237583488225937,-0.14431680738925934,0.023976443335413933
1750928856499676200,20.97567626953125,-0.06780599057674408,-0.011148282326757908,0.04230238497257233
1750928856518499800,20.994499755859376,-0.004276053514331579,0.07055488228797913,0.13515383005142212
1750928856537323800,21.01332373046875,0.17043127119541168,0.10965022444725037,0.3367392122745514
1750928856556147500,21.0321474609375,0.2889390289783478,0.3588830530643463,0.5004509687423706
1750928856574971400,21.050971435546874,0.31459537148475647,0.4615083336830139,0.5358811020851135
1750928856593795300,21.06979541015625,0.25473061203956604,0.25381430983543396,0.45769044756889343
1750928856612619000,21.088618896484373,0.2107483446598053,0.08643736690282822,0.4198168218135834
1750928856631443000,21.10744287109375,0.13133592903614044,0.10109812021255493,0.36361727118492126
1750928856650267000,21.126266845703125,0.0824667438864708,0.07422006875276566,0.33918267488479614
1750928856669090600,21.145090576171874,0.027488915249705315,0.14996729791164398,0.3257436454296112
1750928856687914500,21.16391455078125,-0.05558869615197182,0.24404047429561615,0.2890917658805847
1750928856706738200,21.18273828125,-0.0616973415017128,0.10720676928758621,0.33918267488479614
1750928856725562000,21.20156201171875,-0.015271619893610477,-0.01847865991294384,0.4344775676727295
1750928856744386000,21.220385986328125,0.13133592903614044,0.15241076052188873,0.4637990891933441
1750928856763209700,21.239209716796875,0.19730933010578156,0.10965022444725037,0.4699077308177948
1750928856782033700,21.25803369140625,0.03848448023200035,0.003512472379952669,0.4601338803768158
1750928856800857600,21.276857666015626,-0.18142683804035187,0.16829325258731842,0.4503600597381592
1750928856819681300,21.295681396484376,-0.268169641494751,0.323452889919281,0.35873034596443176
1750928856838505200,21.314505126953126,-0.24862197041511536,0.2574795186519623,0.24999640882015228
1750928856857329000,21.333328857421876,-0.13011419773101807,0.0010690133785828948,0.346513032913208
1750928856885564700,21.361564697265624,-0.047036588191986084,0.10354158282279968,0.540768027305603
1750928856904388600,21.380388671875,-0.18753549456596375,0.13530655205249786,0.43692103028297424
1750928856923212500,21.399212646484376,-0.28405213356018066,0.004734201822429895,0.2182314395904541
1750928856942036200,21.4180361328125,-0.14110976457595825,0.054672397673130035,0.05451968312263489
1750928856960860200,21.436860107421875,0.025045456364750862,0.04367683082818985,0.1107192412018776
1750928856979683800,21.455683837890625,0.01282816007733345,0.1585194170475006,0.32452189922332764
1750928856998507800,21.4745078125,-0.06536252796649933,0.28924447298049927,0.3611738085746765
1750928857017331700,21.493331787109376,-0.11545344442129135,0.4786125421524048,0.3929387629032135
1750928857036155400,21.5121552734375,-0.10201441496610641,0.49571678042411804,0.4430296719074249
1750928857054979300,21.530979248046876,-0.056810423731803894,0.129197895526886,0.3355174660682678
1750928857073803300,21.54980322265625,-0.0360410213470459,-0.0844520553946495,0.2744309902191162
1750928857092627000,21.568626953125,-0.01893680728971958,-0.2750418782234192,0.3159697949886322
1750928857111451000,21.587450927734373,0.020158538594841957,-0.30314165353775024,0.3379609286785126
1750928857130274800,21.60627490234375,0.01649334840476513,-0.02458730712532997,0.35384342074394226
1750928857149098500,21.625098388671876,0.009162971749901772,0.1328630894422531,0.4198168218135834
1750928857167922400,21.64392236328125,0.06414080411195755,0.2525925934314728,0.35873034596443176
1750928857186746400,21.662746337890624,0.12400554865598679,-0.08811724185943604,0.2695440948009491
1750928857205570000,21.681570068359374,0.009162971749901772,-0.7527381181716919,0.22434009611606598
1750928857224394000,21.70039404296875,-0.11667517572641373,-0.9359975457191467,0.15592323243618011
1750928857243218000,21.719218017578125,-0.15577052533626556,-1.004414439201355,0.2023489624261856
1750928857262041600,21.73804150390625,-0.18142683804035187,-0.8321505188941956,0.2707658112049103
1750928857280865500,21.756865478515625,-0.16676609218120575,-0.7490729093551636,0.46746426820755005
1750928857299689200,21.775689208984375,-0.006719512399286032,-0.6733257174491882,0.3966039717197418
1750928857318513200,21.79451318359375,0.25961753726005554,-0.3324631452560425,0.3672824501991272
1750928857337337000,21.813337158203126,0.5259546041488647,-0.10766492038965225,0.5517635941505432
1750928857356160800,21.832160888671876,0.6688969135284424,0.1182023361325264,0.7716749310493469
1750928857374984700,21.850984619140625,0.6603448390960693,0.6630937457084656,0.9928079843521118
1750928857393808600,21.86980859375,0.500298261642456,0.9563088417053223,0.9500474333763123
1750928857412632300,21.88863232421875,0.31093016266822815,0.6191114783287048,0.7142536640167236
1750928857431456300,21.907456298828127,0.11423171311616898,-0.18096868693828583,0.37094762921333313
1750928857450280200,21.9262802734375,0.02871064469218254,-0.7686206102371216,0.1876882016658783
1750928857469103900,21.945103759765626,0.006719512399286032,-0.6415607333183289,0.21456626057624817
1750928857487927800,21.963927734375,-0.000610864779446274,-0.15531237423419952,0.31719154119491577
1750928857506751700,21.982751708984374,-0.021380268037319183,0.14752385020256042,0.3428478538990021
1750928857525575400,22.001575439453124,-0.033597562462091446,0.2513708472251892,0.37094762921333313
1750928857544399400,22.0203994140625,0.027488915249705315,0.31123560667037964,0.5725330114364624
1750928857563223300,22.039223388671875,0.17165300250053406,0.43951719999313354,0.8425352573394775
1750928857582047000,22.058046875,0.23884813487529755,0.4175260663032532,1.0062470436096191
1750928857600871000,22.076870849609374,0.08613193035125732,0.3943132162094116,1.0343468189239502
1750928857619694800,22.09569482421875,-0.16676609218120575,0.2965748608112335,0.9830341339111328
1750928857638518500,22.1145185546875,-0.2156352698802948,0.4016436040401459,0.9500474333763123
1750928857657342500,22.133342529296876,-0.20219624042510986,0.46883872151374817,0.8571959733963013
1750928857676166400,22.15216650390625,-0.2620609998703003,0.18173226714134216,0.7240274548530579
1750928857694990000,22.170989990234375,-0.3500255048274994,-0.03802633285522461,0.6421716213226318
1750928857713814000,22.18981396484375,-0.5064069032669067,-0.27748534083366394,0.5102248191833496
1750928857732637700,22.2086376953125,-0.6151408553123474,-0.017256930470466614,0.31841325759887695
1750928857751461600,22.227461669921876,-0.5430588126182556,0.3906480371952057,0.23044873774051666
1750928857770285600,22.24628564453125,-0.45509424805641174,0.20127993822097778,0.3159697949886322
1750928857789109200,22.265109130859376,-0.42332929372787476,0.06811141967773438,0.3269653618335724
1750928857807933200,22.28393310546875,-0.3426951467990875,0.18906265497207642,0.30253079533576965
1750928857826757000,22.302757080078123,-0.1594357043504715,0.30024003982543945,0.4137081801891327
1750928857845581000,22.3215810546875,-0.07269290834665298,0.2831358313560486,0.5358811020851135
1750928857864404700,22.34040478515625,-0.0665842592716217,0.25870123505592346,0.4747946560382843
1750928857883228700,22.359228759765625,-0.07391463965177536,0.12675444781780243,0.47845983505249023
1750928857902052600,22.378052490234374,-0.02626718580722809,0.08521563559770584,0.5823068618774414
1750928857920876300,22.396876220703124,0.037262752652168274,0.16218459606170654,0.6348412036895752
1750928857939700200,22.4157001953125,0.0873536616563797,0.16096286475658417,0.5896372199058533
1750928857958524200,22.434524169921875,0.10567960888147354,0.1230892539024353,0.5823068618774414
1750928857977347800,22.453347900390625,0.10445787757635117,0.0974329337477684,0.6140718460083008
1750928857996171800,22.472171875,0.1178968995809555,0.03390299528837204,0.6690496206283569
1750928858014995700,22.49099560546875,0.16310089826583862,-0.0013744457392022014,0.6776017546653748
1750928858033819400,22.5098193359375,0.20341797173023224,0.021838415414094925,0.7118101716041565
1750928858052643300,22.528643310546876,0.2254091054201126,0.010842849500477314,0.735023021697998
1750928858071467300,22.54746728515625,0.2107483446598053,-0.033139415085315704,0.698371171951294
1750928858090291000,22.566291015625,0.2009745091199875,0.013286309316754341,0.5933024287223816
1750928858109115000,22.585114990234374,0.185092031955719,0.13164135813713074,0.5077813267707825
1750928858127938800,22.603938720703123,0.20341797173023224,0.09865466505289078,0.4234820008277893
1750928858146762500,22.622762451171877,0.1692095398902893,0.08765909820795059,0.4283689260482788
1750928858165586400,22.64158642578125,0.09712749719619751,0.16584978997707367,0.47723811864852905
1750928858184410400,22.660410400390624,0.037262752652168274,0.19883649051189423,0.46135562658309937
1750928858203234000,22.679234130859374,-0.03237583488225937,0.11087195575237274,0.39049530029296875
1750928858222058000,22.69805810546875,-0.2107483446598053,0.3943132162094116,0.5297724604606628
1750928858240882000,22.7168818359375,-0.13744457066059113,0.31123560667037964,0.6262891292572021
1750928858259705900,22.735705810546875,-0.1533270627260208,0.33200499415397644,0.7276926636695862
1750928858278529500,22.754529541015625,-0.17898337543010712,0.23182319104671478,0.8144354820251465
1750928858297353500,22.773353515625,-0.16798780858516693,0.18784092366695404,0.744796872138977
1750928858316177400,22.792177490234376,-0.22174391150474548,0.16707152128219604,0.6409498453140259
1750928858335001000,22.8110009765625,-0.3610210716724396,0.10842850059270859,0.540768027305603
1750928858353825000,22.829824951171876,-0.41844236850738525,0.18784092366695404,0.4454731345176697
1750928858372649000,22.84864892578125,-0.5088503360748291,-0.014813470654189587,0.3477347791194916
1750928858391472600,22.86747265625,-0.4880809485912323,-0.12354740500450134,0.3306305706501007
1750928858410296600,22.886296630859373,-0.41355544328689575,-0.191964253783226,0.3196350038051605
1750928858429120500,22.90512060546875,-0.2009745091199875,-0.009926552884280682,0.3868301212787628
1750928858447944200,22.923944091796876,0.0054977829568088055,-0.04535670951008797,0.3966039717197418
1750928858466768100,22.94276806640625,0.16187916696071625,-0.0844520553946495,0.41492989659309387
1750928858485592000,22.961592041015624,0.17653992772102356,-0.08933897316455841,0.4637990891933441
1750928858504415700,22.980415771484374,0.11423171311616898,0.019394956529140472,0.5639809370040894
1750928858523239700,22.99923974609375,-0.004276053514331579,0.12186752259731293,0.5627591609954834
1750928858542063600,23.018063720703125,-0.08124501258134842,0.02779434807598591,0.43081238865852356
1750928858560887300,23.03688720703125,-0.19730933010578156,-0.0062613640911877155,0.3477347791194916
1750928858579711200,23.055711181640625,-0.19853104650974274,0.007177661173045635,0.37583455443382263
1750928858598535200,23.07453515625,-0.12522727251052856,-0.029474224895238876,0.3404043912887573
1750928858617359000,23.093359130859376,-0.04825831577181816,-0.07834340631961823,0.19990549981594086
1750928858636182800,23.112182861328126,0.03481929376721382,-0.012370011769235134,0.11438442766666412
1750928858655006700,23.1310068359375,0.049480047076940536,0.0412333719432354,0.2280052751302719
1750928858673830700,23.14983056640625,0.06536252796649933,0.038789913058280945,0.356286883354187
