time,seconds_elapsed,z,y,x
1750928835689979400,0.1659794921875,0.017867794260382652,0.004428769461810589,0.02519817277789116
1750928835755862300,0.2318623046875,0.02153298258781433,0.03130681812763214,0.10094540566205978
1750928835793510000,0.269510009765625,0.14370593428611755,-0.10186170041561127,-0.21548254787921906
1750928835812333600,0.28833349609375,0.22189663350582123,-0.15317434072494507,-0.09697478264570236
1750928835831157200,0.3071572265625,0.20479241013526917,-0.08353576064109802,0.055741410702466965
1750928835849981000,0.32598095703125,0.1766926348209381,-0.11774418503046036,0.13271036744117737
1750928835868804900,0.344804931640625,0.10949750989675522,-0.10063996911048889,0.09239330142736435
1750928835887628500,0.363628662109375,0.04474584385752678,-0.00045814859913662076,0.08017600327730179
1750928835906452200,0.3824521484375,0.012980876490473747,0.12171480804681778,0.036193739622831345
1750928835925276000,0.40127587890625,-0.012675444595515728,0.16447533667087555,0.012980876490473747
1750928835944099600,0.420099609375,-0.013897174037992954,0.08139773458242416,0.02764163166284561
1750928835962923300,0.43892333984375,0.03375028073787689,-0.07131846249103546,0.036193739622831345
1750928835981747000,0.457746826171875,0.061850059777498245,-0.06765327602624893,0.04230238497257233
1750928836000571000,0.47657080078125,0.039858926087617874,0.055741410702466965,0.05696314200758934
1750928836019394600,0.49539453125,-0.022449281066656113,0.21578797698020935,0.0642935186624527
1750928836038218200,0.51421826171875,-0.06276635825634003,0.28176137804985046,0.006872228812426329
1750928836057042000,0.5330419921875,-0.06276635825634003,0.24266603589057922,-0.06520981341600418
1750928836075865600,0.551865478515625,-0.06887500733137131,0.20112723112106323,-0.125074565410614
1750928836094689300,0.570689208984375,-0.07742711156606674,0.19379685819149017,-0.1360701322555542
1750928836113513200,0.58951318359375,-0.09086613357067108,0.20967933535575867,-0.13851359486579895
1750928836132337000,0.6083369140625,-0.06765327602624893,0.16814053058624268,-0.11652245372533798
1750928836151160600,0.62716064453125,-0.04810560122132301,0.09850194305181503,-0.06276635825634003
1750928836169984300,0.645984375,-0.004123337101191282,0.028863361105322838,-0.03955349326133728
1750928836188808000,0.664807861328125,0.005650499369949102,0.0019853105768561363,-0.012675444595515728
1750928836207632000,0.6836318359375,-0.002901607658714056,0.03375028073787689,0.004428769461810589
1750928836226455600,0.70245556640625,-0.013897174037992954,0.06673697382211685,-0.009010255336761475
1750928836245279200,0.721279296875,-0.021227551624178886,0.052076224237680435,-0.04321868345141411
1750928836264103000,0.74010302734375,-0.04321868345141411,0.07162389904260635,-0.04199695214629173
1750928836282926600,0.758926513671875,-0.054214250296354294,0.06795870512723923,-0.04199695214629173
1750928836301750500,0.77775048828125,-0.021227551624178886,-0.012675444595515728,-0.04932733252644539
1750928836320574200,0.79657421875,-0.02611446939408779,-0.024892739951610565,-0.028557928279042244
1750928836339398000,0.81539794921875,-0.012675444595515728,-0.018784092739224434,-0.021227551624178886
1750928836358221600,0.8342216796875,-0.018784092739224434,-0.002901607658714056,-0.011453714221715927
1750928836377045200,0.853045166015625,-0.03711003437638283,0.03741546720266342,-0.0102319847792387
1750928836395869200,0.871869140625,-0.02611446939408779,0.02764163166284561,-0.012675444595515728
1750928836414692900,0.89069287109375,-0.06643154472112656,0.10338886082172394,-0.022449281066656113
1750928836433516500,0.9095166015625,-0.034666575491428375,0.0642935186624527,-0.02367101050913334
1750928836452340200,0.92834033203125,-0.021227551624178886,0.0154243353754282,-0.018784092739224434
1750928836471164000,0.947163818359375,-0.04566214233636856,0.06673697382211685,-0.034666575491428375
1750928836489987600,0.965987548828125,-0.011453714221715927,-0.00045814859913662076,-0.046883873641490936
1750928836508811500,0.9848115234375,-0.002901607658714056,0.004428769461810589,-0.017562363296747208
1750928836527635200,1.00363525390625,-0.03955349326133728,0.08139773458242416,0.011759147047996521
1750928836546459000,1.022458984375,-0.021227551624178886,0.022754713892936707,0.0007635809597559273
1750928836565282600,1.041282470703125,-0.05787943676114082,0.02153298258781433,-0.04566214233636856
1750928836584106500,1.0601064453125,-0.07254019379615784,0.06551524996757507,-0.09330959618091583
1750928836612342000,1.088342041015625,-0.016340631991624832,0.011759147047996521,-0.028557928279042244
1750928836631165700,1.107165771484375,-0.0334448479115963,0.10094540566205978,-0.0102319847792387
1750928836649989400,1.1259892578125,-0.027336198836565018,0.07040216773748398,0.016646064817905426
1750928836668813300,1.144813232421875,-0.0334448479115963,0.03130681812763214,-0.001679878099821508
1750928836687637000,1.163636962890625,-0.07498364895582199,0.08261945843696594,-0.0798705667257309
1750928836706460700,1.182460693359375,-0.06154462695121765,0.0642935186624527,-0.08597921580076218
1750928836725284400,1.201284423828125,-0.04566214233636856,-0.006566796451807022,0.011759147047996521
1750928836744108300,1.2201083984375,0.010537417605519295,-0.027336198836565018,0.08750637620687485
1750928836762932000,1.238931884765625,0.014202605932950974,0.014202605932950974,0.08872810751199722
1750928836781755600,1.257755615234375,-0.00045814859913662076,0.030085090547800064,0.06307178735733032
1750928836800579300,1.276579345703125,-0.04566214233636856,0.12171480804681778,-0.00045814859913662076
1750928836819403000,1.295403076171875,-0.0798705667257309,0.30375251173973083,-0.02367101050913334
1750928836838227000,1.31422705078125,-0.06887500733137131,0.22434009611606598,0.022754713892936707
1750928836857050600,1.333050537109375,-0.02367101050913334,0.026419902220368385,0.03130681812763214
1750928836875874300,1.351874267578125,-0.05787943676114082,0.036193739622831345,-0.02000582218170166
1750928836894698000,1.370697998046875,-0.11285726726055145,0.16325360536575317,-0.06154462695121765
1750928836913521700,1.389521728515625,-0.09575305134057999,0.2341139316558838,-0.08842267841100693
1750928836932345600,1.408345703125,-0.054214250296354294,0.13759729266166687,-0.04566214233636856
1750928836951169300,1.427169189453125,-0.034666575491428375,0.19501857459545135,-0.00045814859913662076
1750928836969993000,1.445992919921875,-0.03711003437638283,0.16081015765666962,-0.028557928279042244
1750928836988816600,1.464816650390625,-0.0383317656815052,-0.050549060106277466,-0.031001387163996696
1750928837007640600,1.483640625,-0.04566214233636856,-0.32910341024398804,-0.02611446939408779
1750928837026464300,1.50246435546875,-0.09330959618091583,0.08261945843696594,0.10216713696718216
1750928837045288000,1.521287841796875,-0.0847574844956398,-0.09575305134057999,0.09728021919727325
1750928837064111600,1.540111572265625,-0.03588830679655075,-0.23014330863952637,0.08139773458242416
1750928837082935600,1.558935546875,-0.028557928279042244,0.005650499369949102,0.0691804364323616
1750928837101759200,1.57775927734375,0.016646064817905426,0.04718930274248123,-0.011453714221715927
1750928837120583000,1.5965830078125,0.06307178735733032,0.052076224237680435,-0.10797034949064255
1750928837139406600,1.615406494140625,-0.0102319847792387,0.14859285950660706,-0.09330959618091583
1750928837158230500,1.63423046875,-0.040775224566459656,0.3367392122745514,0.0019853105768561363
1750928837177054200,1.65305419921875,0.05085449293255806,0.09361502528190613,0.18646647036075592
1750928837195878000,1.6718779296875,0.16081015765666962,-0.3767508566379547,0.388051837682724
1750928837214701600,1.69070166015625,0.15347976982593536,-0.4647153913974762,0.3379609286785126
1750928837233525200,1.709525146484375,0.10216713696718216,-0.37064221501350403,0.36483898758888245
1750928837252349200,1.72834912109375,0.23533566296100616,-0.3168860971927643,0.471129447221756
1750928837271172900,1.7471728515625,0.21945317089557648,-0.20937390625476837,0.43081238865852356
1750928837289996500,1.76599658203125,0.20357069373130798,-0.19593487679958344,0.10338886082172394
1750928837308820500,1.784820556640625,0.13759729266166687,-0.5465712547302246,-0.2863428592681885
1750928837327644200,1.80364404296875,0.20112723112106323,-0.8324559926986694,-0.31932955980300903
1750928837346467800,1.8224677734375,0.30375251173973083,-0.6565269231796265,-0.06765327602624893
1750928837365291500,1.84129150390625,0.356286883354187,-0.3828594982624054,0.05940660089254379
1750928837384115200,1.860115234375,0.3782780170440674,0.1107192412018776,-0.04199695214629173
1750928837402939100,1.878939208984375,0.28664830327033997,0.366060733795166,-0.10674861818552017
1750928837421762800,1.8977626953125,0.2023489624261856,0.3929387629032135,-0.08720094710588455
1750928837440586500,1.91658642578125,-0.031001387163996696,0.643393337726593,-0.3510945439338684
1750928837459410400,1.935410400390625,-0.37919431924819946,0.837648332118988,-0.6553052067756653
1750928837478234000,1.954234130859375,-0.679739773273468,1.244484305381775,-0.6577486395835876
1750928837497057800,1.973057861328125,-0.5099193453788757,0.9634864926338196,-0.060322895646095276
1750928837515881500,1.991881591796875,-0.2606865465641022,0.23533566296100616,0.0948367565870285
1750928837534705200,2.010705078125,0.0386371985077858,0.03497200831770897,-0.054214250296354294
1750928837553529000,2.029529052734375,0.13881902396678925,0.04108065739274025,0.08261945843696594
1750928837572352800,2.048352783203125,0.14004075527191162,-0.07009673118591309,0.08750637620687485
1750928837591176400,2.067176513671875,0.10827577859163284,-0.1153007298707962,0.016646064817905426
1750928837610000400,2.08600048828125,0.039858926087617874,0.2231183648109436,-0.07376192510128021
1750928837628824000,2.104823974609375,-0.09453132748603821,0.31719154119491577,-0.0896444097161293
1750928837647647700,2.123647705078125,-0.16661337018013,0.4283689260482788,-0.05543597787618637
1750928837666471400,2.142471435546875,-0.20693044364452362,0.5212203860282898,-0.06765327602624893
1750928837685295400,2.16129541015625,-0.19471314549446106,0.6763800382614136,-0.056657709181308746
1750928837704119000,2.180119140625,-0.14828743040561676,0.698371171951294,0.05940660089254379
1750928837722942700,2.198942626953125,-0.0383317656815052,0.3269653618335724,0.06307178735733032
1750928837741766400,2.217766357421875,0.030085090547800064,0.07284562289714813,0.026419902220368385
1750928837760590000,2.236590087890625,0.011759147047996521,-0.056657709181308746,-0.056657709181308746
1750928837779414000,2.2554140625,0.07162389904260635,0.04718930274248123,-0.03222311660647392
1750928837798237700,2.27423779296875,0.15592323243618011,0.22067490220069885,0.05329795181751251
1750928837817061400,2.293061279296875,0.13759729266166687,0.42592546343803406,0.02153298258781433
1750928837835885300,2.31188525390625,0.0850629210472107,0.3306305706501007,-0.10674861818552017
1750928837854709000,2.330708984375,0.07773254066705704,0.162031888961792,-0.11652245372533798
1750928837873532700,2.34953271484375,0.13881902396678925,-0.02611446939408779,-0.04932733252644539
1750928837892356400,2.3683564453125,0.10094540566205978,0.026419902220368385,-0.016340631991624832
1750928837911180300,2.38718017578125,0.09605848789215088,-0.012675444595515728,-0.0334448479115963
1750928837930004000,2.40600390625,0.016646064817905426,-0.060322895646095276,-0.044440411031246185
1750928837948827600,2.42482763671875,-0.046883873641490936,0.0899498388171196,-0.07376192510128021
1750928837967651600,2.443651611328125,-0.1104138121008873,0.25610506534576416,-0.09575305134057999
1750928837986475300,2.462475341796875,-0.12018764764070511,0.28176137804985046,-0.054214250296354294
1750928838005299000,2.481298828125,-0.06765327602624893,0.2390008419752121,0.023976443335413933
1750928838024122600,2.50012255859375,-0.016340631991624832,0.25732678174972534,0.10461059212684631
1750928838042946600,2.518946533203125,0.012980876490473747,0.304974228143692,0.16569706797599792
1750928838061770200,2.537770263671875,-0.002901607658714056,0.346513032913208,0.17424917221069336
1750928838080594000,2.556593994140625,-0.040775224566459656,0.3110828995704651,0.14859285950660706
1750928838099417600,2.57541748046875,-0.05787943676114082,0.37461283802986145,0.11194097250699997
1750928838118241500,2.594241455078125,-0.0383317656815052,0.3966039717197418,0.0899498388171196
1750928838137065200,2.613065185546875,-0.01511890348047018,0.39416050910949707,0.12660172581672668
1750928838155889000,2.631888916015625,0.009315688163042068,0.490677148103714,0.13515383005142212
1750928838174712800,2.650712890625,0.026419902220368385,0.5273290276527405,0.09239330142736435
1750928838193536500,2.66953662109375,-0.009010255336761475,0.3672824501991272,-0.027336198836565018
1750928838212360200,2.688360107421875,-0.0896444097161293,0.17547090351581573,-0.11407899856567383
1750928838231184000,2.707183837890625,-0.15317434072494507,0.2280052751302719,-0.12263110280036926
1750928838250007800,2.7260078125,-0.15561780333518982,0.41492989659309387,-0.10063996911048889
1750928838268831500,2.74483154296875,-0.07620538026094437,0.560315728187561,-0.06887500733137131
1750928838287655200,2.7636552734375,0.028863361105322838,0.3868301212787628,-0.012675444595515728
1750928838306478800,2.782478759765625,0.09605848789215088,0.27198755741119385,0.05085449293255806
1750928838325302800,2.801302734375,0.04841103404760361,0.4967857897281647,0.05451968312263489
1750928838344126500,2.82012646484375,-0.10063996911048889,0.7215840220451355,0.016646064817905426
1750928838362950100,2.8389501953125,-0.17516547441482544,0.7777835726737976,0.028863361105322838
1750928838381774000,2.857774169921875,-0.16294817626476288,0.6763800382614136,0.09850194305181503
1750928838400597800,2.87659765625,-0.11163553595542908,0.7179188132286072,0.011759147047996521
1750928838419421400,2.89542138671875,-0.04321868345141411,0.5725330114364624,-0.2179260104894638
1750928838438245000,2.9142451171875,0.022754713892936707,0.6385064125061035,-0.3400989770889282
1750928838457069000,2.933069091796875,-0.012675444595515728,0.716697096824646,-0.3303251266479492
1750928838475892700,2.951892822265625,-0.1617264449596405,0.7020363211631775,-0.15561780333518982
1750928838494716400,2.97071630859375,-0.23747368156909943,0.5468766689300537,-0.0102319847792387
1750928838532364000,3.008364013671875,-0.04566214233636856,0.6495019793510437,-0.13729186356067657
1750928838551187700,3.027187744140625,-0.02000582218170166,0.7557924389839172,-0.3217730224132538
1750928838570011400,3.046011474609375,-0.02367101050913334,0.7472403645515442,-0.41095927357673645
1750928838588835300,3.06483544921875,-0.03711003437638283,0.5236638188362122,-0.3559814393520355
1750928838607659000,3.083658935546875,-0.03955349326133728,0.33307403326034546,-0.1715002804994583
1750928838626482700,3.102482666015625,-0.031001387163996696,0.28787001967430115,-0.00045814859913662076
1750928838645306600,3.121306640625,-0.031001387163996696,0.36361727118492126,0.03252854943275452
1750928838664130300,3.14013037109375,-0.03955349326133728,0.5248855352401733,-0.012675444595515728
1750928838682954000,3.1589541015625,-0.02611446939408779,0.6006327867507935,-0.05177079141139984
1750928838701777700,3.177777587890625,0.04108065739274025,0.45769044756889343,-0.044440411031246185
1750928838720601600,3.1966015625,0.010537417605519295,0.3819431960582733,0.022754713892936707
1750928838739425300,3.21542529296875,-0.08597921580076218,0.3770562708377838,0.03497200831770897
1750928838758249000,3.2342490234375,-0.125074565410614,0.3721693754196167,0.02153298258781433
1750928838777072600,3.25307275390625,-0.10430516302585602,0.4967857897281647,-0.002901607658714056
1750928838795896600,3.271896484375,-0.09575305134057999,0.6482802629470825,-0.002901607658714056
1750928838814720300,3.29072021484375,-0.04810560122132301,0.5676460862159729,0.005650499369949102
1750928838833544000,3.3095439453125,-0.005345067009329796,0.2805396616458893,-0.03588830679655075
1750928838852368000,3.328367919921875,0.010537417605519295,0.16447533667087555,-0.0639880821108818
1750928838871191600,3.347191650390625,-0.006566796451807022,0.23533566296100616,-0.02611446939408779
1750928838890015200,3.36601513671875,-0.07376192510128021,0.4344775676727295,0.03375028073787689
1750928838908839200,3.384839111328125,-0.0591011680662632,0.5493201613426208,0.07284562289714813
1750928838927662800,3.403662841796875,0.036193739622831345,0.5908589363098145,0.1461493968963623
1750928838946486500,3.422486572265625,0.18646647036075592,0.5041161775588989,0.21578797698020935
1750928838965310200,3.441310302734375,0.45280352234840393,0.6165152788162231,0.24755294620990753
1750928838984134100,3.460134033203125,0.5737547278404236,0.809548556804657,0.27198755741119385
1750928839002957800,3.478957763671875,0.5652026534080505,1.0416771173477173,0.3159697949886322
1750928839021781500,3.497781494140625,0.5493201613426208,0.9989166259765625,0.5823068618774414
1750928839040605400,3.51660546875,0.5102248191833496,0.9048434495925903,0.5053378939628601
1750928839059429000,3.53542919921875,0.3110828995704651,0.6214022040367126,0.3623955249786377
1750928839078252800,3.554252685546875,0.29397866129875183,0.5676460862159729,0.3428478538990021
1750928839097076700,3.57307666015625,0.31352636218070984,0.5920807123184204,0.34406960010528564
1750928839115900400,3.591900390625,0.2341139316558838,0.5163334608078003,0.32940882444381714
1750928839134724000,3.61072412109375,0.18280129134655,0.6360629796981812,0.2487746775150299
1750928839153547800,3.6295478515625,0.17058399319648743,0.48701193928718567,0.06673697382211685
1750928839172371700,3.648371826171875,-0.011453714221715927,0.26221370697021484,-0.07009673118591309
1750928839191195400,3.6671953125,-0.1824958473443985,0.049632761627435684,-0.05787943676114082
1750928839210019000,3.68601904296875,-0.5477929711341858,0.2744309902191162,-0.14706569910049438
1750928839228843000,3.704843017578125,-0.864220917224884,0.08872810751199722,-0.31810784339904785
1750928839247666700,3.723666748046875,-0.2228129357099533,0.07284562289714813,0.12415826320648193
1750928839266490400,3.742490478515625,-0.2802342176437378,0.2744309902191162,0.061850059777498245
1750928839285314000,3.76131396484375,-0.5282453298568726,0.15958842635154724,-0.16416990756988525
1750928839304138000,3.780137939453125,-0.301003634929657,0.2536616027355194,0.13759729266166687
1750928839322961700,3.798961669921875,-0.08597921580076218,0.45646870136260986,0.30375251173973083
1750928839341785300,3.817785400390625,0.07528908550739288,0.3208567202091217,0.162031888961792
1750928839360609300,3.836609375,0.162031888961792,0.4760163724422455,0.13271036744117737
1750928839379433000,3.855432861328125,0.14248420298099518,0.4943423271179199,0.08261945843696594
1750928839398256600,3.874256591796875,0.03497200831770897,0.3404043912887573,-0.09330959618091583
1750928839417080600,3.89308056640625,0.036193739622831345,0.366060733795166,-0.0847574844956398
1750928839435904300,3.911904296875,0.11927134543657303,0.5102248191833496,0.06551524996757507
1750928839454728000,3.93072802734375,0.10583232343196869,0.6482802629470825,0.07895427197217941
1750928839473551600,3.949551513671875,0.030085090547800064,0.44180795550346375,-0.17638720571994781
1750928839492375600,3.96837548828125,-0.08720094710588455,0.2903134822845459,-0.3816377818584442
1750928839511199200,3.98719921875,-0.1153007298707962,0.22189663350582123,-0.1922696828842163
1750928839530023000,4.00602294921875,-0.08597921580076218,0.6446150541305542,-0.08842267841100693
1750928839548846800,4.024846923828125,-0.19593487679958344,0.4589121639728546,-0.32910341024398804
1750928839567670500,4.04367041015625,-0.2240346521139145,0.314748078584671,-0.26190826296806335
1750928839586494200,4.062494140625,0.030085090547800064,0.4857902228832245,-0.08842267841100693
1750928839605318100,4.081318115234375,0.314748078584671,0.6727148294448853,-0.16416990756988525
1750928839624141800,4.100141845703125,0.30253079533576965,0.407599538564682,-0.2753472924232483
1750928839642965500,4.118965576171875,0.4650208055973053,0.6006327867507935,-0.145843967795372
1750928839661789400,4.13778955078125,0.3782780170440674,0.6201804876327515,-0.02977965772151947
1750928839680613000,4.156613037109375,0.2487746775150299,0.643393337726593,0.04108065739274025
1750928839699436800,4.175436767578125,0.20723587274551392,0.6788234710693359,0.06551524996757507
1750928839718260500,4.194260498046875,0.162031888961792,0.5871937870979309,-0.007788525894284248
1750928839737084400,4.21308447265625,0.08872810751199722,0.4955640435218811,-0.08353576064109802
1750928839755908000,4.231908203125,-0.09941824525594711,0.40637779235839844,-0.125074565410614
1750928839774731800,4.250731689453125,-0.09086613357067108,0.3721693754196167,-0.06643154472112656
1750928839793555700,4.2695556640625,-0.15317434072494507,0.5309942364692688,-0.0102319847792387
1750928839812379400,4.28837939453125,-0.14217877388000488,0.4943423271179199,-0.04810560122132301
1750928839831203000,4.307203125,-0.04932733252644539,0.25610506534576416,-0.16661337018013
1750928839850027000,4.326027099609375,-0.011453714221715927,0.24266603589057922,-0.06643154472112656
1750928839868850700,4.3448505859375,-0.034666575491428375,0.27809619903564453,0.026419902220368385
1750928839887674400,4.36367431640625,-0.03711003437638283,0.2707658112049103,-0.031001387163996696
1750928839906498000,4.382498046875,0.07040216773748398,0.15470150113105774,-0.1311832070350647
1750928839925322000,4.401322021484375,0.07040216773748398,0.045967575162649155,-0.17027856409549713
1750928839944145700,4.420145751953125,0.04718930274248123,0.08628465235233307,-0.23991714417934418
1750928839962969600,4.438969482421875,-0.06643154472112656,0.005650499369949102,-0.3046688139438629
1750928839981793300,4.457793212890625,-0.2130390852689743,-0.13484840095043182,-0.453719824552536
1750928840000617000,4.476616943359375,-0.2338084876537323,-0.08842267841100693,-0.5001455545425415
1750928840019440600,4.495440673828125,-0.16416990756988525,0.06307178735733032,-0.43050694465637207
1750928840038264600,4.5142646484375,-0.23503021895885468,0.40637779235839844,-0.27779075503349304
1750928840057088300,4.533088134765625,-0.2900080680847168,0.3623955249786377,-0.30711227655410767
1750928840075912000,4.551911865234375,-0.3119991719722748,0.5371028780937195,-0.4341721534729004
1750928840094736000,4.57073583984375,-0.291229784488678,0.7142536640167236,-0.503810703754425
1750928840113559600,4.5895595703125,-0.31444263458251953,1.086881160736084,-0.3681987524032593
1750928840132383200,4.60838330078125,-0.4353938698768616,1.0465641021728516,-0.23014330863952637
1750928840151207200,4.627207275390625,-0.5245801210403442,0.5908589363098145,-0.03588830679655075
1750928840170030800,4.64603076171875,-0.6455313563346863,0.4088212549686432,0.005650499369949102
1750928840188854500,4.6648544921875,-0.7310523986816406,0.5432115197181702,-0.06154462695121765
1750928840207678200,4.68367822265625,-0.6821832656860352,0.7838922142982483,-0.0383317656815052
1750928840226502100,4.702502197265625,-0.5282453298568726,0.6458367705345154,-0.034666575491428375
1750928840245325800,4.721325927734375,-0.3523162603378296,0.6385064125061035,-0.06765327602624893
1750928840264149800,4.740149658203125,-0.249690979719162,0.4601338803768158,-0.009010255336761475
1750928840282973400,4.758973388671875,-0.21914774179458618,0.20112723112106323,0.017867794260382652
1750928840301797000,4.777797119140625,-0.145843967795372,0.011759147047996521,0.02764163166284561
1750928840320621000,4.79662109375,-0.07376192510128021,-0.044440411031246185,0.03497200831770897
1750928840339444700,4.81544482421875,-0.017562363296747208,0.02153298258781433,0.02153298258781433
1750928840358268400,4.834268310546875,0.21578797698020935,0.17302745580673218,0.0386371985077858
1750928840377092000,4.853092041015625,0.3513999581336975,0.03741546720266342,-0.02977965772151947
1750928840395916000,4.871916015625,0.47357290983200073,-0.07864884287118912,-0.03955349326133728
1750928840414739700,4.89073974609375,0.4552469849586487,0.07773254066705704,-0.050549060106277466
1750928840433563400,4.9095634765625,0.4137081801891327,0.07895427197217941,-0.03711003437638283
1750928840452387300,4.92838720703125,0.3623955249786377,-0.016340631991624832,-0.01511890348047018
1750928840471211000,4.9472109375,0.33918267488479614,0.017867794260382652,-0.024892739951610565
1750928840490034700,4.96603466796875,0.32330018281936646,0.18402300775051117,-0.007788525894284248
1750928840508858600,4.984858642578125,0.27198755741119385,0.26710063219070435,-0.02977965772151947
1750928840527682300,5.003682373046875,0.21212279796600342,0.28298309445381165,-0.013897174037992954
1750928840546506000,5.022506103515625,0.15592323243618011,0.24755294620990753,-0.007788525894284248
1750928840565330000,5.041329833984375,0.15836669504642487,0.22434009611606598,0.004428769461810589
1750928840584153600,5.060153564453125,0.15592323243618011,0.21700970828533173,-0.011453714221715927
1750928840602977300,5.078977294921875,0.12660172581672668,0.16447533667087555,-0.02611446939408779
1750928840621801200,5.09780126953125,0.13515383005142212,0.2658788859844208,0.020311253145337105
1750928840640625000,5.116625,0.09605848789215088,0.3208567202091217,0.02153298258781433
1750928840659448600,5.135448486328125,0.03375028073787689,0.43692103028297424,0.012980876490473747
1750928840678272500,5.1542724609375,0.055741410702466965,0.6226239204406738,-0.06276635825634003
1750928840697096200,5.17309619140625,0.10216713696718216,0.7386882305145264,-0.0798705667257309
1750928840715920000,5.191919921875,0.13271036744117737,0.31352636218070984,-0.012675444595515728
1750928840734743800,5.210743896484375,0.011759147047996521,0.25732678174972534,-0.03955349326133728
1750928840753567500,5.2295673828125,0.004428769461810589,0.5187768936157227,-0.02000582218170166
1750928840772391200,5.24839111328125,0.017867794260382652,0.7313578724861145,-0.03955349326133728
1750928840791214800,5.26721484375,0.0019853105768561363,0.8791871070861816,-0.10919208079576492
1750928840810038800,5.286038818359375,0.023976443335413933,1.1662936210632324,-0.13362666964530945
1750928840828862500,5.304862548828125,0.0850629210472107,1.134528636932373,-0.13240493834018707
1750928840847686100,5.32368603515625,0.12293653935194016,0.6727148294448853,-0.13851359486579895
1750928840866510000,5.342510009765625,0.028863361105322838,0.23044873774051666,-0.13362666964530945
1750928840885333800,5.361333740234375,-0.021227551624178886,0.13393209874629974,-0.027336198836565018
1750928840904157400,5.380157470703125,0.13759729266166687,0.23777911067008972,-0.03222311660647392
1750928840922981400,5.3989814453125,0.0019853105768561363,0.550541877746582,-0.08842267841100693
1750928840941805000,5.41780517578125,-0.07742711156606674,1.123533010482788,-0.10308343172073364
1750928840960628700,5.436628662109375,-0.06154462695121765,1.4973822832107544,-0.054214250296354294
1750928840979452700,5.45545263671875,-0.0639880821108818,1.475391149520874,0.06795870512723923
1750928840998276400,5.4742763671875,0.014202605932950974,1.2567015886306763,0.162031888961792
1750928841017100000,5.49310009765625,0.04108065739274025,0.8242093324661255,0.18890993297100067
1750928841035924000,5.511924072265625,0.10583232343196869,0.19379685819149017,0.13881902396678925
1750928841054747600,5.53074755859375,0.13881902396678925,-0.34987279772758484,-0.02611446939408779
1750928841073571300,5.5495712890625,0.141262486577034,-0.2594648003578186,-0.16050471365451813
1750928841092395300,5.568395263671875,0.12415826320648193,0.12782345712184906,-0.2484692484140396
1750928841111219000,5.587218994140625,0.162031888961792,0.3404043912887573,-0.2484692484140396
1750928841130042600,5.606042724609375,0.22434009611606598,0.39538222551345825,-0.14950916171073914
1750928841148866600,5.624866455078125,0.15958842635154724,0.407599538564682,-0.11163553595542908
1750928841167690200,5.643690185546875,0.10094540566205978,0.3990474045276642,-0.07254019379615784
1750928841186514000,5.662513916015625,0.06062832847237587,0.4039343297481537,-0.04932733252644539
1750928841205337900,5.681337890625,0.012980876490473747,0.37094762921333313,-0.005345067009329796
1750928841224161500,5.70016162109375,-0.03711003437638283,0.4173733592033386,0.08017600327730179
1750928841242985200,5.718985107421875,-0.027336198836565018,0.5114465355873108,0.1363755613565445
1750928841261809200,5.73780908203125,-0.0847574844956398,0.47357290983200073,0.2328922003507614
1750928841280632800,5.7566328125,-0.12385283410549164,0.5652026534080505,0.25121814012527466
1750928841299456500,5.77545654296875,-0.08109229803085327,0.7301361560821533,0.18524473905563354
1750928841318280400,5.794280517578125,-0.03711003437638283,0.7973312735557556,0.17913609743118286
1750928841337104100,5.813104248046875,-0.016340631991624832,0.7423534393310547,0.19013166427612305
1750928841355927800,5.831927734375,0.14492766559123993,0.48701193928718567,0.22067490220069885
1750928841374751700,5.850751708984375,0.23167046904563904,-0.14706569910049438,0.20357069373130798
1750928841393575400,5.869575439453125,0.14248420298099518,-0.19104796648025513,0.08139773458242416
1750928841412399000,5.888399169921875,0.08750637620687485,0.0386371985077858,0.09605848789215088
1750928841431223000,5.90722314453125,0.11682789027690887,0.15225805342197418,0.13271036744117737
1750928841450046700,5.926046630859375,0.022754713892936707,0.29275694489479065,0.12415826320648193
1750928841468870400,5.944870361328125,-0.08597921580076218,0.6030762791633606,0.16936226189136505
1750928841487694300,5.9636943359375,-0.1409570425748825,0.633619487285614,0.18890993297100067
1750928841506518000,5.98251806640625,-0.18371757864952087,0.6030762791633606,0.17913609743118286
1750928841525341700,6.001341796875,-0.13851359486579895,0.5395463109016418,0.049632761627435684
1750928841544165600,6.02016552734375,-0.09941824525594711,0.4381427764892578,-0.04932733252644539
1750928841562989300,6.0389892578125,-0.007788525894284248,0.4503600597381592,-0.06276635825634003
1750928841581813000,6.05781298828125,0.0435241162776947,0.5480984449386597,-0.013897174037992954
1750928841600637000,6.076636962890625,0.02153298258781433,0.5187768936157227,0.01908952370285988
1750928841619460600,6.095460693359375,0.022754713892936707,0.46746426820755005,-0.018784092739224434
1750928841638284300,6.1142841796875,0.0435241162776947,0.6018545031547546,-0.031001387163996696
1750928841657108200,6.133108154296875,0.06551524996757507,0.7179188132286072,-0.050549060106277466
1750928841675932000,6.151931884765625,0.06307178735733032,0.7191405892372131,-0.13240493834018707
1750928841694755600,6.170755615234375,0.09361502528190613,0.7985529899597168,-0.1311832070350647
1750928841713579500,6.18957958984375,0.08017600327730179,0.9366084337234497,-0.13973531126976013
1750928841732403200,6.2084033203125,0.04230238497257233,1.1308634281158447,-0.12996147572994232
1750928841751227000,6.227226806640625,0.030085090547800064,1.2102758884429932,-0.1568395346403122
1750928841770050800,6.24605078125,0.0642935186624527,0.9854776263237,-0.16783510148525238
1750928841788874500,6.26487451171875,0.11682789027690887,0.7875574231147766,-0.16416990756988525
1750928841807698200,6.2836982421875,0.20967933535575867,0.6482802629470825,-0.16905683279037476
1750928841826522000,6.302522216796875,0.19868376851081848,0.44180795550346375,-0.11652245372533798
1750928841845345800,6.321345703125,0.15225805342197418,0.2182314395904541,-0.03711003437638283
1750928841864169500,6.34016943359375,0.1571449637413025,0.14737112820148468,-0.007788525894284248
1750928841882993400,6.358993408203125,0.1253799945116043,0.19868376851081848,0.04108065739274025
1750928841901817000,6.377817138671875,0.07773254066705704,0.20112723112106323,0.08872810751199722
1750928841920640800,6.396640869140625,0.036193739622831345,0.10461059212684631,0.09728021919727325
1750928841939464700,6.415464599609375,0.0154243353754282,0.13515383005142212,0.07651081681251526
1750928841958288400,6.434288330078125,0.008093958720564842,0.1815795600414276,0.04841103404760361
1750928841977112000,6.453112060546875,-0.02977965772151947,0.1974620372056961,0.05451968312263489
1750928841995936000,6.47193603515625,-0.06887500733137131,0.2964221239089966,0.08139773458242416
1750928842014759700,6.490759765625,-0.1055268943309784,0.3966039717197418,0.09972367435693741
1750928842033583600,6.50958349609375,-0.13973531126976013,0.33429574966430664,0.10705405473709106
1750928842052407300,6.5284072265625,-0.13851359486579895,0.24999640882015228,0.07528908550739288
1750928842071231000,6.54723095703125,-0.11774418503046036,0.2695440948009491,0.01908952370285988
1750928842090055000,6.566054931640625,-0.10186170041561127,0.32330018281936646,-0.006566796451807022
1750928842108878600,6.584878662109375,-0.0847574844956398,0.3685041666030884,-0.012675444595515728
1750928842127702300,6.603702392578125,-0.07742711156606674,0.3013090491294861,0.0154243353754282
1750928842146526200,6.622526123046875,-0.04566214233636856,0.24633121490478516,0.022754713892936707
1750928842165350000,6.641349853515625,0.009315688163042068,0.26710063219070435,-0.013897174037992954
1750928842184173600,6.660173583984375,0.008093958720564842,0.346513032913208,0.004428769461810589
1750928842202997500,6.67899755859375,-0.007788525894284248,0.3721693754196167,0.028863361105322838
1750928842221821200,6.6978212890625,-0.028557928279042244,0.24999640882015228,0.039858926087617874
1750928842240644900,6.716644775390625,-0.02000582218170166,0.1363755613565445,0.030085090547800064
1750928842259468800,6.73546875,-0.016340631991624832,0.11927134543657303,0.02764163166284561
1750928842278292500,6.75429248046875,-0.031001387163996696,0.14004075527191162,0.03497200831770897
1750928842297116200,6.7731162109375,-0.04321868345141411,0.20112723112106323,0.023976443335413933
1750928842315940000,6.791940185546875,-0.02367101050913334,0.2646571695804596,-0.017562363296747208
1750928842334763800,6.810763671875,0.011759147047996521,0.3355174660682678,-0.054214250296354294
1750928842353587500,6.82958740234375,0.045967575162649155,0.3868301212787628,-0.07131846249103546
1750928842372411400,6.848411376953125,0.09728021919727325,0.46624255180358887,-0.0383317656815052
1750928842391235000,6.867235107421875,0.14737112820148468,0.6568323373794556,-0.006566796451807022
1750928842410058800,6.886058837890625,0.1718057245016098,0.8266527652740479,-0.031001387163996696
1750928842428882700,6.904882568359375,0.15347976982593536,0.7814487814903259,-0.0798705667257309
1750928842447706400,6.923706298828125,0.1156061589717865,0.49189886450767517,-0.1153007298707962
1750928842466530000,6.942530029296875,0.0948367565870285,0.17424917221069336,-0.1409570425748825
1750928842485354000,6.96135400390625,0.0691804364323616,0.10705405473709106,-0.12018764764070511
1750928842504177700,6.980177734375,0.04718930274248123,0.24633121490478516,-0.07009673118591309
1750928842523001300,6.99900146484375,0.08872810751199722,0.512668251991272,-0.02367101050913334
1750928842541825300,7.0178251953125,0.09361502528190613,0.6177369952201843,-0.004123337101191282
1750928842560649000,7.03664892578125,0.036193739622831345,0.48334676027297974,0.052076224237680435
1750928842579473000,7.055472900390625,-0.05787943676114082,0.32452189922332764,0.0948367565870285
1750928842598296600,7.074296630859375,-0.07009673118591309,0.17058399319648743,0.13271036744117737
1750928842617120300,7.093120361328125,-0.027336198836565018,0.2231183648109436,0.11804962158203125
1750928842635944200,7.111944091796875,-0.04932733252644539,0.38072147965431213,0.11438442766666412
1750928842654767900,7.130767822265625,-0.046883873641490936,0.4686860144138336,0.1571449637413025
1750928842673591600,7.149591552734375,-0.024892739951610565,0.47235119342803955,0.1461493968963623
1750928842692415500,7.16841552734375,-0.04810560122132301,0.2964221239089966,0.12782345712184906
1750928842711239200,7.1872392578125,-0.04199695214629173,0.14859285950660706,0.04474584385752678
1750928842730062800,7.206062744140625,0.02153298258781433,0.16447533667087555,-0.02000582218170166
1750928842748886800,7.22488671875,0.10094540566205978,0.3990474045276642,-0.07376192510128021
1750928842767710500,7.24371044921875,0.20967933535575867,0.7631227970123291,-0.07376192510128021
1750928842786534100,7.2625341796875,0.19868376851081848,0.9805907011032104,-0.01511890348047018
1750928842805358000,7.281358154296875,0.1302669197320938,0.8400917649269104,0.08872810751199722
1750928842824181800,7.300181640625,0.07528908550739288,0.6262891292572021,0.020311253145337105
1750928842843005700,7.319005615234375,0.055741410702466965,0.38072147965431213,-0.15928299725055695
1750928842861829400,7.337829345703125,0.07528908550739288,0.19868376851081848,-0.18982623517513275
1750928842880653000,7.356653076171875,0.08628465235233307,0.2390008419752121,-0.13729186356067657
1750928842899477000,7.37547705078125,0.09605848789215088,0.3917170464992523,-0.10674861818552017
1750928842918300700,7.39430078125,0.10338886082172394,0.407599538564682,-0.14217877388000488
1750928842937124400,7.413124267578125,0.09850194305181503,0.2903134822845459,-0.1311832070350647
1750928842955948300,7.4319482421875,0.039858926087617874,0.16447533667087555,-0.1519526094198227
1750928842974772000,7.45077197265625,0.008093958720564842,0.17058399319648743,-0.16050471365451813
1750928842993596000,7.469595947265625,0.0386371985077858,0.2695440948009491,-0.14340050518512726
1750928843012419600,7.488419677734375,0.03130681812763214,0.45280352234840393,-0.1311832070350647
1750928843031243300,7.5072431640625,-0.004123337101191282,0.5823068618774414,-0.046883873641490936
1750928843050067200,7.526067138671875,0.03741546720266342,0.7203623056411743,0.0007635809597559273
1750928843068891000,7.544890869140625,0.052076224237680435,0.8229875564575195,0.07284562289714813
1750928843087714600,7.563714599609375,-0.05543597787618637,0.7936660647392273,0.20357069373130798
1750928843106538500,7.58253857421875,-0.12996147572994232,0.7289143800735474,0.31841325759887695
1750928843125362200,7.601362060546875,-0.05787943676114082,0.5346593856811523,0.35873034596443176
1750928843144185900,7.620185791015625,-0.01511890348047018,0.30863943696022034,0.33429574966430664
1750928843163009800,7.639009765625,-0.034666575491428375,0.2854265570640564,0.2683223485946655
1750928843181833500,7.65783349609375,-0.06520981341600418,0.4760163724422455,0.2658788859844208
1750928843200657400,7.676657470703125,-0.10430516302585602,0.6604975461959839,0.33429574966430664
1750928843219481000,7.695481201171875,-0.145843967795372,0.7179188132286072,0.43569931387901306
1750928843238304800,7.7143046875,-0.09575305134057999,0.7301361560821533,0.38927358388900757
1750928843257128700,7.733128662109375,-0.0798705667257309,0.6299542784690857,0.2646571695804596
1750928843275952400,7.751952392578125,-0.1055268943309784,0.48334676027297974,0.14004075527191162
1750928843294776000,7.770776123046875,-0.1311832070350647,0.32330018281936646,0.009315688163042068
1750928843313600000,7.78960009765625,-0.13851359486579895,0.1302669197320938,-0.0896444097161293
1750928843332423700,7.808423583984375,-0.15073087811470032,-0.02367101050913334,-0.07131846249103546
1750928843351247400,7.827247314453125,-0.12018764764070511,-0.07620538026094437,0.012980876490473747
1750928843370071300,7.8460712890625,-0.08231402933597565,-0.027336198836565018,0.04841103404760361
1750928843388895000,7.86489501953125,-0.06765327602624893,0.07040216773748398,-0.0383317656815052
1750928843407719000,7.883718994140625,-0.05177079141139984,0.10827577859163284,-0.06154462695121765
1750928843426542600,7.90254248046875,-0.016340631991624832,0.0850629210472107,-0.02367101050913334
1750928843445366300,7.9213662109375,0.012980876490473747,0.09117157012224197,-0.02977965772151947
1750928843464190200,7.940190185546875,0.02519817277789116,0.1571449637413025,-0.11652245372533798
1750928843483014000,7.959013916015625,0.03252854943275452,0.2390008419752121,-0.1776089370250702
1750928843501837600,7.977837646484375,0.05085449293255806,0.31352636218070984,-0.18127411603927612
1750928843520661500,7.99666162109375,0.017867794260382652,0.30375251173973083,-0.14950916171073914
1750928843539485200,8.015485107421876,-0.007788525894284248,0.2328922003507614,-0.10186170041561127
1750928843558308900,8.034308837890626,0.03130681812763214,0.20601414144039154,-0.09208786487579346
1750928843577132800,8.0531328125,0.04841103404760361,0.28787001967430115,-0.07742711156606674
1750928843595956500,8.07195654296875,0.0691804364323616,0.4124864339828491,-0.09819651395082474
1750928843614780400,8.090780517578125,0.05696314200758934,0.5542070865631104,-0.1409570425748825
1750928843633604000,8.10960400390625,0.03497200831770897,0.7399099469184875,-0.16905683279037476
1750928843652427800,8.128427734375,0.01908952370285988,0.8877392411231995,-0.1311832070350647
1750928843671251700,8.147251708984374,-0.03588830679655075,0.7912226319313049,-0.08597921580076218
1750928843690075400,8.166075439453126,-0.024892739951610565,0.4381427764892578,-0.12385283410549164
1750928843708899000,8.184899169921875,0.016646064817905426,0.25732678174972534,-0.18127411603927612
1750928843727723000,8.203722900390625,0.017867794260382652,0.2390008419752121,-0.1971566081047058
1750928843746546700,8.222546630859375,-0.03711003437638283,0.10827577859163284,-0.04566214233636856
1750928843765370600,8.24137060546875,-0.09086613357067108,-0.040775224566459656,0.05818486958742142
1750928843784194300,8.2601943359375,-0.1055268943309784,0.03497200831770897,0.19868376851081848
1750928843803018000,8.27901806640625,-0.07620538026094437,0.23167046904563904,0.2487746775150299
1750928843821842000,8.297842041015626,-0.011453714221715927,0.5065596103668213,0.16081015765666962
1750928843840665600,8.31666552734375,0.05940660089254379,0.6885973215103149,0.11927134543657303
1750928843859489300,8.3354892578125,0.07651081681251526,0.8254310488700867,0.06062832847237587
1750928843878313200,8.354313232421875,0.05818486958742142,0.8755219578742981,-0.03711003437638283
1750928843897137000,8.373136962890625,0.0435241162776947,0.7741183638572693,-0.1519526094198227
1750928843915960800,8.3919609375,0.017867794260382652,0.7790052890777588,-0.13973531126976013
1750928843934784500,8.410784423828124,0.020311253145337105,0.7680097222328186,0.055741410702466965
1750928843953608200,8.429608154296876,0.01908952370285988,0.6495019793510437,0.2805396616458893
1750928843972432100,8.44843212890625,0.03741546720266342,0.5468766689300537,0.4796815812587738
1750928843991255800,8.467255859375,0.01908952370285988,0.5285507440567017,0.5212203860282898
1750928844010079700,8.486079833984375,0.02153298258781433,0.5346593856811523,0.5114465355873108
1750928844028903400,8.5049033203125,0.0435241162776947,0.6568323373794556,0.7252492308616638
1750928844047727000,8.52372705078125,0.045967575162649155,0.6678279042243958,0.9353867173194885
1750928844066551000,8.542551025390624,-0.002901607658714056,0.3355174660682678,0.910952091217041
1750928844085374700,8.561374755859376,-0.03955349326133728,0.07773254066705704,0.6189587116241455
1750928844104198400,8.580198486328126,-0.07620538026094437,0.21456626057624817,0.388051837682724
1750928844123022300,8.599022216796875,-0.1055268943309784,0.5761982202529907,0.20112723112106323
1750928844141846000,8.617845947265625,-0.05543597787618637,0.6470585465431213,0.030085090547800064
1750928844160670000,8.636669921875,-0.03222311660647392,0.45280352234840393,-0.18616104125976562
1750928844179493600,8.65549365234375,0.020311253145337105,0.141262486577034,-0.18982623517513275
1750928844198317300,8.6743173828125,0.16447533667087555,-0.10186170041561127,-0.07254019379615784
1750928844217141200,8.693141357421876,0.2585485279560089,-0.04810560122132301,0.07528908550739288
1750928844235965000,8.71196484375,0.20967933535575867,0.13393209874629974,0.05451968312263489
1750928844254788900,8.730788818359375,0.19990549981594086,0.03375028073787689,0.0691804364323616
1750928844273612500,8.749612548828125,0.2084576040506363,-0.22525638341903687,0.09239330142736435
1750928844292436200,8.768436279296875,0.25732678174972534,-0.2435823380947113,0.10827577859163284
1750928844311260200,8.78726025390625,0.23655737936496735,0.10216713696718216,0.005650499369949102
1750928844330083800,8.806083740234374,0.11927134543657303,0.4540252387523651,-0.2887863218784332
1750928844348907500,8.824907470703126,0.09117157012224197,0.3196350038051605,-0.5624537467956543
1750928844367731500,8.8437314453125,0.19135339558124542,-0.06154462695121765,-0.42562004923820496
1750928844386555100,8.86255517578125,0.2390008419752121,-0.2887863218784332,-0.2692386507987976
1750928844405379000,8.881379150390625,0.15836669504642487,-0.31932955980300903,-0.342542439699173
1750928844424202800,8.90020263671875,0.1253799945116043,-0.19104796648025513,-0.4915934205055237
1750928844443026400,8.9190263671875,0.1461493968963623,0.10094540566205978,-0.4659371078014374
1750928844461850400,8.937850341796874,0.19990549981594086,0.17791436612606049,-0.16294817626476288
1750928844480674000,8.956674072265624,0.19379685819149017,-0.02367101050913334,0.08261945843696594
1750928844499498000,8.975498046875,0.17913609743118286,-0.14217877388000488,0.0948367565870285
1750928844518321700,8.99432177734375,0.08750637620687485,-0.13729186356067657,0.005650499369949102
1750928844537145300,9.013145263671875,0.13271036744117737,-0.0798705667257309,0.04841103404760361
1750928844555969300,9.03196923828125,0.20112723112106323,-0.15439607203006744,0.24755294620990753
1750928844574793000,9.05079296875,0.10949750989675522,-0.20204351842403412,0.37949973344802856
1750928844593617000,9.069616943359375,-0.08597921580076218,-0.07254019379615784,0.35017824172973633
1750928844612440600,9.088440673828124,-0.09575305134057999,0.020311253145337105,0.2964221239089966
1750928844631264300,9.10726416015625,0.1156061589717865,-0.1715002804994583,0.29153522849082947
1750928844650088200,9.126088134765626,0.2084576040506363,-0.5086976289749146,0.2390008419752121
1750928844668911900,9.144911865234375,0.0019853105768561363,-0.6394227147102356,0.11438442766666412
1750928844687735600,9.163735595703125,-0.15806126594543457,-0.3462076187133789,0.0850629210472107
1750928844706559500,9.1825595703125,-0.0847574844956398,0.12171480804681778,0.29153522849082947
1750928844725383200,9.201383056640625,-0.07864884287118912,0.3404043912887573,0.4894554018974304
1750928844744207000,9.22020703125,-0.09453132748603821,0.38438665866851807,0.43081238865852356
1750928844763030800,9.23903076171875,-0.23258677124977112,0.48701193928718567,0.29397866129875183
1750928844781854500,9.2578544921875,-0.3474293351173401,0.5517635941505432,0.22189663350582123
1750928844800678400,9.276678466796875,-0.2228129357099533,0.5542070865631104,0.2646571695804596
1750928844819502000,9.295502197265625,-0.17883066833019257,0.5358811020851135,0.18890993297100067
1750928844838325800,9.31432568359375,-0.2851211428642273,0.5554288029670715,-0.02611446939408779
1750928844857149700,9.333149658203125,-0.2655734717845917,0.4650208055973053,-0.2997818887233734
1750928844875973400,9.351973388671874,-0.14340050518512726,0.31230461597442627,-0.4842630624771118
1750928844894797300,9.37079736328125,-0.07254019379615784,0.24510949850082397,-0.5477929711341858
1750928844913621000,9.38962109375,-0.08597921580076218,0.14004075527191162,-0.6760746240615845
1750928844932444700,9.408444580078125,-0.009010255336761475,0.10705405473709106,-0.6663007736206055
1750928844951268600,9.4272685546875,0.07528908550739288,0.014202605932950974,-0.23625195026397705
1750928844970092300,9.44609228515625,-0.007788525894284248,-0.031001387163996696,0.036193739622831345
1750928844988916200,9.464916259765625,-0.09941824525594711,0.18524473905563354,0.0642935186624527
1750928845007740000,9.483739990234374,-0.15317434072494507,0.35873034596443176,-0.034666575491428375
1750928845026563800,9.502563720703124,-0.12385283410549164,0.5542070865631104,-0.14217877388000488
1750928845045387500,9.521387451171876,-0.09941824525594711,0.6275108456611633,-0.12385283410549164
1750928845064211200,9.540211181640625,-0.07131846249103546,0.3477347791194916,-0.02367101050913334
1750928845083035100,9.55903515625,-0.009010255336761475,-0.016340631991624832,-0.028557928279042244
1750928845101858800,9.57785888671875,-0.05299251899123192,0.03130681812763214,-0.11896591633558273
1750928845120682800,9.596682861328125,-0.1055268943309784,0.3098611533641815,-0.11774418503046036
1750928845139506400,9.61550634765625,-0.10919208079576492,0.5542070865631104,-0.16539163887500763
1750928845158330000,9.634330078125,-0.18005239963531494,0.7325795888900757,-0.3413206934928894
1750928845177154000,9.653154052734376,-0.15439607203006744,0.6995928883552551,-0.44150251150131226
1750928845195977700,9.671977783203126,-0.07864884287118912,0.471129447221756,-0.3620901107788086
1750928845214801700,9.6908017578125,-0.04932733252644539,0.1815795600414276,-0.3730856776237488
1750928845233625300,9.709625244140625,-0.06765327602624893,0.1925751268863678,-0.4390590488910675
1750928845252449000,9.728448974609375,-0.0383317656815052,0.27687445282936096,-0.453719824552536
1750928845271273000,9.74727294921875,-0.07864884287118912,0.304974228143692,-0.4036289155483246
1750928845290096600,9.7660966796875,-0.1519526094198227,0.22556181252002716,-0.3828594982624054
1750928845308920600,9.784920654296876,-0.04199695214629173,0.5908589363098145,-0.42684176564216614
1750928845327744300,9.803744140625,0.08139773458242416,1.106428861618042,-0.38408124446868896
1750928845346568000,9.82256787109375,0.05451968312263489,1.2933534383773804,-0.3816377818584442
1750928845365392000,9.841391845703125,0.07651081681251526,1.1907281875610352,-0.29367324709892273
1750928845384215600,9.860215576171875,0.14981459081172943,0.7692314982414246,-0.12385283410549164
1750928845403039500,9.87903955078125,0.22067490220069885,0.6702713966369629,-0.03222311660647392
1750928845421863200,9.89786328125,0.14859285950660706,0.8620828986167908,-0.050549060106277466
1750928845440687000,9.91668701171875,0.1107192412018776,0.930499792098999,0.07651081681251526
1750928845459510800,9.9355107421875,0.20112723112106323,0.7338013052940369,0.17913609743118286
1750928845478334500,9.95433447265625,0.04474584385752678,-0.08109229803085327,0.10338886082172394
1750928845497158400,9.973158447265625,-0.10308343172073364,-1.28083074092865,-0.0847574844956398
1750928845515982000,9.991982177734375,-0.14828743040561676,-1.2783873081207275,-0.1617264449596405
1750928845534805800,10.0108056640625,-0.24602578580379486,-0.5722275972366333,-0.1715002804994583
1750928845553629700,10.029629638671874,-0.2838993966579437,0.09728021919727325,-0.16783510148525238
1750928845572453400,10.048453369140624,-0.3975202441215515,0.1669187992811203,-0.2631300091743469
1750928845591277300,10.06727734375,-0.4378373324871063,0.19868376851081848,-0.3364337682723999
1750928845610101000,10.08610107421875,-0.05543597787618637,0.17913609743118286,-0.1262962967157364
1750928845628924700,10.104924560546875,0.23655737936496735,0.0007635809597559273,0.07040216773748398
1750928845647748600,10.12374853515625,0.3416261374950409,0.0154243353754282,0.08750637620687485
1750928845666572300,10.142572265625,0.21456626057624817,0.15836669504642487,0.045967575162649155
1750928845685396200,10.161396240234374,0.14248420298099518,0.2793179154396057,0.04718930274248123
1750928845704220000,10.180219970703124,0.1302669197320938,0.29275694489479065,0.030085090547800064
1750928845723043600,10.199043701171876,0.11438442766666412,0.3526217043399811,-0.002901607658714056
1750928845741867500,10.217867431640625,0.1510363221168518,0.11682789027690887,0.05940660089254379
1750928845760691200,10.236691162109375,0.16325360536575317,-0.0334448479115963,0.017867794260382652
1750928845779515100,10.25551513671875,0.07895427197217941,0.1363755613565445,-0.08109229803085327
1750928845798338800,10.2743388671875,0.07406735420227051,0.2744309902191162,-0.11163553595542908
1750928845817162800,10.293162841796875,0.10583232343196869,0.397825688123703,-0.10186170041561127
1750928845835986400,10.311986328125,-0.06887500733137131,0.5444332361221313,-0.13729186356067657
1750928845854810000,10.33081005859375,-0.14950916171073914,0.04718930274248123,-0.09453132748603821
1750928845873634000,10.349634033203126,-0.05787943676114082,-0.11652245372533798,0.05329795181751251
1750928845892457700,10.368457763671875,-0.02000582218170166,0.11682789027690887,0.11682789027690887
1750928845911281700,10.38728173828125,0.006872228812426329,-0.004123337101191282,0.13515383005142212
1750928845930105300,10.406105224609375,0.0032070400193333626,0.06551524996757507,0.2756527364253998
1750928845948929300,10.42492919921875,-0.03222311660647392,0.45158177614212036,0.4247037470340729
1750928845967753000,10.4437529296875,0.03497200831770897,0.40515607595443726,0.5945241451263428
1750928845986576600,10.46257666015625,0.06551524996757507,0.22556181252002716,0.6372846961021423
1750928846005400600,10.481400634765626,-0.07376192510128021,-0.044440411031246185,0.33918267488479614
1750928846024224300,10.500224365234375,-0.08597921580076218,-0.04199695214629173,0.1204930767416954
1750928846043048200,10.519048095703125,-0.040775224566459656,0.0691804364323616,0.04108065739274025
1750928846061871900,10.537871826171875,-0.05299251899123192,0.07895427197217941,-0.03588830679655075
1750928846080695600,10.556695556640625,0.028863361105322838,0.08261945843696594,-0.1104138121008873
1750928846099519500,10.57551953125,0.14737112820148468,0.09850194305181503,-0.13851359486579895
1750928846118343200,10.59434326171875,0.04841103404760361,0.0642935186624527,-0.17638720571994781
1750928846137167000,10.6131669921875,-0.12751802802085876,0.045967575162649155,-0.32788166403770447
1750928846155990800,10.63199072265625,-0.125074565410614,0.07773254066705704,-0.35475972294807434
1750928846174814500,10.650814453125,-0.05543597787618637,0.2597702443599701,-0.2484692484140396
1750928846193638400,10.669638427734375,0.05085449293255806,0.43081238865852356,-0.13729186356067657
1750928846212462000,10.688462158203125,0.11194097250699997,0.6287325620651245,-0.046883873641490936
1750928846231286000,10.7072861328125,-0.017562363296747208,0.1766926348209381,-0.017562363296747208
1750928846250109700,10.726109619140624,-0.06887500733137131,0.04718930274248123,0.06795870512723923
1750928846268933600,10.74493359375,-0.0102319847792387,0.14370593428611755,0.15592323243618011
1750928846287757300,10.76375732421875,0.10949750989675522,0.29153522849082947,0.2182314395904541
1750928846306581000,10.7825810546875,0.16447533667087555,0.35384342074394226,0.25732678174972534
1750928846325405000,10.801405029296875,0.1253799945116043,0.2341139316558838,0.2890917658805847
1750928846344228600,10.820228515625,0.055741410702466965,0.2842048406600952,0.25243985652923584
1750928846363052500,10.839052490234375,-0.007788525894284248,0.19501857459545135,0.18035782873630524
1750928846381876200,10.857876220703124,0.02153298258781433,0.036193739622831345,0.07773254066705704
1750928846400700200,10.8767001953125,0.02153298258781433,0.020311253145337105,0.026419902220368385
1750928846419523800,10.89552392578125,0.026419902220368385,0.08261945843696594,0.0154243353754282
1750928846438347500,10.914347412109375,0.08139773458242416,0.0642935186624527,-0.009010255336761475
1750928846457171500,10.93317138671875,0.1363755613565445,-0.04566214233636856,-0.04810560122132301
1750928846475995100,10.9519951171875,0.07528908550739288,-0.14340050518512726,-0.027336198836565018
1750928846494819000,10.970819091796875,-0.002901607658714056,-0.17394374310970306,0.005650499369949102
1750928846513642800,10.989642822265624,-0.050549060106277466,-0.16661337018013,-0.02000582218170166
1750928846532466700,11.008466796875,-0.07376192510128021,0.0019853105768561363,-0.05543597787618637
1750928846551290400,11.027290283203126,-0.046883873641490936,-0.001679878099821508,-0.06154462695121765
1750928846570114000,11.046114013671875,0.03375028073787689,-0.13240493834018707,-0.03222311660647392
1750928846588938000,11.06493798828125,0.03741546720266342,-0.14462223649024963,0.020311253145337105
1750928846607761700,11.08376171875,0.011759147047996521,-0.0102319847792387,0.05940660089254379
1750928846626585600,11.102585693359375,-0.00045814859913662076,0.12415826320648193,0.03130681812763214
1750928846645409300,11.1214091796875,-0.021227551624178886,0.08017600327730179,-0.024892739951610565
1750928846664233000,11.14023291015625,-0.0639880821108818,-0.011453714221715927,-0.06276635825634003
1750928846683057000,11.159056884765626,-0.03955349326133728,-0.09330959618091583,-0.07498364895582199
1750928846701880600,11.177880615234375,0.08628465235233307,-0.22159120440483093,-0.0639880821108818
1750928846720704500,11.19670458984375,0.1302669197320938,-0.1776089370250702,-0.07742711156606674
1750928846739528200,11.215528076171875,0.07406735420227051,-0.10186170041561127,-0.13240493834018707
1750928846758352100,11.23435205078125,-0.03588830679655075,-0.23625195026397705,-0.17883066833019257
1750928846777175800,11.25317578125,-0.13484840095043182,-0.32910341024398804,-0.21548254787921906
1750928846795999500,11.27199951171875,-0.15806126594543457,-0.3156643807888031,-0.22036947309970856
1750928846814823400,11.290823486328126,-0.06765327602624893,-0.208152174949646,-0.19960007071495056
1750928846833647000,11.309647216796876,0.05818486958742142,-0.14340050518512726,-0.18860450387001038
1750928846852471000,11.328470947265625,0.09361502528190613,-0.10797034949064255,-0.12018764764070511
1750928846871294700,11.347294677734375,0.028863361105322838,-0.2606865465641022,-0.011453714221715927
1750928846890118700,11.36611865234375,-0.011453714221715927,-0.4647153913974762,-0.004123337101191282
1750928846908942300,11.3849423828125,-0.011453714221715927,-0.4610501825809479,-0.017562363296747208
1750928846927766300,11.403766357421874,0.039858926087617874,-0.291229784488678,-0.02367101050913334
1750928846946590000,11.42258984375,0.012980876490473747,-0.3217730224132538,0.009315688163042068
1750928846965413600,11.44141357421875,0.02519817277789116,-0.5172497630119324,0.05451968312263489
1750928846984237600,11.460237548828125,0.05085449293255806,-0.5282453298568726,0.055741410702466965
1750928847003061200,11.479061279296875,0.02764163166284561,-0.5392408967018127,-0.005345067009329796
1750928847021885000,11.497885009765625,0.030085090547800064,-0.5441278219223022,-0.022449281066656113
1750928847040708900,11.516708984375,0.026419902220368385,-0.44150251150131226,-0.012675444595515728
1750928847059532500,11.535532470703124,0.05818486958742142,-0.3620901107788086,-0.004123337101191282
1750928847078356500,11.5543564453125,0.09361502528190613,-0.4500546157360077,0.016646064817905426
1750928847097180200,11.57318017578125,0.023976443335413933,-0.558788537979126,0.07773254066705704
1750928847116004000,11.592004150390625,-0.024892739951610565,-0.5025889873504639,0.07284562289714813
1750928847134827800,11.610827880859375,-0.024892739951610565,-0.3987419903278351,0.028863361105322838
1750928847153651700,11.629651611328125,-0.007788525894284248,-0.3364337682723999,0.030085090547800064
1750928847172475400,11.648475341796875,0.0154243353754282,-0.33887723088264465,0.05818486958742142
1750928847191299300,11.66729931640625,0.016646064817905426,-0.41095927357673645,0.03741546720266342
1750928847210123000,11.686123046875,-0.013897174037992954,-0.39141160249710083,-0.0591011680662632
1750928847228946700,11.70494677734375,0.0007635809597559273,-0.3364337682723999,-0.10674861818552017
1750928847247770600,11.7237705078125,0.0032070400193333626,-0.3657552897930145,-0.06887500733137131
1750928847266594300,11.74259423828125,-0.001679878099821508,-0.3315468728542328,-0.03222311660647392
1750928847285418200,11.761418212890625,-0.013897174037992954,-0.3254382014274597,-0.02611446939408779
1750928847304242000,11.780241943359375,-0.060322895646095276,-0.5172497630119324,-0.04932733252644539
1750928847323065900,11.79906591796875,-0.09819651395082474,-0.7493783831596375,-0.044440411031246185
1750928847341889500,11.8178896484375,-0.06154462695121765,-0.5991056561470032,-0.001679878099821508
1750928847360713200,11.836713134765626,-0.0847574844956398,-0.41584619879722595,0.02519817277789116
1750928847379537200,11.855537109375,-0.10430516302585602,-0.5600103139877319,0.009315688163042068
1750928847398360800,11.87436083984375,-0.046883873641490936,-0.6345357894897461,0.010537417605519295
1750928847417184800,11.893184814453125,0.0007635809597559273,-0.42073312401771545,-0.0102319847792387
1750928847436008400,11.912008544921875,-0.040775224566459656,-0.4549415409564972,0.012980876490473747
1750928847454832400,11.930832275390625,-0.07742711156606674,-0.7225003242492676,0.026419902220368385
1750928847473656000,11.949656005859374,-0.10674861818552017,-0.8300125002861023,0.036193739622831345
1750928847492480000,11.96847998046875,-0.0639880821108818,-0.7432697415351868,0.06795870512723923
1750928847511303700,11.9873037109375,-0.02611446939408779,-0.699287474155426,0.13271036744117737
1750928847530127400,12.00612744140625,-0.001679878099821508,-0.5832231640815735,0.09117157012224197
1750928847548951300,12.024951416015625,0.026419902220368385,-0.3889681398868561,0.04718930274248123
1750928847567775000,12.04377490234375,0.03130681812763214,-0.33399030566215515,0.08628465235233307
1750928847586599000,12.062598876953125,0.010537417605519295,-0.4390590488910675,0.09361502528190613
1750928847605422600,12.081422607421874,-0.050549060106277466,-0.6259836554527283,0.005650499369949102
1750928847624246500,12.10024658203125,-0.08597921580076218,-0.6663007736206055,-0.1055268943309784
1750928847643070200,12.1190703125,-0.08842267841100693,-0.5331322550773621,-0.11285726726055145
1750928847661894000,12.137893798828125,-0.07009673118591309,-0.43172869086265564,-0.07009673118591309
1750928847680717800,12.1567177734375,-0.02367101050913334,-0.45249807834625244,-0.04810560122132301
1750928847699541500,12.17554150390625,-0.02977965772151947,-0.6357575058937073,-0.024892739951610565
1750928847718365400,12.194365478515625,-0.10308343172073364,-0.7506000995635986,-0.09941824525594711
1750928847737189000,12.213189208984375,-0.13362666964530945,-0.772591233253479,-0.18005239963531494
1750928847756013000,12.232012939453124,-0.08109229803085327,-0.7554870247840881,-0.14706569910049438
1750928847774836700,12.250836669921876,-0.04321868345141411,-0.790917158126831,-0.10186170041561127
1750928847793660700,12.26966064453125,-0.02000582218170166,-0.6785180568695068,-0.09697478264570236
1750928847812484400,12.288484375,-0.024892739951610565,-0.42073312401771545,-0.04566214233636856
1750928847831308300,12.307308349609375,-0.0639880821108818,-0.3205513060092926,0.012980876490473747
1750928847850132000,12.326132080078125,-0.09697478264570236,-0.505032479763031,0.012980876490473747
1750928847868956000,12.344955810546875,-0.10797034949064255,-0.7774781584739685,-0.01511890348047018
1750928847887779600,12.363779541015624,-0.03222311660647392,-0.8581122756004333,0.09728021919727325
1750928847906603300,12.382603271484374,0.0435241162776947,-0.7872520089149475,0.20479241013526917
1750928847925427200,12.40142724609375,0.061850059777498245,-0.8055779337882996,0.20723587274551392
1750928847944251000,12.4202509765625,0.02519817277789116,-0.9607375860214233,0.10949750989675522
1750928847963074800,12.43907470703125,0.008093958720564842,-0.8397863507270813,0.15836669504642487
1750928847981898500,12.4578984375,0.020311253145337105,-0.056657709181308746,0.29397866129875183
1750928848000722400,12.476722412109375,0.03741546720266342,0.1253799945116043,0.34406960010528564
1750928848019546000,12.495546142578124,0.0691804364323616,0.15470150113105774,0.3404043912887573
1750928848038370000,12.5143701171875,0.0642935186624527,0.2805396616458893,0.24022257328033447
1750928848057193700,12.53319384765625,0.022754713892936707,-0.024892739951610565,0.03741546720266342
1750928848076017400,12.552017333984375,-0.16905683279037476,0.10338886082172394,-0.18371757864952087
1750928848094841300,12.57084130859375,-0.09208786487579346,-0.07376192510128021,-0.1568395346403122
1750928848113665000,12.5896650390625,-0.06520981341600418,-0.23258677124977112,-0.06276635825634003
1750928848132489000,12.608489013671875,-0.022449281066656113,-0.07009673118591309,-0.02977965772151947
1750928848151312600,12.627312744140625,-0.01511890348047018,0.27809619903564453,0.13393209874629974
1750928848170136600,12.646136474609374,-0.004123337101191282,0.23533566296100616,0.5187768936157227
1750928848188960300,12.664960205078126,0.05085449293255806,-0.38652467727661133,0.653167188167572
1750928848207784200,12.6837841796875,-0.06276635825634003,-0.23747368156909943,0.4552469849586487
1750928848226607900,12.70260791015625,-0.08109229803085327,-0.03711003437638283,-0.00045814859913662076
1750928848245431600,12.721431640625,-0.07009673118591309,0.08261945843696594,-0.2900080680847168
1750928848264255500,12.74025537109375,-0.03222311660647392,0.08872810751199722,-0.4292852282524109
1750928848283079200,12.7590791015625,-0.0639880821108818,-0.046883873641490936,-0.4280634820461273
1750928848301903000,12.777903076171874,-0.07376192510128021,-0.13240493834018707,-0.23625195026397705
1750928848320726800,12.796726806640624,-0.01511890348047018,-0.21059563755989075,-0.08720094710588455
1750928848339550700,12.81555078125,0.0691804364323616,-0.23991714417934418,-0.19471314549446106
1750928848358374400,12.83437451171875,0.11438442766666412,-0.3877464234828949,-0.38530296087265015
1750928848377198300,12.8531982421875,0.03130681812763214,-0.6772963404655457,-0.32910341024398804
1750928848396022000,12.87202197265625,-0.03222311660647392,-0.7579304575920105,-0.2948949635028839
1750928848414846000,12.890845947265625,0.05085449293255806,-0.679739773273468,-0.4353938698768616
1750928848433669600,12.909669677734374,0.02764163166284561,-0.6039925217628479,-0.39141160249710083
1750928848452493300,12.928493408203124,0.05451968312263489,-0.402407169342041,-0.29733842611312866
1750928848471317200,12.947317138671876,-0.009010255336761475,-0.5978838801383972,-0.004123337101191282
1750928848490141000,12.966140869140625,0.009315688163042068,-0.8080213665962219,0.08017600327730179
1750928848508964900,12.98496484375,0.039858926087617874,-1.0181589126586914,0.061850059777498245
1750928848527788500,13.00378857421875,-0.017562363296747208,-0.8312342762947083,0.13881902396678925
1750928848546612500,13.022612548828125,0.010537417605519295,-0.4378373324871063,0.29153522849082947
1750928848565436200,13.041436279296875,0.03497200831770897,-0.24236060678958893,0.3208567202091217
1750928848584260000,13.060260009765624,-0.011453714221715927,-0.5697841048240662,0.43203410506248474
1750928848603083800,13.079083740234376,-0.11896591633558273,-1.0609194040298462,0.6018545031547546
1750928848621907700,13.09790771484375,-0.14828743040561676,-1.2148573398590088,0.5432115197181702
1750928848640731400,13.1167314453125,-0.145843967795372,-1.0926843881607056,0.19135339558124542
1750928848659555300,13.135555419921875,-0.054214250296354294,-0.864220917224884,-0.012675444595515728
1750928848678379000,13.15437890625,-0.011453714221715927,-0.6039925217628479,0.039858926087617874
1750928848697202700,13.17320263671875,-0.002901607658714056,-0.4280634820461273,0.05818486958742142
1750928848716026600,13.192026611328124,-0.022449281066656113,-0.47204574942588806,0.02519817277789116
1750928848734850300,13.210850341796874,-0.05543597787618637,-0.6736311316490173,0.009315688163042068
1750928848753674200,13.22967431640625,-0.03588830679655075,-0.928972601890564,-0.028557928279042244
1750928848772498000,13.248497802734375,-0.012675444595515728,-1.0841323137283325,-0.0102319847792387
1750928848791321900,13.26732177734375,0.02153298258781433,-0.9839504361152649,0.0007635809597559273
1750928848810145500,13.2861455078125,-0.017562363296747208,-0.6748528480529785,-0.013897174037992954
1750928848828969500,13.304969482421875,-0.017562363296747208,-0.3352120518684387,-0.016340631991624832
1750928848847793200,13.323793212890624,0.0032070400193333626,-0.291229784488678,-0.05543597787618637
1750928848866617000,13.3426171875,0.008093958720564842,-0.5306887626647949,-0.034666575491428375
1750928848885440800,13.361440673828126,-0.0102319847792387,-0.5771145224571228,0.011759147047996521
1750928848904264700,13.3802646484375,-0.028557928279042244,-0.5196931958198547,0.052076224237680435
1750928848923088400,13.39908837890625,-0.018784092739224434,-0.3975202441215515,0.010537417605519295
1750928848941912300,13.417912353515625,0.022754713892936707,-0.3058905303478241,-0.07864884287118912
1750928848960736000,13.436736083984375,0.0386371985077858,-0.3572031855583191,-0.07254019379615784
1750928848979560000,13.455559814453125,0.023976443335413933,-0.4793761372566223,-0.056657709181308746
1750928848998383600,13.474383544921874,0.016646064817905426,-0.33276858925819397,-0.013897174037992954
1750928849017207600,13.49320751953125,0.006872228812426329,-0.024892739951610565,0.008093958720564842
1750928849036031200,13.51203125,-0.005345067009329796,-0.04810560122132301,0.012980876490473747
1750928849054855200,13.530855224609375,-0.04810560122132301,-0.2753472924232483,0.08384118974208832
1750928849073678800,13.549678955078125,-0.06765327602624893,-0.4353938698768616,0.1302669197320938
1750928849092502500,13.56850244140625,-0.050549060106277466,-0.5661189556121826,0.12415826320648193
1750928849111326500,13.587326416015625,-0.028557928279042244,-0.6650790572166443,0.08139773458242416
1750928849130150100,13.606150146484374,-0.016340631991624832,-0.48792824149131775,-0.00045814859913662076
1750928849148974000,13.62497412109375,0.010537417605519295,-0.26190826296806335,-0.05299251899123192
1750928849167797800,13.6437978515625,0.012980876490473747,-0.12751802802085876,-0.03588830679655075
1750928849186621700,13.66262158203125,-0.001679878099821508,-0.25091269612312317,0.020311253145337105
1750928849205445400,13.6814453125,-0.03955349326133728,-0.4696022868156433,0.07773254066705704
1750928849224269300,13.700269287109375,-0.06276635825634003,-0.6467530727386475,0.08017600327730179
1750928849243093000,13.719093017578125,-0.02000582218170166,-0.6052142977714539,0.05329795181751251
1750928849261917000,13.7379169921875,-0.027336198836565018,-0.46715885400772095,0.0691804364323616
1750928849280740600,13.75674072265625,-0.0334448479115963,-0.2753472924232483,0.0948367565870285
1750928849299564500,13.775564453125,-0.04199695214629173,-0.12385283410549164,0.08017600327730179
1750928849318388200,13.79438818359375,-0.0102319847792387,-0.10063996911048889,0.045967575162649155
1750928849337212200,13.813212158203125,-0.013897174037992954,-0.20082180202007294,0.03741546720266342
1750928849356035800,13.832035888671875,-0.012675444595515728,-0.2582430839538574,0.02153298258781433
1750928849374859800,13.85085986328125,-0.007788525894284248,-0.3156643807888031,0.008093958720564842
1750928849393683500,13.869683349609375,-0.044440411031246185,-0.4915934205055237,0.052076224237680435
1750928849412507400,13.88850732421875,-0.046883873641490936,-0.45738500356674194,0.08261945843696594
1750928849431331000,13.9073310546875,-0.0334448479115963,-0.34376415610313416,0.08384118974208832
1750928849450155000,13.926155029296876,-0.017562363296747208,-0.2594648003578186,0.04474584385752678
1750928849468978700,13.944978759765625,-0.012675444595515728,-0.2228129357099533,0.004428769461810589
1750928849487802600,13.963802734375,-0.02977965772151947,-0.2386954128742218,0.0032070400193333626
1750928849506626300,13.982626220703125,-0.04566214233636856,-0.2533561587333679,0.06673697382211685
1750928849525450000,14.001449951171875,-0.027336198836565018,-0.3926333487033844,0.06551524996757507
1750928849563097600,14.03909765625,-0.09330959618091583,-0.8752164840698242,0.09605848789215088
1750928849581921500,14.057921630859376,-0.15073087811470032,-1.1207841634750366,0.09728021919727325
1750928849600745200,14.0767451171875,-0.13729186356067657,-1.35657799243927,0.1204930767416954
1750928849619569200,14.095569091796875,-0.15073087811470032,-1.4445425271987915,0.18402300775051117
1750928849638392800,14.114392822265625,-0.1153007298707962,-1.2869393825531006,0.18402300775051117
1750928849657216800,14.133216796875,-0.1568395346403122,-0.8776599764823914,0.19868376851081848
1750928849676040400,14.15204052734375,-0.18005239963531494,-0.41462448239326477,0.18035782873630524
1750928849694864400,14.170864501953124,-0.1104138121008873,-0.06520981341600418,0.07773254066705704
1750928849713688000,14.18968798828125,-0.054214250296354294,0.023976443335413933,0.014202605932950974
1750928849732512000,14.208511962890626,0.020311253145337105,-0.03588830679655075,-0.021227551624178886
1750928849751335700,14.227335693359375,0.05451968312263489,-0.07009673118591309,-0.04199695214629173
1750928849770159600,14.24615966796875,0.06673697382211685,-0.054214250296354294,-0.024892739951610565
1750928849788983300,14.2649833984375,0.06307178735733032,-0.05543597787618637,0.0154243353754282
1750928849807807200,14.28380712890625,0.0435241162776947,-0.05299251899123192,0.05818486958742142
1750928849826631000,14.302630859375,-0.0102319847792387,-0.125074565410614,0.07284562289714813
1750928849845454800,14.321454833984374,0.0019853105768561363,-0.249690979719162,0.05329795181751251
1750928849864278500,14.340278564453126,0.0691804364323616,-0.4280634820461273,0.05451968312263489
1750928849883102500,14.3591025390625,0.030085090547800064,-0.8703296184539795,0.08017600327730179
1750928849901926100,14.377926025390625,0.03252854943275452,-0.9436333775520325,0.0948367565870285
1750928849920749800,14.396749755859375,0.06673697382211685,-0.9228639602661133,0.10094540566205978
1750928849939573800,14.41557373046875,0.06062832847237587,-1.1220059394836426,0.1302669197320938
1750928849958397400,14.4343974609375,0.09728021919727325,-1.1659882068634033,0.14859285950660706
1750928849977221400,14.453221435546874,0.14004075527191162,-1.1207841634750366,0.12904518842697144
1750928849996045000,14.472045166015626,0.12782345712184906,-0.9680679440498352,0.11927134543657303
1750928850014869000,14.490868896484375,0.04230238497257233,-0.6553052067756653,0.13393209874629974
1750928850033693000,14.50969287109375,-0.03711003437638283,-0.3926333487033844,0.1669187992811203
1750928850052516600,14.5285166015625,-0.11774418503046036,-0.29367324709892273,0.13515383005142212
1750928850071340300,14.54734033203125,-0.11896591633558273,-0.36942046880722046,0.07895427197217941
1750928850090164200,14.566164306640625,-0.10674861818552017,-0.5636754631996155,0.02764163166284561
1750928850108988000,14.58498779296875,-0.001679878099821508,-0.6663007736206055,-0.05177079141139984
1750928850127811800,14.603811767578126,0.07040216773748398,-0.6858484148979187,0.006872228812426329
1750928850146635500,14.622635498046876,0.08872810751199722,-1.0670280456542969,0.023976443335413933
1750928850165459500,14.64145947265625,0.18035782873630524,-1.3235912322998047,-0.024892739951610565
1750928850184283100,14.660283203125,0.24266603589057922,-1.4188861846923828,-0.07009673118591309
1750928850203107000,14.679107177734375,0.22067490220069885,-1.2551743984222412,-0.07254019379615784
1750928850221930800,14.6979306640625,0.19379685819149017,-0.8190169334411621,-0.028557928279042244
1750928850240754700,14.716754638671874,0.15225805342197418,-0.4696022868156433,-0.024892739951610565
1750928850259578400,14.735578369140624,0.13271036744117737,-0.40118545293807983,-0.031001387163996696
1750928850278402300,14.75440234375,0.1253799945116043,-0.5844448804855347,-0.03955349326133728
1750928850297226000,14.77322607421875,0.08384118974208832,-0.8129082918167114,-0.011453714221715927
1750928850316050000,14.7920498046875,0.07528908550739288,-1.0694714784622192,0.052076224237680435
1750928850334873600,14.81087353515625,-0.004123337101191282,-1.2954914569854736,0.06673697382211685
1750928850353697500,14.829697509765625,-0.011453714221715927,-0.9595158696174622,0.036193739622831345
1750928850372521200,14.848521240234374,-0.018784092739224434,-0.5624537467956543,0.011759147047996521
1750928850391345200,14.86734521484375,-0.03222311660647392,-0.4378373324871063,0.03130681812763214
1750928850410168800,14.8861689453125,-0.0334448479115963,-0.5221366882324219,0.030085090547800064
1750928850428992800,14.90499267578125,-0.006566796451807022,-0.5954404473304749,0.023976443335413933
1750928850447816400,14.92381640625,-0.00045814859913662076,-0.588110089302063,0.03252854943275452
1750928850466640400,14.942640380859375,-0.03222311660647392,-0.5673406720161438,0.04108065739274025
1750928850485464000,14.961464111328125,-0.09453132748603821,-0.6577486395835876,0.045967575162649155
1750928850504288000,14.9802880859375,-0.08231402933597565,-0.8080213665962219,0.03252854943275452
1750928850523111700,14.999111572265624,0.004428769461810589,-0.9265291690826416,0.0435241162776947
1750928850541935600,15.017935546875,0.05451968312263489,-1.1171189546585083,0.009315688163042068
1750928850560759300,15.03675927734375,0.1253799945116043,-0.9521854519844055,-0.005345067009329796
1750928850579583200,15.055583251953125,0.0948367565870285,-0.7933606505393982,-0.005345067009329796
1750928850598407000,15.074406982421875,0.0435241162776947,-0.7041743993759155,-0.01511890348047018
1750928850617230800,15.09323095703125,0.04841103404760361,-0.7090612649917603,-0.007788525894284248
1750928850636054500,15.112054443359375,-0.016340631991624832,-0.6247619390487671,-0.00045814859913662076
1750928850654878500,15.13087841796875,-0.10063996911048889,-0.4341721534729004,0.02519817277789116
1750928850673702100,15.1497021484375,-0.1311832070350647,-0.25579962134361267,0.036193739622831345
1750928850692526000,15.168526123046876,-0.1104138121008873,-0.33887723088264465,0.03130681812763214
1750928850711349800,15.187349853515625,-0.07864884287118912,-0.4500546157360077,0.01908952370285988
1750928850730173700,15.206173583984375,-0.056657709181308746,-0.44761115312576294,0.0032070400193333626
1750928850748997400,15.224997314453125,0.004428769461810589,-0.44150251150131226,-0.002901607658714056
1750928850767821300,15.2438212890625,0.12904518842697144,-0.5074759125709534,0.02764163166284561
1750928850786645000,15.26264501953125,0.20479241013526917,-0.8666644096374512,-0.02611446939408779
1750928850805469000,15.281468994140624,0.18035782873630524,-0.8031344413757324,-0.005345067009329796
1750928850824292600,15.300292724609376,0.1204930767416954,-0.5013672709465027,0.005650499369949102
1750928850843116500,15.319116455078126,0.09605848789215088,-0.20082180202007294,0.02519817277789116
1750928850861940200,15.337940185546875,0.08750637620687485,-0.187382772564888,0.028863361105322838
1750928850880764200,15.35676416015625,0.10949750989675522,-0.25702136754989624,0.022754713892936707
1750928850899587800,15.375587890625,0.07406735420227051,-0.23991714417934418,0.04108065739274025
1750928850918411800,15.394411865234375,-0.007788525894284248,-0.1776089370250702,0.05818486958742142
1750928850937235500,15.4132353515625,-0.05177079141139984,-0.18005239963531494,0.0642935186624527
1750928850956059400,15.432059326171874,-0.06154462695121765,-0.19593487679958344,0.07162389904260635
1750928850974883000,15.450883056640626,-0.04199695214629173,-0.2484692484140396,0.07406735420227051
1750928850993707000,15.46970703125,-0.006566796451807022,-0.3303251266479492,0.061850059777498245
1750928851012531000,15.488531005859375,0.0435241162776947,-0.29856017231941223,0.06307178735733032
1750928851031354600,15.507354736328125,0.08261945843696594,-0.23136503994464874,0.0642935186624527
1750928851050178600,15.526178466796875,0.08139773458242416,-0.33399030566215515,0.0691804364323616
1750928851069002200,15.545002197265624,-0.005345067009329796,-0.4231765866279602,0.09239330142736435
1750928851087826000,15.563825927734374,-0.056657709181308746,-0.3119991719722748,0.08017600327730179
1750928851106649900,15.58264990234375,-0.013897174037992954,-0.23136503994464874,0.07040216773748398
1750928851125473800,15.601473876953126,0.0019853105768561363,-0.2338084876537323,0.04474584385752678
1750928851144297500,15.62029736328125,-0.16905683279037476,-0.40973755717277527,0.036193739622831345
1750928851163121400,15.639121337890625,-0.19471314549446106,-0.48914995789527893,0.061850059777498245
1750928851181945000,15.657945068359375,-0.06276635825634003,-0.22647811472415924,0.08384118974208832
1750928851200769000,15.67676904296875,-0.07742711156606674,-0.2338084876537323,0.10094540566205978
1750928851219592700,15.6955927734375,-0.12140937149524689,-0.38652467727661133,0.10094540566205978
1750928851238416600,15.714416748046874,-0.12385283410549164,-0.3303251266479492,0.06673697382211685
1750928851257240300,15.733240234375,-0.10063996911048889,-0.1776089370250702,0.0435241162776947
1750928851276064300,15.752064208984375,-0.0639880821108818,-0.18860450387001038,0.026419902220368385
1750928851294888000,15.770887939453125,0.008093958720564842,-0.2594648003578186,0.026419902220368385
1750928851313711900,15.7897119140625,0.04230238497257233,-0.25579962134361267,0.036193739622831345
1750928851332535600,15.80853564453125,0.006872228812426329,-0.3107774555683136,0.052076224237680435
1750928851351359500,15.827359375,-0.021227551624178886,-0.4757109582424164,0.055741410702466965
1750928851370183200,15.84618310546875,-0.004123337101191282,-0.5697841048240662,0.0435241162776947
1750928851389007000,15.865007080078126,-0.012675444595515728,-0.4744892120361328,0.03741546720266342
1750928851407830800,15.883830810546876,-0.054214250296354294,-0.3584249019622803,0.02764163166284561
1750928851426654700,15.90265478515625,-0.10797034949064255,-0.48670652508735657,0.02153298258781433
1750928851445478400,15.921478515625,-0.291229784488678,-0.8080213665962219,0.028863361105322838
1750928851464302300,15.94030224609375,-0.07498364895582199,-0.7322741746902466,0.04230238497257233
1750928851483126300,15.959126220703125,-0.0383317656815052,-0.4634936451911926,0.061850059777498245
1750928851501950000,15.977949951171874,-0.07620538026094437,-0.3119991719722748,0.03252854943275452
1750928851520773600,15.996773681640626,-0.07742711156606674,-0.2179260104894638,-0.013897174037992954
1750928851558421200,16.034421142578125,-0.040775224566459656,-0.3620901107788086,-0.006566796451807022
1750928851577245200,16.0532451171875,-0.02611446939408779,-0.5270236134529114,0.0032070400193333626
1750928851596069000,16.072069091796877,0.022754713892936707,-0.6149880886077881,0.012980876490473747
1750928851614892800,16.090892822265626,0.10094540566205978,-0.5917752385139465,0.014202605932950974
1750928851633716700,16.109716796875,0.07284562289714813,-0.5111411213874817,-0.028557928279042244
1750928851652540400,16.12854052734375,0.05085449293255806,-0.47326749563217163,-0.07498364895582199
1750928851671364400,16.1473642578125,0.05329795181751251,-0.5380191802978516,-0.05543597787618637
1750928851690188000,16.16618798828125,0.03741546720266342,-0.7334958910942078,-0.0383317656815052
1750928851709012000,16.185011962890623,0.0850629210472107,-0.8568905591964722,-0.054214250296354294
1750928851727835600,16.203835693359373,0.1204930767416954,-0.7958040833473206,-0.08109229803085327
1750928851746659600,16.22265966796875,0.09850194305181503,-0.588110089302063,-0.06643154472112656
1750928851765483300,16.241483154296876,0.08872810751199722,-0.3877464234828949,-0.018784092739224434
1750928851784307200,16.26030712890625,0.09728021919727325,-0.21670427918434143,0.026419902220368385
1750928851803131000,16.279130859375,0.09117157012224197,-0.16783510148525238,0.05451968312263489
1750928851821954800,16.297954833984374,0.09361502528190613,-0.2582430839538574,0.05818486958742142
1750928851840778500,16.316778564453124,0.07406735420227051,-0.3156643807888031,0.045967575162649155
1750928851859602400,16.3356025390625,0.03741546720266342,-0.2692386507987976,0.03497200831770897
1750928851878426400,16.35442626953125,0.006872228812426329,-0.2338084876537323,0.03375028073787689
1750928851897250000,16.37325,-0.013897174037992954,-0.28756460547447205,0.03497200831770897
1750928851916073700,16.39207373046875,-0.018784092739224434,-0.4036289155483246,0.039858926087617874
1750928851934897700,16.410897705078124,-0.056657709181308746,-0.40485063195228577,0.04718930274248123
1750928851953721600,16.4297216796875,-0.12018764764070511,-0.3730856776237488,0.052076224237680435
1750928851972545300,16.448545166015624,-0.13362666964530945,-0.4634936451911926,0.03741546720266342
1750928851991369200,16.467369140625,-0.054214250296354294,-0.6308705806732178,0.0386371985077858
1750928852010193000,16.48619287109375,-0.046883873641490936,-0.6858484148979187,0.06307178735733032
1750928852029016800,16.505016845703125,-0.05543597787618637,-0.5013672709465027,0.05940660089254379
1750928852047840500,16.523840576171875,-0.004123337101191282,-0.3510945439338684,0.05451968312263489
1750928852066664400,16.54266455078125,0.026419902220368385,-0.4182896614074707,0.04841103404760361
1750928852085488000,16.561488037109374,0.06307178735733032,-0.495258629322052,0.0642935186624527
1750928852104312000,16.58031201171875,0.061850059777498245,-0.4231765866279602,0.06551524996757507
1750928852123135700,16.5991357421875,0.05451968312263489,-0.32299473881721497,0.045967575162649155
1750928852141959700,16.617959716796875,0.030085090547800064,-0.34865108132362366,0.028863361105322838
1750928852160783400,16.636783447265625,-0.02000582218170166,-0.5025889873504639,0.004428769461810589
1750928852179607300,16.655607177734375,-0.017562363296747208,-0.4805978536605835,0.005650499369949102
1750928852198431200,16.67443115234375,-0.018784092739224434,-0.26679518818855286,-0.011453714221715927
1750928852217255000,16.6932548828125,-0.09453132748603821,-0.21548254787921906,-0.03955349326133728
1750928852236078800,16.712078857421876,-0.12140937149524689,-0.3364337682723999,-0.05543597787618637
1750928852254902500,16.730902587890625,-0.09330959618091583,-0.4072940945625305,-0.04321868345141411
1750928852273726500,16.7497265625,-0.0847574844956398,-0.39507678151130676,-0.02977965772151947
1750928852292550100,16.768550048828125,-0.10797034949064255,-0.4280634820461273,-0.017562363296747208
1750928852311374000,16.7873740234375,-0.06887500733137131,-0.4549415409564972,-0.01511890348047018
1750928852330197800,16.80619775390625,-0.027336198836565018,-0.4500546157360077,-0.012675444595515728
1750928852349021700,16.825021728515626,-0.016340631991624832,-0.4488328993320465,-0.004123337101191282
1750928852367845400,16.843845458984376,-0.03711003437638283,-0.48792824149131775,0.006872228812426329
1750928852386669300,16.86266943359375,0.004428769461810589,-0.5099193453788757,0.010537417605519295
1750928852405493200,16.8814931640625,0.03252854943275452,-0.4659371078014374,0.005650499369949102
1750928852424317000,16.90031689453125,0.028863361105322838,-0.3730856776237488,-0.012675444595515728
1750928852443140900,16.919140869140627,0.06062832847237587,-0.2692386507987976,-0.0102319847792387
1750928852461964500,16.937964599609376,0.010537417605519295,-0.15317434072494507,-0.017562363296747208
1750928852480788500,16.95678857421875,-0.040775224566459656,-0.06154462695121765,-0.021227551624178886
1750928852499612200,16.975612060546876,-0.05177079141139984,-0.1104138121008873,-0.016340631991624832
1750928852518436000,16.99443603515625,-0.044440411031246185,-0.23991714417934418,-0.002901607658714056
1750928852537259800,17.013259765625,-0.03711003437638283,-0.2961167097091675,0.0032070400193333626
1750928852574907400,17.050907470703127,-0.040775224566459656,-0.15928299725055695,-0.011453714221715927
1750928852593731300,17.0697314453125,-0.040775224566459656,-0.1824958473443985,0.0007635809597559273
1750928852612555300,17.08855517578125,-0.018784092739224434,-0.19960007071495056,0.03252854943275452
1750928852631379000,17.10737890625,-0.018784092739224434,-0.187382772564888,0.0435241162776947
1750928852650203000,17.126202880859374,-0.021227551624178886,-0.27168211340904236,0.03130681812763214
1750928852669026600,17.145026611328124,-0.04566214233636856,-0.3681987524032593,0.008093958720564842
1750928852687850500,17.1638505859375,-0.054214250296354294,-0.38530296087265015,-0.00045814859913662076
1750928852706674200,17.182674072265623,-0.009010255336761475,-0.30344706773757935,0.02519817277789116
1750928852725498000,17.201498046875,0.009315688163042068,-0.2179260104894638,0.04718930274248123
1750928852744321800,17.22032177734375,0.011759147047996521,-0.2228129357099533,0.06307178735733032
1750928852763145700,17.239145751953124,-0.002901607658714056,-0.23136503994464874,0.0642935186624527
1750928852781969400,17.257969482421874,0.008093958720564842,-0.2582430839538574,0.07284562289714813
1750928852800793300,17.27679345703125,0.06551524996757507,-0.291229784488678,0.08384118974208832
1750928852819617300,17.2956171875,0.05940660089254379,-0.3681987524032593,0.06795870512723923
1750928852838441000,17.31444091796875,0.03252854943275452,-0.40607234835624695,0.0642935186624527
1750928852857265000,17.333264892578125,0.017867794260382652,-0.2997818887233734,0.06795870512723923
1750928852876088600,17.352088623046875,-0.0102319847792387,-0.1727220118045807,0.05329795181751251
1750928852894912500,17.37091259765625,-0.031001387163996696,-0.20937390625476837,0.04841103404760361
1750928852913736200,17.389736083984374,0.0007635809597559273,-0.2887863218784332,0.04230238497257233
1750928852932560100,17.40856005859375,-0.024892739951610565,-0.32788166403770447,0.026419902220368385
1750928852951383800,17.4273837890625,-0.02977965772151947,-0.301003634929657,0.023976443335413933
1750928852970207700,17.446207763671875,-0.06154462695121765,-0.208152174949646,0.023976443335413933
1750928852989031700,17.46503173828125,-0.09819651395082474,-0.15928299725055695,0.0007635809597559273
1750928853007855400,17.48385546875,-0.10797034949064255,-0.22769984602928162,-0.021227551624178886
1750928853026679300,17.50267919921875,-0.07864884287118912,-0.2545779049396515,-0.03222311660647392
1750928853045503000,17.5215029296875,-0.022449281066656113,-0.22647811472415924,-0.009010255336761475
1750928853064327000,17.540326904296876,-0.01511890348047018,-0.208152174949646,0.0019853105768561363
1750928853083150600,17.559150634765626,-0.011453714221715927,-0.27779075503349304,0.02519817277789116
1750928853101974500,17.577974609375,-0.002901607658714056,-0.27656903862953186,0.05940660089254379
1750928853120798200,17.596798095703125,-0.021227551624178886,-0.30711227655410767,0.045967575162649155
1750928853139622100,17.6156220703125,-0.021227551624178886,-0.301003634929657,0.026419902220368385
1750928853158446000,17.634446044921877,-0.021227551624178886,-0.2545779049396515,0.008093958720564842
1750928853177269800,17.653269775390626,-0.017562363296747208,-0.19960007071495056,0.010537417605519295
1750928853196093700,17.67209375,-0.016340631991624832,-0.2887863218784332,0.012980876490473747
1750928853214917400,17.69091748046875,-0.021227551624178886,-0.32788166403770447,0.02764163166284561
1750928853233741300,17.7097412109375,-0.006566796451807022,-0.23258677124977112,0.045967575162649155
1750928853252565000,17.72856494140625,0.006872228812426329,0.036193739622831345,0.05451968312263489
1750928853271389000,17.747388916015623,0.03375028073787689,0.1204930767416954,0.0899498388171196
1750928853290212600,17.766212646484377,0.07651081681251526,-0.13851359486579895,0.1314886510372162
1750928853309036500,17.78503662109375,0.01908952370285988,-0.40607234835624695,0.09239330142736435
1750928853327860500,17.803860595703124,-0.07620538026094437,-0.4243983030319214,0.012980876490473747
1750928853346684200,17.82268408203125,-0.1262962967157364,-0.28267768025398254,-0.031001387163996696
1750928853365508000,17.841508056640624,-0.1519526094198227,-0.20448698103427887,0.0019853105768561363
1750928853384331800,17.860331787109374,-0.09941824525594711,-0.4488328993320465,0.05329795181751251
1750928853403155700,17.87915576171875,-0.044440411031246185,-0.7958040833473206,0.04718930274248123
1750928853421979400,17.8979794921875,0.12904518842697144,-1.1635446548461914,0.10216713696718216
1750928853440803300,17.91680322265625,0.314748078584671,-1.5581632852554321,0.18646647036075592
1750928853459627000,17.935626953125,0.34895649552345276,-1.725540280342102,0.09361502528190613
1750928853478451000,17.954450927734374,0.3269653618335724,-1.4970768690109253,0.055741410702466965
1750928853497275000,17.97327490234375,0.22434009611606598,-0.9155336022377014,0.07284562289714813
1750928853516098600,17.9920986328125,0.0007635809597559273,-0.5514581799507141,0.026419902220368385
1750928853534922500,18.010922607421875,-0.0591011680662632,-0.5160280466079712,-0.044440411031246185
1750928853572570000,18.048570068359375,0.08628465235233307,-0.3559814393520355,0.1363755613565445
1750928853591393800,18.067393798828125,0.15592323243618011,0.014202605932950974,0.13271036744117737
1750928853610217700,18.0862177734375,0.10216713696718216,0.20479241013526917,0.1363755613565445
1750928853629041700,18.105041748046876,0.005650499369949102,0.13271036744117737,0.14737112820148468
1750928853647865300,18.123865234375,-0.03588830679655075,0.06062832847237587,0.14370593428611755
1750928853666689300,18.142689208984375,-0.06887500733137131,-0.06276635825634003,0.03252854943275452
1750928853685513000,18.161512939453125,-0.09819651395082474,-0.2753472924232483,-0.08842267841100693
1750928853704337000,18.1803369140625,-0.08109229803085327,-0.45738500356674194,-0.11407899856567383
1750928853723160600,18.19916064453125,-0.03588830679655075,-0.5111411213874817,-0.0639880821108818
1750928853741984500,18.217984619140626,-0.0102319847792387,-0.2741255760192871,-0.02977965772151947
1750928853760808400,18.236808349609376,-0.07131846249103546,0.03252854943275452,-0.02611446939408779
1750928853779632000,18.255632080078126,-0.12385283410549164,0.012980876490473747,-0.05787943676114082
1750928853798456000,18.2744560546875,-0.060322895646095276,-0.14828743040561676,-0.10063996911048889
1750928853817279700,18.29327978515625,-0.022449281066656113,-0.30833399295806885,-0.11163553595542908
1750928853836103700,18.312103759765623,-0.011453714221715927,-0.34498587250709534,-0.07376192510128021
1750928853854927600,18.330927734375,0.039858926087617874,-0.3657552897930145,-0.016340631991624832
1750928853873751300,18.349751220703126,0.11438442766666412,-0.29733842611312866,-0.01511890348047018
1750928853892575200,18.3685751953125,0.15958842635154724,-0.291229784488678,-0.012675444595515728
1750928853911399000,18.38739892578125,0.1766926348209381,-0.2741255760192871,-0.04199695214629173
1750928853930222800,18.406222900390624,0.16814053058624268,-0.21548254787921906,-0.08597921580076218
1750928853949046500,18.425046630859374,0.16447533667087555,-0.26190826296806335,-0.0334448479115963
1750928853967870500,18.443870361328123,0.15470150113105774,-0.32788166403770447,0.036193739622831345
1750928853986694100,18.462694091796877,0.10094540566205978,-0.2631300091743469,-0.028557928279042244
1750928854005518000,18.48151806640625,0.0386371985077858,-0.19349141418933868,-0.0847574844956398
1750928854024342000,18.500342041015625,0.03375028073787689,-0.12873975932598114,-0.08720094710588455
1750928854043165700,18.519165771484374,0.08139773458242416,-0.07864884287118912,-0.03711003437638283
1750928854061989600,18.53798974609375,0.09239330142736435,-0.12263110280036926,0.028863361105322838
1750928854080813300,18.556813232421874,0.11316270381212234,-0.07498364895582199,0.0386371985077858
1750928854099637200,18.57563720703125,0.009315688163042068,-0.1153007298707962,-0.03222311660647392
1750928854118461200,18.594461181640625,-0.0334448479115963,-0.19960007071495056,-0.05177079141139984
1750928854137284900,18.613284912109375,-0.0383317656815052,-0.04566214233636856,-0.056657709181308746
1750928854156108800,18.63210888671875,-0.0102319847792387,0.12171480804681778,-0.04321868345141411
1750928854174932500,18.650932373046874,-0.002901607658714056,0.10705405473709106,-0.034666575491428375
1750928854193756400,18.66975634765625,-0.017562363296747208,0.05451968312263489,-0.03588830679655075
1750928854212580000,18.688580078125,-0.001679878099821508,-0.10063996911048889,-0.01511890348047018
1750928854231404000,18.707404052734375,-0.027336198836565018,-0.1360701322555542,-0.07131846249103546
1750928854250228000,18.72622802734375,-0.021227551624178886,-0.024892739951610565,-0.07498364895582199
1750928854269051600,18.7450517578125,-0.022449281066656113,0.0642935186624527,-0.08109229803085327
1750928854287875600,18.76387548828125,-0.02367101050913334,-0.05543597787618637,-0.08597921580076218
1750928854306699300,18.78269921875,-0.06154462695121765,-0.034666575491428375,-0.13729186356067657
1750928854325523200,18.801523193359376,-0.07620538026094437,-0.07376192510128021,-0.1519526094198227
1750928854344347100,18.82034716796875,-0.08353576064109802,-0.10063996911048889,-0.1715002804994583
1750928854363170800,18.8391708984375,-0.12873975932598114,0.14981459081172943,-0.2484692484140396
1750928854381994800,18.857994873046874,-0.20448698103427887,0.020311253145337105,-0.3046688139438629
1750928854400818400,18.876818359375,-0.16294817626476288,-0.1776089370250702,-0.15073087811470032
1750928854419642400,18.895642333984377,-0.06643154472112656,-0.10308343172073364,0.022754713892936707
1750928854438466000,18.914466064453126,0.010537417605519295,0.061850059777498245,0.09117157012224197
1750928854457290000,18.9332900390625,-0.00045814859913662076,0.07162389904260635,0.06551524996757507
1750928854476114000,18.952114013671874,-0.05543597787618637,0.07528908550739288,0.0007635809597559273
1750928854494937600,18.9709375,-0.050549060106277466,0.02764163166284561,0.04841103404760361
1750928854513761500,18.989761474609374,-0.002901607658714056,0.08384118974208832,0.10094540566205978
1750928854532585200,19.008585205078123,0.052076224237680435,0.16569706797599792,0.16569706797599792
1750928854551409200,19.0274091796875,0.06551524996757507,0.1766926348209381,0.1669187992811203
1750928854570233000,19.046233154296875,0.055741410702466965,0.18646647036075592,0.12904518842697144
1750928854589056800,19.065056884765625,0.04841103404760361,0.10949750989675522,0.10705405473709106
1750928854607880700,19.083880615234374,0.030085090547800064,0.1156061589717865,0.0948367565870285
1750928854626704400,19.102704345703124,0.011759147047996521,0.1571449637413025,0.08384118974208832
1750928854645528300,19.1215283203125,0.05451968312263489,0.08872810751199722,0.12171480804681778
1750928854664352300,19.140352294921875,0.04230238497257233,-0.00045814859913662076,0.08750637620687485
1750928854683176000,19.159176025390625,0.03497200831770897,-0.044440411031246185,0.0691804364323616
1750928854701999900,19.177999755859375,0.02153298258781433,0.02764163166284561,0.05451968312263489
1750928854720823600,19.196823486328125,0.008093958720564842,0.04474584385752678,0.030085090547800064
1750928854739647500,19.2156474609375,0.008093958720564842,0.0386371985077858,0.010537417605519295
1750928854758471400,19.234471435546876,0.022754713892936707,-0.03222311660647392,0.0019853105768561363
1750928854777295000,19.253295166015626,0.0154243353754282,-0.125074565410614,0.008093958720564842
1750928854796119000,19.272119140625,-0.0102319847792387,-0.018784092739224434,-0.004123337101191282
1750928854814942700,19.290942626953125,-0.012675444595515728,0.0691804364323616,0.0007635809597559273
1750928854833766700,19.3097666015625,-0.022449281066656113,0.0850629210472107,-0.007788525894284248
1750928854852590300,19.32859033203125,-0.02000582218170166,0.06551524996757507,-0.002901607658714056
1750928854871414300,19.347414306640626,-0.017562363296747208,0.03497200831770897,-0.016340631991624832
1750928854890238000,19.366238037109376,-0.009010255336761475,-0.07376192510128021,-0.02000582218170166
1750928854909062000,19.385061767578126,-0.017562363296747208,-0.050549060106277466,-0.03588830679655075
1750928854927885800,19.4038857421875,-0.024892739951610565,0.02519817277789116,-0.044440411031246185
1750928854946709500,19.42270947265625,-0.02000582218170166,0.03130681812763214,-0.027336198836565018
1750928854965533400,19.441533447265623,-0.004123337101191282,0.0032070400193333626,-0.009010255336761475
1750928854984357000,19.460357177734377,0.004428769461810589,-0.04810560122132301,-0.02000582218170166
1750928855003181000,19.47918115234375,-0.018784092739224434,-0.09330959618091583,-0.0591011680662632
1750928855022005000,19.4980048828125,-0.03588830679655075,-0.09941824525594711,-0.044440411031246185
1750928855040828700,19.51682861328125,-0.04566214233636856,-0.02000582218170166,-0.031001387163996696
1750928855059652600,19.535652587890624,-0.034666575491428375,-0.002901607658714056,-0.022449281066656113
1750928855078476300,19.554476318359374,-0.02611446939408779,-0.07864884287118912,-0.0334448479115963
1750928855097300200,19.57330029296875,0.026419902220368385,-0.15806126594543457,-0.012675444595515728
1750928855116124200,19.592124267578125,0.061850059777498245,-0.22525638341903687,0.0435241162776947
1750928855134947800,19.61094775390625,0.0899498388171196,-0.11652245372533798,0.06062832847237587
1750928855153771800,19.629771728515625,0.0386371985077858,0.039858926087617874,0.02153298258781433
1750928855172595500,19.648595458984374,-0.0102319847792387,-0.007788525894284248,-0.013897174037992954
1750928855191419400,19.66741943359375,-0.001679878099821508,-0.07131846249103546,0.05085449293255806
1750928855210243300,19.686243408203126,-0.02367101050913334,0.05329795181751251,0.04474584385752678
1750928855229067000,19.70506689453125,-0.056657709181308746,0.03741546720266342,-0.016340631991624832
1750928855247891000,19.723890869140625,-0.06520981341600418,-0.001679878099821508,-0.0639880821108818
1750928855266714600,19.742714599609375,-0.05177079141139984,0.0154243353754282,-0.06643154472112656
1750928855285538600,19.76153857421875,-0.04199695214629173,0.10216713696718216,-0.03955349326133728
1750928855304362500,19.780362548828126,-0.016340631991624832,0.15958842635154724,0.0032070400193333626
1750928855323186200,19.799186279296876,0.03130681812763214,0.0642935186624527,0.07773254066705704
1750928855342010000,19.818010009765626,0.06795870512723923,-0.031001387163996696,0.10216713696718216
1750928855360833800,19.836833740234376,0.0948367565870285,0.014202605932950974,0.10338886082172394
1750928855379657700,19.85565771484375,0.0642935186624527,-0.0383317656815052,0.09972367435693741
1750928855398481700,19.874481689453123,0.039858926087617874,-0.10674861818552017,0.07406735420227051
1750928855417305300,19.893305419921877,0.02153298258781433,-0.0896444097161293,0.08139773458242416
1750928855436129300,19.91212939453125,0.03741546720266342,-0.07376192510128021,0.09728021919727325
1750928855454953000,19.930952880859376,0.02519817277789116,-0.19960007071495056,0.04230238497257233
1750928855473777000,19.94977685546875,0.009315688163042068,-0.3633118271827698,0.009315688163042068
1750928855492600800,19.968600830078124,0.04474584385752678,-0.3975202441215515,0.01908952370285988
1750928855511424500,19.987424560546874,0.07773254066705704,-0.22647811472415924,0.008093958720564842
1750928855530248400,20.00624853515625,0.039858926087617874,0.03497200831770897,0.020311253145337105
1750928855549072100,20.025072021484377,0.0154243353754282,0.1314886510372162,0.028863361105322838
1750928855567896000,20.04389599609375,0.03130681812763214,0.02764163166284561,0.05818486958742142
1750928855586720000,20.062719970703125,0.036193739622831345,-0.0102319847792387,0.06062832847237587
1750928855605543700,20.081543701171874,0.014202605932950974,0.03252854943275452,0.03252854943275452
1750928855624367600,20.10036767578125,-0.00045814859913662076,0.028863361105322838,0.026419902220368385
1750928855643191600,20.119191650390626,0.004428769461810589,0.01908952370285988,-0.005345067009329796
1750928855662015200,20.13801513671875,0.006872228812426329,-0.05177079141139984,-0.044440411031246185
1750928855680839200,20.156839111328125,0.005650499369949102,-0.06643154472112656,-0.04810560122132301
1750928855699662800,20.175662841796875,-0.027336198836565018,-0.017562363296747208,-0.07498364895582199
1750928855718486800,20.19448681640625,-0.05543597787618637,-0.009010255336761475,-0.11896591633558273
1750928855737310700,20.213310791015626,-0.07742711156606674,0.022754713892936707,-0.1409570425748825
1750928855756134400,20.232134521484376,-0.07131846249103546,0.052076224237680435,-0.11774418503046036
1750928855774958300,20.250958251953126,-0.056657709181308746,0.07162389904260635,-0.1153007298707962
1750928855793782000,20.269781982421875,-0.04566214233636856,0.09605848789215088,-0.12140937149524689
1750928855812606000,20.28860595703125,-0.04199695214629173,0.1571449637413025,-0.12385283410549164
1750928855831430000,20.307429931640623,-0.046883873641490936,0.21945317089557648,-0.09453132748603821
1750928855850253600,20.326253662109377,-0.016340631991624832,0.2292270064353943,-0.044440411031246185
1750928855869077500,20.345077392578126,-0.01511890348047018,0.16325360536575317,-0.001679878099821508
1750928855887901200,20.363901123046876,0.07528908550739288,0.23044873774051666,0.0850629210472107
1750928855906725000,20.38272509765625,0.14004075527191162,0.162031888961792,0.13515383005142212
1750928855925549000,20.401549072265624,0.14981459081172943,0.05696314200758934,0.1510363221168518
1750928855944372700,20.420372802734374,0.06795870512723923,0.11804962158203125,0.18280129134655
1750928855963196700,20.43919677734375,0.045967575162649155,0.21090106666088104,0.18646647036075592
1750928855982020400,20.458020263671877,0.10827577859163284,0.11316270381212234,0.21212279796600342
1750928856000844300,20.47684423828125,0.1302669197320938,-0.027336198836565018,0.20479241013526917
1750928856019668200,20.495668212890624,0.10949750989675522,-0.13362666964530945,0.1925751268863678
1750928856038492000,20.514491943359374,0.06551524996757507,-0.09941824525594711,0.14981459081172943
1750928856057315800,20.53331591796875,-0.00045814859913662076,-0.012675444595515728,0.10827577859163284
1750928856076139800,20.552139892578126,-0.04566214233636856,0.049632761627435684,0.1302669197320938
1750928856094963500,20.57096337890625,-0.040775224566459656,0.16325360536575317,0.19990549981594086
1750928856113787400,20.589787353515625,0.045967575162649155,0.14859285950660706,0.2952004075050354
1750928856132611000,20.608611083984375,0.0642935186624527,0.055741410702466965,0.29764387011528015
1750928856151435000,20.62743505859375,0.052076224237680435,0.0019853105768561363,0.28664830327033997
1750928856170259000,20.646259033203126,-0.00045814859913662076,0.0691804364323616,0.29397866129875183
1750928856189082600,20.66508251953125,-0.007788525894284248,0.1669187992811203,0.32330018281936646
1750928856207906600,20.683906494140626,-0.02977965772151947,0.10338886082172394,0.2952004075050354
1750928856226730200,20.702730224609375,-0.0798705667257309,-0.2741255760192871,0.17547090351581573
1750928856245554200,20.72155419921875,-0.050549060106277466,-0.3889681398868561,0.17302745580673218
1750928856264378000,20.740378173828127,0.02519817277789116,-0.22769984602928162,0.22678354382514954
1750928856283201800,20.759201904296877,-0.007788525894284248,-0.10919208079576492,0.19501857459545135
1750928856302025700,20.778025634765626,-0.050549060106277466,0.1253799945116043,0.19013166427612305
1750928856320849700,20.796849609375,-0.007788525894284248,0.3355174660682678,0.2390008419752121
1750928856339673300,20.81567333984375,0.0154243353754282,0.28176137804985046,0.22556181252002716
1750928856358497300,20.834497314453124,-0.02611446939408779,0.005650499369949102,0.1253799945116043
1750928856377321200,20.8533212890625,-0.09697478264570236,-0.17027856409549713,0.030085090547800064
1750928856396145000,20.872144775390623,-0.16050471365451813,-0.14340050518512726,-0.02611446939408779
1750928856414968800,20.89096875,-0.13484840095043182,-0.06765327602624893,-0.02000582218170166
1750928856433792500,20.90979248046875,-0.09330959618091583,-0.06643154472112656,-0.017562363296747208
1750928856452616400,20.928616455078124,-0.03711003437638283,-0.16539163887500763,0.0007635809597559273
1750928856471440400,20.9474404296875,-0.016340631991624832,-0.19593487679958344,0.01908952370285988
1750928856490264000,20.96626416015625,-0.05299251899123192,-0.0847574844956398,0.02153298258781433
1750928856509088000,20.985087890625,-0.044440411031246185,0.045967575162649155,0.07406735420227051
1750928856527911700,21.00391162109375,0.07773254066705704,0.06795870512723923,0.22556181252002716
1750928856546735600,21.022735595703125,0.25121814012527466,0.22067490220069885,0.42959064245224
1750928856565559600,21.0415595703125,0.3196350038051605,0.44669488072395325,0.5309942364692688
1750928856584383200,21.06038330078125,0.29397866129875183,0.38438665866851807,0.49312058091163635
1750928856603207200,21.079207275390626,0.23777911067008972,0.1302669197320938,0.43203410506248474
1750928856622031000,21.098031005859376,0.17913609743118286,0.09361502528190613,0.39049530029296875
1750928856640854800,21.116854736328126,0.10583232343196869,0.07528908550739288,0.3416261374950409
1750928856659678700,21.1356787109375,0.06307178735733032,0.09850194305181503,0.3306305706501007
1750928856678502400,21.15450244140625,-0.013897174037992954,0.20723587274551392,0.304974228143692
1750928856697326300,21.173326416015627,-0.05543597787618637,0.22678354382514954,0.28298309445381165
1750928856716150300,21.192150390625,-0.04810560122132301,-0.017562363296747208,0.3966039717197418
1750928856734974000,21.210973876953126,0.05329795181751251,0.05940660089254379,0.4454731345176697
1750928856753798000,21.2297978515625,0.19501857459545135,0.1718057245016098,0.47235119342803955
1750928856772621800,21.248621826171874,0.14248420298099518,0.016646064817905426,0.45769044756889343
1750928856791445500,21.267445556640624,-0.07620538026094437,0.06062832847237587,0.45646870136260986
1750928856810269400,21.28626953125,-0.2386954128742218,0.26710063219070435,0.4124864339828491
1750928856829093000,21.305093017578123,-0.2680169343948364,0.3306305706501007,0.28787001967430115
1750928856847917000,21.3239169921875,-0.19960007071495056,0.12660172581672668,0.2536616027355194
1750928856866741000,21.342740966796875,-0.056657709181308746,-0.028557928279042244,0.4442514181137085
1750928856885564700,21.361564697265624,-0.04321868345141411,0.10094540566205978,0.5371028780937195
1750928856904388600,21.380388671875,-0.18371757864952087,0.13271036744117737,0.4332558512687683
1750928856923212500,21.399212646484376,-0.2802342176437378,0.0019853105768561363,0.21456626057624817
1750928856942036200,21.4180361328125,-0.13729186356067657,0.052076224237680435,0.05085449293255806
1750928856960860200,21.436860107421875,0.028863361105322838,0.04108065739274025,0.10705405473709106
1750928856979683800,21.455683837890625,0.016646064817905426,0.15592323243618011,0.3208567202091217
1750928856998507800,21.4745078125,-0.06154462695121765,0.28664830327033997,0.3575085997581482
1750928857017331700,21.493331787109376,-0.11163553595542908,0.4760163724422455,0.38927358388900757
1750928857036155400,21.5121552734375,-0.09819651395082474,0.49312058091163635,0.439364492893219
1750928857054979300,21.530979248046876,-0.05299251899123192,0.12660172581672668,0.3318522870540619
1750928857073803300,21.54980322265625,-0.03222311660647392,-0.08720094710588455,0.2707658112049103
1750928857092627000,21.568626953125,-0.01511890348047018,-0.27779075503349304,0.31230461597442627
1750928857111451000,21.587450927734373,0.023976443335413933,-0.3058905303478241,0.33429574966430664
1750928857130274800,21.60627490234375,0.020311253145337105,-0.027336198836565018,0.35017824172973633
1750928857149098500,21.625098388671876,0.012980876490473747,0.1302669197320938,0.41615164279937744
1750928857167922400,21.64392236328125,0.06795870512723923,0.24999640882015228,0.35506516695022583
1750928857186746400,21.662746337890624,0.12782345712184906,-0.09086613357067108,0.2658788859844208
1750928857205570000,21.681570068359374,0.012980876490473747,-0.7554870247840881,0.22067490220069885
1750928857224394000,21.70039404296875,-0.11285726726055145,-0.938746452331543,0.15225805342197418
1750928857243218000,21.719218017578125,-0.1519526094198227,-1.0071632862091064,0.19868376851081848
1750928857262041600,21.73804150390625,-0.1776089370250702,-0.8348994255065918,0.26710063219070435
1750928857280865500,21.756865478515625,-0.16294817626476288,-0.7518218159675598,0.4637990891933441
1750928857299689200,21.775689208984375,-0.002901607658714056,-0.6760746240615845,0.3929387629032135
1750928857318513200,21.79451318359375,0.263435423374176,-0.3352120518684387,0.36361727118492126
1750928857337337000,21.813337158203126,0.5297724604606628,-0.1104138121008873,0.5480984449386597
1750928857356160800,21.832160888671876,0.6727148294448853,0.1156061589717865,0.7680097222328186
1750928857374984700,21.850984619140625,0.6641627550125122,0.6604975461959839,0.9891427755355835
1750928857393808600,21.86980859375,0.5041161775588989,0.9537126421928406,0.9463822841644287
1750928857412632300,21.88863232421875,0.314748078584671,0.6165152788162231,0.7105884552001953
1750928857431456300,21.907456298828127,0.11804962158203125,-0.18371757864952087,0.3672824501991272
1750928857450280200,21.9262802734375,0.03252854943275452,-0.7713695168495178,0.18402300775051117
1750928857469103900,21.945103759765626,0.010537417605519295,-0.6443096399307251,0.21090106666088104
1750928857487927800,21.963927734375,0.0032070400193333626,-0.15806126594543457,0.31352636218070984
1750928857506751700,21.982751708984374,-0.017562363296747208,0.14492766559123993,0.33918267488479614
1750928857525575400,22.001575439453124,-0.02977965772151947,0.2487746775150299,0.3672824501991272
1750928857544399400,22.0203994140625,0.03130681812763214,0.30863943696022034,0.5688678026199341
1750928857563223300,22.039223388671875,0.17547090351581573,0.43692103028297424,0.8388700485229492
1750928857582047000,22.058046875,0.24266603589057922,0.41492989659309387,1.0025818347930908
1750928857600871000,22.076870849609374,0.0899498388171196,0.3917170464992523,1.0306816101074219
1750928857619694800,22.09569482421875,-0.16294817626476288,0.29397866129875183,0.9793689846992493
1750928857638518500,22.1145185546875,-0.21181736886501312,0.3990474045276642,0.9463822841644287
1750928857657342500,22.133342529296876,-0.19837833940982819,0.46624255180358887,0.8535308241844177
1750928857676166400,22.15216650390625,-0.2582430839538574,0.17913609743118286,0.7203623056411743
1750928857694990000,22.170989990234375,-0.3462076187133789,-0.040775224566459656,0.6385064125061035
1750928857713814000,22.18981396484375,-0.5025889873504639,-0.2802342176437378,0.5065596103668213
1750928857732637700,22.2086376953125,-0.6113229393959045,-0.02000582218170166,0.314748078584671
1750928857751461600,22.227461669921876,-0.5392408967018127,0.388051837682724,0.22678354382514954
1750928857770285600,22.24628564453125,-0.45127636194229126,0.19868376851081848,0.31230461597442627
1750928857789109200,22.265109130859376,-0.4195113778114319,0.06551524996757507,0.32330018281936646
1750928857807933200,22.28393310546875,-0.33887723088264465,0.18646647036075592,0.29886558651924133
1750928857826757000,22.302757080078123,-0.15561780333518982,0.29764387011528015,0.41004297137260437
1750928857845581000,22.3215810546875,-0.06887500733137131,0.2805396616458893,0.53221595287323
1750928857864404700,22.34040478515625,-0.06276635825634003,0.25610506534576416,0.471129447221756
1750928857883228700,22.359228759765625,-0.07009673118591309,0.12415826320648193,0.4747946560382843
1750928857902052600,22.378052490234374,-0.022449281066656113,0.08261945843696594,0.5786416530609131
1750928857920876300,22.396876220703124,0.04108065739274025,0.15958842635154724,0.6311760544776917
1750928857939700200,22.4157001953125,0.09117157012224197,0.15836669504642487,0.585972011089325
1750928857958524200,22.434524169921875,0.10949750989675522,0.1204930767416954,0.5786416530609131
1750928857977347800,22.453347900390625,0.10827577859163284,0.0948367565870285,0.6104066371917725
1750928857996171800,22.472171875,0.12171480804681778,0.03130681812763214,0.6653844714164734
1750928858014995700,22.49099560546875,0.1669187992811203,-0.004123337101191282,0.6739365458488464
1750928858033819400,22.5098193359375,0.20723587274551392,0.01908952370285988,0.708145022392273
1750928858052643300,22.528643310546876,0.2292270064353943,0.008093958720564842,0.7313578724861145
1750928858071467300,22.54746728515625,0.21456626057624817,-0.03588830679655075,0.6947059631347656
1750928858090291000,22.566291015625,0.20479241013526917,0.010537417605519295,0.5896372199058533
1750928858109115000,22.585114990234374,0.18890993297100067,0.12904518842697144,0.5041161775588989
1750928858127938800,22.603938720703123,0.20723587274551392,0.09605848789215088,0.4198168218135834
1750928858146762500,22.622762451171877,0.17302745580673218,0.0850629210472107,0.4247037470340729
1750928858165586400,22.64158642578125,0.10094540566205978,0.16325360536575317,0.47357290983200073
1750928858184410400,22.660410400390624,0.04108065739274025,0.19624030590057373,0.45769044756889343
1750928858203234000,22.679234130859374,-0.028557928279042244,0.10827577859163284,0.3868301212787628
1750928858222058000,22.69805810546875,-0.20693044364452362,0.3917170464992523,0.5261073112487793
1750928858240882000,22.7168818359375,-0.13362666964530945,0.30863943696022034,0.6226239204406738
1750928858259705900,22.735705810546875,-0.14950916171073914,0.32940882444381714,0.7240274548530579
1750928858278529500,22.754529541015625,-0.17516547441482544,0.2292270064353943,0.8107702732086182
1750928858297353500,22.773353515625,-0.16416990756988525,0.18524473905563354,0.7411317229270935
1750928858316177400,22.792177490234376,-0.2179260104894638,0.16447533667087555,0.6372846961021423
1750928858335001000,22.8110009765625,-0.3572031855583191,0.10583232343196869,0.5371028780937195
1750928858353825000,22.829824951171876,-0.41462448239326477,0.18524473905563354,0.44180795550346375
1750928858372649000,22.84864892578125,-0.505032479763031,-0.017562363296747208,0.34406960010528564
1750928858391472600,22.86747265625,-0.4842630624771118,-0.1262962967157364,0.3269653618335724
1750928858410296600,22.886296630859373,-0.40973755717277527,-0.19471314549446106,0.3159697949886322
1750928858429120500,22.90512060546875,-0.1971566081047058,-0.012675444595515728,0.3831649422645569
1750928858447944200,22.923944091796876,0.009315688163042068,-0.04810560122132301,0.3929387629032135
1750928858466768100,22.94276806640625,0.16569706797599792,-0.08720094710588455,0.41126471757888794
1750928858485592000,22.961592041015624,0.18035782873630524,-0.09208786487579346,0.4601338803768158
1750928858504415700,22.980415771484374,0.11804962158203125,0.016646064817905426,0.560315728187561
1750928858523239700,22.99923974609375,-0.00045814859913662076,0.11927134543657303,0.5590940117835999
1750928858542063600,23.018063720703125,-0.07742711156606674,0.02519817277789116,0.4271472096443176
1750928858579711200,23.055711181640625,-0.19471314549446106,0.004428769461810589,0.3721693754196167
1750928858598535200,23.07453515625,-0.12140937149524689,-0.03222311660647392,0.3367392122745514
1750928858617359000,23.093359130859376,-0.044440411031246185,-0.08109229803085327,0.19624030590057373
1750928858636182800,23.112182861328126,0.0386371985077858,-0.01511890348047018,0.1107192412018776
1750928858655006700,23.1310068359375,0.05329795181751251,0.0386371985077858,0.22434009611606598
1750928858673830700,23.14983056640625,0.0691804364323616,0.036193739622831345,0.3526217043399811
1750928858692654300,23.168654296875,0.10705405473709106,0.03741546720266342,0.30863943696022034
1750928858711478300,23.187478271484373,0.08017600327730179,0.04474584385752678,0.22067490220069885
1750928858730302200,23.20630224609375,-0.02367101050913334,0.0019853105768561363,0.28787001967430115
