time,seconds_elapsed,z,y,x
1750928835695008500,0.171008544921875,-35.55000305175781,11.568750381469727,-15.656250953674316
1750928835705008600,0.181008544921875,-35.66250228881836,11.11875057220459,-15.262500762939453
1750928835765008600,0.241008544921875,-35.4375,10.293750762939453,-14.21250057220459
1750928835795008500,0.271008544921875,-35.51250076293945,10.162500381469727,-14.062500953674316
1750928835815008500,0.291008544921875,-35.4375,10.36875057220459,-13.781250953674316
1750928835825008600,0.301008544921875,-35.10000228881836,10.537500381469727,-13.912500381469727
1750928835835008500,0.311008544921875,-35.212501525878906,10.443750381469727,-14.006250381469727
1750928835845008600,0.321008544921875,-35.493751525878906,10.350000381469727,-14.137500762939453
1750928835855008500,0.331008544921875,-35.45625305175781,10.3125,-14.193750381469727
1750928835865008600,0.341008544921875,-35.15625,10.36875057220459,-14.175000190734863
1750928835875008500,0.351008544921875,-35.025001525878906,10.237500190734863,-14.193750381469727
1750928835885008600,0.361008544921875,-35.025001525878906,10.40625,-14.568750381469727
1750928835895008500,0.371008544921875,-35.10000228881836,10.350000381469727,-14.625000953674316
1750928835905008600,0.381008544921875,-35.34375,10.331250190734863,-14.418750762939453
1750928835915008500,0.391008544921875,-35.28750228881836,10.293750762939453,-14.40000057220459
1750928835925008600,0.401008544921875,-35.15625,10.350000381469727,-14.193750381469727
1750928835935008500,0.411008544921875,-35.32500076293945,10.5,-14.062500953674316
1750928835945008600,0.421008544921875,-35.306251525878906,10.612500190734863,-13.893750190734863
1750928835955008500,0.431008544921875,-35.15625,10.6875,-13.875000953674316
1750928835965008600,0.441008544921875,-35.10000228881836,10.518750190734863,-13.631250381469727
1750928835975008500,0.451008544921875,-35.0625,10.518750190734863,-13.593750953674316
1750928835985008600,0.461008544921875,-34.96875,10.387500762939453,-13.687500953674316
1750928835995008500,0.471008544921875,-35.26875305175781,10.481250762939453,-13.612500190734863
1750928836005008600,0.481008544921875,-35.23125076293945,10.5,-13.46250057220459
1750928836015008500,0.491008544921875,-35.00625228881836,10.518750190734863,-13.46250057220459
1750928836025008600,0.501008544921875,-34.931251525878906,10.443750381469727,-13.443750381469727
1750928836035008500,0.511008544921875,-35.25,10.55625057220459,-13.350000381469727
1750928836045008600,0.521008544921875,-35.25,10.65000057220459,-13.27500057220459
1750928836055008500,0.531008544921875,-35.23125076293945,10.55625057220459,-13.406250953674316
1750928836065008600,0.541008544921875,-35.26875305175781,10.575000762939453,-13.518750190734863
1750928836075008500,0.551008544921875,-34.81875228881836,10.40625,-13.65000057220459
1750928836085008600,0.561008544921875,-34.72500228881836,10.36875057220459,-13.725000381469727
1750928836095008500,0.571008544921875,-34.98750305175781,10.40625,-13.65000057220459
1750928836105008600,0.581008544921875,-35.47500228881836,10.331250190734863,-13.537500381469727
1750928836115008500,0.591008544921875,-35.400001525878906,10.237500190734863,-13.387500762939453
1750928836125008600,0.601008544921875,-35.53125,10.200000762939453,-13.27500057220459
1750928836135008500,0.611008544921875,-35.71875,10.3125,-13.068750381469727
1750928836145008600,0.621008544921875,-35.66250228881836,10.443750381469727,-12.80625057220459
1750928836155008500,0.631008544921875,-35.90625,10.612500190734863,-12.675000190734863
1750928836165008600,0.641008544921875,-36.20625305175781,10.575000762939453,-12.61875057220459
1750928836175008500,0.651008544921875,-35.962501525878906,10.387500762939453,-12.581250190734863
1750928836185008600,0.661008544921875,-35.8125,10.36875057220459,-12.600000381469727
1750928836195008500,0.671008544921875,-35.71875,10.3125,-12.600000381469727
1750928836205008600,0.681008544921875,-35.73750305175781,10.050000190734863,-12.71250057220459
1750928836215008500,0.691008544921875,-35.64375305175781,10.03125,-12.731250762939453
1750928836225008600,0.701008544921875,-35.79375076293945,10.012500762939453,-12.71250057220459
1750928836235008500,0.711008544921875,-35.71875,9.956250190734863,-12.693750381469727
1750928836245008600,0.721008544921875,-35.60625076293945,10.162500381469727,-12.637500762939453
1750928836255008500,0.731008544921875,-35.775001525878906,10.237500190734863,-12.768750190734863
1750928836265008600,0.741008544921875,-35.88750076293945,10.162500381469727,-12.750000953674316
1750928836275008500,0.751008544921875,-36.1875,10.3125,-12.80625057220459
1750928836285008600,0.761008544921875,-36.28125,10.55625057220459,-12.825000762939453
1750928836295008500,0.771008544921875,-36.26250076293945,10.575000762939453,-12.637500762939453
1750928836305008600,0.781008544921875,-36.22500228881836,10.725000381469727,-12.61875057220459
1750928836315008500,0.791008544921875,-36.31875228881836,10.74375057220459,-12.393750190734863
1750928836325008600,0.801008544921875,-36.243751525878906,10.6875,-12.43125057220459
1750928836335008500,0.811008544921875,-36.39375305175781,10.55625057220459,-12.487500190734863
1750928836345008600,0.821008544921875,-36.30000305175781,10.6875,-12.52500057220459
1750928836355008500,0.831008544921875,-36.056251525878906,10.6875,-12.450000762939453
1750928836365008600,0.841008544921875,-35.98125076293945,10.818750381469727,-12.375000953674316
1750928836375008500,0.851008544921875,-36.22500228881836,10.893750190734863,-12.487500190734863
1750928836385008600,0.861008544921875,-36.35625076293945,10.74375057220459,-12.487500190734863
1750928836395008500,0.871008544921875,-36.26250076293945,10.65000057220459,-12.656250953674316
1750928836405008600,0.881008544921875,-36.35625076293945,10.612500190734863,-12.637500762939453
1750928836415008500,0.891008544921875,-36.243751525878906,10.74375057220459,-12.450000762939453
1750928836425008600,0.901008544921875,-36.056251525878906,10.6875,-12.581250190734863
1750928836435008500,0.911008544921875,-36.22500228881836,10.481250762939453,-12.581250190734863
1750928836445008600,0.921008544921875,-36.243751525878906,10.3125,-12.412500381469727
1750928836455008500,0.931008544921875,-36.11250305175781,10.36875057220459,-12.393750190734863
1750928836465008600,0.941008544921875,-36.26250076293945,10.387500762939453,-12.581250190734863
1750928836475008500,0.951008544921875,-36.26250076293945,10.5,-12.375000953674316
1750928836485008600,0.961008544921875,-36.243751525878906,10.6875,-12.281250953674316
1750928836495008500,0.971008544921875,-36.22500228881836,10.706250190734863,-12.375000953674316
1750928836505008600,0.981008544921875,-36.54375076293945,10.725000381469727,-12.24375057220459
1750928836515008500,0.991008544921875,-36.39375305175781,10.93125057220459,-12.33750057220459
1750928836525008600,1.001008544921875,-36.26250076293945,11.006250381469727,-12.393750190734863
1750928836535008500,1.011008544921875,-36.150001525878906,11.081250190734863,-12.393750190734863
1750928836545008600,1.021008544921875,-35.92500305175781,11.0625,-12.037500381469727
1750928836555008500,1.031008544921875,-35.98125076293945,11.175000190734863,-12.300000190734863
1750928836565008600,1.041008544921875,-36,11.0625,-12.543750762939453
1750928836575008500,1.051008544921875,-35.98125076293945,11.081250190734863,-12.487500190734863
1750928836585008600,1.061008544921875,-35.92500305175781,11.137500762939453,-12.675000190734863
1750928836595008500,1.071008544921875,-36.09375,10.93125057220459,-12.693750381469727
1750928836605008600,1.081008544921875,-36.20625305175781,10.96875,-12.693750381469727
1750928836615008500,1.091008544921875,-36.30000305175781,10.875,-12.543750762939453
1750928836625008600,1.101008544921875,-36.28125,11.100000381469727,-12.52500057220459
1750928836635008500,1.111008544921875,-36.30000305175781,11.137500762939453,-12.450000762939453
1750928836645008600,1.121008544921875,-36.31875228881836,11.006250381469727,-12.393750190734863
1750928836655008500,1.131008544921875,-36.337501525878906,11.0625,-12.112500190734863
1750928836665008600,1.141008544921875,-36.26250076293945,11.081250190734863,-11.887500762939453
1750928836675008500,1.151008544921875,-36,11.137500762939453,-11.793750762939453
1750928836685008600,1.161008544921875,-36.03750228881836,10.893750190734863,-11.850000381469727
1750928836695008500,1.171008544921875,-35.868751525878906,10.893750190734863,-12
1750928836705008600,1.181008544921875,-36.07500076293945,10.875,-12.187500953674316
1750928836715008500,1.191008544921875,-36.16875076293945,10.74375057220459,-12.24375057220459
1750928836725008600,1.201008544921875,-36.01875305175781,10.856250762939453,-11.96250057220459
1750928836735008500,1.211008544921875,-35.98125076293945,10.725000381469727,-12.112500190734863
1750928836745008600,1.221008544921875,-35.8125,10.706250190734863,-12.206250190734863
1750928836755008500,1.231008544921875,-35.775001525878906,10.93125057220459,-12.375000953674316
1750928836765008600,1.241008544921875,-35.73750305175781,11.231250762939453,-12.33750057220459
1750928836775008500,1.251008544921875,-35.73750305175781,11.193750381469727,-12.281250953674316
1750928836785008600,1.261008544921875,-35.51250076293945,11.043750762939453,-12.281250953674316
1750928836795008500,1.271008544921875,-35.400001525878906,11.21250057220459,-12.300000190734863
1750928836805008600,1.281008544921875,-35.4375,11.381250381469727,-12.656250953674316
1750928836815008500,1.291008544921875,-35.55000305175781,11.362500190734863,-12.562500953674316
1750928836825008600,1.301008544921875,-35.53125,11.381250381469727,-12.52500057220459
1750928836835008500,1.311008544921875,-35.75625228881836,11.287500381469727,-12.187500953674316
1750928836845008600,1.321008544921875,-35.73750305175781,11.25,-12.300000190734863
1750928836855008500,1.331008544921875,-35.71875,11.325000762939453,-12.262500762939453
1750928836865008600,1.341008544921875,-35.8125,11.418750762939453,-12.168750762939453
1750928836875008500,1.351008544921875,-35.70000076293945,11.193750381469727,-12.112500190734863
1750928836885008600,1.361008544921875,-35.79375076293945,11.100000381469727,-11.737500190734863
1750928836895008500,1.371008544921875,-35.681251525878906,11.268750190734863,-11.77500057220459
1750928836905008600,1.381008544921875,-35.71875,11.25,-11.850000381469727
1750928836915008500,1.391008544921875,-35.79375076293945,11.40000057220459,-11.831250190734863
1750928836925008600,1.401008544921875,-35.73750305175781,11.362500190734863,-11.737500190734863
1750928836935008500,1.411008544921875,-35.8125,11.34375,-11.8125
1750928836945008600,1.421008544921875,-35.64375305175781,11.4375,-11.625
1750928836955008500,1.431008544921875,-35.70000076293945,11.71875,-11.568750381469727
1750928836965008600,1.441008544921875,-35.775001525878906,11.77500057220459,-11.793750762939453
1750928836975008500,1.451008544921875,-35.70000076293945,11.756250381469727,-11.756250381469727
1750928836985008600,1.461008544921875,-35.94375228881836,11.887500762939453,-11.737500190734863
1750928836995008500,1.471008544921875,-35.83125305175781,11.86875057220459,-11.925000190734863
1750928837005008600,1.481008544921875,-35.75625228881836,12.037500381469727,-11.887500762939453
1750928837015008500,1.491008544921875,-35.64375305175781,12.05625057220459,-11.90625
1750928837025008600,1.501008544921875,-35.53125,12.225000381469727,-12.168750762939453
1750928837035008500,1.511008544921875,-35.681251525878906,12.262500762939453,-12.43125057220459
1750928837045008600,1.521008544921875,-35.625,12.262500762939453,-12.487500190734863
1750928837055008500,1.531008544921875,-35.66250228881836,12.543750762939453,-12.506250381469727
1750928837065008600,1.541008544921875,-35.60625076293945,12.543750762939453,-12.506250381469727
1750928837075008500,1.551008544921875,-35.60625076293945,12.750000953674316,-12.393750190734863
1750928837085008600,1.561008544921875,-35.75625228881836,12.750000953674316,-12.33750057220459
1750928837095008500,1.571008544921875,-35.94375228881836,12.90000057220459,-12.356250762939453
1750928837105008600,1.581008544921875,-36.056251525878906,12.693750381469727,-12.318750381469727
1750928837115008500,1.591008544921875,-36.03750228881836,12.750000953674316,-12.112500190734863
1750928837125008600,1.601008544921875,-36.16875076293945,12.918750762939453,-11.925000190734863
1750928837135008500,1.611008544921875,-36.31875228881836,12.956250190734863,-11.925000190734863
1750928837145008600,1.621008544921875,-36.22500228881836,13.143750190734863,-11.925000190734863
1750928837155008500,1.631008544921875,-36.11250305175781,13.143750190734863,-12.112500190734863
1750928837165008600,1.641008544921875,-36.22500228881836,13.481250762939453,-12.15000057220459
1750928837175008500,1.651008544921875,-36.243751525878906,13.706250190734863,-12
1750928837185008600,1.661008544921875,-36.243751525878906,13.93125057220459,-12.112500190734863
1750928837195008500,1.671008544921875,-36.16875076293945,13.912500381469727,-12.33750057220459
1750928837205008600,1.681008544921875,-36.150001525878906,14.006250381469727,-12.43125057220459
1750928837215008500,1.691008544921875,-36.01875305175781,14.006250381469727,-12.506250381469727
1750928837225008600,1.701008544921875,-36.20625305175781,13.893750190734863,-12.675000190734863
1750928837235008500,1.711008544921875,-36.26250076293945,13.575000762939453,-12.61875057220459
1750928837245008600,1.721008544921875,-36.16875076293945,13.331250190734863,-12.656250953674316
1750928837255008500,1.731008544921875,-36.11250305175781,12.99375057220459,-13.012500762939453
1750928837265008600,1.741008544921875,-36.31875228881836,12.675000190734863,-13.068750381469727
1750928837275008500,1.751008544921875,-36.13125228881836,12.506250381469727,-12.975000381469727
1750928837285008600,1.761008544921875,-36.03750228881836,12.24375057220459,-13.050000190734863
1750928837295008500,1.771008544921875,-36.07500076293945,11.831250190734863,-13.237500190734863
1750928837305008600,1.781008544921875,-35.962501525878906,11.58750057220459,-13.18125057220459
1750928837315008500,1.791008544921875,-35.85000228881836,11.4375,-13.18125057220459
1750928837325008600,1.801008544921875,-35.88750076293945,11.137500762939453,-13.500000953674316
1750928837335008500,1.811008544921875,-35.66250228881836,11.043750762939453,-13.443750381469727
1750928837345008600,1.821008544921875,-35.4375,11.175000190734863,-13.46250057220459
1750928837355008500,1.831008544921875,-35.36250305175781,11.21250057220459,-13.612500190734863
1750928837365008600,1.841008544921875,-35.32500076293945,11.081250190734863,-13.987500190734863
1750928837375008500,1.851008544921875,-35.10000228881836,11.0625,-14.250000953674316
1750928837385008600,1.861008544921875,-35.025001525878906,11.231250762939453,-14.475000381469727
1750928837395008500,1.871008544921875,-35.00625228881836,11.550000190734863,-14.812500953674316
1750928837405008600,1.881008544921875,-34.72500228881836,11.737500190734863,-14.756250381469727
1750928837415008500,1.891008544921875,-34.837501525878906,12.093750953674316,-14.96250057220459
1750928837425008600,1.901008544921875,-35.0625,12.262500762939453,-15.018750190734863
1750928837435008500,1.911008544921875,-35.400001525878906,12.356250762939453,-15.000000953674316
1750928837445008600,1.921008544921875,-35.493751525878906,12.675000190734863,-14.96250057220459
1750928837455008500,1.931008544921875,-35.60625076293945,12.99375057220459,-14.850000381469727
1750928837465008600,1.941008544921875,-35.70000076293945,13.068750381469727,-14.831250190734863
1750928837475008500,1.951008544921875,-36.056251525878906,13.256250381469727,-14.662500381469727
1750928837485008600,1.961008544921875,-36.525001525878906,13.46250057220459,-14.550000190734863
1750928837495008500,1.971008544921875,-36.993751525878906,13.443750381469727,-14.30625057220459
1750928837505008600,1.981008544921875,-37.06875228881836,13.537500381469727,-14.11875057220459
1750928837515008500,1.991008544921875,-37.29375076293945,13.593750953674316,-14.11875057220459
1750928837525008600,2.001008544921875,-37.33125305175781,13.612500190734863,-13.781250953674316
1750928837535008500,2.011008544921875,-37.59375,13.65000057220459,-13.612500190734863
1750928837545008600,2.021008544921875,-37.743751525878906,13.800000190734863,-13.36875057220459
1750928837555008500,2.031008544921875,-37.743751525878906,13.83750057220459,-12.956250190734863
1750928837565008600,2.041008544921875,-37.556251525878906,13.612500190734863,-12.825000762939453
1750928837575008500,2.051008544921875,-37.38750076293945,13.293750762939453,-12.71250057220459
1750928837585008600,2.061008544921875,-37.35000228881836,13.18125057220459,-12.600000381469727
1750928837595008500,2.071008544921875,-37.10625076293945,13.406250953674316,-12.450000762939453
1750928837605008600,2.081008544921875,-37.181251525878906,13.443750381469727,-12.468750953674316
1750928837615008500,2.091008544921875,-37.3125,13.55625057220459,-12.393750190734863
1750928837625008600,2.101008544921875,-37.44375228881836,13.55625057220459,-12.375000953674316
1750928837635008500,2.111008544921875,-37.51875305175781,13.293750762939453,-12.881250381469727
1750928837645008600,2.121008544921875,-37.61250305175781,13.668750762939453,-12.80625057220459
1750928837655008500,2.131008544921875,-37.61250305175781,14.137500762939453,-12.787500381469727
1750928837665008600,2.141008544921875,-37.66875076293945,14.343750953674316,-12.843750953674316
1750928837675008500,2.151008544921875,-37.80000305175781,14.343750953674316,-12.61875057220459
1750928837685008600,2.161008544921875,-37.85625076293945,14.381250381469727,-12.450000762939453
1750928837695008500,2.171008544921875,-37.6875,14.231250762939453,-12.225000381469727
1750928837705008600,2.181008544921875,-37.5,14.193750381469727,-11.925000190734863
1750928837715008500,2.191008544921875,-37.48125076293945,14.437500953674316,-11.606250762939453
1750928837725008600,2.201008544921875,-37.61250305175781,14.362500190734863,-11.512500762939453
1750928837735008500,2.211008544921875,-37.76250076293945,14.21250057220459,-11.268750190734863
1750928837745008600,2.221008544921875,-37.80000305175781,13.987500190734863,-11.081250190734863
1750928837755008500,2.231008544921875,-37.98750305175781,13.83750057220459,-11.02500057220459
1750928837765008600,2.241008544921875,-38.0625,13.950000762939453,-10.83750057220459
1750928837775008500,2.251008544921875,-38.04375076293945,13.950000762939453,-10.725000381469727
1750928837785008600,2.261008544921875,-38.23125076293945,13.950000762939453,-10.65000057220459
1750928837795008500,2.271008544921875,-38.04375076293945,13.968750953674316,-10.575000762939453
1750928837805008600,2.281008544921875,-37.96875,13.912500381469727,-10.518750190734863
1750928837815008500,2.291008544921875,-37.875,13.687500953674316,-10.74375057220459
1750928837825008600,2.301008544921875,-37.91250228881836,13.725000381469727,-10.6875
1750928837835008500,2.311008544921875,-37.837501525878906,13.818750381469727,-10.55625057220459
1750928837845008600,2.321008544921875,-37.70625305175781,13.74375057220459,-10.425000190734863
1750928837855008500,2.331008544921875,-37.837501525878906,13.950000762939453,-10.46250057220459
1750928837865008600,2.341008544921875,-37.743751525878906,13.987500190734863,-10.46250057220459
1750928837875008500,2.351008544921875,-38.00625228881836,14.062500953674316,-10.050000190734863
1750928837885008600,2.361008544921875,-38.13750076293945,14.193750381469727,-9.918750762939453
1750928837895008500,2.371008544921875,-38.10000228881836,14.49375057220459,-9.675000190734863
1750928837905008600,2.381008544921875,-38.212501525878906,14.456250190734863,-9.52500057220459
1750928837915008500,2.391008544921875,-38.400001525878906,14.475000381469727,-9.375
1750928837925008600,2.401008544921875,-38.64375305175781,14.418750762939453,-9.581250190734863
1750928837935008500,2.411008544921875,-38.79375076293945,14.568750381469727,-9.43125057220459
1750928837945008600,2.421008544921875,-38.88750076293945,14.58750057220459,-9.1875
1750928837955008500,2.431008544921875,-38.75625228881836,14.49375057220459,-9.24375057220459
1750928837965008600,2.441008544921875,-38.64375305175781,14.325000762939453,-9.131250381469727
1750928837975008500,2.451008544921875,-38.775001525878906,14.137500762939453,-8.793750762939453
1750928837985008600,2.461008544921875,-38.493751525878906,14.156250953674316,-8.86875057220459
1750928837995008500,2.471008544921875,-38.306251525878906,14.062500953674316,-8.86875057220459
1750928838005008600,2.481008544921875,-38.04375076293945,14.21250057220459,-8.793750762939453
1750928838015008500,2.491008544921875,-37.78125,14.043750762939453,-8.756250381469727
1750928838025008600,2.501008544921875,-37.743751525878906,14.043750762939453,-8.8125
1750928838035008500,2.511008544921875,-37.72500228881836,14.006250381469727,-8.925000190734863
1750928838045008600,2.521008544921875,-37.66875076293945,14.193750381469727,-8.86875057220459
1750928838055008500,2.531008544921875,-37.53750228881836,14.156250953674316,-8.887500762939453
1750928838065008600,2.541008544921875,-37.78125,14.156250953674316,-8.77500057220459
1750928838075008500,2.551008544921875,-37.70625305175781,14.250000953674316,-8.700000762939453
1750928838085008600,2.561008544921875,-37.98750305175781,14.268750190734863,-8.418750762939453
1750928838095008500,2.571008544921875,-38.118751525878906,14.30625057220459,-8.362500190734863
1750928838105008600,2.581008544921875,-38.04375076293945,14.21250057220459,-8.25
1750928838115008500,2.591008544921875,-38.13750076293945,14.30625057220459,-7.987500190734863
1750928838125008600,2.601008544921875,-38.212501525878906,14.231250762939453,-7.987500190734863
1750928838135008500,2.611008544921875,-38.47500228881836,14.475000381469727,-7.912500381469727
1750928838145008600,2.621008544921875,-38.34375,14.512500762939453,-7.800000190734863
1750928838155008500,2.631008544921875,-38.41875076293945,14.437500953674316,-7.612500190734863
1750928838165008600,2.641008544921875,-38.45625305175781,14.175000190734863,-7.556250095367432
1750928838175008500,2.651008544921875,-38.493751525878906,14.062500953674316,-7.181250095367432
1750928838185008600,2.661008544921875,-38.587501525878906,14.193750381469727,-6.900000095367432
1750928838195008500,2.671008544921875,-38.493751525878906,14.043750762939453,-6.825000286102295
1750928838205008600,2.681008544921875,-38.4375,13.762500762939453,-6.675000190734863
1750928838215008500,2.691008544921875,-38.26875305175781,13.725000381469727,-6.656250476837158
1750928838225008600,2.701008544921875,-38.17500305175781,13.781250953674316,-6.187500476837158
1750928838235008500,2.711008544921875,-38.38125228881836,13.800000190734863,-6.018750190734863
1750928838245008600,2.721008544921875,-38.26875305175781,13.856250762939453,-6.075000286102295
1750928838255008500,2.731008544921875,-38.25,13.725000381469727,-6.075000286102295
1750928838265008600,2.741008544921875,-38.4375,13.687500953674316,-5.981250286102295
1750928838275008500,2.751008544921875,-38.71875,13.875000953674316,-5.775000095367432
1750928838285008600,2.761008544921875,-39.03750228881836,14.175000190734863,-5.456250190734863
1750928838295008500,2.771008544921875,-39.13125228881836,14.02500057220459,-5.287500381469727
1750928838305008600,2.781008544921875,-39.45000076293945,14.081250190734863,-5.325000286102295
1750928838315008500,2.791008544921875,-39.41250228881836,13.968750953674316,-5.100000381469727
1750928838325008600,2.801008544921875,-39.39375305175781,13.987500190734863,-4.856250286102295
1750928838335008500,2.811008544921875,-39.46875,14.100000381469727,-4.537500381469727
1750928838345008600,2.821008544921875,-39.375,14.21250057220459,-4.40625
1750928838355008500,2.831008544921875,-39.31875228881836,14.02500057220459,-4.5
1750928838365008600,2.841008544921875,-39.150001525878906,14.062500953674316,-4.21875
1750928838375008500,2.851008544921875,-39.13125228881836,14.006250381469727,-3.9937500953674316
1750928838385008600,2.861008544921875,-38.98125076293945,14.043750762939453,-3.6750001907348633
1750928838395008500,2.871008544921875,-38.92500305175781,14.02500057220459,-3.5250000953674316
1750928838405008600,2.881008544921875,-39,14.156250953674316,-3.0562500953674316
1750928838415008500,2.891008544921875,-39.01875305175781,14.137500762939453,-2.625
1750928838425008600,2.901008544921875,-38.94375228881836,14.02500057220459,-2.4000000953674316
1750928838435008500,2.911008544921875,-39.03750228881836,14.11875057220459,-1.8937500715255737
1750928838445008600,2.921008544921875,-39,14.156250953674316,-1.6125000715255737
1750928838455008500,2.931008544921875,-39.16875076293945,14.437500953674316,-1.2375000715255737
1750928838465008600,2.941008544921875,-39.20625305175781,14.49375057220459,-1.0125000476837158
1750928838475008500,2.951008544921875,-39.337501525878906,14.68125057220459,-0.65625
1750928838485008600,2.961008544921875,-39.46875,14.662500381469727,-0.39375001192092896
1750928838495008500,2.971008544921875,-39.63750076293945,14.812500953674316,-0.16875000298023224
1750928838505008600,2.981008544921875,-39.86250305175781,14.68125057220459,0.05625000223517418
1750928838515008500,2.991008544921875,-39.63750076293945,14.943750381469727,0.26250001788139343
1750928838525008600,3.001008544921875,-39.91875076293945,14.850000381469727,0.375
1750928838535008500,3.011008544921875,-39.91875076293945,15.037500381469727,0.6187500357627869
1750928838545008600,3.021008544921875,-40.14375305175781,15.093750953674316,0.9750000238418579
1750928838555008500,3.031008544921875,-40.25625228881836,15.05625057220459,1.162500023841858
1750928838565008600,3.041008544921875,-40.01250076293945,15.206250190734863,1.2937500476837158
1750928838575008500,3.051008544921875,-39.95625305175781,15.393750190734863,1.21875
1750928838585008600,3.061008544921875,-39.9375,15.750000953674316,1.631250023841858
1750928838595008500,3.071008544921875,-40.14375305175781,15.71250057220459,1.7812501192092896
1750928838605008600,3.081008544921875,-40.06875228881836,15.862500190734863,2.137500047683716
1750928838615008500,3.091008544921875,-39.91875076293945,15.843750953674316,2.3812501430511475
1750928838625008600,3.101008544921875,-39.75,15.99375057220459,2.4375
1750928838635008500,3.111008544921875,-39.618751525878906,16.368751525878906,2.71875
1750928838645008600,3.121008544921875,-39.63750076293945,16.668750762939453,3.3000001907348633
1750928838655008500,3.131008544921875,-39.54375076293945,16.6875,3.356250047683716
1750928838665008600,3.141008544921875,-39.46875,16.5,3.450000047683716
1750928838675008500,3.151008544921875,-39.1875,16.556251525878906,3.8062500953674316
1750928838685008600,3.161008544921875,-38.83125305175781,16.59375,3.9000000953674316
1750928838695008500,3.171008544921875,-38.85000228881836,16.575000762939453,4.106250286102295
1750928838705008600,3.181008544921875,-38.83125305175781,16.368751525878906,4.3125
1750928838715008500,3.191008544921875,-38.70000076293945,16.23750114440918,4.518750190734863
1750928838725008600,3.201008544921875,-38.73750305175781,15.918750762939453,4.556250095367432
1750928838735008500,3.211008544921875,-38.64375305175781,15.90000057220459,4.950000286102295
1750928838745008600,3.221008544921875,-38.45625305175781,16.256250381469727,5.193750381469727
1750928838755008500,3.231008544921875,-38.32500076293945,16.33125114440918,5.550000190734863
1750928838765008600,3.241008544921875,-38.587501525878906,16.293750762939453,5.737500190734863
1750928838775008500,3.251008544921875,-38.625,16.200000762939453,5.831250190734863
1750928838785008600,3.261008544921875,-38.493751525878906,16.5,5.8125
1750928838795008500,3.271008544921875,-38.56875228881836,16.650001525878906,6
1750928838805008600,3.281008544921875,-38.66250228881836,16.6875,6.112500190734863
1750928838815008500,3.291008544921875,-38.64375305175781,16.6875,6.337500095367432
1750928838825008600,3.301008544921875,-38.587501525878906,16.650001525878906,6.468750476837158
1750928838835008500,3.311008544921875,-38.79375076293945,16.70625114440918,6.525000095367432
1750928838845008600,3.321008544921875,-38.66250228881836,16.96875,6.843750476837158
1750928838855008500,3.331008544921875,-38.41875076293945,17.231250762939453,7.143750190734863
1750928838865008600,3.341008544921875,-38.34375,17.231250762939453,7.481250286102295
1750928838875008500,3.351008544921875,-38.118751525878906,16.96875,7.575000286102295
1750928838885008600,3.361008544921875,-37.743751525878906,16.912500381469727,7.631250381469727
1750928838895008500,3.371008544921875,-37.650001525878906,17.043750762939453,7.593750476837158
1750928838905008600,3.381008544921875,-37.85625076293945,17.100000381469727,7.800000190734863
1750928838915008500,3.391008544921875,-37.98750305175781,16.931251525878906,7.818750381469727
1750928838925008600,3.401008544921875,-37.98750305175781,16.837501525878906,7.725000381469727
1750928838935008500,3.411008544921875,-38.13750076293945,16.443750381469727,7.856250286102295
1750928838945008600,3.421008544921875,-38.118751525878906,16.181251525878906,7.931250095367432
1750928838955008500,3.431008544921875,-38.25,16.23750114440918,8.100000381469727
1750928838965008600,3.441008544921875,-38.306251525878906,16.350000381469727,8.40000057220459
1750928838975008500,3.451008544921875,-38.60625076293945,16.181251525878906,8.850000381469727
1750928838985008600,3.461008544921875,-38.28750228881836,15.881250381469727,9.206250190734863
1750928838995008500,3.471008544921875,-38.25,15.918750762939453,9.543750762939453
1750928839005008600,3.481008544921875,-38.13750076293945,15.843750953674316,9.9375
1750928839015008500,3.491008544921875,-38.13750076293945,15.937500953674316,10.03125
1750928839025008600,3.501008544921875,-38.04375076293945,15.918750762939453,10.631250381469727
1750928839035008500,3.511008544921875,-38.10000228881836,15.862500190734863,11.02500057220459
1750928839045008600,3.521008544921875,-38.10000228881836,15.731250762939453,11.40000057220459
1750928839055008500,3.531008544921875,-37.875,15.768750190734863,11.8125
1750928839065008600,3.541008544921875,-38.118751525878906,15.675000190734863,12.168750762939453
1750928839075008500,3.551008544921875,-38.025001525878906,15.262500762939453,12.562500953674316
1750928839085008600,3.561008544921875,-37.89375305175781,15.15000057220459,13.08750057220459
1750928839095008500,3.571008544921875,-37.98750305175781,14.887500762939453,13.781250953674316
1750928839105008600,3.581008544921875,-38.10000228881836,14.606250762939453,14.137500762939453
1750928839115008500,3.591008544921875,-37.98750305175781,14.193750381469727,14.475000381469727
1750928839125008600,3.601008544921875,-38.17500305175781,13.968750953674316,14.718750953674316
1750928839135008500,3.611008544921875,-38.04375076293945,13.706250190734863,14.925000190734863
1750928839145008600,3.621008544921875,-38.0625,13.593750953674316,15.281250953674316
1750928839155008500,3.631008544921875,-38.08125305175781,13.481250762939453,15.637500762939453
1750928839165008600,3.641008544921875,-38.212501525878906,13.031250953674316,15.768750190734863
1750928839175008500,3.651008544921875,-37.95000076293945,13.050000190734863,15.918750762939453
1750928839185008600,3.661008544921875,-38.08125305175781,13.106250762939453,15.937500953674316
1750928839195008500,3.671008544921875,-37.875,13.293750762939453,16.200000762939453
1750928839205008600,3.681008544921875,-37.66875076293945,13.256250381469727,16.40625
1750928839215008500,3.691008544921875,-37.80000305175781,12.99375057220459,16.575000762939453
1750928839225008600,3.701008544921875,-37.70625305175781,13.068750381469727,16.6875
1750928839235008500,3.711008544921875,-37.53750228881836,13.200000762939453,16.631250381469727
1750928839245008600,3.721008544921875,-37.42500305175781,13.443750381469727,16.650001525878906
1750928839255008500,3.731008544921875,-37.44375228881836,13.350000381469727,16.650001525878906
1750928839265008600,3.741008544921875,-37.25625228881836,13.36875057220459,16.650001525878906
1750928839275008500,3.751008544921875,-37.40625,13.36875057220459,16.575000762939453
1750928839285008600,3.761008544921875,-37.33125305175781,13.27500057220459,16.5
1750928839295008500,3.771008544921875,-37.44375228881836,13.500000953674316,16.575000762939453
1750928839305008600,3.781008544921875,-37.51875305175781,13.500000953674316,16.481250762939453
1750928839315008500,3.791008544921875,-37.5,13.612500190734863,16.61250114440918
1750928839325008600,3.801008544921875,-37.66875076293945,13.518750190734863,16.78125
1750928839335008500,3.811008544921875,-37.70625305175781,13.893750190734863,17.08125114440918
1750928839345008600,3.821008544921875,-37.76250076293945,13.762500762939453,17.231250762939453
1750928839365008600,3.841008544921875,-37.70625305175781,13.83750057220459,17.71875
1750928839375008500,3.851008544921875,-37.6875,13.706250190734863,17.775001525878906
1750928839385008600,3.861008544921875,-37.51875305175781,13.55625057220459,18.09375
1750928839395008500,3.871008544921875,-37.66875076293945,13.518750190734863,18.375
1750928839405008600,3.881008544921875,-37.57500076293945,13.762500762939453,18.618751525878906
1750928839415008500,3.891008544921875,-37.650001525878906,13.443750381469727,18.637500762939453
1750928839425008600,3.901008544921875,-37.51875305175781,13.575000762939453,18.9375
1750928839435008500,3.911008544921875,-37.40625,13.55625057220459,18.9375
1750928839445008600,3.921008544921875,-37.42500305175781,13.537500381469727,19.125
1750928839455008500,3.931008544921875,-37.3125,13.706250190734863,19.368751525878906
1750928839465008600,3.941008544921875,-37.125,13.706250190734863,19.575000762939453
1750928839475008500,3.951008544921875,-37.01250076293945,13.481250762939453,19.5
1750928839485008600,3.961008544921875,-36.76875305175781,13.068750381469727,19.481250762939453
1750928839495008500,3.971008544921875,-36.431251525878906,12.975000381469727,19.33125114440918
1750928839505008600,3.981008544921875,-36.50625228881836,12.862500190734863,19.350000381469727
1750928839515008500,3.991008544921875,-36.48750305175781,12.918750762939453,19.481250762939453
1750928839535008500,4.011008544921875,-36.150001525878906,12.90000057220459,19.912500381469727
1750928839545008600,4.021008544921875,-36,12.956250190734863,20.193750381469727
1750928839555008500,4.031008544921875,-35.98125076293945,13.08750057220459,20.568750381469727
1750928839565008600,4.041008544921875,-36.09375,13.256250381469727,20.83125114440918
1750928839575008500,4.051008544921875,-36.28125,13.200000762939453,21.131250381469727
1750928839585008600,4.061008544921875,-36.1875,13.106250762939453,21.39375114440918
1750928839595008500,4.071008544921875,-36.31875228881836,13.18125057220459,21.618751525878906
1750928839605008600,4.081008544921875,-36.150001525878906,13.218750953674316,21.712501525878906
1750928839615008500,4.091008544921875,-35.962501525878906,13.200000762939453,21.900001525878906
1750928839625008600,4.101008544921875,-36.03750228881836,13.218750953674316,21.806251525878906
1750928839635008500,4.111008544921875,-35.85000228881836,13.312500953674316,21.9375
1750928839645008600,4.121008544921875,-35.64375305175781,13.406250953674316,22.03125
1750928839655008500,4.131008544921875,-35.4375,13.481250762939453,22.368751525878906
1750928839665008600,4.141008544921875,-35.306251525878906,13.575000762939453,22.350000381469727
1750928839675008500,4.151008544921875,-35.10000228881836,13.443750381469727,22.725000381469727
1750928839685008600,4.161008544921875,-34.98750305175781,13.425000190734863,22.875
1750928839695008500,4.171008544921875,-35.10000228881836,13.537500381469727,23.0625
1750928839705008600,4.181008544921875,-34.85625076293945,13.237500190734863,23.193750381469727
1750928839715008500,4.191008544921875,-34.70625305175781,13.162500381469727,23.606250762939453
1750928839725008600,4.201008544921875,-34.63125228881836,12.975000381469727,24.037500381469727
1750928839735008500,4.211008544921875,-34.40625,13.031250953674316,24.168750762939453
1750928839745008600,4.221008544921875,-34.368751525878906,13.068750381469727,24.731250762939453
1750928839755008500,4.231008544921875,-34.33125305175781,13.068750381469727,24.86250114440918
1750928839765008600,4.241008544921875,-34.23750305175781,12.918750762939453,25.012500762939453
1750928839775008500,4.251008544921875,-33.95625305175781,12.731250762939453,25.293750762939453
1750928839785008600,4.261008544921875,-34.06875228881836,12.881250381469727,25.61250114440918
1750928839795008500,4.271008544921875,-34.087501525878906,12.90000057220459,25.556251525878906
1750928839805008600,4.281008544921875,-33.993751525878906,12.937500953674316,25.968751907348633
1750928839815008500,4.291008544921875,-34.087501525878906,12.80625057220459,26.118751525878906
1750928839825008600,4.301008544921875,-34.03125,12.825000762939453,26.287500381469727
1750928839835008500,4.311008544921875,-33.9375,12.862500190734863,26.418750762939453
1750928839845008600,4.321008544921875,-33.9375,12.90000057220459,26.73750114440918
1750928839855008500,4.331008544921875,-33.65625,12.956250190734863,26.83125114440918
1750928839865008600,4.341008544921875,-33.375,12.99375057220459,27.000001907348633
1750928839875008500,4.351008544921875,-32.98125076293945,12.918750762939453,27.225000381469727
1750928839885008600,4.361008544921875,-32.94375228881836,12.881250381469727,26.981250762939453
1750928839895008500,4.371008544921875,-32.681251525878906,13.068750381469727,27.262500762939453
1750928839905008600,4.381008544921875,-32.51250076293945,13.256250381469727,27.39375114440918
1750928839915008500,4.391008544921875,-32.38125228881836,13.443750381469727,27.525001525878906
1750928839925008600,4.401008544921875,-32.34375,13.537500381469727,27.450000762939453
1750928839935008500,4.411008544921875,-32.51250076293945,13.387500762939453,27.356250762939453
1750928839945008600,4.421008544921875,-32.4375,13.500000953674316,27.318750381469727
1750928839955008500,4.431008544921875,-32.47500228881836,13.55625057220459,27.356250762939453
1750928839965008600,4.441008544921875,-32.38125228881836,13.687500953674316,27.468751907348633
1750928839975008500,4.451008544921875,-32.306251525878906,13.706250190734863,27.356250762939453
1750928839985008600,4.461008544921875,-32.28750228881836,13.500000953674316,27.150001525878906
1750928839995008500,4.471008544921875,-32.34375,13.537500381469727,27.168750762939453
1750928840005008600,4.481008544921875,-32.26875305175781,13.593750953674316,27.075000762939453
1750928840015008500,4.491008544921875,-32.26875305175781,13.875000953674316,27.168750762939453
1750928840025008600,4.501008544921875,-32.19375228881836,13.987500190734863,27.037500381469727
1750928840035008500,4.511008544921875,-32.17500305175781,14.268750190734863,26.793750762939453
1750928840045008600,4.521008544921875,-32.10000228881836,14.362500190734863,26.756250381469727
1750928840055008500,4.531008544921875,-32.025001525878906,14.512500762939453,26.756250381469727
1750928840065008600,4.541008544921875,-31.650001525878906,14.700000762939453,26.73750114440918
1750928840075008500,4.551008544921875,-31.368751525878906,14.850000381469727,26.531251907348633
1750928840085008600,4.561008544921875,-31.33125114440918,15.24375057220459,26.718751907348633
1750928840095008500,4.571008544921875,-30.937501907348633,15.506250381469727,26.700000762939453
1750928840105008600,4.581008544921875,-30.881250381469727,15.656250953674316,27.000001907348633
1750928840115008500,4.591008544921875,-30.67500114440918,15.862500190734863,27.375001907348633
1750928840125008600,4.601008544921875,-30.356250762939453,15.99375057220459,27.412500381469727
1750928840135008500,4.611008544921875,-30.11250114440918,16.350000381469727,27.600000381469727
1750928840145008600,4.621008544921875,-29.906251907348633,16.78125,27.825000762939453
1750928840155008500,4.631008544921875,-29.55000114440918,16.912500381469727,28.14375114440918
1750928840165008600,4.641008544921875,-29.08125114440918,16.856250762939453,28.33125114440918
1750928840175008500,4.651008544921875,-28.650001525878906,16.89375114440918,28.631250381469727
1750928840185008600,4.661008544921875,-28.500001907348633,17.15625,28.593751907348633
1750928840195008500,4.671008544921875,-28.293750762939453,17.418750762939453,28.368751525878906
1750928840205008600,4.681008544921875,-28.012500762939453,17.793750762939453,28.406251907348633
1750928840215008500,4.691008544921875,-27.750001907348633,17.83125114440918,28.462501525878906
1750928840225008600,4.701008544921875,-27.712501525878906,17.887500762939453,28.650001525878906
1750928840235008500,4.711008544921875,-27.600000381469727,18.131250381469727,28.781251907348633
1750928840245008600,4.721008544921875,-27.543750762939453,18.525001525878906,28.70625114440918
1750928840255008500,4.731008544921875,-27.506250381469727,18.76875114440918,28.725000381469727
1750928840265008600,4.741008544921875,-27.150001525878906,18.787500381469727,28.950000762939453
1750928840275008500,4.751008544921875,-26.887500762939453,18.86250114440918,29.26875114440918
1750928840285008600,4.761008544921875,-26.718751907348633,18.95625114440918,29.400001525878906
1750928840295008500,4.771008544921875,-26.662500381469727,19.33125114440918,29.475000381469727
1750928840305008600,4.781008544921875,-26.437501907348633,19.40625,29.475000381469727
1750928840315008500,4.791008544921875,-26.26875114440918,19.42500114440918,29.625001907348633
1750928840325008600,4.801008544921875,-26.006250381469727,19.350000381469727,29.587501525878906
1750928840335008500,4.811008544921875,-26.118751525878906,19.51875114440918,29.437501907348633
1750928840345008600,4.821008544921875,-26.043750762939453,19.762500762939453,29.512500762939453
1750928840355008500,4.831008544921875,-26.26875114440918,19.89375114440918,29.418750762939453
1750928840365008600,4.841008544921875,-26.100000381469727,19.89375114440918,29.36250114440918
1750928840375008500,4.851008544921875,-26.062501907348633,19.668750762939453,29.250001907348633
1750928840385008600,4.861008544921875,-26.043750762939453,19.668750762939453,29.36250114440918
1750928840395008500,4.871008544921875,-26.250001907348633,19.931251525878906,29.512500762939453
1750928840405008600,4.881008544921875,-26.568750381469727,19.98750114440918,29.568750381469727
1750928840415008500,4.891008544921875,-26.250001907348633,19.70625114440918,29.587501525878906
1750928840425008600,4.901008544921875,-26.137500762939453,19.743751525878906,29.587501525878906
1750928840435008500,4.911008544921875,-26.08125114440918,19.556251525878906,29.662500381469727
1750928840445008600,4.921008544921875,-26.325000762939453,19.59375,29.887500762939453
1750928840455008500,4.931008544921875,-26.493751525878906,19.537500381469727,30.075000762939453
1750928840465008600,4.941008544921875,-26.418750762939453,19.5,30.037500381469727
1750928840475008500,4.951008544921875,-26.418750762939453,19.21875,29.700000762939453
1750928840485008600,4.961008544921875,-26.26875114440918,19.087501525878906,29.943750381469727
1750928840495008500,4.971008544921875,-26.568750381469727,19.125,30.281251907348633
1750928840505008600,4.981008544921875,-26.812501907348633,18.76875114440918,30.412500381469727
1750928840515008500,4.991008544921875,-26.587501525878906,18.618751525878906,30.431251525878906
1750928840525008600,5.001008544921875,-26.587501525878906,18.318750381469727,30.30000114440918
1750928840535008500,5.011008544921875,-26.662500381469727,18.337501525878906,30.618751525878906
1750928840545008600,5.021008544921875,-26.64375114440918,18.20625114440918,30.506250381469727
1750928840555008500,5.031008544921875,-26.55000114440918,18.262500762939453,30.600000381469727
1750928840565008600,5.041008544921875,-26.36250114440918,18.262500762939453,30.58125114440918
1750928840575008500,5.051008544921875,-26.231250762939453,18.037500381469727,30.543750762939453
1750928840585008600,5.061008544921875,-26.062501907348633,18.09375,30.506250381469727
1750928840595008500,5.071008544921875,-26.08125114440918,17.981250762939453,30.806251525878906
1750928840605008600,5.081008544921875,-26.100000381469727,18.075000762939453,31.14375114440918
1750928840625008600,5.101008544921875,-25.650001525878906,17.868751525878906,31.05000114440918
1750928840635008500,5.111008544921875,-25.42500114440918,17.71875,31.368751525878906
1750928840645008600,5.121008544921875,-25.575000762939453,17.756250381469727,31.668750762939453
1750928840655008500,5.131008544921875,-25.500001907348633,17.8125,31.593751907348633
1750928840665008600,5.141008544921875,-25.368751525878906,17.8125,31.575000762939453
1750928840675008500,5.151008544921875,-25.106250762939453,17.850000381469727,31.593751907348633
1750928840685008600,5.161008544921875,-24.900001525878906,17.943750381469727,31.500001907348633
1750928840695008500,5.171008544921875,-24.58125114440918,17.887500762939453,31.668750762939453
1750928840705008600,5.181008544921875,-24.543750762939453,17.775001525878906,31.837501525878906
1750928840715008500,5.191008544921875,-24.600000381469727,17.83125114440918,31.98750114440918
1750928840725008600,5.201008544921875,-24.318750381469727,17.64375114440918,31.912500381469727
1750928840735008500,5.211008544921875,-24.243751525878906,17.625,32.34375
1750928840745008600,5.221008544921875,-24.356250762939453,17.700000762939453,32.53125
1750928840755008500,5.231008544921875,-24.187501907348633,17.73750114440918,32.66250228881836
1750928840765008600,5.241008544921875,-23.92500114440918,17.700000762939453,32.70000076293945
1750928840775008500,5.251008544921875,-23.981250762939453,17.868751525878906,32.71875
1750928840785008600,5.261008544921875,-24.075000762939453,18.075000762939453,32.681251525878906
1750928840795008500,5.271008544921875,-23.73750114440918,18.11250114440918,32.60625076293945
1750928840805008600,5.281008544921875,-23.45625114440918,18.09375,32.681251525878906
1750928840815008500,5.291008544921875,-23.15625,18.075000762939453,32.85000228881836
1750928840825008600,5.301008544921875,-22.40625,17.90625,33.1875
1750928840835008500,5.311008544921875,-22.200000762939453,17.92500114440918,33.28125
1750928840845008600,5.321008544921875,-21.918750762939453,17.943750381469727,33.67500305175781
1750928840855008500,5.331008544921875,-21.375,18.037500381469727,34.06875228881836
1750928840865008600,5.341008544921875,-20.92500114440918,17.756250381469727,34.25625228881836
1750928840875008500,5.351008544921875,-20.55000114440918,17.55000114440918,34.5
1750928840885008600,5.361008544921875,-20.418750762939453,17.587501525878906,34.931251525878906
1750928840895008500,5.371008544921875,-19.912500381469727,17.756250381469727,35.17500305175781
1750928840905008600,5.381008544921875,-19.725000381469727,17.868751525878906,35.19375228881836
1750928840915008500,5.391008544921875,-19.631250381469727,17.793750762939453,35.32500076293945
1750928840925008600,5.401008544921875,-19.556251525878906,17.756250381469727,35.493751525878906
1750928840935008500,5.411008544921875,-19.387500762939453,17.662500381469727,35.41875076293945
1750928840945008600,5.421008544921875,-19.275001525878906,17.775001525878906,35.71875
1750928840955008500,5.431008544921875,-19.05000114440918,17.868751525878906,35.83125305175781
1750928840965008600,5.441008544921875,-18.86250114440918,17.8125,36
1750928840975008500,5.451008544921875,-18.637500762939453,17.83125114440918,35.90625
1750928840985008600,5.461008544921875,-18.65625,17.83125114440918,36.1875
1750928840995008500,5.471008544921875,-18.1875,18.075000762939453,36.31875228881836
1750928841005008600,5.481008544921875,-17.71875,18.11250114440918,36.5625
1750928841015008500,5.491008544921875,-17.45625114440918,17.943750381469727,36.993751525878906
1750928841025008600,5.501008544921875,-16.78125,18,37.3125
1750928841035008500,5.511008544921875,-16.3125,18.01875114440918,37.59375
1750928841045008600,5.521008544921875,-15.731250762939453,18.168750762939453,37.51875305175781
1750928841055008500,5.531008544921875,-15.675000190734863,18.262500762939453,37.85625076293945
1750928841065008600,5.541008544921875,-15.375000953674316,18.168750762939453,37.89375305175781
1750928841075008500,5.551008544921875,-15.356250762939453,17.962501525878906,38.25
1750928841085008600,5.561008544921875,-15.281250953674316,17.850000381469727,38.15625
1750928841095008500,5.571008544921875,-15.15000057220459,17.868751525878906,38.10000228881836
1750928841105008600,5.581008544921875,-15.33750057220459,17.887500762939453,38.13750076293945
1750928841115008500,5.591008544921875,-15.356250762939453,17.90625,38.13750076293945
1750928841125008600,5.601008544921875,-15.356250762939453,17.8125,38.212501525878906
1750928841135008500,5.611008544921875,-15.33750057220459,17.55000114440918,37.96875
1750928841145008600,5.621008544921875,-15.356250762939453,17.587501525878906,38.04375076293945
1750928841155008500,5.631008544921875,-14.96250057220459,17.700000762939453,38.04375076293945
1750928841165008600,5.641008544921875,-14.86875057220459,17.775001525878906,38.17500305175781
1750928841175008500,5.651008544921875,-14.756250381469727,17.83125114440918,38.15625
1750928841185008600,5.661008544921875,-14.437500953674316,17.887500762939453,38.118751525878906
1750928841195008500,5.671008544921875,-14.343750953674316,17.64375114440918,38.10000228881836
1750928841205008600,5.681008544921875,-14.362500190734863,17.606250762939453,38.0625
1750928841215008500,5.691008544921875,-14.043750762939453,17.756250381469727,38.08125305175781
1750928841225008600,5.701008544921875,-13.593750953674316,17.71875,37.95000076293945
1750928841235008500,5.711008544921875,-13.443750381469727,17.793750762939453,38.00625228881836
1750928841245008600,5.721008544921875,-13.350000381469727,17.8125,38.19375228881836
1750928841255008500,5.731008544921875,-13.162500381469727,17.83125114440918,38.306251525878906
1750928841265008600,5.741008544921875,-13.18125057220459,17.8125,38.34375
1750928841275008500,5.751008544921875,-13.068750381469727,18.056251525878906,38.45625305175781
1750928841285008600,5.761008544921875,-12.768750190734863,18.01875114440918,38.53125
1750928841295008500,5.771008544921875,-12.843750953674316,17.981250762939453,38.71875
1750928841305008600,5.781008544921875,-12.80625057220459,17.850000381469727,38.79375076293945
1750928841315008500,5.791008544921875,-12.750000953674316,17.700000762939453,38.775001525878906
1750928841325008600,5.801008544921875,-12.356250762939453,17.606250762939453,38.64375305175781
1750928841335008500,5.811008544921875,-11.925000190734863,17.55000114440918,38.70000076293945
1750928841345008600,5.821008544921875,-11.737500190734863,17.4375,38.587501525878906
1750928841355008500,5.831008544921875,-11.625,17.36250114440918,38.587501525878906
1750928841365008600,5.841008544921875,-11.287500381469727,17.475000381469727,38.79375076293945
1750928841375008500,5.851008544921875,-11.043750762939453,17.512500762939453,38.962501525878906
1750928841385008600,5.861008544921875,-10.856250762939453,17.26875114440918,39.07500076293945
1750928841395008500,5.871008544921875,-10.856250762939453,17.08125114440918,39.16875076293945
1750928841405008600,5.881008544921875,-10.875,16.950000762939453,39.337501525878906
1750928841415008500,5.891008544921875,-11.081250190734863,16.931251525878906,39.48750305175781
1750928841425008600,5.901008544921875,-11.11875057220459,16.931251525878906,39.76875305175781
1750928841435008500,5.911008544921875,-11.193750381469727,16.70625114440918,39.84375
1750928841445008600,5.921008544921875,-11.34375,16.40625,39.84375
1750928841455008500,5.931008544921875,-11.21250057220459,16.14375114440918,39.78750228881836
1750928841465008600,5.941008544921875,-11.418750762939453,16.40625,40.05000305175781
1750928841475008500,5.951008544921875,-11.231250762939453,16.368751525878906,39.97500228881836
1750928841485008600,5.961008544921875,-11.175000190734863,16.21875,39.95625305175781
1750928841495008500,5.971008544921875,-11.15625,16.181251525878906,40.01250076293945
1750928841505008600,5.981008544921875,-10.93125057220459,16.200000762939453,39.9375
1750928841515008500,5.991008544921875,-10.6875,16.293750762939453,40.01250076293945
1750928841525008600,6.001008544921875,-10.631250381469727,16.3125,39.97500228881836
1750928841535008500,6.011008544921875,-10.237500190734863,16.443750381469727,40.01250076293945
1750928841545008600,6.021008544921875,-9.862500190734863,16.556251525878906,39.95625305175781
1750928841555008500,6.031008544921875,-9.787500381469727,16.556251525878906,39.9375
1750928841565008600,6.041008544921875,-9.637500762939453,16.912500381469727,40.03125
1750928841575008500,6.051008544921875,-9.33750057220459,16.856250762939453,39.9375
1750928841585008600,6.061008544921875,-9.037500381469727,16.668750762939453,39.91875076293945
1750928841595008500,6.071008544921875,-8.943750381469727,16.51875114440918,39.76875305175781
1750928841605008600,6.081008544921875,-8.793750762939453,16.631250381469727,39.78750228881836
1750928841615008500,6.091008544921875,-9.05625057220459,16.368751525878906,39.806251525878906
1750928841625008600,6.101008544921875,-9.075000762939453,16.087501525878906,39.86250305175781
1750928841635008500,6.111008544921875,-8.737500190734863,15.956250190734863,39.97500228881836
1750928841645008600,6.121008544921875,-8.568750381469727,15.581250190734863,39.82500076293945
1750928841655008500,6.131008544921875,-8.418750762939453,15.450000762939453,40.01250076293945
1750928841665008600,6.141008544921875,-8.40000057220459,15.468750953674316,39.993751525878906
1750928841675008500,6.151008544921875,-8.175000190734863,15.600000381469727,40.14375305175781
1750928841685008600,6.161008544921875,-7.743750095367432,15.468750953674316,40.35000228881836
1750928841695008500,6.171008544921875,-7.293750286102295,15.825000762939453,40.48125076293945
1750928841705008600,6.181008544921875,-7.012500286102295,15.787500381469727,40.462501525878906
1750928841715008500,6.191008544921875,-6.937500476837158,15.881250381469727,40.29375076293945
1750928841725008600,6.201008544921875,-6.806250095367432,15.918750762939453,40.462501525878906
1750928841735008500,6.211008544921875,-6.487500190734863,15.975000381469727,40.42500305175781
1750928841745008600,6.221008544921875,-6.187500476837158,16.012500762939453,40.57500076293945
1750928841755008500,6.231008544921875,-5.587500095367432,15.937500953674316,40.6875
1750928841765008600,6.241008544921875,-5.287500381469727,15.90000057220459,40.63125228881836
1750928841775008500,6.251008544921875,-4.800000190734863,15.543750762939453,40.61250305175781
1750928841785008600,6.261008544921875,-4.237500190734863,15.52500057220459,40.63125228881836
1750928841795008500,6.271008544921875,-3.637500047683716,15.506250381469727,40.85625076293945
1750928841805008600,6.281008544921875,-3.0187501907348633,15.600000381469727,41.08125305175781
1750928841815008500,6.291008544921875,-2.6812500953674316,15.43125057220459,41.17500305175781
1750928841825008600,6.301008544921875,-2.0062501430511475,15.318750381469727,41.17500305175781
1750928841835008500,6.311008544921875,-1.8000000715255737,15.262500762939453,41.25
1750928841845008600,6.321008544921875,-1.5187500715255737,15.15000057220459,41.212501525878906
1750928841855008500,6.331008544921875,-1.21875,15.24375057220459,41.32500076293945
1750928841865008600,6.341008544921875,-1.0125000476837158,15.168750762939453,41.34375
1750928841875008500,6.351008544921875,-1.0125000476837158,14.96250057220459,41.4375
1750928841885008600,6.361008544921875,-0.862500011920929,14.77500057220459,41.19375228881836
1750928841895008500,6.371008544921875,-0.7312500476837158,14.756250381469727,41.08125305175781
1750928841905008600,6.381008544921875,-0.8062500357627869,14.756250381469727,41.36250305175781
1750928841915008500,6.391008544921875,-0.581250011920929,14.718750953674316,41.34375
1750928841925008600,6.401008544921875,-0.4125000238418579,14.643750190734863,41.493751525878906
1750928841935008500,6.411008544921875,-0.5250000357627869,14.58750057220459,41.45625305175781
1750928841945008600,6.421008544921875,-0.4125000238418579,14.49375057220459,41.45625305175781
1750928841955008500,6.431008544921875,-0.01875000074505806,14.550000190734863,41.41875076293945
1750928841965008600,6.441008544921875,0.07500000298023224,14.40000057220459,41.45625305175781
1750928841975008500,6.451008544921875,0.22500000894069672,14.437500953674316,41.34375
1750928841985008600,6.461008544921875,0.3375000059604645,14.325000762939453,41.25
1750928841995008500,6.471008544921875,0.16875000298023224,14.193750381469727,41.23125076293945
1750928842005008600,6.481008544921875,0.20625001192092896,14.268750190734863,41.13750076293945
1750928842015008500,6.491008544921875,0.4687500298023224,14.062500953674316,40.875
1750928842025008600,6.501008544921875,0.7125000357627869,14.287500381469727,40.931251525878906
1750928842035008500,6.511008544921875,0.39375001192092896,14.21250057220459,40.837501525878906
1750928842045008600,6.521008544921875,0.35625001788139343,14.287500381469727,40.91250228881836
1750928842055008500,6.531008544921875,0.4312500059604645,14.343750953674316,40.96875
1750928842065008600,6.541008544921875,0.48750001192092896,14.381250381469727,40.875
1750928842075008500,6.551008544921875,0.6187500357627869,14.606250762939453,40.91250228881836
1750928842085008600,6.561008544921875,0.862500011920929,14.718750953674316,40.85625076293945
1750928842095008500,6.571008544921875,0.7312500476837158,14.831250190734863,41.118751525878906
1750928842105008600,6.581008544921875,0.65625,14.737500190734863,41.0625
1750928842115008500,6.591008544921875,0.9750000238418579,14.906250953674316,41.26875305175781
1750928842125008600,6.601008544921875,1.2375000715255737,15.018750190734863,41.025001525878906
1750928842135008500,6.611008544921875,1.21875,15.15000057220459,41.118751525878906
1750928842145008600,6.621008544921875,1.350000023841858,15.15000057220459,41.00625228881836
1750928842155008500,6.631008544921875,1.6125000715255737,15.037500381469727,40.81875228881836
1750928842165008600,6.641008544921875,1.6125000715255737,15.000000953674316,40.89375305175781
1750928842175008500,6.651008544921875,1.8750001192092896,15.112500190734863,40.81875228881836
1750928842185008600,6.661008544921875,2.15625,15.093750953674316,40.61250305175781
1750928842195008500,6.671008544921875,2.137500047683716,15.24375057220459,40.42500305175781
1750928842205008600,6.681008544921875,2.418750047683716,15.33750057220459,40.556251525878906
1750928842215008500,6.691008544921875,2.5687501430511475,15.318750381469727,40.51875305175781
1750928842225008600,6.701008544921875,2.6812500953674316,15.24375057220459,40.51875305175781
1750928842235008500,6.711008544921875,2.6437501907348633,15.262500762939453,40.5
1750928842245008600,6.721008544921875,2.5687501430511475,15.093750953674316,40.368751525878906
1750928842255008500,6.731008544921875,2.9250001907348633,14.906250953674316,40.275001525878906
1750928842265008600,6.741008544921875,3,15.000000953674316,40.51875305175781
1750928842275008500,6.751008544921875,3.262500047683716,14.887500762939453,40.51875305175781
1750928842285008600,6.761008544921875,3.4312500953674316,14.831250190734863,40.462501525878906
1750928842295008500,6.771008544921875,3.6937501430511475,14.550000190734863,40.51875305175781
1750928842305008600,6.781008544921875,3.843750238418579,14.77500057220459,40.66875076293945
1750928842315008500,6.791008544921875,4.087500095367432,14.756250381469727,40.63125228881836
1750928842325008600,6.801008544921875,4.293750286102295,14.981250762939453,40.70625305175781
1750928842335008500,6.811008544921875,4.21875,15.05625057220459,40.66875076293945
1750928842345008600,6.821008544921875,4.162500381469727,14.943750381469727,40.462501525878906
1750928842355008500,6.831008544921875,4.068750381469727,14.96250057220459,40.35000228881836
1750928842365008600,6.841008544921875,4.181250095367432,14.850000381469727,40.40625
1750928842375008500,6.851008544921875,4.350000381469727,14.96250057220459,40.29375076293945
1750928842385008600,6.861008544921875,4.350000381469727,15.018750190734863,40.35000228881836
1750928842395008500,6.871008544921875,4.40625,15.037500381469727,40.3125
1750928842405008600,6.881008544921875,4.575000286102295,14.86875057220459,40.25625228881836
1750928842415008500,6.891008544921875,4.762500286102295,14.831250190734863,40.40625
1750928842425008600,6.901008544921875,4.987500190734863,14.850000381469727,40.76250076293945
1750928842435008500,6.911008544921875,5.475000381469727,14.77500057220459,40.76250076293945
1750928842445008600,6.921008544921875,5.193750381469727,14.718750953674316,40.61250305175781
1750928842455008500,6.931008544921875,5.456250190734863,14.86875057220459,40.76250076293945
1750928842475008500,6.951008544921875,6.206250190734863,14.643750190734863,40.66875076293945
1750928842485008600,6.961008544921875,6.562500476837158,14.550000190734863,40.76250076293945
1750928842495008500,6.971008544921875,6.712500095367432,14.568750381469727,40.837501525878906
1750928842505008600,6.981008544921875,6.750000476837158,14.58750057220459,40.57500076293945
1750928842515008500,6.991008544921875,6.731250286102295,14.550000190734863,40.70625305175781
1750928842535008500,7.011008544921875,7.237500190734863,14.362500190734863,40.80000305175781
1750928842545008600,7.021008544921875,7.012500286102295,14.156250953674316,40.78125
1750928842555008500,7.031008544921875,7.275000095367432,14.100000381469727,40.80000305175781
1750928842565008600,7.041008544921875,7.518750190734863,14.250000953674316,40.837501525878906
1750928842575008500,7.051008544921875,7.668750286102295,14.062500953674316,40.650001525878906
1750928842585008600,7.061008544921875,8.100000381469727,13.950000762939453,40.59375
1750928842595008500,7.071008544921875,8.231250762939453,13.968750953674316,40.556251525878906
1750928842605008600,7.081008544921875,8.137500762939453,13.875000953674316,40.42500305175781
1750928842615008500,7.091008544921875,8.137500762939453,14.006250381469727,40.35000228881836
1750928842625008600,7.101008544921875,8.662500381469727,14.156250953674316,40.57500076293945
1750928842635008500,7.111008544921875,8.643750190734863,14.21250057220459,40.53750228881836
1750928842645008600,7.121008544921875,8.4375,14.062500953674316,40.53750228881836
1750928842655008500,7.131008544921875,8.4375,14.137500762939453,40.556251525878906
1750928842665008600,7.141008544921875,8.362500190734863,14.156250953674316,40.57500076293945
1750928842675008500,7.151008544921875,8.34375,13.987500190734863,40.42500305175781
1750928842685008600,7.161008544921875,8.700000762939453,13.950000762939453,40.5
1750928842695008500,7.171008544921875,8.96250057220459,13.93125057220459,40.72500228881836
1750928842705008600,7.181008544921875,8.86875057220459,13.781250953674316,40.61250305175781
1750928842715008500,7.191008544921875,8.981250762939453,13.83750057220459,40.57500076293945
1750928842725008600,7.201008544921875,9.112500190734863,13.725000381469727,40.462501525878906
1750928842735008500,7.211008544921875,9.318750381469727,13.781250953674316,40.48125076293945
1750928842745008600,7.221008544921875,9.46875,13.818750381469727,40.42500305175781
1750928842755008500,7.231008544921875,9.80625057220459,14.02500057220459,40.72500228881836
1750928842765008600,7.241008544921875,9.9375,14.081250190734863,40.76250076293945
1750928842775008500,7.251008544921875,10.050000190734863,13.875000953674316,40.368751525878906
1750928842785008600,7.261008544921875,10.27500057220459,13.800000190734863,40.181251525878906
1750928842795008500,7.271008544921875,10.200000762939453,13.668750762939453,40.06875228881836
1750928842805008600,7.281008544921875,10.387500762939453,13.725000381469727,39.993751525878906
1750928842815008500,7.291008544921875,10.40625,13.612500190734863,39.97500228881836
1750928842825008600,7.301008544921875,10.5,13.387500762939453,39.993751525878906
1750928842835008500,7.311008544921875,10.818750381469727,13.218750953674316,39.78750228881836
1750928842845008600,7.321008544921875,11.006250381469727,12.90000057220459,39.58125305175781
1750928842855008500,7.331008544921875,11.100000381469727,12.937500953674316,39.60000228881836
1750928842865008600,7.341008544921875,11.4375,12.750000953674316,39.48750305175781
1750928842875008500,7.351008544921875,11.737500190734863,12.768750190734863,39.54375076293945
1750928842885008600,7.361008544921875,12.018750190734863,12.825000762939453,39.76875305175781
1750928842895008500,7.371008544921875,12.506250381469727,12.80625057220459,39.806251525878906
1750928842905008600,7.381008544921875,12.918750762939453,12.918750762939453,39.95625305175781
1750928842915008500,7.391008544921875,12.843750953674316,12.675000190734863,39.88125228881836
1750928842925008600,7.401008544921875,12.881250381469727,12.750000953674316,39.9375
1750928842935008500,7.411008544921875,13.08750057220459,12.787500381469727,40.21875
1750928842945008600,7.421008544921875,13.200000762939453,12.843750953674316,40.03125
1750928842955008500,7.431008544921875,13.55625057220459,12.562500953674316,39.97500228881836
1750928842965008600,7.441008544921875,13.55625057220459,12.225000381469727,39.75
1750928842975008500,7.451008544921875,13.425000190734863,12.24375057220459,39.69375228881836
1750928842985008600,7.461008544921875,13.612500190734863,12.05625057220459,39.30000305175781
1750928842995008500,7.471008544921875,13.93125057220459,12.206250190734863,39.20625305175781
1750928843005008600,7.481008544921875,14.231250762939453,12.093750953674316,39.13125228881836
1750928843015008500,7.491008544921875,14.325000762939453,11.831250190734863,39.07500076293945
1750928843025008600,7.501008544921875,14.568750381469727,11.981250762939453,39.39375305175781
1750928843035008500,7.511008544921875,14.662500381469727,12.24375057220459,39.056251525878906
1750928843045008600,7.521008544921875,14.850000381469727,12.43125057220459,38.962501525878906
1750928843055008500,7.531008544921875,15.15000057220459,12.468750953674316,38.75625228881836
1750928843065008600,7.541008544921875,15.187500953674316,12.412500381469727,38.75625228881836
1750928843075008500,7.551008544921875,15.318750381469727,12.33750057220459,38.73750305175781
1750928843085008600,7.561008544921875,15.450000762939453,12.300000190734863,38.66250228881836
1750928843095008500,7.571008544921875,15.750000953674316,12.375000953674316,38.32500076293945
1750928843105008600,7.581008544921875,16.068750381469727,12.206250190734863,38.00625228881836
1750928843115008500,7.591008544921875,15.956250190734863,12.075000762939453,37.931251525878906
1750928843125008600,7.601008544921875,16.3125,11.887500762939453,37.70625305175781
1750928843135008500,7.611008544921875,16.61250114440918,11.625,37.57500076293945
1750928843145008600,7.621008544921875,16.575000762939453,11.58750057220459,37.38750076293945
1750928843155008500,7.631008544921875,16.818750381469727,11.756250381469727,37.16250228881836
1750928843165008600,7.641008544921875,17.15625,11.981250762939453,36.97500228881836
1750928843175008500,7.651008544921875,17.25,11.925000190734863,36.806251525878906
1750928843185008600,7.661008544921875,17.025001525878906,12.05625057220459,36.712501525878906
1750928843195008500,7.671008544921875,17.400001525878906,12.093750953674316,36.76875305175781
1750928843205008600,7.681008544921875,17.71875,12.450000762939453,36.73125076293945
1750928843215008500,7.691008544921875,17.64375114440918,12.750000953674316,36.75
1750928843225008600,7.701008544921875,18.01875114440918,12.99375057220459,36.69375228881836
1750928843235008500,7.711008544921875,18.01875114440918,13.050000190734863,36.58125305175781
1750928843245008600,7.721008544921875,17.943750381469727,13.162500381469727,36.54375076293945
1750928843255008500,7.731008544921875,18.30000114440918,13.331250190734863,36.431251525878906
1750928843265008600,7.741008544921875,18.30000114440918,13.387500762939453,36.375
1750928843275008500,7.751008544921875,18.39375114440918,13.593750953674316,36.31875228881836
1750928843285008600,7.761008544921875,18.28125,13.593750953674316,36.1875
1750928843295008500,7.771008544921875,18.506250381469727,13.74375057220459,36.01875305175781
1750928843305008600,7.781008544921875,18.731250762939453,13.893750190734863,36.09375
1750928843315008500,7.791008544921875,18.86250114440918,13.875000953674316,35.868751525878906
1750928843325008600,7.801008544921875,19.068750381469727,13.706250190734863,35.47500228881836
1750928843335008500,7.811008544921875,18.86250114440918,13.856250762939453,35.400001525878906
1750928843345008600,7.821008544921875,19.3125,13.818750381469727,35.32500076293945
1750928843355008500,7.831008544921875,19.668750762939453,13.706250190734863,35.15625
1750928843365008600,7.841008544921875,19.818750381469727,13.593750953674316,34.96875
1750928843375008500,7.851008544921875,19.762500762939453,13.593750953674316,34.80000305175781
1750928843385008600,7.861008544921875,19.668750762939453,13.706250190734863,34.66875076293945
1750928843395008500,7.871008544921875,19.856250762939453,13.83750057220459,34.650001525878906
1750928843405008600,7.881008544921875,19.631250381469727,14.006250381469727,34.76250076293945
1750928843415008500,7.891008544921875,19.70625114440918,13.93125057220459,34.6875
1750928843425008600,7.901008544921875,19.743751525878906,14.006250381469727,34.76250076293945
1750928843435008500,7.911008544921875,19.631250381469727,14.062500953674316,34.85625076293945
1750928843445008600,7.921008544921875,19.650001525878906,14.250000953674316,34.78125
1750928843455008500,7.931008544921875,19.912500381469727,14.137500762939453,34.78125
1750928843465008600,7.941008544921875,20.137500762939453,14.062500953674316,34.743751525878906
1750928843475008500,7.951008544921875,20.118751525878906,13.912500381469727,34.81875228881836
1750928843485008600,7.961008544921875,20.36250114440918,14.11875057220459,34.95000076293945
1750928843495008500,7.971008544921875,20.53125,14.268750190734863,35.025001525878906
1750928843505008600,7.981008544921875,20.400001525878906,14.156250953674316,34.91250228881836
1750928843515008500,7.991008544921875,20.475000381469727,14.21250057220459,34.57500076293945
1750928843525008600,8.001008544921875,20.775001525878906,14.250000953674316,34.650001525878906
1750928843535008500,8.011008544921875,20.90625,14.193750381469727,34.63125228881836
1750928843545008600,8.021008544921875,20.868751525878906,13.93125057220459,34.51875305175781
1750928843555008500,8.031008544921875,20.962501525878906,14.02500057220459,34.51875305175781
1750928843565008600,8.041008544921874,21.131250381469727,13.83750057220459,34.25625228881836
1750928843575008500,8.051008544921874,21.225000381469727,13.893750190734863,34.23750305175781
1750928843585008600,8.061008544921876,21.243751525878906,14.11875057220459,34.16250228881836
1750928843595008500,8.071008544921876,21.450000762939453,14.156250953674316,34.35000228881836
1750928843605008600,8.081008544921875,21.337501525878906,14.081250190734863,34.556251525878906
1750928843615008500,8.091008544921875,21.356250762939453,14.250000953674316,34.462501525878906
1750928843625008600,8.101008544921875,21.637500762939453,14.418750762939453,34.462501525878906
1750928843635008500,8.111008544921875,21.731250762939453,14.475000381469727,34.368751525878906
1750928843645008600,8.121008544921875,21.712501525878906,14.662500381469727,34.40625
1750928843655008500,8.131008544921874,22.05000114440918,14.418750762939453,34.368751525878906
1750928843665008600,8.141008544921876,22.462501525878906,14.268750190734863,34.14375305175781
1750928843675008500,8.151008544921876,22.575000762939453,14.11875057220459,34.16250228881836
1750928843685008600,8.161008544921875,22.89375114440918,14.156250953674316,33.78750228881836
1750928843695008500,8.171008544921875,23.26875114440918,14.081250190734863,33.618751525878906
1750928843705008600,8.181008544921875,23.287500381469727,13.968750953674316,33.48750305175781
1750928843715008500,8.191008544921875,23.681251525878906,13.800000190734863,33.50625228881836
1750928843725008600,8.201008544921875,23.887500762939453,13.575000762939453,33.39375305175781
1750928843735008500,8.211008544921874,23.90625,13.593750953674316,33.16875076293945
1750928843745008600,8.221008544921874,24.150001525878906,13.575000762939453,32.94375228881836
1750928843755008500,8.231008544921876,24.093751907348633,13.425000190734863,32.56875228881836
1750928843765008600,8.241008544921876,24,13.312500953674316,32.400001525878906
1750928843775008500,8.251008544921875,24.037500381469727,13.162500381469727,32.23125076293945
1750928843785008600,8.261008544921875,24.375001907348633,13.106250762939453,31.931251525878906
1750928843795008500,8.271008544921875,24.30000114440918,13.312500953674316,31.875001907348633
1750928843805008600,8.281008544921875,24.20625114440918,13.312500953674316,31.818750381469727
1750928843815008500,8.291008544921874,24.431251525878906,13.406250953674316,31.856250762939453
1750928843825008600,8.301008544921874,24.262500762939453,13.593750953674316,32.04375076293945
1750928843835008500,8.311008544921876,24.506250381469727,13.668750762939453,32.04375076293945
1750928843845008600,8.321008544921876,24.750001907348633,13.65000057220459,31.837501525878906
1750928843855008500,8.331008544921875,24.731250762939453,13.856250762939453,31.781251907348633
1750928843865008600,8.341008544921875,24.656251907348633,13.93125057220459,31.781251907348633
1750928843875008500,8.351008544921875,24.787500381469727,13.74375057220459,31.443750381469727
1750928843885008600,8.361008544921875,25.162500381469727,13.631250381469727,31.218751907348633
1750928843895008500,8.371008544921875,25.181251525878906,13.65000057220459,30.712501525878906
1750928843905008600,8.381008544921874,25.51875114440918,13.46250057220459,30.356250762939453
1750928843915008500,8.391008544921876,25.837501525878906,13.443750381469727,30.262500762939453
1750928843925008600,8.401008544921876,26.08125114440918,13.331250190734863,30.243751525878906
1750928843935008500,8.411008544921875,26.475000381469727,13.237500190734863,30.187501907348633
1750928843945008600,8.421008544921875,26.700000762939453,13.237500190734863,30.000001907348633
1750928843955008500,8.431008544921875,26.92500114440918,13.18125057220459,29.587501525878906
1750928843965008600,8.441008544921875,27.318750381469727,13.162500381469727,29.306251525878906
1750928843975008500,8.451008544921875,27.618751525878906,13.125000953674316,29.287500381469727
1750928843985008600,8.461008544921874,27.843751907348633,13.068750381469727,29.025001525878906
1750928843995008500,8.471008544921874,27.806251525878906,13.256250381469727,28.762500762939453
1750928844005008600,8.481008544921876,28.14375114440918,13.443750381469727,28.42500114440918
1750928844015008500,8.491008544921876,28.256250381469727,13.55625057220459,28.125001907348633
1750928844025008600,8.501008544921875,28.462501525878906,13.893750190734863,28.087501525878906
1750928844035008500,8.511008544921875,28.668750762939453,14.156250953674316,27.881250381469727
1750928844045008600,8.521008544921875,28.575000762939453,14.456250190734863,27.656251907348633
1750928844055008500,8.531008544921875,28.500001907348633,14.568750381469727,27.375001907348633
1750928844065008600,8.541008544921874,28.51875114440918,15.131250381469727,27.30000114440918
1750928844075008500,8.551008544921874,28.51875114440918,15.24375057220459,27.01875114440918
1750928844085008600,8.561008544921876,28.293750762939453,15.487500190734863,26.718751907348633
1750928844095008500,8.571008544921876,28.42500114440918,15.675000190734863,26.531251907348633
1750928844105008600,8.581008544921875,28.200000762939453,15.71250057220459,26.287500381469727
1750928844115008500,8.591008544921875,28.031251907348633,15.918750762939453,26.36250114440918
1750928844125008600,8.601008544921875,28.162500381469727,15.99375057220459,26.231250762939453
1750928844135008500,8.611008544921875,28.218751907348633,16.256250381469727,26.17500114440918
1750928844145008600,8.621008544921875,28.368751525878906,16.200000762939453,26.08125114440918
1750928844155008500,8.631008544921874,28.481250762939453,16.443750381469727,25.931251525878906
1750928844165008600,8.641008544921876,28.443750381469727,16.59375,25.931251525878906
1750928844175008500,8.651008544921876,28.23750114440918,16.762500762939453,25.912500381469727
1750928844185008600,8.661008544921875,28.500001907348633,16.875,25.781251907348633
1750928844195008500,8.671008544921875,28.80000114440918,16.837501525878906,25.51875114440918
1750928844205008600,8.681008544921875,28.875001907348633,16.98750114440918,25.368751525878906
1750928844215008500,8.691008544921875,29.156251907348633,16.875,25.368751525878906
1750928844225008600,8.701008544921875,29.212501525878906,16.931251525878906,25.593751907348633
1750928844235008500,8.711008544921874,29.137500762939453,16.837501525878906,25.725000381469727
1750928844245008600,8.721008544921874,29.287500381469727,16.818750381469727,25.80000114440918
1750928844255008500,8.731008544921876,29.400001525878906,16.78125,25.89375114440918
1750928844265008600,8.741008544921876,29.381250381469727,16.61250114440918,25.650001525878906
1750928844275008500,8.751008544921875,29.212501525878906,16.70625114440918,25.931251525878906
1750928844285008600,8.761008544921875,29.08125114440918,16.537500381469727,26.08125114440918
1750928844295008500,8.771008544921875,29.006250381469727,16.51875114440918,25.89375114440918
1750928844305008600,8.781008544921875,28.818750381469727,16.3125,25.51875114440918
1750928844315008500,8.791008544921874,28.856250762939453,16.256250381469727,25.575000762939453
1750928844325008600,8.801008544921874,28.98750114440918,16.068750381469727,25.61250114440918
1750928844335008500,8.811008544921876,29.025001525878906,15.862500190734863,25.537500381469727
1750928844345008600,8.821008544921876,29.118751525878906,15.80625057220459,25.818750381469727
1750928844355008500,8.831008544921875,29.137500762939453,15.71250057220459,25.725000381469727
1750928844365008600,8.841008544921875,29.343751907348633,15.656250953674316,25.556251525878906
1750928844375008500,8.851008544921875,29.343751907348633,15.61875057220459,25.762500762939453
1750928844385008600,8.861008544921875,29.343751907348633,15.61875057220459,25.818750381469727
1750928844395008500,8.871008544921875,29.606250762939453,15.393750190734863,25.631250381469727
1750928844405008600,8.881008544921874,29.493751525878906,15.412500381469727,25.725000381469727
1750928844415008500,8.891008544921876,29.64375114440918,15.393750190734863,25.443750381469727
1750928844425008600,8.901008544921876,29.700000762939453,15.168750762939453,25.23750114440918
1750928844435008500,8.911008544921875,29.45625114440918,14.981250762939453,25.350000381469727
1750928844445008600,8.921008544921875,29.475000381469727,14.86875057220459,25.500001907348633
1750928844455008500,8.931008544921875,29.55000114440918,14.606250762939453,25.462501525878906
1750928844465008600,8.941008544921875,29.718751907348633,14.512500762939453,25.631250381469727
1750928844475008500,8.951008544921875,29.793750762939453,14.475000381469727,25.743751525878906
1750928844485008600,8.961008544921874,29.793750762939453,13.912500381469727,25.575000762939453
1750928844495008500,8.971008544921874,29.681251525878906,13.687500953674316,26.100000381469727
1750928844505008600,8.981008544921876,29.437501907348633,13.668750762939453,26.325000762939453
1750928844515008500,8.991008544921876,29.793750762939453,13.481250762939453,26.212501525878906
1750928844525008600,9.001008544921875,29.812501907348633,13.36875057220459,26.343751907348633
1750928844545008600,9.021008544921875,29.793750762939453,13.18125057220459,26.493751525878906
1750928844555008500,9.031008544921875,29.64375114440918,13.218750953674316,26.475000381469727
1750928844565008600,9.041008544921874,29.850000381469727,13.443750381469727,26.568750381469727
1750928844575008500,9.051008544921874,29.793750762939453,13.537500381469727,26.45625114440918
1750928844585008600,9.061008544921876,29.850000381469727,13.631250381469727,26.55000114440918
1750928844595008500,9.071008544921876,29.718751907348633,13.668750762939453,26.662500381469727
1750928844605008600,9.081008544921875,29.587501525878906,13.65000057220459,26.700000762939453
1750928844615008500,9.091008544921875,29.381250381469727,13.65000057220459,26.700000762939453
1750928844625008600,9.101008544921875,29.193750381469727,13.706250190734863,26.493751525878906
1750928844635008500,9.111008544921875,29.156251907348633,13.987500190734863,26.625001907348633
1750928844645008600,9.121008544921875,29.043750762939453,14.100000381469727,26.812501907348633
1750928844655008500,9.131008544921874,28.875001907348633,14.100000381469727,26.868751525878906
1750928844665008600,9.141008544921876,28.687501907348633,14.006250381469727,26.775001525878906
1750928844675008500,9.151008544921876,28.500001907348633,13.93125057220459,26.775001525878906
1750928844685008600,9.161008544921875,28.500001907348633,14.062500953674316,26.887500762939453
1750928844695008500,9.171008544921875,28.350000381469727,14.268750190734863,27.131250381469727
1750928844705008600,9.181008544921875,28.218751907348633,14.250000953674316,27.468751907348633
1750928844715008500,9.191008544921875,27.95625114440918,14.081250190734863,27.525001525878906
1750928844725008600,9.201008544921875,27.450000762939453,14.137500762939453,27.712501525878906
1750928844735008500,9.211008544921874,27.468751907348633,14.062500953674316,27.656251907348633
1750928844745008600,9.221008544921874,27.600000381469727,14.250000953674316,27.787500381469727
1750928844755008500,9.231008544921876,27.618751525878906,14.68125057220459,27.693750381469727
1750928844765008600,9.241008544921876,27.39375114440918,14.700000762939453,27.656251907348633
1750928844775008500,9.251008544921875,27.525001525878906,14.700000762939453,27.412500381469727
1750928844785008600,9.261008544921875,27.637500762939453,14.96250057220459,27.225000381469727
1750928844795008500,9.271008544921875,27.712501525878906,15.112500190734863,27.075000762939453
1750928844805008600,9.281008544921875,27.900001525878906,15.300000190734863,26.92500114440918
1750928844815008500,9.291008544921874,27.993751525878906,15.637500762939453,26.812501907348633
1750928844825008600,9.301008544921874,28.162500381469727,15.843750953674316,26.756250381469727
1750928844835008500,9.311008544921876,28.256250381469727,15.843750953674316,26.906251907348633
1750928844845008600,9.321008544921876,28.350000381469727,15.918750762939453,26.45625114440918
1750928844855008500,9.331008544921875,28.500001907348633,16.05000114440918,26.17500114440918
1750928844865008600,9.341008544921875,28.89375114440918,16.181251525878906,26.325000762939453
1750928844875008500,9.351008544921875,29.231250762939453,16.05000114440918,26.250001907348633
1750928844885008600,9.361008544921875,29.64375114440918,16.012500762939453,25.781251907348633
1750928844895008500,9.371008544921875,29.92500114440918,15.937500953674316,25.70625114440918
1750928844905008600,9.381008544921874,29.850000381469727,15.90000057220459,25.537500381469727
1750928844915008500,9.391008544921876,29.943750381469727,15.862500190734863,25.106250762939453
1750928844925008600,9.401008544921876,30.000001907348633,15.862500190734863,25.200000762939453
1750928844935008500,9.411008544921875,30.318750381469727,15.656250953674316,25.106250762939453
1750928844945008600,9.421008544921875,30.168750762939453,15.318750381469727,24.562501907348633
1750928844955008500,9.431008544921875,30.168750762939453,15.168750762939453,24.375001907348633
1750928844965008600,9.441008544921875,30.150001525878906,15.15000057220459,24.543750762939453
1750928844975008500,9.451008544921875,29.906251907348633,15.15000057220459,24.450000762939453
1750928844985008600,9.461008544921874,29.981250762939453,14.887500762939453,24.412500381469727
1750928844995008500,9.471008544921874,30.20625114440918,14.812500953674316,24.412500381469727
1750928845005008600,9.481008544921876,30.543750762939453,14.86875057220459,24.337501525878906
1750928845015008500,9.491008544921876,30.450000762939453,14.756250381469727,24.30000114440918
1750928845025008600,9.501008544921875,30.318750381469727,14.793750762939453,24.337501525878906
1750928845035008500,9.511008544921875,30.168750762939453,15.037500381469727,24.375001907348633
1750928845045008600,9.521008544921875,30.225000381469727,14.831250190734863,24.131250381469727
1750928845055008500,9.531008544921875,30.356250762939453,14.887500762939453,24.11250114440918
1750928845065008600,9.541008544921874,30.543750762939453,15.018750190734863,23.887500762939453
1750928845075008500,9.551008544921874,30.58125114440918,14.906250953674316,23.681251525878906
1750928845085008600,9.561008544921876,30.618751525878906,14.718750953674316,23.4375
1750928845095008500,9.571008544921876,30.86250114440918,14.943750381469727,23.475000381469727
1750928845105008600,9.581008544921875,31.05000114440918,14.981250762939453,23.568750381469727
1750928845115008500,9.591008544921875,31.42500114440918,14.925000190734863,23.34375
1750928845125008600,9.601008544921875,31.668750762939453,15.093750953674316,23.400001525878906
1750928845135008500,9.611008544921875,31.80000114440918,15.05625057220459,23.137500762939453
1750928845145008600,9.621008544921875,31.837501525878906,14.96250057220459,23.118751525878906
1750928845155008500,9.631008544921874,31.931251525878906,14.943750381469727,23.100000381469727
1750928845165008600,9.641008544921876,32.025001525878906,14.925000190734863,22.875
1750928845175008500,9.651008544921876,32.08125305175781,15.05625057220459,22.59375
1750928845185008600,9.661008544921875,32.36250305175781,14.96250057220459,22.23750114440918
1750928845195008500,9.671008544921875,32.34375,14.850000381469727,22.03125
1750928845205008600,9.681008544921875,32.26875305175781,14.850000381469727,21.543750762939453
1750928845215008500,9.691008544921875,32.587501525878906,14.77500057220459,21.056251525878906
1750928845225008600,9.701008544921875,32.64375305175781,14.643750190734863,20.71875
1750928845235008500,9.711008544921874,32.66250228881836,14.606250762939453,20.64375114440918
1750928845245008600,9.721008544921874,32.868751525878906,14.606250762939453,20.793750762939453
1750928845255008500,9.731008544921876,32.90625,14.231250762939453,20.568750381469727
1750928845265008600,9.741008544921876,33.056251525878906,14.11875057220459,20.381250381469727
1750928845275008500,9.751008544921875,33.28125,13.93125057220459,20.26875114440918
1750928845285008600,9.761008544921875,33.22500228881836,13.800000190734863,20.4375
1750928845295008500,9.771008544921875,33.16875076293945,13.593750953674316,20.662500381469727
1750928845305008600,9.781008544921875,33.46875,13.406250953674316,20.606250762939453
1750928845315008500,9.791008544921874,33.78750228881836,13.143750190734863,20.287500381469727
1750928845325008600,9.801008544921874,33.75,12.862500190734863,20.0625
1750928845335008500,9.811008544921876,33.73125076293945,12.825000762939453,19.98750114440918
1750928845345008600,9.821008544921876,33.993751525878906,12.768750190734863,19.837501525878906
1750928845355008500,9.831008544921875,34.20000076293945,12.693750381469727,19.481250762939453
1750928845365008600,9.841008544921875,34.743751525878906,12.506250381469727,18.918750762939453
1750928845375008500,9.851008544921875,35.025001525878906,12.33750057220459,18.30000114440918
1750928845385008600,9.861008544921875,35.51250076293945,12.356250762939453,17.850000381469727
1750928845395008500,9.871008544921875,35.88750076293945,12.375000953674316,17.587501525878906
1750928845405008600,9.881008544921874,36,12.24375057220459,17.15625
1750928845415008500,9.891008544921876,36.28125,12.112500190734863,16.856250762939453
1750928845425008600,9.901008544921876,36.243751525878906,11.96250057220459,16.350000381469727
1750928845435008500,9.911008544921875,36.45000076293945,11.793750762939453,16.125
1750928845445008600,9.921008544921875,36.63750076293945,11.756250381469727,15.881250381469727
1750928845455008500,9.931008544921875,36.900001525878906,11.8125,15.862500190734863
1750928845465008600,9.941008544921875,36.69375228881836,11.737500190734863,15.750000953674316
1750928845475008500,9.951008544921875,36.82500076293945,11.700000762939453,15.24375057220459
1750928845485008600,9.961008544921874,37.23750305175781,11.700000762939453,14.850000381469727
1750928845495008500,9.971008544921874,37.5,11.737500190734863,14.568750381469727
1750928845505008600,9.981008544921876,37.72500228881836,11.77500057220459,14.831250190734863
1750928845515008500,9.991008544921876,37.63125228881836,11.90625,14.850000381469727
1750928845525008600,10.001008544921875,37.3125,11.850000381469727,15.037500381469727
1750928845535008500,10.011008544921875,37.16250228881836,11.606250762939453,15.24375057220459
1750928845545008600,10.021008544921875,37.06875228881836,11.643750190734863,15.356250762939453
1750928845555008500,10.031008544921875,37.01250076293945,11.68125057220459,15.637500762939453
1750928845565008600,10.041008544921874,36.73125076293945,11.550000190734863,16.012500762939453
1750928845575008500,10.051008544921874,36.58125305175781,11.512500762939453,16.21875
1750928845585008600,10.061008544921876,36.58125305175781,11.4375,16.068750381469727
1750928845595008500,10.071008544921876,36.54375076293945,11.40000057220459,16.068750381469727
1750928845605008600,10.081008544921875,36.75,11.287500381469727,15.956250190734863
1750928845615008500,10.091008544921875,36.82500076293945,11.34375,15.731250762939453
1750928845625008600,10.101008544921875,37.20000076293945,11.30625057220459,15.656250953674316
1750928845635008500,10.111008544921875,36.993751525878906,11.231250762939453,15.768750190734863
1750928845645008600,10.121008544921875,37.29375076293945,11.231250762939453,15.61875057220459
1750928845655008500,10.131008544921874,37.42500305175781,11.231250762939453,15.43125057220459
1750928845665008600,10.141008544921876,37.33125305175781,11.231250762939453,15.506250381469727
1750928845675008500,10.151008544921876,37.35000228881836,11.287500381469727,15.487500190734863
1750928845685008600,10.161008544921875,37.650001525878906,11.268750190734863,15.412500381469727
1750928845695008500,10.171008544921875,37.5,11.175000190734863,15.487500190734863
1750928845705008600,10.181008544921875,37.51875305175781,11.081250190734863,15.33750057220459
1750928845715008500,10.191008544921875,37.51875305175781,10.950000762939453,15.225000381469727
1750928845725008600,10.201008544921875,37.44375228881836,11.043750762939453,15.225000381469727
1750928845735008500,10.211008544921874,37.462501525878906,10.987500190734863,15.131250381469727
1750928845745008600,10.221008544921874,37.48125076293945,10.987500190734863,15.037500381469727
1750928845755008500,10.231008544921876,37.61250305175781,10.950000762939453,15.000000953674316
1750928845765008600,10.241008544921876,37.275001525878906,10.893750190734863,14.925000190734863
1750928845775008500,10.251008544921875,37.42500305175781,11.02500057220459,14.793750762939453
1750928845785008600,10.261008544921875,37.21875,11.02500057220459,14.887500762939453
1750928845795008500,10.271008544921875,37.35000228881836,11.231250762939453,14.86875057220459
1750928845805008600,10.281008544921875,37.21875,11.231250762939453,14.887500762939453
1750928845815008500,10.291008544921874,37.20000076293945,11.081250190734863,14.812500953674316
1750928845825008600,10.301008544921874,37.29375076293945,11.21250057220459,14.756250381469727
1750928845835008500,10.311008544921876,37.462501525878906,11.043750762939453,14.625000953674316
1750928845845008600,10.321008544921876,37.63125228881836,10.93125057220459,14.550000190734863
1750928845855008500,10.331008544921875,37.70625305175781,11.043750762939453,14.475000381469727
1750928845865008600,10.341008544921875,37.837501525878906,11.11875057220459,14.21250057220459
1750928845875008500,10.351008544921875,37.837501525878906,10.987500190734863,13.93125057220459
1750928845885008600,10.361008544921875,37.85625076293945,10.950000762939453,13.818750381469727
1750928845895008500,10.371008544921875,37.78125,10.96875,13.83750057220459
1750928845905008600,10.381008544921874,37.556251525878906,10.912500381469727,13.912500381469727
1750928845915008500,10.391008544921876,37.3125,10.800000190734863,13.950000762939453
1750928845925008600,10.401008544921876,37.275001525878906,10.893750190734863,13.968750953674316
1750928845935008500,10.411008544921875,37.40625,10.612500190734863,14.11875057220459
1750928845945008600,10.421008544921875,37.20000076293945,10.668750762939453,14.137500762939453
1750928845955008500,10.431008544921875,37.42500305175781,10.856250762939453,14.11875057220459
1750928845965008600,10.441008544921875,37.57500076293945,11.231250762939453,14.156250953674316
1750928845975008500,10.451008544921875,37.650001525878906,11.49375057220459,14.081250190734863
1750928845985008600,10.461008544921874,37.743751525878906,11.53125,13.725000381469727
1750928845995008500,10.471008544921874,37.96875,11.8125,13.537500381469727
1750928846005008600,10.481008544921876,38.212501525878906,12.168750762939453,13.443750381469727
1750928846015008500,10.491008544921876,37.98750305175781,12.825000762939453,13.143750190734863
1750928846025008600,10.501008544921875,38.10000228881836,12.90000057220459,13.012500762939453
1750928846035008500,10.511008544921875,37.85625076293945,13.031250953674316,13.031250953674316
1750928846045008600,10.521008544921875,37.72500228881836,13.012500762939453,12.768750190734863
1750928846055008500,10.531008544921875,37.59375,12.975000381469727,12.600000381469727
1750928846065008600,10.541008544921874,37.70625305175781,13.031250953674316,12.468750953674316
1750928846075008500,10.551008544921874,37.650001525878906,13.331250190734863,12.393750190734863
1750928846085008600,10.561008544921876,37.181251525878906,13.36875057220459,12.450000762939453
1750928846095008500,10.571008544921876,37.35000228881836,13.050000190734863,12.450000762939453
1750928846105008600,10.581008544921875,37.57500076293945,13.106250762939453,12.506250381469727
1750928846115008500,10.591008544921875,37.61250305175781,13.08750057220459,12.412500381469727
1750928846125008600,10.601008544921875,37.85625076293945,13.050000190734863,12.33750057220459
1750928846135008500,10.611008544921875,38.118751525878906,13.08750057220459,12.450000762939453
1750928846145008600,10.621008544921875,38.23125076293945,13.031250953674316,12.61875057220459
1750928846155008500,10.631008544921874,37.95000076293945,12.656250953674316,12.543750762939453
1750928846165008600,10.641008544921876,38.32500076293945,12.543750762939453,12.375000953674316
1750928846175008500,10.651008544921876,38.28750228881836,12.393750190734863,12.43125057220459
1750928846185008600,10.661008544921875,38.15625,12.24375057220459,12.33750057220459
1750928846195008500,10.671008544921875,38.10000228881836,11.981250762939453,12.131250381469727
1750928846205008600,10.681008544921875,38.10000228881836,11.793750762939453,12.168750762939453
1750928846215008500,10.691008544921875,38.10000228881836,11.77500057220459,12.075000762939453
1750928846225008600,10.701008544921875,38.4375,11.71875,12.05625057220459
1750928846235008500,10.711008544921874,38.681251525878906,11.77500057220459,12.112500190734863
1750928846245008600,10.721008544921874,38.587501525878906,11.662500381469727,12.037500381469727
1750928846255008500,10.731008544921876,38.75625228881836,11.71875,11.925000190734863
1750928846265008600,10.741008544921876,38.83125305175781,11.700000762939453,11.756250381469727
1750928846275008500,10.751008544921875,38.90625,11.71875,11.831250190734863
1750928846285008600,10.761008544921875,38.98125076293945,11.850000381469727,11.700000762939453
1750928846295008500,10.771008544921875,39,11.8125,11.550000190734863
1750928846305008600,10.781008544921875,38.66250228881836,11.831250190734863,11.30625057220459
1750928846315008500,10.791008544921874,38.8125,11.887500762939453,11.081250190734863
1750928846325008600,10.801008544921874,38.88750076293945,11.981250762939453,10.950000762939453
1750928846335008500,10.811008544921876,38.775001525878906,12.093750953674316,10.912500381469727
1750928846345008600,10.821008544921876,38.71875,12.375000953674316,10.83750057220459
1750928846355008500,10.831008544921875,38.775001525878906,12.506250381469727,10.893750190734863
1750928846365008600,10.841008544921875,38.73750305175781,12.637500762939453,10.856250762939453
1750928846375008500,10.851008544921875,38.73750305175781,12.768750190734863,10.78125
1750928846385008600,10.861008544921875,38.71875,12.918750762939453,10.78125
1750928846395008500,10.871008544921875,38.83125305175781,12.825000762939453,10.537500381469727
1750928846405008600,10.881008544921874,39,12.862500190734863,10.59375
1750928846415008500,10.891008544921876,38.92500305175781,12.825000762939453,10.27500057220459
1750928846425008600,10.901008544921876,38.83125305175781,12.61875057220459,10.3125
1750928846435008500,10.911008544921875,38.64375305175781,12.731250762939453,10.068750381469727
1750928846445008600,10.921008544921875,38.587501525878906,12.600000381469727,10.03125
1750928846455008500,10.931008544921875,38.70000076293945,12.600000381469727,10.106250762939453
1750928846465008600,10.941008544921875,38.775001525878906,12.52500057220459,10.012500762939453
1750928846475008500,10.951008544921875,38.8125,12.562500953674316,10.350000381469727
1750928846485008600,10.961008544921874,38.41875076293945,12.506250381469727,10.237500190734863
1750928846495008500,10.971008544921874,38.4375,12.43125057220459,10.08750057220459
1750928846505008600,10.981008544921876,38.51250076293945,12.487500190734863,9.918750762939453
1750928846515008500,10.991008544921876,38.60625076293945,12.33750057220459,10.050000190734863
1750928846525008600,11.001008544921875,38.625,12.487500190734863,10.03125
1750928846535008500,11.011008544921875,38.55000305175781,12.412500381469727,10.03125
1750928846545008600,11.021008544921875,38.4375,12.375000953674316,9.918750762939453
1750928846555008500,11.031008544921875,38.32500076293945,12.393750190734863,9.71250057220459
1750928846565008600,11.041008544921874,38.64375305175781,12.318750381469727,9.71250057220459
1750928846575008500,11.051008544921874,38.75625228881836,12.412500381469727,9.862500190734863
1750928846585008600,11.061008544921876,38.64375305175781,12.318750381469727,9.9375
1750928846595008500,11.071008544921876,38.625,12.450000762939453,9.975000381469727
1750928846605008600,11.081008544921875,38.51250076293945,12.43125057220459,10.143750190734863
1750928846615008500,11.091008544921875,38.38125228881836,12.52500057220459,10.08750057220459
1750928846625008600,11.101008544921875,38.32500076293945,12.581250190734863,10.425000190734863
1750928846635008500,11.111008544921875,38.13750076293945,12.656250953674316,10.5
1750928846645008600,11.121008544921875,38.15625,12.862500190734863,10.331250190734863
1750928846655008500,11.131008544921874,38.13750076293945,12.750000953674316,10.425000190734863
1750928846665008600,11.141008544921876,38.28750228881836,12.825000762939453,10.46250057220459
1750928846675008500,11.151008544921876,38.400001525878906,12.731250762939453,10.46250057220459
1750928846685008600,11.161008544921875,38.625,12.656250953674316,10.46250057220459
1750928846695008500,11.171008544921875,38.92500305175781,12.600000381469727,10.575000762939453
1750928846705008600,11.181008544921875,38.94375228881836,12.412500381469727,10.293750762939453
1750928846715008500,11.191008544921875,39.20625305175781,12.393750190734863,10.5
1750928846725008600,11.201008544921875,38.90625,12.187500953674316,10.83750057220459
1750928846735008500,11.211008544921874,38.92500305175781,12.15000057220459,10.762500762939453
1750928846745008600,11.221008544921874,38.70000076293945,12.168750762939453,10.818750381469727
1750928846755008500,11.231008544921876,38.60625076293945,12.075000762939453,10.96875
1750928846765008600,11.241008544921876,38.55000305175781,12.15000057220459,10.96875
1750928846775008500,11.251008544921875,38.34375,12.05625057220459,10.856250762939453
1750928846785008600,11.261008544921875,38.45625305175781,12.206250190734863,11.043750762939453
1750928846795008500,11.271008544921875,38.45625305175781,12.206250190734863,11.043750762939453
1750928846805008600,11.281008544921875,38.625,12.281250953674316,10.987500190734863
1750928846815008500,11.291008544921874,38.493751525878906,12.412500381469727,11.15625
1750928846825008600,11.301008544921874,38.53125,12.262500762939453,11.268750190734863
1750928846835008500,11.311008544921876,38.625,12.375000953674316,11.21250057220459
1750928846845008600,11.321008544921876,38.45625305175781,12.225000381469727,11.268750190734863
1750928846855008500,11.331008544921875,38.28750228881836,12.168750762939453,11.34375
1750928846865008600,11.341008544921875,38.25,12.018750190734863,11.625
1750928846875008500,11.351008544921875,38.25,11.943750381469727,11.4375
1750928846885008600,11.361008544921875,38.36250305175781,12.018750190734863,11.77500057220459
1750928846895008500,11.371008544921875,38.47500228881836,11.86875057220459,11.96250057220459
1750928846905008600,11.381008544921874,38.681251525878906,11.86875057220459,12.018750190734863
1750928846915008500,11.391008544921876,38.4375,11.71875,12.075000762939453
1750928846925008600,11.401008544921876,38.55000305175781,11.643750190734863,12.318750381469727
1750928846935008500,11.411008544921875,38.70000076293945,11.737500190734863,12.450000762939453
1750928846945008600,11.421008544921875,38.60625076293945,11.700000762939453,12.318750381469727
1750928846955008500,11.431008544921875,38.26875305175781,11.831250190734863,12.787500381469727
1750928846965008600,11.441008544921875,37.89375305175781,11.58750057220459,12.562500953674316
1750928846975008500,11.451008544921875,37.57500076293945,11.625,12.656250953674316
1750928846985008600,11.461008544921874,37.38750076293945,11.662500381469727,12.862500190734863
1750928846995008500,11.471008544921874,37.59375,11.643750190734863,13.050000190734863
1750928847005008600,11.481008544921876,37.29375076293945,11.662500381469727,13.012500762939453
1750928847015008500,11.491008544921876,37.35000228881836,11.53125,13.18125057220459
1750928847025008600,11.501008544921875,37.275001525878906,11.58750057220459,13.55625057220459
1750928847035008500,11.511008544921875,37.57500076293945,11.362500190734863,13.800000190734863
1750928847045008600,11.521008544921875,37.743751525878906,11.362500190734863,14.21250057220459
1750928847055008500,11.531008544921875,37.85625076293945,11.4375,14.550000190734863
1750928847065008600,11.541008544921874,37.61250305175781,11.362500190734863,14.86875057220459
1750928847075008500,11.551008544921874,37.57500076293945,11.456250190734863,15.131250381469727
1750928847085008600,11.561008544921876,37.66875076293945,11.475000381469727,15.375000953674316
1750928847095008500,11.571008544921876,37.5,11.456250190734863,15.581250190734863
1750928847105008600,11.581008544921875,37.20000076293945,11.4375,15.768750190734863
1750928847115008500,11.591008544921875,36.76875305175781,11.606250762939453,15.956250190734863
1750928847125008600,11.601008544921875,36.525001525878906,11.887500762939453,16.33125114440918
1750928847135008500,11.611008544921875,36.45000076293945,11.887500762939453,16.443750381469727
1750928847145008600,11.621008544921875,36.67500305175781,12.112500190734863,16.59375
1750928847155008500,11.631008544921874,36.45000076293945,12.206250190734863,16.818750381469727
1750928847165008600,11.641008544921876,36.50625228881836,12.168750762939453,17.17500114440918
1750928847175008500,11.651008544921876,36.375,12.356250762939453,17.493751525878906
1750928847185008600,11.661008544921875,36.431251525878906,12.43125057220459,17.606250762939453
1750928847195008500,11.671008544921875,36.431251525878906,12.450000762939453,17.756250381469727
1750928847205008600,11.681008544921875,36.45000076293945,12.168750762939453,17.73750114440918
1750928847215008500,11.691008544921875,36.337501525878906,12.018750190734863,17.793750762939453
1750928847225008600,11.701008544921875,36.16875076293945,11.77500057220459,17.92500114440918
1750928847235008500,11.711008544921874,35.98125076293945,11.981250762939453,18.20625114440918
1750928847245008600,11.721008544921874,35.775001525878906,11.925000190734863,18.28125
1750928847255008500,11.731008544921876,35.493751525878906,11.86875057220459,18.337501525878906
1750928847265008600,11.741008544921876,35.60625076293945,11.831250190734863,18.58125114440918
1750928847275008500,11.751008544921875,35.55000305175781,12.018750190734863,18.431251525878906
1750928847285008600,11.761008544921875,35.51250076293945,12.131250381469727,18.712501525878906
1750928847295008500,11.771008544921875,35.51250076293945,12.187500953674316,19.012500762939453
1750928847305008600,11.781008544921875,35.36250305175781,12.356250762939453,19.068750381469727
1750928847315008500,11.791008544921874,35.400001525878906,12.018750190734863,18.95625114440918
1750928847325008600,11.801008544921874,35.25,11.90625,18.9375
1750928847335008500,11.811008544921876,35.26875305175781,11.981250762939453,19.33125114440918
1750928847345008600,11.821008544921876,35.08125305175781,11.943750381469727,19.350000381469727
1750928847355008500,11.831008544921875,35.00625228881836,11.606250762939453,19.668750762939453
1750928847365008600,11.841008544921875,34.96875,11.362500190734863,19.80000114440918
1750928847375008500,11.851008544921875,34.96875,11.287500381469727,19.80000114440918
1750928847385008600,11.861008544921875,34.85625076293945,11.193750381469727,20.137500762939453
1750928847395008500,11.871008544921875,34.556251525878906,11.268750190734863,20.493751525878906
1750928847415008500,11.891008544921876,34.38750076293945,11.568750381469727,20.92500114440918
1750928847425008600,11.901008544921876,34.35000228881836,11.643750190734863,21.09375
1750928847435008500,11.911008544921875,34.16250228881836,11.793750762939453,21.1875
1750928847445008600,11.921008544921875,33.86250305175781,11.925000190734863,21.262500762939453
1750928847455008500,11.931008544921875,33.525001525878906,12.131250381469727,21.618751525878906
1750928847465008600,11.941008544921875,33.16875076293945,12.15000057220459,21.618751525878906
1750928847475008500,11.951008544921875,33.337501525878906,12.018750190734863,21.67500114440918
1750928847485008600,11.961008544921874,33.39375305175781,12.037500381469727,21.975000381469727
1750928847495008500,11.971008544921874,33.16875076293945,11.850000381469727,22.068750381469727
1750928847505008600,11.981008544921876,33.01875305175781,11.850000381469727,22.275001525878906
1750928847515008500,11.991008544921876,32.83125305175781,11.887500762939453,22.59375
1750928847525008600,12.001008544921875,32.71875,11.90625,22.875
1750928847535008500,12.011008544921875,32.4375,11.700000762939453,23.025001525878906
1750928847555008500,12.031008544921875,32.04375076293945,11.8125,23.64375114440918
1750928847565008600,12.041008544921874,31.70625114440918,11.86875057220459,23.793750762939453
1750928847575008500,12.051008544921874,31.89375114440918,11.86875057220459,23.887500762939453
1750928847585008600,12.061008544921876,31.89375114440918,11.887500762939453,24.11250114440918
1750928847595008500,12.071008544921876,32.04375076293945,11.943750381469727,24.337501525878906
1750928847605008600,12.081008544921875,32.025001525878906,12.05625057220459,24.506250381469727
1750928847615008500,12.091008544921875,32.025001525878906,12.206250190734863,24.637500762939453
1750928847625008600,12.101008544921875,31.725000381469727,12,24.843751907348633
1750928847635008500,12.111008544921875,31.631250381469727,12.05625057220459,24.76875114440918
1750928847645008600,12.121008544921875,31.387500762939453,12,24.95625114440918
1750928847655008500,12.131008544921874,30.86250114440918,11.925000190734863,25.087501525878906
1750928847665008600,12.141008544921876,30.39375114440918,11.943750381469727,25.218751907348633
1750928847675008500,12.151008544921876,30.056251525878906,12,25.275001525878906
1750928847685008600,12.161008544921875,29.812501907348633,12.131250381469727,25.500001907348633
1750928847695008500,12.171008544921875,29.83125114440918,12.15000057220459,25.668750762939453
1750928847705008600,12.181008544921875,29.812501907348633,12.300000190734863,25.743751525878906
1750928847715008500,12.191008544921875,29.943750381469727,12.318750381469727,26.062501907348633
1750928847725008600,12.201008544921875,30.01875114440918,12.356250762939453,26.193750381469727
1750928847735008500,12.211008544921874,30.075000762939453,12.487500190734863,26.587501525878906
1750928847745008600,12.221008544921874,30.01875114440918,12.562500953674316,26.83125114440918
1750928847755008500,12.231008544921876,29.775001525878906,12.450000762939453,27.337501525878906
1750928847765008600,12.241008544921876,29.662500381469727,12.356250762939453,27.656251907348633
1750928847775008500,12.251008544921875,29.381250381469727,12.450000762939453,28.031251907348633
1750928847785008600,12.261008544921875,29.381250381469727,12.393750190734863,28.368751525878906
1750928847795008500,12.271008544921875,29.025001525878906,12.33750057220459,28.70625114440918
1750928847805008600,12.281008544921875,28.70625114440918,12.33750057220459,28.950000762939453
1750928847815008500,12.291008544921874,28.23750114440918,12.318750381469727,29.100000381469727
1750928847825008600,12.301008544921874,27.95625114440918,12.393750190734863,29.437501907348633
1750928847835008500,12.311008544921876,27.918750762939453,12.43125057220459,29.381250381469727
1750928847845008600,12.321008544921876,27.787500381469727,12.412500381469727,29.36250114440918
1750928847855008500,12.331008544921875,27.450000762939453,12.356250762939453,29.437501907348633
1750928847865008600,12.341008544921875,27.168750762939453,12.33750057220459,29.36250114440918
1750928847875008500,12.351008544921875,26.906251907348633,12.43125057220459,29.36250114440918
1750928847885008600,12.361008544921875,26.437501907348633,12.506250381469727,29.625001907348633
1750928847895008500,12.371008544921875,26.475000381469727,12.506250381469727,29.700000762939453
1750928847905008600,12.381008544921874,26.212501525878906,12.487500190734863,29.83125114440918
1750928847915008500,12.391008544921876,25.837501525878906,12.300000190734863,29.981250762939453
1750928847925008600,12.401008544921876,25.556251525878906,12.281250953674316,30.30000114440918
1750928847935008500,12.411008544921875,25.406251907348633,12.262500762939453,30.543750762939453
1750928847945008600,12.421008544921875,25.14375114440918,12.543750762939453,30.993751525878906
1750928847955008500,12.431008544921875,24.918750762939453,12.543750762939453,31.593751907348633
1750928847965008600,12.441008544921875,25.068750381469727,12.52500057220459,31.781251907348633
1750928847975008500,12.451008544921875,24.750001907348633,12.562500953674316,31.912500381469727
1750928847985008600,12.461008544921874,24.881250381469727,12.450000762939453,32.04375076293945
1750928847995008500,12.471008544921874,24.843751907348633,12.71250057220459,32.38125228881836
1750928848005008600,12.481008544921876,24.450000762939453,12.90000057220459,32.4375
1750928848015008500,12.491008544921876,24.262500762939453,13.012500762939453,32.28750228881836
1750928848025008600,12.501008544921875,24.093751907348633,12.825000762939453,32.25
1750928848035008500,12.511008544921875,24.150001525878906,12.956250190734863,32.19375228881836
1750928848045008600,12.521008544921875,23.92500114440918,13.012500762939453,32.19375228881836
1750928848055008500,12.531008544921875,23.8125,12.90000057220459,32.19375228881836
1750928848065008600,12.541008544921874,23.53125,12.918750762939453,32.04375076293945
1750928848075008500,12.551008544921874,23.512500762939453,12.90000057220459,32.00625228881836
1750928848085008600,12.561008544921876,23.793750762939453,12.975000381469727,32.0625
1750928848095008500,12.571008544921876,23.943750381469727,12.975000381469727,32.51250076293945
1750928848105008600,12.581008544921875,23.92500114440918,13.143750190734863,32.71875
1750928848115008500,12.591008544921875,24.056251525878906,13.08750057220459,32.55000305175781
1750928848125008600,12.601008544921875,24.187501907348633,13.031250953674316,32.56875228881836
1750928848135008500,12.611008544921875,24.20625114440918,13.312500953674316,32.681251525878906
1750928848145008600,12.621008544921875,24.337501525878906,13.162500381469727,32.73750305175781
1750928848155008500,12.631008544921874,24.318750381469727,13.08750057220459,32.71875
1750928848165008600,12.641008544921876,24.187501907348633,12.881250381469727,32.625
1750928848175008500,12.651008544921876,24.150001525878906,13.106250762939453,32.400001525878906
1750928848185008600,12.661008544921875,24.243751525878906,12.956250190734863,32.08125305175781
1750928848195008500,12.671008544921875,24.131250381469727,12.937500953674316,32.38125228881836
1750928848205008600,12.681008544921875,24,13.237500190734863,32.45625305175781
1750928848215008500,12.691008544921875,23.943750381469727,13.312500953674316,32.775001525878906
1750928848225008600,12.701008544921875,24,13.800000190734863,33.01875305175781
1750928848235008500,12.711008544921874,23.850000381469727,13.968750953674316,33.03750228881836
1750928848245008600,12.721008544921874,23.606250762939453,14.156250953674316,33.16875076293945
1750928848255008500,12.731008544921876,23.53125,13.912500381469727,33.03750228881836
1750928848265008600,12.741008544921876,23.45625114440918,14.231250762939453,33.13125228881836
1750928848275008500,12.751008544921875,23.381250381469727,14.287500381469727,32.85000228881836
1750928848285008600,12.761008544921875,23.325000762939453,14.137500762939453,32.75625228881836
1750928848295008500,12.771008544921875,23.34375,14.062500953674316,32.38125228881836
1750928848305008600,12.781008544921875,23.17500114440918,13.762500762939453,32.306251525878906
1750928848315008500,12.791008544921874,23.45625114440918,13.65000057220459,32.25
1750928848325008600,12.801008544921874,23.756250381469727,13.46250057220459,32.212501525878906
1750928848335008500,12.811008544921876,23.756250381469727,13.481250762939453,32.400001525878906
1750928848345008600,12.821008544921876,23.71875,13.200000762939453,32.34375
1750928848355008500,12.831008544921875,23.700000762939453,13.27500057220459,32.55000305175781
1750928848365008600,12.841008544921875,23.681251525878906,13.237500190734863,32.64375305175781
1750928848375008500,12.851008544921875,23.45625114440918,12.956250190734863,32.56875228881836
1750928848385008600,12.861008544921875,23.568750381469727,12.881250381469727,32.66250228881836
1750928848395008500,12.871008544921875,23.212501525878906,12.918750762939453,32.85000228881836
1750928848405008600,12.881008544921874,22.856250762939453,12.843750953674316,33
1750928848415008500,12.891008544921876,22.70625114440918,12.825000762939453,33.22500228881836
1750928848425008600,12.901008544921876,22.59375,12.768750190734863,33.58125305175781
1750928848435008500,12.911008544921875,22.387500762939453,12.750000953674316,33.60000228881836
1750928848445008600,12.921008544921875,22.350000381469727,12.600000381469727,33.63750076293945
1750928848455008500,12.931008544921875,22.368751525878906,12.506250381469727,34.087501525878906
1750928848465008600,12.941008544921875,22.125,12.412500381469727,33.993751525878906
1750928848475008500,12.951008544921875,21.86250114440918,12.281250953674316,33.900001525878906
1750928848485008600,12.961008544921874,21.806251525878906,12.206250190734863,33.97500228881836
1750928848495008500,12.971008544921874,21.693750381469727,12.112500190734863,33.95625305175781
1750928848505008600,12.981008544921876,21.600000381469727,11.90625,34.05000305175781
1750928848515008500,12.991008544921876,21.356250762939453,11.737500190734863,34.275001525878906
1750928848525008600,13.001008544921875,21.131250381469727,11.700000762939453,34.48125076293945
1750928848535008500,13.011008544921875,20.943750381469727,11.793750762939453,34.650001525878906
1750928848555008500,13.031008544921875,20.53125,11.96250057220459,35.66250228881836
1750928848565008600,13.041008544921874,20.25,12.018750190734863,35.66250228881836
1750928848575008500,13.051008544921874,19.89375114440918,12,35.8125
1750928848585008600,13.061008544921876,19.668750762939453,12.093750953674316,36.056251525878906
1750928848595008500,13.071008544921876,19.40625,12.15000057220459,36.28125
1750928848605008600,13.081008544921875,19.068750381469727,12.375000953674316,36.41250228881836
1750928848615008500,13.091008544921875,18.787500381469727,12.562500953674316,36.5625
1750928848625008600,13.101008544921875,18.618751525878906,12.600000381469727,36.31875228881836
1750928848635008500,13.111008544921875,18.30000114440918,12.600000381469727,36.431251525878906
1750928848645008600,13.121008544921875,17.92500114440918,12.843750953674316,36.73125076293945
1750928848655008500,13.131008544921874,17.418750762939453,13.08750057220459,37.01250076293945
1750928848665008600,13.141008544921876,16.818750381469727,13.481250762939453,37.181251525878906
1750928848675008500,13.151008544921876,16.33125114440918,13.55625057220459,37.21875
1750928848685008600,13.161008544921875,15.99375057220459,13.65000057220459,37.57500076293945
1750928848695008500,13.171008544921875,15.656250953674316,13.93125057220459,37.80000305175781
1750928848705008600,13.181008544921875,15.375000953674316,14.156250953674316,38.25
1750928848715008500,13.191008544921875,15.168750762939453,14.49375057220459,38.38125228881836
1750928848725008600,13.201008544921875,14.793750762939453,14.68125057220459,38.56875228881836
1750928848735008500,13.211008544921874,14.700000762939453,14.718750953674316,38.681251525878906
1750928848745008600,13.221008544921874,14.475000381469727,14.643750190734863,38.75625228881836
1750928848755008500,13.231008544921876,14.062500953674316,14.625000953674316,39.150001525878906
1750928848765008600,13.241008544921876,13.575000762939453,14.325000762939453,39.11250305175781
1750928848775008500,13.251008544921875,13.237500190734863,14.175000190734863,39.056251525878906
1750928848785008600,13.261008544921875,12.937500953674316,14.193750381469727,39
1750928848795008500,13.271008544921875,12.450000762939453,14.081250190734863,39.16875076293945
1750928848805008600,13.281008544921875,12.300000190734863,13.912500381469727,39.16875076293945
1750928848815008500,13.291008544921874,11.831250190734863,13.83750057220459,39.28125
1750928848825008600,13.301008544921874,11.643750190734863,13.875000953674316,39.35625076293945
1750928848835008500,13.311008544921876,11.512500762939453,13.950000762939453,39.31875228881836
1750928848845008600,13.321008544921876,11.21250057220459,14.30625057220459,39.67500305175781
1750928848855008500,13.331008544921875,10.912500381469727,14.250000953674316,39.95625305175781
1750928848865008600,13.341008544921875,10.78125,14.062500953674316,40.16250228881836
1750928848875008500,13.351008544921875,10.575000762939453,14.175000190734863,40.44375228881836
1750928848885008600,13.361008544921875,10.425000190734863,14.11875057220459,40.72500228881836
1750928848895008500,13.371008544921875,10.3125,14.062500953674316,40.81875228881836
1750928848905008600,13.381008544921874,10.18125057220459,14.006250381469727,40.875
1750928848915008500,13.391008544921876,10.18125057220459,14.02500057220459,40.76250076293945
1750928848925008600,13.401008544921876,10.237500190734863,13.706250190734863,40.57500076293945
1750928848935008500,13.411008544921875,9.918750762939453,13.800000190734863,40.66875076293945
1750928848945008600,13.421008544921875,9.637500762939453,13.706250190734863,40.57500076293945
1750928848955008500,13.431008544921875,9.33750057220459,13.65000057220459,40.44375228881836
1750928848965008600,13.441008544921875,8.981250762939453,13.706250190734863,40.44375228881836
1750928848975008500,13.451008544921875,8.68125057220459,13.93125057220459,40.5
1750928848985008600,13.461008544921874,8.40000057220459,13.762500762939453,40.5
1750928848995008500,13.471008544921874,8.006250381469727,13.800000190734863,40.80000305175781
1750928849005008600,13.481008544921876,7.875000476837158,13.950000762939453,40.837501525878906
