time,seconds_elapsed,z,y,x
1750928835755008500,0.231008544921875,127.89375305175781,59.47500228881836,-67.875
1750928835765008600,0.241008544921875,128.41876220703125,59.10000228881836,-68.56875610351562
1750928835795008500,0.271008544921875,127.5562515258789,59.00625228881836,-68.98125457763672
1750928835825008600,0.301008544921875,127.78125762939453,59.118751525878906,-68.83125305175781
1750928835835008500,0.311008544921875,127.66875457763672,59.025001525878906,-68.92500305175781
1750928835845008600,0.321008544921875,127.38750457763672,58.931251525878906,-69.0562515258789
1750928835855008500,0.331008544921875,127.40625762939453,58.89375305175781,-69.11250305175781
1750928835865008600,0.341008544921875,127.72500610351562,58.95000076293945,-69.07500457763672
1750928835875008500,0.351008544921875,127.8375015258789,58.81875228881836,-69.11250305175781
1750928835885008600,0.361008544921875,127.8375015258789,58.98750305175781,-69.48750305175781
1750928835895008500,0.371008544921875,127.78125762939453,58.931251525878906,-69.54375457763672
1750928835905008600,0.381008544921875,127.53750610351562,58.91250228881836,-69.3375015258789
1750928835915008500,0.391008544921875,127.59375762939453,58.875003814697266,-69.30000305175781
1750928835925008600,0.401008544921875,127.72500610351562,58.931251525878906,-69.09375
1750928835935008500,0.411008544921875,127.53750610351562,59.08125305175781,-68.98125457763672
1750928835945008600,0.421008544921875,127.5562515258789,59.19375228881836,-68.79375457763672
1750928835955008500,0.431008544921875,127.72500610351562,59.26875305175781,-68.79375457763672
1750928835965008600,0.441008544921875,127.76250457763672,59.10000228881836,-68.55000305175781
1750928835975008500,0.451008544921875,127.80000305175781,59.10000228881836,-68.4937515258789
1750928835985008600,0.461008544921875,127.91250610351562,58.968753814697266,-68.60625457763672
1750928835995008500,0.471008544921875,127.61250305175781,59.062503814697266,-68.53125
1750928836005008600,0.481008544921875,127.6500015258789,59.08125305175781,-68.38125610351562
1750928836015008500,0.491008544921875,127.87500762939453,59.10000228881836,-68.38125610351562
1750928836025008600,0.501008544921875,127.95000457763672,59.025001525878906,-68.36250305175781
1750928836035008500,0.511008544921875,127.63125610351562,59.13750076293945,-68.26875305175781
1750928836045008600,0.521008544921875,127.63125610351562,59.23125076293945,-68.19375610351562
1750928836055008500,0.531008544921875,127.6500015258789,59.13750076293945,-68.3062515258789
1750928836065008600,0.541008544921875,127.61250305175781,59.156253814697266,-68.4375
1750928836075008500,0.551008544921875,128.0625,58.98750305175781,-68.56875610351562
1750928836085008600,0.561008544921875,128.15625,58.95000076293945,-68.64375305175781
1750928836095008500,0.571008544921875,127.89375305175781,58.98750305175781,-68.56875610351562
1750928836105008600,0.581008544921875,127.40625762939453,58.91250228881836,-68.45625305175781
1750928836115008500,0.591008544921875,127.48125457763672,58.81875228881836,-68.3062515258789
1750928836125008600,0.601008544921875,127.35000610351562,58.781253814697266,-68.19375610351562
1750928836135008500,0.611008544921875,127.14375305175781,58.89375305175781,-67.98750305175781
1750928836145008600,0.621008544921875,127.21875762939453,59.025001525878906,-67.72500610351562
1750928836155008500,0.631008544921875,126.97500610351562,59.19375228881836,-67.59375
1750928836165008600,0.641008544921875,126.67500305175781,59.156253814697266,-67.51875305175781
1750928836175008500,0.651008544921875,126.91875457763672,58.968753814697266,-67.48125457763672
1750928836185008600,0.661008544921875,127.06875610351562,58.95000076293945,-67.51875305175781
1750928836195008500,0.671008544921875,127.16250610351562,58.89375305175781,-67.51875305175781
1750928836205008600,0.681008544921875,127.14375305175781,58.63125228881836,-67.63125610351562
1750928836215008500,0.691008544921875,127.23750305175781,58.61250305175781,-67.6500015258789
1750928836225008600,0.701008544921875,127.0875015258789,58.593753814697266,-67.61250305175781
1750928836235008500,0.711008544921875,127.16250610351562,58.53750228881836,-67.61250305175781
1750928836245008600,0.721008544921875,127.2750015258789,58.743751525878906,-67.53750610351562
1750928836255008500,0.731008544921875,127.0875015258789,58.81875228881836,-67.6875
1750928836265008600,0.741008544921875,126.97500610351562,58.743751525878906,-67.6500015258789
1750928836275008500,0.751008544921875,126.69375610351562,58.89375305175781,-67.72500610351562
1750928836285008600,0.761008544921875,126.60000610351562,59.13750076293945,-67.7437515258789
1750928836295008500,0.771008544921875,126.60000610351562,59.156253814697266,-67.53750610351562
1750928836305008600,0.781008544921875,126.65625762939453,59.306251525878906,-67.51875305175781
1750928836315008500,0.791008544921875,126.56250762939453,59.32500076293945,-67.3125
1750928836325008600,0.801008544921875,126.6187515258789,59.26875305175781,-67.35000610351562
1750928836335008500,0.811008544921875,126.48750305175781,59.13750076293945,-67.40625
1750928836345008600,0.821008544921875,126.58125305175781,59.26875305175781,-67.44375610351562
1750928836355008500,0.831008544921875,126.82500457763672,59.26875305175781,-67.3687515258789
1750928836365008600,0.841008544921875,126.88125610351562,59.400001525878906,-67.29375457763672
1750928836375008500,0.851008544921875,126.65625762939453,59.47500228881836,-67.40625
1750928836385008600,0.861008544921875,126.5250015258789,59.32500076293945,-67.40625
1750928836395008500,0.871008544921875,126.60000610351562,59.23125076293945,-67.57500457763672
1750928836405008600,0.881008544921875,126.5250015258789,59.19375228881836,-67.5562515258789
1750928836415008500,0.891008544921875,126.6187515258789,59.32500076293945,-67.3687515258789
1750928836425008600,0.901008544921875,126.82500457763672,59.26875305175781,-67.5
1750928836435008500,0.911008544921875,126.63750457763672,59.062503814697266,-67.5
1750928836445008600,0.921008544921875,126.63750457763672,58.89375305175781,-67.33125305175781
1750928836455008500,0.931008544921875,126.76875305175781,58.95000076293945,-67.3125
1750928836465008600,0.941008544921875,126.6187515258789,58.968753814697266,-67.5
1750928836475008500,0.951008544921875,126.6187515258789,59.08125305175781,-67.29375457763672
1750928836485008600,0.961008544921875,126.63750457763672,59.26875305175781,-67.20000457763672
1750928836495008500,0.971008544921875,126.63750457763672,59.28750228881836,-67.29375457763672
1750928836505008600,0.981008544921875,126.3375015258789,59.306251525878906,-67.16250610351562
1750928836515008500,0.991008544921875,126.48750305175781,59.51250076293945,-67.25625610351562
1750928836525008600,1.001008544921875,126.6187515258789,59.587501525878906,-67.3125
1750928836535008500,1.011008544921875,126.73125457763672,59.66250228881836,-67.3125
1750928836545008600,1.021008544921875,126.95625305175781,59.64375305175781,-66.95625305175781
1750928836555008500,1.031008544921875,126.9000015258789,59.75625228881836,-67.21875
1750928836565008600,1.041008544921875,126.88125610351562,59.64375305175781,-67.44375610351562
1750928836575008500,1.051008544921875,126.9000015258789,59.66250228881836,-67.40625
1750928836585008600,1.061008544921875,126.95625305175781,59.718753814697266,-67.59375
1750928836595008500,1.071008544921875,126.76875305175781,59.51250076293945,-67.61250305175781
1750928836605008600,1.081008544921875,126.67500305175781,59.55000305175781,-67.61250305175781
1750928836615008500,1.091008544921875,126.58125305175781,59.45625305175781,-67.4625015258789
1750928836625008600,1.101008544921875,126.60000610351562,59.681251525878906,-67.44375610351562
1750928836635008500,1.111008544921875,126.58125305175781,59.718753814697266,-67.3687515258789
1750928836645008600,1.121008544921875,126.54375457763672,59.587501525878906,-67.3125
1750928836655008500,1.131008544921875,126.54375457763672,59.64375305175781,-67.03125
1750928836665008600,1.141008544921875,126.6187515258789,59.66250228881836,-66.78750610351562
1750928836675008500,1.151008544921875,126.88125610351562,59.718753814697266,-66.7125015258789
1750928836685008600,1.161008544921875,126.84375762939453,59.47500228881836,-66.76875305175781
1750928836695008500,1.171008544921875,127.01250457763672,59.47500228881836,-66.91875457763672
1750928836705008600,1.181008544921875,126.78750610351562,59.45625305175781,-67.10625457763672
1750928836715008500,1.191008544921875,126.7125015258789,59.32500076293945,-67.16250610351562
1750928836725008600,1.201008544921875,126.84375762939453,59.437503814697266,-66.88125610351562
1750928836735008500,1.211008544921875,126.9000015258789,59.306251525878906,-67.03125
1750928836745008600,1.221008544921875,127.06875610351562,59.28750228881836,-67.125
1750928836755008500,1.231008544921875,127.10625457763672,59.51250076293945,-67.29375457763672
1750928836765008600,1.241008544921875,127.14375305175781,59.812503814697266,-67.25625610351562
1750928836775008500,1.251008544921875,127.14375305175781,59.775001525878906,-67.20000457763672
1750928836785008600,1.261008544921875,127.3687515258789,59.625003814697266,-67.20000457763672
1750928836795008500,1.271008544921875,127.48125457763672,59.79375076293945,-67.20000457763672
1750928836805008600,1.281008544921875,127.44375610351562,59.962501525878906,-67.57500457763672
1750928836815008500,1.291008544921875,127.33125305175781,59.94375228881836,-67.48125457763672
1750928836825008600,1.301008544921875,127.35000610351562,59.962501525878906,-67.44375610351562
1750928836835008500,1.311008544921875,127.12500762939453,59.868751525878906,-67.0875015258789
1750928836845008600,1.321008544921875,127.14375305175781,59.83125305175781,-67.20000457763672
1750928836855008500,1.331008544921875,127.16250610351562,59.906253814697266,-67.1812515258789
1750928836865008600,1.341008544921875,127.05000305175781,60.000003814697266,-67.0875015258789
1750928836875008500,1.351008544921875,127.1812515258789,59.775001525878906,-67.03125
1750928836885008600,1.361008544921875,127.0875015258789,59.681251525878906,-66.63750457763672
1750928836895008500,1.371008544921875,127.1812515258789,59.85000228881836,-66.69375610351562
1750928836905008600,1.381008544921875,127.16250610351562,59.83125305175781,-66.76875305175781
1750928836915008500,1.391008544921875,127.0875015258789,59.98125076293945,-66.73125457763672
1750928836925008600,1.401008544921875,127.14375305175781,59.94375228881836,-66.65625
1750928836935008500,1.411008544921875,127.06875610351562,59.92500305175781,-66.73125457763672
1750928836945008600,1.421008544921875,127.23750305175781,60.01875305175781,-66.5250015258789
1750928836955008500,1.431008544921875,127.1812515258789,60.30000305175781,-66.48750305175781
1750928836965008600,1.441008544921875,127.10625457763672,60.35625076293945,-66.7125015258789
1750928836975008500,1.451008544921875,127.1812515258789,60.337501525878906,-66.67500305175781
1750928836985008600,1.461008544921875,126.93750762939453,60.468753814697266,-66.65625
1750928836995008500,1.471008544921875,127.05000305175781,60.45000076293945,-66.82500457763672
1750928837005008600,1.481008544921875,127.12500762939453,60.618751525878906,-66.78750610351562
1750928837015008500,1.491008544921875,127.21875762939453,60.63750076293945,-66.82500457763672
1750928837025008600,1.501008544921875,127.35000610351562,60.806251525878906,-67.0875015258789
1750928837035008500,1.511008544921875,127.20000457763672,60.843753814697266,-67.35000610351562
1750928837045008600,1.521008544921875,127.25625610351562,60.843753814697266,-67.40625
1750928837055008500,1.531008544921875,127.20000457763672,61.125003814697266,-67.42500305175781
1750928837065008600,1.541008544921875,127.2750015258789,61.125003814697266,-67.42500305175781
1750928837075008500,1.551008544921875,127.2750015258789,61.33125305175781,-67.3125
1750928837085008600,1.561008544921875,127.12500762939453,61.33125305175781,-67.25625610351562
1750928837095008500,1.571008544921875,126.93750762939453,61.48125076293945,-67.25625610351562
1750928837105008600,1.581008544921875,126.82500457763672,61.275001525878906,-67.23750305175781
1750928837115008500,1.591008544921875,126.82500457763672,61.33125305175781,-67.03125
1750928837125008600,1.601008544921875,126.69375610351562,61.500003814697266,-66.84375
1750928837135008500,1.611008544921875,126.56250762939453,61.53750228881836,-66.84375
1750928837145008600,1.621008544921875,126.65625762939453,61.72500228881836,-66.84375
1750928837155008500,1.631008544921875,126.76875305175781,61.72500228881836,-67.01250457763672
1750928837165008600,1.641008544921875,126.65625762939453,62.062503814697266,-67.05000305175781
1750928837175008500,1.651008544921875,126.63750457763672,62.28750228881836,-66.91875457763672
1750928837185008600,1.661008544921875,126.6187515258789,62.493751525878906,-67.03125
1750928837195008500,1.671008544921875,126.69375610351562,62.493751525878906,-67.23750305175781
1750928837205008600,1.681008544921875,126.73125457763672,62.587501525878906,-67.35000610351562
1750928837215008500,1.691008544921875,126.86250305175781,62.587501525878906,-67.40625
1750928837225008600,1.701008544921875,126.67500305175781,62.47500228881836,-67.59375
1750928837235008500,1.711008544921875,126.60000610351562,62.156253814697266,-67.53750610351562
1750928837245008600,1.721008544921875,126.7125015258789,61.91250228881836,-67.5562515258789
1750928837255008500,1.731008544921875,126.76875305175781,61.57500076293945,-67.9312515258789
1750928837265008600,1.741008544921875,126.56250762939453,61.25625228881836,-67.98750305175781
1750928837275008500,1.751008544921875,126.75000762939453,61.087501525878906,-67.89375305175781
1750928837285008600,1.761008544921875,126.84375762939453,60.82500076293945,-67.96875
1750928837295008500,1.771008544921875,126.78750610351562,60.41250228881836,-68.13750457763672
1750928837305008600,1.781008544921875,126.91875457763672,60.16875076293945,-68.10000610351562
1750928837315008500,1.791008544921875,127.03125762939453,60.01875305175781,-68.10000610351562
1750928837325008600,1.801008544921875,126.9937515258789,59.718753814697266,-68.41875457763672
1750928837335008500,1.811008544921875,127.21875762939453,59.625003814697266,-68.36250305175781
1750928837345008600,1.821008544921875,127.44375610351562,59.75625228881836,-68.38125610351562
1750928837355008500,1.831008544921875,127.51875305175781,59.79375076293945,-68.53125
1750928837365008600,1.841008544921875,127.53750610351562,59.66250228881836,-68.88750457763672
1750928837375008500,1.851008544921875,127.78125762939453,59.64375305175781,-69.16875457763672
1750928837385008600,1.861008544921875,127.85625457763672,59.812503814697266,-69.375
1750928837395008500,1.871008544921875,127.85625457763672,60.13125228881836,-69.73125457763672
1750928837405008600,1.881008544921875,128.15625,60.31875228881836,-69.67500305175781
1750928837415008500,1.891008544921875,128.04376220703125,60.67500305175781,-69.88125610351562
1750928837425008600,1.901008544921875,127.81875610351562,60.843753814697266,-69.9375
1750928837435008500,1.911008544921875,127.4625015258789,60.937503814697266,-69.91875457763672
1750928837445008600,1.921008544921875,127.3687515258789,61.25625228881836,-69.88125610351562
1750928837455008500,1.931008544921875,127.2750015258789,61.57500076293945,-69.75
1750928837465008600,1.941008544921875,127.1812515258789,61.650001525878906,-69.75
1750928837475008500,1.951008544921875,126.82500457763672,61.837501525878906,-69.5625
1750928837485008600,1.961008544921875,126.35625457763672,62.04375076293945,-69.46875
1750928837495008500,1.971008544921875,125.88750457763672,62.025001525878906,-69.20625305175781
1750928837505008600,1.981008544921875,125.79375457763672,62.118751525878906,-69.03750610351562
1750928837515008500,1.991008544921875,125.5875015258789,62.17500305175781,-69.03750610351562
1750928837525008600,2.001008544921875,125.55000305175781,62.19375228881836,-68.6812515258789
1750928837535008500,2.011008544921875,125.28750610351562,62.23125076293945,-68.53125
1750928837545008600,2.021008544921875,125.13750457763672,62.38125228881836,-68.28750610351562
1750928837555008500,2.031008544921875,125.13750457763672,62.41875076293945,-67.875
1750928837565008600,2.041008544921875,125.32500457763672,62.19375228881836,-67.7437515258789
1750928837575008500,2.051008544921875,125.4937515258789,61.875003814697266,-67.63125610351562
1750928837585008600,2.061008544921875,125.53125762939453,61.76250076293945,-67.51875305175781
1750928837595008500,2.071008544921875,125.7750015258789,61.98750305175781,-67.3687515258789
1750928837605008600,2.081008544921875,125.6812515258789,62.025001525878906,-67.38750457763672
1750928837615008500,2.091008544921875,125.56875610351562,62.13750076293945,-67.3125
1750928837625008600,2.101008544921875,125.43750762939453,62.13750076293945,-67.29375457763672
1750928837635008500,2.111008544921875,125.34375762939453,61.875003814697266,-67.80000305175781
1750928837645008600,2.121008544921875,125.25000762939453,62.250003814697266,-67.72500610351562
1750928837655008500,2.131008544921875,125.25000762939453,62.718753814697266,-67.70625305175781
1750928837665008600,2.141008544921875,125.19375610351562,62.92500305175781,-67.76250457763672
1750928837675008500,2.151008544921875,125.08125305175781,62.92500305175781,-67.53750610351562
1750928837685008600,2.161008544921875,125.00625610351562,62.962501525878906,-67.3687515258789
1750928837695008500,2.171008544921875,125.19375610351562,62.812503814697266,-67.14375305175781
1750928837705008600,2.181008544921875,125.38125610351562,62.775001525878906,-66.84375
1750928837715008500,2.191008544921875,125.4000015258789,63.01875305175781,-66.5250015258789
1750928837725008600,2.201008544921875,125.25000762939453,62.94375228881836,-66.4312515258789
1750928837735008500,2.211008544921875,125.1187515258789,62.79375076293945,-66.1875
1750928837745008600,2.221008544921875,125.08125305175781,62.56875228881836,-66
1750928837755008500,2.231008544921875,124.89375305175781,62.41875076293945,-65.94375610351562
1750928837765008600,2.241008544921875,124.81875610351562,62.531253814697266,-65.75625610351562
1750928837775008500,2.251008544921875,124.8375015258789,62.531253814697266,-65.64375305175781
1750928837785008600,2.261008544921875,124.6500015258789,62.531253814697266,-65.56875610351562
1750928837795008500,2.271008544921875,124.8375015258789,62.55000305175781,-65.4937515258789
1750928837805008600,2.281008544921875,124.91250610351562,62.493751525878906,-65.4375
1750928837815008500,2.291008544921875,125.00625610351562,62.26875305175781,-65.64375305175781
1750928837825008600,2.301008544921875,124.95000457763672,62.306251525878906,-65.5875015258789
1750928837835008500,2.311008544921875,125.04375457763672,62.400001525878906,-65.47500610351562
1750928837845008600,2.321008544921875,125.15625762939453,62.32500076293945,-65.34375
1750928837855008500,2.331008544921875,125.04375457763672,62.531253814697266,-65.36250305175781
1750928837865008600,2.341008544921875,125.13750457763672,62.56875228881836,-65.38125610351562
1750928837875008500,2.351008544921875,124.85625457763672,62.64375305175781,-64.95000457763672
1750928837885008600,2.361008544921875,124.72500610351562,62.775001525878906,-64.8375015258789
1750928837895008500,2.371008544921875,124.78125762939453,63.07500076293945,-64.57500457763672
1750928837905008600,2.381008544921875,124.66875457763672,63.03750228881836,-64.44375610351562
1750928837915008500,2.391008544921875,124.48125457763672,63.056251525878906,-64.29375457763672
1750928837925008600,2.401008544921875,124.23750305175781,63.000003814697266,-64.48125457763672
1750928837935008500,2.411008544921875,124.0875015258789,63.150001525878906,-64.35000610351562
1750928837945008600,2.421008544921875,123.9937515258789,63.16875076293945,-64.10625457763672
1750928837955008500,2.431008544921875,124.10625457763672,63.07500076293945,-64.16250610351562
1750928837965008600,2.441008544921875,124.23750305175781,62.906253814697266,-64.05000305175781
1750928837975008500,2.451008544921875,124.10625457763672,62.718753814697266,-63.712501525878906
1750928837985008600,2.461008544921875,124.38750457763672,62.73750305175781,-63.78750228881836
1750928837995008500,2.471008544921875,124.57500457763672,62.64375305175781,-63.78750228881836
1750928838005008600,2.481008544921875,124.8375015258789,62.79375076293945,-63.712501525878906
1750928838015008500,2.491008544921875,125.08125305175781,62.625003814697266,-63.67500305175781
1750928838025008600,2.501008544921875,125.13750457763672,62.625003814697266,-63.73125076293945
1750928838035008500,2.511008544921875,125.15625762939453,62.587501525878906,-63.843753814697266
1750928838045008600,2.521008544921875,125.2125015258789,62.775001525878906,-63.76875305175781
1750928838055008500,2.531008544921875,125.34375762939453,62.73750305175781,-63.806251525878906
1750928838065008600,2.541008544921875,125.10000610351562,62.73750305175781,-63.69375228881836
1750928838075008500,2.551008544921875,125.15625762939453,62.83125305175781,-63.60000228881836
1750928838085008600,2.561008544921875,124.89375305175781,62.85000228881836,-63.337501525878906
1750928838095008500,2.571008544921875,124.76250457763672,62.88750076293945,-63.281253814697266
1750928838105008600,2.581008544921875,124.8375015258789,62.79375076293945,-63.16875076293945
1750928838115008500,2.591008544921875,124.7437515258789,62.88750076293945,-62.906253814697266
1750928838125008600,2.601008544921875,124.6500015258789,62.812503814697266,-62.906253814697266
1750928838135008500,2.611008544921875,124.40625762939453,63.056251525878906,-62.83125305175781
1750928838145008600,2.621008544921875,124.53750610351562,63.093753814697266,-62.718753814697266
1750928838155008500,2.631008544921875,124.4625015258789,63.01875305175781,-62.531253814697266
1750928838165008600,2.641008544921875,124.42500305175781,62.75625228881836,-62.47500228881836
1750928838175008500,2.651008544921875,124.38750457763672,62.64375305175781,-62.10000228881836
1750928838185008600,2.661008544921875,124.29375457763672,62.775001525878906,-61.80000305175781
1750928838195008500,2.671008544921875,124.38750457763672,62.625003814697266,-61.72500228881836
1750928838205008600,2.681008544921875,124.42500305175781,62.343753814697266,-61.593753814697266
1750928838215008500,2.691008544921875,124.59375762939453,62.306251525878906,-61.57500076293945
1750928838225008600,2.701008544921875,124.68750762939453,62.36250305175781,-61.10625076293945
1750928838235008500,2.711008544921875,124.50000762939453,62.38125228881836,-60.937503814697266
1750928838245008600,2.721008544921875,124.61250305175781,62.437503814697266,-60.993751525878906
1750928838255008500,2.731008544921875,124.63125610351562,62.306251525878906,-60.993751525878906
1750928838265008600,2.741008544921875,124.44375610351562,62.26875305175781,-60.900001525878906
1750928838275008500,2.751008544921875,124.16250610351562,62.45625305175781,-60.67500305175781
1750928838285008600,2.761008544921875,123.84375762939453,62.75625228881836,-60.375003814697266
1750928838295008500,2.771008544921875,123.73125457763672,62.60625076293945,-60.20625305175781
1750928838305008600,2.781008544921875,123.41250610351562,62.66250228881836,-60.22500228881836
1750928838315008500,2.791008544921875,123.46875762939453,62.55000305175781,-60.01875305175781
1750928838325008600,2.801008544921875,123.48750305175781,62.56875228881836,-59.775001525878906
1750928838335008500,2.811008544921875,123.41250610351562,62.681251525878906,-59.45625305175781
1750928838345008600,2.821008544921875,123.48750305175781,62.79375076293945,-59.32500076293945
1750928838355008500,2.831008544921875,123.56250762939453,62.60625076293945,-59.41875076293945
1750928838365008600,2.841008544921875,123.7125015258789,62.64375305175781,-59.13750076293945
1750928838375008500,2.851008544921875,123.75000762939453,62.587501525878906,-58.91250228881836
1750928838385008600,2.861008544921875,123.9000015258789,62.625003814697266,-58.593753814697266
1750928838395008500,2.871008544921875,123.95625305175781,62.587501525878906,-58.44375228881836
1750928838405008600,2.881008544921875,123.88125610351562,62.73750305175781,-57.95625305175781
1750928838415008500,2.891008544921875,123.86250305175781,62.718753814697266,-57.54375076293945
1750928838425008600,2.901008544921875,123.91875457763672,62.60625076293945,-57.30000305175781
1750928838435008500,2.911008544921875,123.84375762939453,62.70000076293945,-56.812503814697266
1750928838445008600,2.921008544921875,123.88125610351562,62.73750305175781,-56.531253814697266
1750928838455008500,2.931008544921875,123.7125015258789,63.01875305175781,-56.156253814697266
1750928838465008600,2.941008544921875,123.67500305175781,63.07500076293945,-55.931251525878906
1750928838475008500,2.951008544921875,123.54375457763672,63.26250076293945,-55.57500076293945
1750928838485008600,2.961008544921875,123.39375305175781,63.22500228881836,-55.312503814697266
1750928838495008500,2.971008544921875,123.2437515258789,63.39375305175781,-55.087501525878906
1750928838505008600,2.981008544921875,123.01875305175781,63.26250076293945,-54.86250305175781
1750928838515008500,2.991008544921875,123.22500610351562,63.525001525878906,-54.656253814697266
1750928838525008600,3.001008544921875,122.9625015258789,63.431251525878906,-54.54375076293945
1750928838535008500,3.011008544921875,122.9625015258789,63.618751525878906,-54.30000305175781
1750928838545008600,3.021008544921875,122.73750305175781,63.67500305175781,-53.92500305175781
1750928838555008500,3.031008544921875,122.62500762939453,63.63750076293945,-53.75625228881836
1750928838565008600,3.041008544921875,122.85000610351562,63.78750228881836,-53.625003814697266
1750928838575008500,3.051008544921875,122.90625762939453,63.97500228881836,-53.70000076293945
1750928838585008600,3.061008544921875,122.92500305175781,64.33125305175781,-53.26875305175781
1750928838595008500,3.071008544921875,122.73750305175781,64.29375457763672,-53.13750076293945
1750928838605008600,3.081008544921875,122.81250762939453,64.44375610351562,-52.781253814697266
1750928838615008500,3.091008544921875,122.94375610351562,64.42500305175781,-52.53750228881836
1750928838625008600,3.101008544921875,123.13125610351562,64.57500457763672,-52.48125076293945
1750928838635008500,3.111008544921875,123.26250457763672,64.95000457763672,-52.20000076293945
1750928838645008600,3.121008544921875,123.22500610351562,65.25,-51.60000228881836
1750928838655008500,3.131008544921875,123.3375015258789,65.26875305175781,-51.54375076293945
1750928838665008600,3.141008544921875,123.41250610351562,65.08125305175781,-51.468753814697266
1750928838675008500,3.151008544921875,123.67500305175781,65.13750457763672,-51.11250305175781
1750928838685008600,3.161008544921875,124.05000305175781,65.17500305175781,-51.000003814697266
1750928838695008500,3.171008544921875,124.01250457763672,65.15625,-50.812503814697266
1750928838705008600,3.181008544921875,124.05000305175781,64.95000457763672,-50.60625076293945
1750928838715008500,3.191008544921875,124.1812515258789,64.81875610351562,-50.400001525878906
1750928838725008600,3.201008544921875,124.14375305175781,64.5,-50.36250305175781
1750928838735008500,3.211008544921875,124.23750305175781,64.48125457763672,-49.95000076293945
1750928838745008600,3.221008544921875,124.40625762939453,64.8375015258789,-49.70625305175781
1750928838755008500,3.231008544921875,124.5562515258789,64.91250610351562,-49.368751525878906
1750928838765008600,3.241008544921875,124.29375457763672,64.875,-49.181251525878906
1750928838775008500,3.251008544921875,124.25625610351562,64.78125,-49.087501525878906
1750928838785008600,3.261008544921875,124.38750457763672,65.08125305175781,-49.10625076293945
1750928838795008500,3.271008544921875,124.31250762939453,65.23125457763672,-48.91875076293945
1750928838805008600,3.281008544921875,124.21875762939453,65.26875305175781,-48.806251525878906
1750928838815008500,3.291008544921875,124.23750305175781,65.26875305175781,-48.58125305175781
1750928838825008600,3.301008544921875,124.29375457763672,65.23125457763672,-48.431251525878906
1750928838835008500,3.311008544921875,124.06875610351562,65.28750610351562,-48.39375305175781
1750928838845008600,3.321008544921875,124.20000457763672,65.55000305175781,-48.07500076293945
1750928838855008500,3.331008544921875,124.4625015258789,65.8125,-47.775001525878906
1750928838865008600,3.341008544921875,124.53750610351562,65.8125,-47.41875076293945
1750928838875008500,3.351008544921875,124.76250457763672,65.55000305175781,-47.34375
1750928838885008600,3.361008544921875,125.1187515258789,65.4937515258789,-47.28750228881836
1750928838895008500,3.371008544921875,125.2125015258789,65.625,-47.306251525878906
1750928838905008600,3.381008544921875,125.0250015258789,65.6812515258789,-47.10000228881836
1750928838915008500,3.391008544921875,124.87500762939453,65.51250457763672,-47.10000228881836
1750928838925008600,3.401008544921875,124.87500762939453,65.41875457763672,-47.19375228881836
1750928838935008500,3.411008544921875,124.7437515258789,65.0250015258789,-47.0625
1750928838945008600,3.421008544921875,124.76250457763672,64.76250457763672,-46.96875
1750928838955008500,3.431008544921875,124.61250305175781,64.81875610351562,-46.81875228881836
1750928838965008600,3.441008544921875,124.57500457763672,64.9312515258789,-46.51875305175781
1750928838975008500,3.451008544921875,124.25625610351562,64.76250457763672,-46.05000305175781
1750928838985008600,3.461008544921875,124.57500457763672,64.4625015258789,-45.712501525878906
1750928838995008500,3.471008544921875,124.63125610351562,64.5,-45.375
1750928839005008600,3.481008544921875,124.7437515258789,64.42500305175781,-44.98125076293945
1750928839015008500,3.491008544921875,124.7437515258789,64.51875305175781,-44.88750076293945
1750928839025008600,3.501008544921875,124.8375015258789,64.5,-44.28750228881836
1750928839035008500,3.511008544921875,124.76250457763672,64.44375610351562,-43.89375305175781
1750928839045008600,3.521008544921875,124.76250457763672,64.3125,-43.51875305175781
1750928839055008500,3.531008544921875,124.98750305175781,64.35000610351562,-43.10625076293945
1750928839065008600,3.541008544921875,124.76250457763672,64.25625610351562,-42.75
1750928839075008500,3.551008544921875,124.85625457763672,63.843753814697266,-42.35625076293945
1750928839085008600,3.561008544921875,124.98750305175781,63.73125076293945,-41.83125305175781
1750928839095008500,3.571008544921875,124.89375305175781,63.468753814697266,-41.118751525878906
1750928839105008600,3.581008544921875,124.78125762939453,63.187503814697266,-40.78125
1750928839115008500,3.591008544921875,124.87500762939453,62.775001525878906,-40.44375228881836
1750928839125008600,3.601008544921875,124.70625305175781,62.55000305175781,-40.20000076293945
1750928839135008500,3.611008544921875,124.8375015258789,62.28750228881836,-39.993751525878906
1750928839145008600,3.621008544921875,124.81875610351562,62.17500305175781,-39.63750076293945
1750928839155008500,3.631008544921875,124.80000305175781,62.062503814697266,-39.28125
1750928839165008600,3.641008544921875,124.66875457763672,61.61250305175781,-39.150001525878906
1750928839175008500,3.651008544921875,124.9312515258789,61.63125228881836,-39
1750928839185008600,3.661008544921875,124.80000305175781,61.687503814697266,-38.98125076293945
1750928839195008500,3.671008544921875,125.00625610351562,61.875003814697266,-38.71875
1750928839205008600,3.681008544921875,125.2125015258789,61.837501525878906,-38.51250076293945
1750928839215008500,3.691008544921875,125.06250762939453,61.57500076293945,-38.34375
1750928839225008600,3.701008544921875,125.17500305175781,61.650001525878906,-38.23125076293945
1750928839235008500,3.711008544921875,125.34375762939453,61.781253814697266,-38.28750228881836
1750928839245008600,3.721008544921875,125.45625305175781,62.025001525878906,-38.26875305175781
1750928839255008500,3.731008544921875,125.41875457763672,61.931251525878906,-38.25
1750928839265008600,3.741008544921875,125.62500762939453,61.95000076293945,-38.26875305175781
1750928839275008500,3.751008544921875,125.47500610351562,61.95000076293945,-38.34375
1750928839285008600,3.761008544921875,125.53125762939453,61.85625076293945,-38.400001525878906
1750928839295008500,3.771008544921875,125.43750762939453,62.08125305175781,-38.32500076293945
1750928839305008600,3.781008544921875,125.36250305175781,62.08125305175781,-38.4375
1750928839315008500,3.791008544921875,125.38125610351562,62.19375228881836,-38.306251525878906
1750928839325008600,3.801008544921875,125.2125015258789,62.10000228881836,-38.13750076293945
1750928839335008500,3.811008544921875,125.17500305175781,62.47500228881836,-37.837501525878906
1750928839345008600,3.821008544921875,125.1187515258789,62.343753814697266,-37.6875
1750928839365008600,3.841008544921875,125.17500305175781,62.41875076293945,-37.181251525878906
1750928839375008500,3.851008544921875,125.17500305175781,62.28750228881836,-37.14375305175781
1750928839385008600,3.861008544921875,125.36250305175781,62.13750076293945,-36.82500076293945
1750928839395008500,3.871008544921875,125.2125015258789,62.10000228881836,-36.525001525878906
1750928839405008600,3.881008544921875,125.3062515258789,62.343753814697266,-36.30000305175781
1750928839415008500,3.891008544921875,125.2125015258789,62.025001525878906,-36.28125
1750928839425008600,3.901008544921875,125.36250305175781,62.156253814697266,-35.98125076293945
1750928839435008500,3.911008544921875,125.47500610351562,62.13750076293945,-35.98125076293945
1750928839445008600,3.921008544921875,125.43750762939453,62.118751525878906,-35.775001525878906
1750928839455008500,3.931008544921875,125.56875610351562,62.28750228881836,-35.55000305175781
1750928839465008600,3.941008544921875,125.75625610351562,62.28750228881836,-35.34375
1750928839475008500,3.951008544921875,125.8687515258789,62.062503814697266,-35.41875076293945
1750928839485008600,3.961008544921875,126.09375762939453,61.650001525878906,-35.41875076293945
1750928839495008500,3.971008544921875,126.45000457763672,61.556251525878906,-35.587501525878906
1750928839505008600,3.981008544921875,126.37500762939453,61.44375228881836,-35.55000305175781
1750928839515008500,3.991008544921875,126.39375305175781,61.500003814697266,-35.4375
1750928839525008600,4.001008544921875,126.6187515258789,61.42500305175781,-35.19375228881836
1750928839535008500,4.011008544921875,126.73125457763672,61.48125076293945,-35.00625228881836
1750928839545008600,4.021008544921875,126.86250305175781,61.53750228881836,-34.72500228881836
1750928839555008500,4.031008544921875,126.9000015258789,61.66875076293945,-34.35000228881836
1750928839565008600,4.041008544921875,126.78750610351562,61.837501525878906,-34.087501525878906
1750928839575008500,4.051008544921875,126.60000610351562,61.781253814697266,-33.78750228881836
1750928839585008600,4.061008544921875,126.69375610351562,61.687503814697266,-33.525001525878906
1750928839595008500,4.071008544921875,126.56250762939453,61.76250076293945,-33.30000305175781
1750928839605008600,4.081008544921875,126.73125457763672,61.80000305175781,-33.20625305175781
1750928839615008500,4.091008544921875,126.91875457763672,61.781253814697266,-33
1750928839625008600,4.101008544921875,126.84375762939453,61.80000305175781,-33.11250305175781
1750928839635008500,4.111008544921875,127.03125762939453,61.89375305175781,-32.98125076293945
1750928839645008600,4.121008544921875,127.21875762939453,61.98750305175781,-32.88750076293945
1750928839655008500,4.131008544921875,127.42500305175781,62.062503814697266,-32.55000305175781
1750928839665008600,4.141008544921875,127.57500457763672,62.156253814697266,-32.55000305175781
1750928839675008500,4.151008544921875,127.78125762939453,62.025001525878906,-32.19375228881836
1750928839685008600,4.161008544921875,127.89375305175781,62.00625228881836,-32.04375076293945
1750928839695008500,4.171008544921875,127.78125762939453,62.118751525878906,-31.856250762939453
1750928839705008600,4.181008544921875,128.00625610351562,61.81875228881836,-31.725000381469727
1750928839715008500,4.191008544921875,128.1750030517578,61.743751525878906,-31.312501907348633
1750928839725008600,4.201008544921875,128.25,61.556251525878906,-30.881250381469727
1750928839735008500,4.211008544921875,128.4562530517578,61.61250305175781,-30.731250762939453
1750928839745008600,4.221008544921875,128.51251220703125,61.650001525878906,-30.187501907348633
1750928839755008500,4.231008544921875,128.5500030517578,61.650001525878906,-30.056251525878906
1750928839765008600,4.241008544921875,128.6437530517578,61.500003814697266,-29.887500762939453
1750928839775008500,4.251008544921875,128.9250030517578,61.312503814697266,-29.625001907348633
1750928839785008600,4.261008544921875,128.8125,61.462501525878906,-29.306251525878906
1750928839795008500,4.271008544921875,128.79376220703125,61.48125076293945,-29.343751907348633
1750928839805008600,4.281008544921875,128.88751220703125,61.51875305175781,-28.950000762939453
1750928839815008500,4.291008544921875,128.79376220703125,61.38750076293945,-28.80000114440918
1750928839825008600,4.301008544921875,128.85000610351562,61.406253814697266,-28.631250381469727
1750928839835008500,4.311008544921875,128.9250030517578,61.44375228881836,-28.500001907348633
1750928839845008600,4.321008544921875,128.94375610351562,61.48125076293945,-28.162500381469727
1750928839855008500,4.331008544921875,129.22500610351562,61.53750228881836,-28.087501525878906
1750928839865008600,4.341008544921875,129.4875030517578,61.57500076293945,-27.918750762939453
1750928839875008500,4.351008544921875,129.90000915527344,61.500003814697266,-27.67500114440918
1750928839885008600,4.361008544921875,129.91876220703125,61.462501525878906,-27.937501907348633
1750928839895008500,4.371008544921875,130.20001220703125,61.650001525878906,-27.637500762939453
1750928839905008600,4.381008544921875,130.35000610351562,61.837501525878906,-27.506250381469727
1750928839915008500,4.391008544921875,130.48126220703125,62.025001525878906,-27.375001907348633
1750928839925008600,4.401008544921875,130.53750610351562,62.118751525878906,-27.468751907348633
1750928839935008500,4.411008544921875,130.36875915527344,61.968753814697266,-27.543750762939453
1750928839945008600,4.421008544921875,130.44375610351562,62.08125305175781,-27.600000381469727
1750928839955008500,4.431008544921875,130.38751220703125,62.13750076293945,-27.562501907348633
1750928839965008600,4.441008544921875,130.5,62.26875305175781,-27.450000762939453
1750928839975008500,4.451008544921875,130.57501220703125,62.28750228881836,-27.543750762939453
1750928839985008600,4.461008544921875,130.59375,62.08125305175781,-27.76875114440918
1750928839995008500,4.471008544921875,130.53750610351562,62.118751525878906,-27.750001907348633
1750928840005008600,4.481008544921875,130.59375,62.17500305175781,-27.843751907348633
1750928840015008500,4.491008544921875,130.6125030517578,62.45625305175781,-27.750001907348633
1750928840025008600,4.501008544921875,130.6875,62.56875228881836,-27.881250381469727
1750928840035008500,4.511008544921875,130.7062530517578,62.85000228881836,-28.125001907348633
1750928840045008600,4.521008544921875,130.78125,62.94375228881836,-28.162500381469727
1750928840055008500,4.531008544921875,130.85626220703125,63.093753814697266,-28.14375114440918
1750928840065008600,4.541008544921875,131.23126220703125,63.281253814697266,-28.181251525878906
1750928840075008500,4.551008544921875,131.49375915527344,63.431251525878906,-28.368751525878906
1750928840085008600,4.561008544921875,131.5500030517578,63.82500076293945,-28.181251525878906
1750928840095008500,4.571008544921875,131.9250030517578,64.0875015258789,-28.218751907348633
1750928840105008600,4.581008544921875,132,64.23750305175781,-27.918750762939453
1750928840115008500,4.591008544921875,132.2062530517578,64.44375610351562,-27.525001525878906
1750928840125008600,4.601008544921875,132.50625610351562,64.5562515258789,-27.48750114440918
1750928840135008500,4.611008544921875,132.75,64.9312515258789,-27.30000114440918
1750928840145008600,4.621008544921875,132.9562530517578,65.36250305175781,-27.093751907348633
1750928840155008500,4.631008544921875,133.3312530517578,65.4937515258789,-26.775001525878906
1750928840165008600,4.641008544921875,133.78125,65.4375,-26.587501525878906
1750928840175008500,4.651008544921875,134.23126220703125,65.47500610351562,-26.287500381469727
1750928840185008600,4.661008544921875,134.38125610351562,65.73750305175781,-26.325000762939453
1750928840195008500,4.671008544921875,134.58750915527344,66,-26.55000114440918
1750928840205008600,4.681008544921875,134.86875915527344,66.375,-26.512500762939453
1750928840215008500,4.691008544921875,135.13125610351562,66.41250610351562,-26.437501907348633
1750928840225008600,4.701008544921875,135.16876220703125,66.45000457763672,-26.250001907348633
1750928840235008500,4.711008544921875,135.28125,66.7125015258789,-26.137500762939453
1750928840245008600,4.721008544921875,135.33750915527344,67.10625457763672,-26.212501525878906
1750928840255008500,4.731008544921875,135.375,67.35000610351562,-26.193750381469727
1750928840265008600,4.741008544921875,135.73126220703125,67.3687515258789,-25.968751907348633
1750928840275008500,4.751008544921875,135.97500610351562,67.44375610351562,-25.650001525878906
1750928840285008600,4.761008544921875,136.16250610351562,67.53750610351562,-25.51875114440918
1750928840295008500,4.771008544921875,136.21875,67.91250610351562,-25.443750381469727
1750928840305008600,4.781008544921875,136.4250030517578,67.98750305175781,-25.443750381469727
1750928840315008500,4.791008544921875,136.59375,68.00625610351562,-25.293750762939453
1750928840325008600,4.801008544921875,136.875,67.9312515258789,-25.33125114440918
1750928840335008500,4.811008544921875,136.76251220703125,68.10000610351562,-25.481250762939453
1750928840345008600,4.821008544921875,136.83750915527344,68.34375,-25.387500762939453
1750928840355008500,4.831008544921875,136.6125030517578,68.47500610351562,-25.500001907348633
1750928840365008600,4.841008544921875,136.78125,68.47500610351562,-25.537500381469727
1750928840375008500,4.851008544921875,136.81875610351562,68.25,-25.668750762939453
1750928840385008600,4.861008544921875,136.83750915527344,68.25,-25.556251525878906
1750928840395008500,4.871008544921875,136.63125610351562,68.51250457763672,-25.387500762939453
1750928840405008600,4.881008544921875,136.29376220703125,68.56875610351562,-25.33125114440918
1750928840415008500,4.891008544921875,136.63125610351562,68.28750610351562,-25.33125114440918
1750928840425008600,4.901008544921875,136.74375915527344,68.32500457763672,-25.33125114440918
1750928840435008500,4.911008544921875,136.8000030517578,68.13750457763672,-25.256250381469727
1750928840445008600,4.921008544921875,136.55625915527344,68.17500305175781,-25.012500762939453
1750928840455008500,4.931008544921875,136.38751220703125,68.1187515258789,-24.843751907348633
1750928840475008500,4.951008544921875,136.46250915527344,67.80000305175781,-25.218751907348633
1750928840485008600,4.961008544921875,136.6125030517578,67.66875457763672,-24.95625114440918
1750928840495008500,4.971008544921875,136.29376220703125,67.70625305175781,-24.637500762939453
1750928840505008600,4.981008544921875,136.06875610351562,67.35000610351562,-24.48750114440918
1750928840515008500,4.991008544921875,136.29376220703125,67.20000457763672,-24.48750114440918
1750928840525008600,5.001008544921875,136.29376220703125,66.9000015258789,-24.618751525878906
1750928840535008500,5.011008544921875,136.20001220703125,66.91875457763672,-24.281251907348633
1750928840545008600,5.021008544921875,136.2375030517578,66.78750610351562,-24.412500381469727
1750928840555008500,5.031008544921875,136.3312530517578,66.84375,-24.318750381469727
1750928840565008600,5.041008544921875,136.5,66.84375,-24.337501525878906
1750928840575008500,5.051008544921875,136.65000915527344,66.6187515258789,-24.375001907348633
1750928840585008600,5.061008544921875,136.8000030517578,66.67500305175781,-24.412500381469727
1750928840595008500,5.071008544921875,136.78125,66.5625,-24.11250114440918
1750928840605008600,5.081008544921875,136.78125,66.65625,-23.775001525878906
1750928840625008600,5.101008544921875,137.23126220703125,66.45000457763672,-23.850000381469727
1750928840635008500,5.111008544921875,137.4562530517578,66.30000305175781,-23.55000114440918
1750928840645008600,5.121008544921875,137.30625915527344,66.3375015258789,-23.25
1750928840655008500,5.131008544921875,137.38125610351562,66.39375305175781,-23.325000762939453
1750928840665008600,5.141008544921875,137.51251220703125,66.39375305175781,-23.325000762939453
1750928840675008500,5.151008544921875,137.77500915527344,66.4312515258789,-23.325000762939453
1750928840685008600,5.161008544921875,137.98126220703125,66.5250015258789,-23.418750762939453
1750928840695008500,5.171008544921875,138.28125,66.46875,-23.25
1750928840705008600,5.181008544921875,138.33750915527344,66.35625457763672,-23.08125114440918
1750928840715008500,5.191008544921875,138.28125,66.41250610351562,-22.931251525878906
1750928840725008600,5.201008544921875,138.54376220703125,66.22500610351562,-22.98750114440918
1750928840735008500,5.211008544921875,138.63751220703125,66.20625305175781,-22.575000762939453
1750928840745008600,5.221008544921875,138.52500915527344,66.28125,-22.387500762939453
1750928840755008500,5.231008544921875,138.69375610351562,66.31875610351562,-22.256250381469727
1750928840765008600,5.241008544921875,138.9562530517578,66.28125,-22.21875
1750928840775008500,5.251008544921875,138.90000915527344,66.45000457763672,-22.200000762939453
1750928840785008600,5.261008544921875,138.78750610351562,66.65625,-22.23750114440918
1750928840795008500,5.271008544921875,139.1437530517578,66.69375610351562,-22.293750762939453
1750928840805008600,5.281008544921875,139.4250030517578,66.67500305175781,-22.23750114440918
1750928840815008500,5.291008544921875,139.72500610351562,66.65625,-22.068750381469727
1750928840825008600,5.301008544921875,140.47500610351562,66.48750305175781,-21.731250762939453
1750928840835008500,5.311008544921875,140.66250610351562,66.48750305175781,-21.637500762939453
1750928840845008600,5.321008544921875,140.96250915527344,66.5250015258789,-21.243751525878906
1750928840855008500,5.331008544921875,141.50625610351562,66.60000610351562,-20.850000381469727
1750928840865008600,5.341008544921875,141.9375,66.3375015258789,-20.662500381469727
1750928840875008500,5.351008544921875,142.3312530517578,66.13125610351562,-20.418750762939453
1750928840885008600,5.361008544921875,142.44375610351562,66.16875457763672,-19.98750114440918
1750928840895008500,5.371008544921875,142.96875,66.3375015258789,-19.743751525878906
1750928840905008600,5.381008544921875,143.13751220703125,66.45000457763672,-19.725000381469727
1750928840915008500,5.391008544921875,143.25,66.375,-19.59375
1750928840925008600,5.401008544921875,143.32501220703125,66.3375015258789,-19.42500114440918
1750928840935008500,5.411008544921875,143.49375915527344,66.2437515258789,-19.481250762939453
1750928840945008600,5.421008544921875,143.58750915527344,66.35625457763672,-19.200000762939453
1750928840955008500,5.431008544921875,143.8312530517578,66.45000457763672,-19.087501525878906
1750928840965008600,5.441008544921875,144.0187530517578,66.39375305175781,-18.918750762939453
1750928840975008500,5.451008544921875,144.24375915527344,66.41250610351562,-19.012500762939453
1750928840985008600,5.461008544921875,144.22500610351562,66.41250610351562,-18.731250762939453
1750928840995008500,5.471008544921875,144.69375610351562,66.65625,-18.600000381469727
1750928841005008600,5.481008544921875,145.16250610351562,66.69375610351562,-18.356250762939453
1750928841015008500,5.491008544921875,145.40625,66.5250015258789,-17.92500114440918
1750928841025008600,5.501008544921875,146.10000610351562,66.58125305175781,-17.606250762939453
1750928841035008500,5.511008544921875,146.5500030517578,66.60000610351562,-17.325000762939453
1750928841045008600,5.521008544921875,147.15000915527344,66.75,-17.400001525878906
1750928841055008500,5.531008544921875,147.2062530517578,66.84375,-17.0625
1750928841065008600,5.541008544921875,147.50625610351562,66.75,-17.025001525878906
1750928841075008500,5.551008544921875,147.52500915527344,66.54375457763672,-16.668750762939453
1750928841085008600,5.561008544921875,147.5812530517578,66.4312515258789,-16.762500762939453
1750928841095008500,5.571008544921875,147.71250915527344,66.45000457763672,-16.818750381469727
1750928841105008600,5.581008544921875,147.54376220703125,66.46875,-16.762500762939453
1750928841115008500,5.591008544921875,147.52500915527344,66.48750305175781,-16.78125
1750928841125008600,5.601008544921875,147.52500915527344,66.39375305175781,-16.70625114440918
1750928841135008500,5.611008544921875,147.54376220703125,66.13125610351562,-16.950000762939453
1750928841145008600,5.621008544921875,147.52500915527344,66.16875457763672,-16.875
1750928841155008500,5.631008544921875,147.91876220703125,66.28125,-16.875
1750928841165008600,5.641008544921875,148.01251220703125,66.35625457763672,-16.743751525878906
1750928841175008500,5.651008544921875,148.125,66.41250610351562,-16.762500762939453
1750928841185008600,5.661008544921875,148.44375610351562,66.46875,-16.80000114440918
1750928841195008500,5.671008544921875,148.53750610351562,66.20625305175781,-16.818750381469727
1750928841205008600,5.681008544921875,148.5187530517578,66.1875,-16.856250762939453
1750928841215008500,5.691008544921875,148.83750915527344,66.3375015258789,-16.837501525878906
1750928841225008600,5.701008544921875,149.2687530517578,66.30000305175781,-16.96875
1750928841235008500,5.711008544921875,149.4375,66.375,-16.89375114440918
1750928841245008600,5.721008544921875,149.53125,66.39375305175781,-16.725000381469727
1750928841255008500,5.731008544921875,149.71875,66.41250610351562,-16.61250114440918
1750928841265008600,5.741008544921875,149.70001220703125,66.39375305175781,-16.575000762939453
1750928841275008500,5.751008544921875,149.8125,66.63750457763672,-16.443750381469727
1750928841285008600,5.761008544921875,150.1125030517578,66.60000610351562,-16.387500762939453
1750928841295008500,5.771008544921875,150.03750610351562,66.54375457763672,-16.200000762939453
1750928841305008600,5.781008544921875,150.07501220703125,66.4312515258789,-16.125
1750928841315008500,5.791008544921875,150.13125610351562,66.28125,-16.14375114440918
1750928841325008600,5.801008544921875,150.52500915527344,66.1875,-16.275001525878906
1750928841335008500,5.811008544921875,150.9562530517578,66.13125610351562,-16.21875
1750928841345008600,5.821008544921875,151.1437530517578,66.01875305175781,-16.33125114440918
1750928841355008500,5.831008544921875,151.25625610351562,65.94375610351562,-16.33125114440918
1750928841365008600,5.841008544921875,151.59375,66.0562515258789,-16.125
1750928841375008500,5.851008544921875,151.81875610351562,66.09375,-15.937500953674316
1750928841385008600,5.861008544921875,152.02500915527344,65.85000610351562,-15.843750953674316
1750928841395008500,5.871008544921875,152.00625610351562,65.66250610351562,-15.731250762939453
1750928841405008600,5.881008544921875,152.00625610351562,65.53125,-15.562500953674316
1750928841415008500,5.891008544921875,151.8000030517578,65.51250457763672,-15.43125057220459
1750928841425008600,5.901008544921875,151.76251220703125,65.51250457763672,-15.131250381469727
1750928841435008500,5.911008544921875,151.6875,65.28750610351562,-15.075000762939453
1750928841445008600,5.921008544921875,151.5187530517578,64.98750305175781,-15.075000762939453
1750928841455008500,5.931008544921875,151.66876220703125,64.72500610351562,-15.112500190734863
1750928841465008600,5.941008544921875,151.44375610351562,64.98750305175781,-14.850000381469727
1750928841475008500,5.951008544921875,151.65000915527344,64.95000457763672,-14.925000190734863
1750928841485008600,5.961008544921875,151.7062530517578,64.80000305175781,-14.96250057220459
1750928841495008500,5.971008544921875,151.72500610351562,64.76250457763672,-14.887500762939453
1750928841505008600,5.981008544921875,151.95001220703125,64.78125,-14.981250762939453
1750928841515008500,5.991008544921875,152.1750030517578,64.875,-14.887500762939453
1750928841535008500,6.011008544921875,152.6437530517578,65.0250015258789,-14.906250953674316
1750928841545008600,6.021008544921875,153.0187530517578,65.13750457763672,-14.96250057220459
1750928841555008500,6.031008544921875,153.07501220703125,65.13750457763672,-14.981250762939453
1750928841565008600,6.041008544921875,153.24375915527344,65.4937515258789,-14.887500762939453
1750928841575008500,6.051008544921875,153.52500915527344,65.4375,-14.981250762939453
1750928841585008600,6.061008544921875,153.84375,65.25,-15.000000953674316
1750928841595008500,6.071008544921875,153.9375,65.10000610351562,-15.15000057220459
1750928841605008600,6.081008544921875,154.08750915527344,65.2125015258789,-15.131250381469727
1750928841615008500,6.091008544921875,153.82501220703125,64.95000457763672,-15.112500190734863
1750928841625008600,6.101008544921875,153.80625915527344,64.66875457763672,-15.05625057220459
1750928841635008500,6.111008544921875,154.1437530517578,64.53750610351562,-14.943750381469727
1750928841645008600,6.121008544921875,154.29376220703125,64.16250610351562,-15.093750953674316
1750928841655008500,6.131008544921875,154.46250915527344,64.03125,-14.906250953674316
1750928841665008600,6.141008544921875,154.48126220703125,64.05000305175781,-14.925000190734863
1750928841675008500,6.151008544921875,154.7062530517578,64.1812515258789,-14.756250381469727
1750928841685008600,6.161008544921875,155.13751220703125,64.05000305175781,-14.568750381469727
1750928841695008500,6.171008544921875,155.58750915527344,64.40625,-14.437500953674316
1750928841705008600,6.181008544921875,155.86875915527344,64.3687515258789,-14.456250190734863
1750928841715008500,6.191008544921875,155.94375610351562,64.4625015258789,-14.625000953674316
1750928841725008600,6.201008544921875,156.05625915527344,64.5,-14.456250190734863
1750928841735008500,6.211008544921875,156.3937530517578,64.5562515258789,-14.49375057220459
1750928841745008600,6.221008544921875,156.69375610351562,64.59375,-14.325000762939453
1750928841755008500,6.231008544921875,157.29376220703125,64.51875305175781,-14.231250762939453
1750928841765008600,6.241008544921875,157.59375,64.48125457763672,-14.287500381469727
1750928841775008500,6.251008544921875,158.0812530517578,64.125,-14.30625057220459
1750928841785008600,6.261008544921875,158.625,64.10625457763672,-14.268750190734863
1750928841795008500,6.271008544921875,159.22500610351562,64.0875015258789,-14.043750762939453
1750928841805008600,6.281008544921875,159.8625030517578,64.1812515258789,-13.83750057220459
1750928841815008500,6.291008544921875,160.18125915527344,64.01250457763672,-13.74375057220459
1750928841825008600,6.301008544921875,160.875,63.900001525878906,-13.74375057220459
1750928841835008500,6.311008544921875,161.0812530517578,63.843753814697266,-13.668750762939453
1750928841845008600,6.321008544921875,161.3625030517578,63.73125076293945,-13.706250190734863
1750928841855008500,6.331008544921875,161.66250610351562,63.82500076293945,-13.575000762939453
1750928841865008600,6.341008544921875,161.85000610351562,63.750003814697266,-13.575000762939453
1750928841875008500,6.351008544921875,161.86875915527344,63.54375076293945,-13.481250762939453
1750928841885008600,6.361008544921875,162.0187530517578,63.337501525878906,-13.725000381469727
1750928841895008500,6.371008544921875,162.15000915527344,63.337501525878906,-13.83750057220459
1750928841905008600,6.381008544921875,162.07501220703125,63.337501525878906,-13.55625057220459
1750928841915008500,6.391008544921875,162.28125,63.30000305175781,-13.55625057220459
1750928841925008600,6.401008544921875,162.45001220703125,63.22500228881836,-13.425000190734863
1750928841935008500,6.411008544921875,162.33750915527344,63.16875076293945,-13.46250057220459
1750928841945008600,6.421008544921875,162.46875,63.07500076293945,-13.46250057220459
1750928841955008500,6.431008544921875,162.8625030517578,63.13125228881836,-13.500000953674316
1750928841965008600,6.441008544921875,162.9375,62.98125076293945,-13.46250057220459
1750928841975008500,6.451008544921875,163.10626220703125,63.01875305175781,-13.575000762939453
1750928841985008600,6.461008544921875,163.20001220703125,62.88750076293945,-13.668750762939453
1750928841995008500,6.471008544921875,163.0500030517578,62.775001525878906,-13.687500953674316
1750928842005008600,6.481008544921875,163.08750915527344,62.85000228881836,-13.781250953674316
1750928842015008500,6.491008544921875,163.35000610351562,62.64375305175781,-14.043750762939453
1750928842025008600,6.501008544921875,163.59375,62.868751525878906,-13.987500190734863
1750928842035008500,6.511008544921875,163.25625610351562,62.79375076293945,-14.081250190734863
1750928842045008600,6.521008544921875,163.2375030517578,62.868751525878906,-14.006250381469727
1750928842055008500,6.531008544921875,163.3125,62.92500305175781,-13.93125057220459
1750928842065008600,6.541008544921875,163.35000610351562,62.962501525878906,-14.043750762939453
1750928842075008500,6.551008544921875,163.5,63.187503814697266,-14.006250381469727
1750928842085008600,6.561008544921875,163.74375915527344,63.30000305175781,-14.062500953674316
1750928842095008500,6.571008544921875,163.59375,63.41250228881836,-13.781250953674316
1750928842105008600,6.581008544921875,163.53750610351562,63.31875228881836,-13.856250762939453
1750928842115008500,6.591008544921875,163.85626220703125,63.48750305175781,-13.65000057220459
1750928842125008600,6.601008544921875,164.11875915527344,63.60000228881836,-13.893750190734863
1750928842135008500,6.611008544921875,164.10000610351562,63.73125076293945,-13.800000190734863
1750928842145008600,6.621008544921875,164.23126220703125,63.73125076293945,-13.912500381469727
1750928842155008500,6.631008544921875,164.49375915527344,63.618751525878906,-14.100000381469727
1750928842165008600,6.641008544921875,164.49375915527344,63.58125305175781,-14.02500057220459
1750928842175008500,6.651008544921875,164.75625610351562,63.69375228881836,-14.100000381469727
1750928842185008600,6.661008544921875,165.03750610351562,63.67500305175781,-14.30625057220459
1750928842195008500,6.671008544921875,165.0187530517578,63.82500076293945,-14.49375057220459
1750928842205008600,6.681008544921875,165.3000030517578,63.91875076293945,-14.343750953674316
1750928842215008500,6.691008544921875,165.45001220703125,63.900001525878906,-14.381250381469727
1750928842225008600,6.701008544921875,165.54376220703125,63.82500076293945,-14.40000057220459
1750928842235008500,6.711008544921875,165.52500915527344,63.843753814697266,-14.418750762939453
1750928842245008600,6.721008544921875,165.43125915527344,63.67500305175781,-14.531250953674316
1750928842255008500,6.731008544921875,165.80625915527344,63.48750305175781,-14.643750190734863
1750928842265008600,6.741008544921875,165.88125610351562,63.58125305175781,-14.40000057220459
1750928842275008500,6.751008544921875,166.1437530517578,63.468753814697266,-14.40000057220459
1750928842285008600,6.761008544921875,166.3125,63.41250228881836,-14.456250190734863
1750928842295008500,6.771008544921875,166.57501220703125,63.13125228881836,-14.381250381469727
1750928842305008600,6.781008544921875,166.7062530517578,63.35625076293945,-14.250000953674316
1750928842315008500,6.791008544921875,166.96875,63.337501525878906,-14.287500381469727
1750928842325008600,6.801008544921875,167.1750030517578,63.562503814697266,-14.21250057220459
1750928842335008500,6.811008544921875,167.10000610351562,63.63750076293945,-14.250000953674316
1750928842345008600,6.821008544921875,167.02500915527344,63.525001525878906,-14.456250190734863
1750928842355008500,6.831008544921875,166.95001220703125,63.54375076293945,-14.550000190734863
1750928842365008600,6.841008544921875,167.04376220703125,63.431251525878906,-14.512500762939453
1750928842375008500,6.851008544921875,167.23126220703125,63.54375076293945,-14.625000953674316
1750928842385008600,6.861008544921875,167.23126220703125,63.60000228881836,-14.568750381469727
1750928842395008500,6.871008544921875,167.28750610351562,63.618751525878906,-14.606250762939453
1750928842405008600,6.881008544921875,167.4375,63.45000076293945,-14.643750190734863
1750928842415008500,6.891008544921875,167.625,63.41250228881836,-14.512500762939453
1750928842425008600,6.901008544921875,167.85000610351562,63.431251525878906,-14.156250953674316
1750928842435008500,6.911008544921875,168.35626220703125,63.35625076293945,-14.137500762939453
1750928842445008600,6.921008544921875,168.07501220703125,63.30000305175781,-14.30625057220459
1750928842455008500,6.931008544921875,168.33750915527344,63.45000076293945,-14.156250953674316
1750928842475008500,6.951008544921875,169.08750915527344,63.20625305175781,-14.250000953674316
1750928842485008600,6.961008544921875,169.44375610351562,63.13125228881836,-14.156250953674316
1750928842495008500,6.971008544921875,169.59375,63.150001525878906,-14.081250190734863
1750928842505008600,6.981008544921875,169.63125610351562,63.16875076293945,-14.325000762939453
1750928842515008500,6.991008544921875,169.59375,63.13125228881836,-14.21250057220459
1750928842525008600,7.001008544921875,170.11875915527344,63.187503814697266,-14.006250381469727
1750928842535008500,7.011008544921875,170.10000610351562,62.94375228881836,-14.11875057220459
1750928842545008600,7.021008544921875,169.875,62.73750305175781,-14.137500762939453
1750928842555008500,7.031008544921875,170.15625,62.681251525878906,-14.11875057220459
1750928842565008600,7.041008544921875,170.40000915527344,62.83125305175781,-14.062500953674316
1750928842575008500,7.051008544921875,170.5500030517578,62.64375305175781,-14.268750190734863
1750928842585008600,7.061008544921875,170.98126220703125,62.531253814697266,-14.325000762939453
1750928842595008500,7.071008544921875,171.1125030517578,62.55000305175781,-14.343750953674316
1750928842605008600,7.081008544921875,171,62.45625305175781,-14.49375057220459
1750928842615008500,7.091008544921875,171.0187530517578,62.587501525878906,-14.568750381469727
1750928842625008600,7.101008544921875,171.52500915527344,62.73750305175781,-14.343750953674316
1750928842635008500,7.111008544921875,171.52500915527344,62.79375076293945,-14.381250381469727
1750928842645008600,7.121008544921875,171.31875610351562,62.64375305175781,-14.381250381469727
1750928842655008500,7.131008544921875,171.31875610351562,62.718753814697266,-14.362500190734863
1750928842665008600,7.141008544921875,171.22500610351562,62.73750305175781,-14.343750953674316
1750928842675008500,7.151008544921875,171.22500610351562,62.56875228881836,-14.49375057220459
1750928842685008600,7.161008544921875,171.5625,62.531253814697266,-14.418750762939453
1750928842695008500,7.171008544921875,171.84375,62.51250076293945,-14.175000190734863
1750928842705008600,7.181008544921875,171.75,62.36250305175781,-14.30625057220459
1750928842715008500,7.191008544921875,171.8625030517578,62.41875076293945,-14.343750953674316
1750928842725008600,7.201008544921875,171.99375915527344,62.306251525878906,-14.456250190734863
1750928842735008500,7.211008544921875,172.20001220703125,62.36250305175781,-14.437500953674316
1750928842745008600,7.221008544921875,172.35000610351562,62.400001525878906,-14.49375057220459
1750928842755008500,7.231008544921875,172.6875,62.60625076293945,-14.175000190734863
1750928842765008600,7.241008544921875,172.81875610351562,62.66250228881836,-14.156250953674316
1750928842775008500,7.251008544921875,172.93125915527344,62.45625305175781,-14.550000190734863
1750928842785008600,7.261008544921875,173.15625,62.38125228881836,-14.718750953674316
1750928842795008500,7.271008544921875,173.0625,62.250003814697266,-14.850000381469727
1750928842805008600,7.281008544921875,173.2687530517578,62.306251525878906,-14.925000190734863
1750928842815008500,7.291008544921875,173.28750610351562,62.19375228881836,-14.943750381469727
1750928842825008600,7.301008544921875,173.38125610351562,61.968753814697266,-14.925000190734863
1750928842835008500,7.311008544921875,173.68125915527344,61.80000305175781,-15.131250381469727
1750928842845008600,7.321008544921875,173.86875915527344,61.48125076293945,-15.318750381469727
1750928842855008500,7.331008544921875,173.98126220703125,61.51875305175781,-15.318750381469727
1750928842865008600,7.341008544921875,174.3000030517578,61.33125305175781,-15.43125057220459
1750928842875008500,7.351008544921875,174.60000610351562,61.35000228881836,-15.375000953674316
1750928842885008600,7.361008544921875,174.90000915527344,61.406253814697266,-15.15000057220459
1750928842895008500,7.371008544921875,175.36875915527344,61.38750076293945,-15.112500190734863
1750928842905008600,7.381008544921875,175.78125,61.500003814697266,-14.96250057220459
1750928842915008500,7.391008544921875,175.7062530517578,61.25625228881836,-15.037500381469727
1750928842925008600,7.401008544921875,175.76251220703125,61.33125305175781,-14.981250762939453
1750928842935008500,7.411008544921875,175.96875,61.368751525878906,-14.700000762939453
1750928842945008600,7.421008544921875,176.0812530517578,61.42500305175781,-14.86875057220459
1750928842955008500,7.431008544921875,176.4375,61.14375305175781,-14.943750381469727
1750928842965008600,7.441008544921875,176.4375,60.806251525878906,-15.15000057220459
1750928842975008500,7.451008544921875,176.30625915527344,60.82500076293945,-15.225000381469727
1750928842985008600,7.461008544921875,176.49375915527344,60.63750076293945,-15.61875057220459
1750928842995008500,7.471008544921875,176.79376220703125,60.78750228881836,-15.693750381469727
1750928843005008600,7.481008544921875,177.09375,60.67500305175781,-15.787500381469727
1750928843015008500,7.491008544921875,177.2062530517578,60.41250228881836,-15.843750953674316
1750928843025008600,7.501008544921875,177.45001220703125,60.562503814697266,-15.52500057220459
1750928843035008500,7.511008544921875,177.54376220703125,60.82500076293945,-15.843750953674316
1750928843045008600,7.521008544921875,177.73126220703125,61.01250076293945,-15.956250190734863
1750928843055008500,7.531008544921875,178.01251220703125,61.05000305175781,-16.14375114440918
1750928843065008600,7.541008544921875,178.06875610351562,60.993751525878906,-16.162500381469727
1750928843075008500,7.551008544921875,178.18125915527344,60.91875076293945,-16.181251525878906
1750928843085008600,7.561008544921875,178.3125,60.88125228881836,-16.256250381469727
1750928843095008500,7.571008544921875,178.6125030517578,60.95625305175781,-16.59375
1750928843105008600,7.581008544921875,178.95001220703125,60.78750228881836,-16.912500381469727
1750928843115008500,7.591008544921875,178.83750915527344,60.656253814697266,-16.98750114440918
1750928843125008600,7.601008544921875,179.1750030517578,60.468753814697266,-17.193750381469727
1750928843135008500,7.611008544921875,179.47500610351562,60.20625305175781,-17.325000762939453
1750928843145008600,7.621008544921875,179.4375,60.150001525878906,-17.53125
1750928843155008500,7.631008544921875,179.70001220703125,60.337501525878906,-17.756250381469727
1750928843165008600,7.641008544921875,180.03750610351562,60.562503814697266,-17.943750381469727
1750928843175008500,7.651008544921875,180.13125610351562,60.50625228881836,-18.11250114440918
1750928843185008600,7.661008544921875,179.90625,60.63750076293945,-18.20625114440918
1750928843195008500,7.671008544921875,180.26251220703125,60.67500305175781,-18.150001525878906
1750928843205008600,7.681008544921875,180.5812530517578,61.031253814697266,-18.168750762939453
1750928843215008500,7.691008544921875,180.50625610351562,61.33125305175781,-18.168750762939453
1750928843225008600,7.701008544921875,180.90000915527344,61.57500076293945,-18.225000381469727
1750928843235008500,7.711008544921875,180.90000915527344,61.63125228881836,-18.337501525878906
1750928843245008600,7.721008544921875,180.82501220703125,61.743751525878906,-18.375
1750928843255008500,7.731008544921875,181.18125915527344,61.91250228881836,-18.48750114440918
1750928843265008600,7.741008544921875,181.18125915527344,61.968753814697266,-18.543750762939453
1750928843275008500,7.751008544921875,181.25625610351562,62.17500305175781,-18.600000381469727
1750928843285008600,7.761008544921875,181.16250610351562,62.17500305175781,-18.731250762939453
1750928843295008500,7.771008544921875,181.38751220703125,62.32500076293945,-18.900001525878906
1750928843305008600,7.781008544921875,181.6125030517578,62.47500228881836,-18.825000762939453
1750928843315008500,7.791008544921875,181.74375915527344,62.45625305175781,-19.03125
1750928843325008600,7.801008544921875,181.95001220703125,62.28750228881836,-19.443750381469727
1750928843335008500,7.811008544921875,181.74375915527344,62.437503814697266,-19.51875114440918
1750928843345008600,7.821008544921875,182.19375610351562,62.400001525878906,-19.59375
1750928843355008500,7.831008544921875,182.5500030517578,62.28750228881836,-19.762500762939453
1750928843365008600,7.841008544921875,182.70001220703125,62.17500305175781,-19.950000762939453
1750928843375008500,7.851008544921875,182.6437530517578,62.17500305175781,-20.118751525878906
1750928843385008600,7.861008544921875,182.5500030517578,62.28750228881836,-20.25
1750928843395008500,7.871008544921875,182.71875,62.41875076293945,-20.26875114440918
1750928843405008600,7.881008544921875,182.51251220703125,62.587501525878906,-20.15625
1750928843415008500,7.891008544921875,182.56875610351562,62.493751525878906,-20.231250762939453
1750928843425008600,7.901008544921875,182.625,62.587501525878906,-20.15625
1750928843435008500,7.911008544921875,182.51251220703125,62.64375305175781,-20.0625
1750928843445008600,7.921008544921875,182.51251220703125,62.83125305175781,-20.137500762939453
1750928843455008500,7.931008544921875,182.79376220703125,62.718753814697266,-20.118751525878906
1750928843465008600,7.941008544921875,183.0187530517578,62.64375305175781,-20.17500114440918
1750928843475008500,7.951008544921875,183,62.493751525878906,-20.100000381469727
1750928843485008600,7.961008544921875,183.24375915527344,62.70000076293945,-19.96875
1750928843495008500,7.971008544921875,183.3937530517578,62.85000228881836,-19.89375114440918
1750928843505008600,7.981008544921875,183.26251220703125,62.73750305175781,-20.006250381469727
1750928843515008500,7.991008544921875,183.35626220703125,62.79375076293945,-20.34375
1750928843525008600,8.001008544921875,183.65625,62.83125305175781,-20.26875114440918
1750928843535008500,8.011008544921875,183.78750610351562,62.775001525878906,-20.287500381469727
1750928843545008600,8.021008544921875,183.75,62.51250076293945,-20.400001525878906
1750928843555008500,8.031008544921875,183.84375,62.60625076293945,-20.400001525878906
1750928843565008600,8.041008544921874,184.01251220703125,62.41875076293945,-20.662500381469727
1750928843575008500,8.051008544921874,184.10626220703125,62.47500228881836,-20.681251525878906
1750928843585008600,8.061008544921876,184.125,62.70000076293945,-20.756250381469727
1750928843595008500,8.071008544921876,184.3312530517578,62.73750305175781,-20.568750381469727
1750928843605008600,8.081008544921875,184.21875,62.66250228881836,-20.34375
1750928843615008500,8.091008544921875,184.2375030517578,62.83125305175781,-20.4375
1750928843625008600,8.101008544921875,184.5187530517578,63.000003814697266,-20.45625114440918
1750928843635008500,8.111008544921875,184.59375,63.056251525878906,-20.55000114440918
1750928843645008600,8.121008544921875,184.59375,63.243751525878906,-20.512500762939453
1750928843655008500,8.131008544921874,184.93125915527344,63.000003814697266,-20.55000114440918
1750928843665008600,8.141008544921876,185.34375,62.85000228881836,-20.775001525878906
1750928843675008500,8.151008544921876,185.4562530517578,62.70000076293945,-20.756250381469727
1750928843685008600,8.161008544921875,185.77500915527344,62.718753814697266,-21.131250381469727
1750928843695008500,8.171008544921875,186.15000915527344,62.66250228881836,-21.30000114440918
1750928843705008600,8.181008544921875,186.16876220703125,62.55000305175781,-21.431251525878906
1750928843715008500,8.191008544921875,186.5625,62.38125228881836,-21.412500381469727
1750928843725008600,8.201008544921875,186.7687530517578,62.156253814697266,-21.525001525878906
1750928843735008500,8.211008544921874,186.7687530517578,62.17500305175781,-21.75
1750928843745008600,8.221008544921874,187.01251220703125,62.156253814697266,-21.975000381469727
1750928843755008500,8.231008544921876,186.9562530517578,62.00625228881836,-22.33125114440918
1750928843765008600,8.241008544921876,186.88125610351562,61.89375305175781,-22.51875114440918
1750928843775008500,8.251008544921875,186.91876220703125,61.743751525878906,-22.6875
1750928843785008600,8.261008544921875,187.25625610351562,61.687503814697266,-22.98750114440918
1750928843795008500,8.271008544921875,187.18125915527344,61.89375305175781,-23.043750762939453
1750928843805008600,8.281008544921875,187.06875610351562,61.89375305175781,-23.100000381469727
1750928843815008500,8.291008544921874,187.3125,61.98750305175781,-23.0625
1750928843825008600,8.301008544921874,187.1437530517578,62.17500305175781,-22.856250762939453
1750928843835008500,8.311008544921876,187.38751220703125,62.250003814697266,-22.875
1750928843845008600,8.321008544921876,187.63125610351562,62.23125076293945,-23.0625
1750928843855008500,8.331008544921875,187.59375,62.437503814697266,-23.137500762939453
1750928843865008600,8.341008544921875,187.53750610351562,62.51250076293945,-23.137500762939453
1750928843875008500,8.351008544921875,187.66876220703125,62.32500076293945,-23.475000381469727
1750928843885008600,8.361008544921875,188.04376220703125,62.212501525878906,-23.700000762939453
1750928843895008500,8.371008544921875,188.0625,62.23125076293945,-24.20625114440918
1750928843905008600,8.381008544921874,188.40000915527344,62.04375076293945,-24.562501907348633
1750928843915008500,8.391008544921876,188.71875,62.025001525878906,-24.637500762939453
1750928843925008600,8.401008544921876,188.96250915527344,61.91250228881836,-24.67500114440918
1750928843935008500,8.411008544921875,189.33750915527344,61.81875228881836,-24.731250762939453
1750928843945008600,8.421008544921875,189.5625,61.81875228881836,-24.918750762939453
1750928843955008500,8.431008544921875,189.80625915527344,61.76250076293945,-25.33125114440918
1750928843965008600,8.441008544921875,190.20001220703125,61.743751525878906,-25.61250114440918
1750928843975008500,8.451008544921875,190.5,61.70625305175781,-25.631250381469727
1750928843985008600,8.461008544921874,190.72500610351562,61.650001525878906,-25.89375114440918
1750928843995008500,8.471008544921874,190.66876220703125,61.837501525878906,-26.156251907348633
1750928844005008600,8.481008544921876,191.02500915527344,62.025001525878906,-26.493751525878906
1750928844015008500,8.491008544921876,191.11875915527344,62.13750076293945,-26.793750762939453
1750928844025008600,8.501008544921875,191.34375,62.47500228881836,-26.812501907348633
1750928844035008500,8.511008544921875,191.5500030517578,62.73750305175781,-27.037500381469727
1750928844045008600,8.521008544921875,191.4375,63.03750228881836,-27.262500762939453
1750928844055008500,8.531008544921875,191.38125610351562,63.150001525878906,-27.543750762939453
1750928844065008600,8.541008544921874,191.40000915527344,63.712501525878906,-27.600000381469727
1750928844075008500,8.551008544921874,191.40000915527344,63.82500076293945,-27.900001525878906
1750928844085008600,8.561008544921876,191.15625,64.06875610351562,-28.200000762939453
1750928844095008500,8.571008544921876,191.30625915527344,64.25625610351562,-28.387500762939453
1750928844105008600,8.581008544921875,191.0812530517578,64.29375457763672,-28.631250381469727
1750928844115008500,8.591008544921875,190.91250610351562,64.5,-28.556251525878906
1750928844125008600,8.601008544921875,191.02500915527344,64.57500457763672,-28.668750762939453
1750928844135008500,8.611008544921875,191.0812530517578,64.8375015258789,-28.743751525878906
1750928844145008600,8.621008544921875,191.25,64.78125,-28.837501525878906
1750928844155008500,8.631008544921874,191.3625030517578,65.0250015258789,-28.98750114440918
1750928844165008600,8.641008544921876,191.32501220703125,65.17500305175781,-28.98750114440918
1750928844175008500,8.651008544921876,191.11875915527344,65.34375,-29.006250381469727
1750928844185008600,8.661008544921875,191.3625030517578,65.45625305175781,-29.137500762939453
1750928844195008500,8.671008544921875,191.68125915527344,65.41875457763672,-29.400001525878906
1750928844205008600,8.681008544921875,191.75625610351562,65.56875610351562,-29.531251907348633
1750928844215008500,8.691008544921875,192.03750610351562,65.45625305175781,-29.55000114440918
1750928844225008600,8.701008544921875,192.09376525878906,65.51250457763672,-29.325000762939453
1750928844235008500,8.711008544921874,192.0187530517578,65.41875457763672,-29.193750381469727
1750928844245008600,8.721008544921874,192.16876220703125,65.4000015258789,-29.118751525878906
1750928844255008500,8.731008544921876,192.26251220703125,65.36250305175781,-29.025001525878906
1750928844265008600,8.741008544921876,192.24375915527344,65.19375610351562,-29.26875114440918
1750928844275008500,8.751008544921875,192.09376525878906,65.28750610351562,-28.98750114440918
1750928844285008600,8.761008544921875,191.94375610351562,65.1187515258789,-28.837501525878906
1750928844295008500,8.771008544921875,191.88751220703125,65.10000610351562,-29.025001525878906
1750928844305008600,8.781008544921875,191.70001220703125,64.89375305175781,-29.400001525878906
1750928844315008500,8.791008544921874,191.7375030517578,64.8375015258789,-29.325000762939453
1750928844325008600,8.801008544921874,191.86875915527344,64.6500015258789,-29.287500381469727
1750928844335008500,8.811008544921876,191.88751220703125,64.44375610351562,-29.381250381469727
1750928844345008600,8.821008544921876,192,64.38750457763672,-29.100000381469727
1750928844355008500,8.831008544921875,192.0187530517578,64.29375457763672,-29.193750381469727
1750928844365008600,8.841008544921875,192.2062530517578,64.23750305175781,-29.36250114440918
1750928844375008500,8.851008544921875,192.22500610351562,64.20000457763672,-29.156251907348633
1750928844385008600,8.861008544921875,192.22500610351562,64.20000457763672,-29.100000381469727
1750928844395008500,8.871008544921875,192.46876525878906,63.97500228881836,-29.26875114440918
1750928844405008600,8.881008544921874,192.37501525878906,63.993751525878906,-29.17500114440918
1750928844415008500,8.891008544921876,192.52500915527344,63.97500228881836,-29.475000381469727
1750928844425008600,8.901008544921876,192.56251525878906,63.750003814697266,-29.681251525878906
1750928844435008500,8.911008544921875,192.33750915527344,63.562503814697266,-29.55000114440918
1750928844445008600,8.921008544921875,192.35626220703125,63.45000076293945,-29.400001525878906
1750928844455008500,8.931008544921875,192.43125915527344,63.187503814697266,-29.45625114440918
1750928844465008600,8.941008544921875,192.5812530517578,63.093753814697266,-29.287500381469727
1750928844475008500,8.951008544921875,192.6750030517578,63.056251525878906,-29.17500114440918
1750928844485008600,8.961008544921874,192.6750030517578,62.493751525878906,-29.343751907348633
1750928844495008500,8.971008544921874,192.56251525878906,62.26875305175781,-28.80000114440918
1750928844505008600,8.981008544921876,192.3000030517578,62.250003814697266,-28.593751907348633
1750928844515008500,8.991008544921876,192.6750030517578,62.062503814697266,-28.70625114440918
1750928844525008600,9.001008544921875,192.6750030517578,61.95000076293945,-28.575000762939453
1750928844535008500,9.011008544921875,192.6750030517578,61.89375305175781,-28.443750381469727
1750928844545008600,9.021008544921875,192.6750030517578,61.76250076293945,-28.42500114440918
1750928844555008500,9.031008544921875,192.52500915527344,61.80000305175781,-28.443750381469727
1750928844565008600,9.041008544921874,192.71250915527344,62.025001525878906,-28.350000381469727
1750928844575008500,9.051008544921874,192.65626525878906,62.118751525878906,-28.462501525878906
1750928844585008600,9.061008544921876,192.73126220703125,62.212501525878906,-28.368751525878906
1750928844595008500,9.071008544921876,192.60000610351562,62.250003814697266,-28.256250381469727
1750928844605008600,9.081008544921875,192.46876525878906,62.212501525878906,-28.218751907348633
1750928844615008500,9.091008544921875,192.24375915527344,62.23125076293945,-28.218751907348633
1750928844625008600,9.101008544921875,192.05625915527344,62.28750228881836,-28.406251907348633
1750928844635008500,9.111008544921875,192.03750610351562,62.56875228881836,-28.293750762939453
1750928844645008600,9.121008544921875,191.9250030517578,62.681251525878906,-28.106250762939453
1750928844655008500,9.131008544921874,191.7375030517578,62.681251525878906,-28.05000114440918
1750928844665008600,9.141008544921876,191.56875610351562,62.587501525878906,-28.14375114440918
1750928844675008500,9.151008544921876,191.38125610351562,62.51250076293945,-28.14375114440918
1750928844685008600,9.161008544921875,191.38125610351562,62.64375305175781,-28.031251907348633
1750928844695008500,9.171008544921875,191.21250915527344,62.85000228881836,-27.76875114440918
1750928844705008600,9.181008544921875,191.10000610351562,62.83125305175781,-27.450000762939453
1750928844715008500,9.191008544921875,190.83750915527344,62.66250228881836,-27.39375114440918
1750928844725008600,9.201008544921875,190.3312530517578,62.718753814697266,-27.20625114440918
1750928844735008500,9.211008544921874,190.35000610351562,62.64375305175781,-27.262500762939453
1750928844745008600,9.221008544921874,190.48126220703125,62.83125305175781,-27.131250381469727
1750928844755008500,9.231008544921876,190.5,63.26250076293945,-27.20625114440918
1750928844765008600,9.241008544921876,190.27500915527344,63.281253814697266,-27.243751525878906
1750928844775008500,9.251008544921875,190.40625,63.281253814697266,-27.506250381469727
1750928844785008600,9.261008544921875,190.5187530517578,63.54375076293945,-27.693750381469727
1750928844795008500,9.271008544921875,190.59375,63.69375228881836,-27.843751907348633
1750928844805008600,9.281008544921875,190.78125,63.86250305175781,-27.993751525878906
1750928844815008500,9.291008544921874,190.85626220703125,64.21875,-28.106250762939453
1750928844825008600,9.301008544921874,191.04376220703125,64.42500305175781,-28.162500381469727
1750928844835008500,9.311008544921876,191.11875915527344,64.42500305175781,-28.012500762939453
1750928844845008600,9.321008544921876,191.23126220703125,64.5,-28.462501525878906
1750928844855008500,9.331008544921875,191.38125610351562,64.63125610351562,-28.743751525878906
1750928844865008600,9.341008544921875,191.77500915527344,64.76250457763672,-28.593751907348633
1750928844875008500,9.351008544921875,192.1125030517578,64.63125610351562,-28.650001525878906
1750928844885008600,9.361008544921875,192.52500915527344,64.59375,-29.137500762939453
1750928844895008500,9.371008544921875,192.80625915527344,64.51875305175781,-29.212501525878906
1750928844905008600,9.381008544921874,192.71250915527344,64.48125457763672,-29.381250381469727
1750928844915008500,9.391008544921876,192.82501220703125,64.44375610351562,-29.812501907348633
1750928844925008600,9.401008544921876,192.88125610351562,64.44375610351562,-29.700000762939453
1750928844935008500,9.411008544921875,193.20001220703125,64.23750305175781,-29.812501907348633
1750928844945008600,9.421008544921875,193.03126525878906,63.900001525878906,-30.356250762939453
1750928844955008500,9.431008544921875,193.03126525878906,63.750003814697266,-30.543750762939453
1750928844965008600,9.441008544921875,193.03126525878906,63.73125076293945,-30.375001907348633
1750928844975008500,9.451008544921875,192.7687530517578,63.73125076293945,-30.468751907348633
1750928844985008600,9.461008544921874,192.84376525878906,63.468753814697266,-30.506250381469727
1750928844995008500,9.471008544921874,193.08750915527344,63.39375305175781,-30.48750114440918
1750928845005008600,9.481008544921876,193.40626525878906,63.45000076293945,-30.58125114440918
1750928845015008500,9.491008544921876,193.3312530517578,63.337501525878906,-30.600000381469727
1750928845025008600,9.501008544921875,193.20001220703125,63.375003814697266,-30.562501907348633
1750928845035008500,9.511008544921875,193.0500030517578,63.618751525878906,-30.543750762939453
1750928845045008600,9.521008544921875,193.08750915527344,63.41250228881836,-30.787500381469727
1750928845055008500,9.531008544921875,193.2375030517578,63.468753814697266,-30.787500381469727
1750928845065008600,9.541008544921874,193.4250030517578,63.60000228881836,-31.031251907348633
1750928845075008500,9.551008544921874,193.46250915527344,63.48750305175781,-31.218751907348633
1750928845085008600,9.561008544921876,193.48126220703125,63.30000305175781,-31.481250762939453
1750928845095008500,9.571008544921876,193.72500610351562,63.525001525878906,-31.443750381469727
1750928845105008600,9.581008544921875,193.93125915527344,63.562503814697266,-31.33125114440918
1750928845115008500,9.591008544921875,194.30625915527344,63.50625228881836,-31.575000762939453
1750928845125008600,9.601008544921875,194.5500030517578,63.67500305175781,-31.51875114440918
1750928845135008500,9.611008544921875,194.68125915527344,63.63750076293945,-31.781251907348633
1750928845145008600,9.621008544921875,194.71876525878906,63.54375076293945,-31.80000114440918
1750928845155008500,9.631008544921874,194.81251525878906,63.525001525878906,-31.818750381469727
1750928845165008600,9.641008544921876,194.90626525878906,63.50625228881836,-32.04375076293945
1750928845175008500,9.651008544921876,194.96250915527344,63.63750076293945,-32.32500076293945
1750928845185008600,9.661008544921875,195.22500610351562,63.54375076293945,-32.66250228881836
1750928845195008500,9.671008544921875,195.2062530517578,63.431251525878906,-32.88750076293945
1750928845205008600,9.681008544921875,195.15000915527344,63.431251525878906,-33.375
1750928845215008500,9.691008544921875,195.46876525878906,63.35625076293945,-33.84375
1750928845225008600,9.701008544921875,195.52500915527344,63.22500228881836,-34.20000076293945
1750928845235008500,9.711008544921874,195.54376220703125,63.187503814697266,-34.275001525878906
1750928845245008600,9.721008544921874,195.75001525878906,63.187503814697266,-34.125
1750928845255008500,9.731008544921876,195.78750610351562,62.812503814697266,-34.35000228881836
1750928845265008600,9.741008544921876,195.93751525878906,62.70000076293945,-34.53750228881836
1750928845275008500,9.751008544921875,196.16250610351562,62.51250076293945,-34.650001525878906
1750928845285008600,9.761008544921875,196.10626220703125,62.38125228881836,-34.48125076293945
1750928845295008500,9.771008544921875,196.03126525878906,62.17500305175781,-34.25625228881836
1750928845305008600,9.781008544921875,196.35000610351562,61.98750305175781,-34.29375076293945
1750928845315008500,9.791008544921874,196.65000915527344,61.72500228881836,-34.61250305175781
1750928845325008600,9.801008544921874,196.63125610351562,61.44375228881836,-34.85625076293945
1750928845335008500,9.811008544921876,196.6125030517578,61.406253814697266,-34.931251525878906
1750928845345008600,9.821008544921876,196.87501525878906,61.35000228881836,-35.08125305175781
1750928845355008500,9.831008544921875,197.0812530517578,61.275001525878906,-35.41875076293945
1750928845365008600,9.841008544921875,197.60626220703125,61.087501525878906,-35.98125076293945
1750928845375008500,9.851008544921875,197.88751220703125,60.91875076293945,-36.618751525878906
1750928845385008600,9.861008544921875,198.3937530517578,60.937503814697266,-37.06875228881836
1750928845395008500,9.871008544921875,198.7687530517578,60.95625305175781,-37.33125305175781
1750928845405008600,9.881008544921874,198.88125610351562,60.82500076293945,-37.76250076293945
1750928845415008500,9.891008544921876,199.1437530517578,60.69375228881836,-38.04375076293945
1750928845425008600,9.901008544921876,199.12501525878906,60.54375076293945,-38.55000305175781
1750928845435008500,9.911008544921875,199.31251525878906,60.375003814697266,-38.79375076293945
1750928845445008600,9.921008544921875,199.5187530517578,60.337501525878906,-39.03750228881836
1750928845455008500,9.931008544921875,199.78126525878906,60.39375305175781,-39.056251525878906
1750928845465008600,9.941008544921875,199.57501220703125,60.31875228881836,-39.150001525878906
1750928845475008500,9.951008544921875,199.68751525878906,60.281253814697266,-39.67500305175781
1750928845485008600,9.961008544921874,200.11875915527344,60.281253814697266,-40.06875228881836
1750928845495008500,9.971008544921874,200.38125610351562,60.31875228881836,-40.35000228881836
1750928845505008600,9.981008544921876,200.60626220703125,60.35625076293945,-40.087501525878906
1750928845515008500,9.991008544921876,200.49375915527344,60.48750305175781,-40.06875228881836
1750928845525008600,10.001008544921875,200.19375610351562,60.431251525878906,-39.88125228881836
1750928845535008500,10.011008544921875,200.04376220703125,60.187503814697266,-39.67500305175781
1750928845545008600,10.021008544921875,199.95001220703125,60.22500228881836,-39.5625
1750928845555008500,10.031008544921875,199.8937530517578,60.26250076293945,-39.28125
1750928845565008600,10.041008544921874,199.6125030517578,60.13125228881836,-38.90625
1750928845575008500,10.051008544921874,199.44375610351562,60.093753814697266,-38.70000076293945
1750928845585008600,10.061008544921876,199.46250915527344,60.01875305175781,-38.85000228881836
1750928845595008500,10.071008544921876,199.40626525878906,59.98125076293945,-38.85000228881836
1750928845605008600,10.081008544921875,199.63125610351562,59.868751525878906,-38.94375228881836
1750928845615008500,10.091008544921875,199.7062530517578,59.92500305175781,-39.1875
1750928845625008600,10.101008544921875,200.06251525878906,59.88750076293945,-39.26250076293945
1750928845635008500,10.111008544921875,199.87501525878906,59.812503814697266,-39.13125228881836
1750928845645008600,10.121008544921875,200.1750030517578,59.812503814697266,-39.30000305175781
1750928845655008500,10.131008544921874,200.28750610351562,59.812503814697266,-39.48750305175781
1750928845665008600,10.141008544921876,200.21250915527344,59.812503814697266,-39.41250228881836
1750928845675008500,10.151008544921876,200.23126220703125,59.868751525878906,-39.431251525878906
1750928845685008600,10.161008544921875,200.53126525878906,59.85000228881836,-39.50625228881836
1750928845695008500,10.171008544921875,200.38125610351562,59.75625228881836,-39.431251525878906
1750928845705008600,10.181008544921875,200.40000915527344,59.66250228881836,-39.58125305175781
1750928845715008500,10.191008544921875,200.40000915527344,59.531253814697266,-39.69375228881836
1750928845725008600,10.201008544921875,200.32501220703125,59.625003814697266,-39.69375228881836
1750928845735008500,10.211008544921874,200.34376525878906,59.56875228881836,-39.78750228881836
1750928845745008600,10.221008544921874,200.3625030517578,59.56875228881836,-39.88125228881836
1750928845755008500,10.231008544921876,200.49375915527344,59.531253814697266,-39.900001525878906
1750928845765008600,10.241008544921876,200.15626525878906,59.47500228881836,-39.993751525878906
1750928845775008500,10.251008544921875,200.30625915527344,59.60625076293945,-40.125
1750928845785008600,10.261008544921875,200.0812530517578,59.60625076293945,-40.03125
1750928845795008500,10.271008544921875,200.23126220703125,59.812503814697266,-40.05000305175781
1750928845805008600,10.281008544921875,200.10000610351562,59.812503814697266,-40.03125
1750928845815008500,10.291008544921874,200.0812530517578,59.66250228881836,-40.10625076293945
1750928845825008600,10.301008544921874,200.1750030517578,59.79375076293945,-40.16250228881836
1750928845835008500,10.311008544921876,200.34376525878906,59.625003814697266,-40.29375076293945
1750928845845008600,10.321008544921876,200.51251220703125,59.51250076293945,-40.368751525878906
1750928845855008500,10.331008544921875,200.58750915527344,59.625003814697266,-40.44375228881836
1750928845865008600,10.341008544921875,200.70001220703125,59.70000076293945,-40.70625305175781
1750928845875008500,10.351008544921875,200.71876525878906,59.56875228881836,-40.98750305175781
1750928845885008600,10.361008544921875,200.7375030517578,59.531253814697266,-41.10000228881836
1750928845895008500,10.371008544921875,200.6437530517578,59.55000305175781,-41.08125305175781
1750928845905008600,10.381008544921874,200.41876220703125,59.493751525878906,-41.00625228881836
1750928845915008500,10.391008544921876,200.1750030517578,59.38125228881836,-40.96875
1750928845925008600,10.401008544921876,200.13751220703125,59.47500228881836,-40.95000076293945
1750928845935008500,10.411008544921875,200.2687530517578,59.19375228881836,-40.80000305175781
1750928845945008600,10.421008544921875,200.0812530517578,59.250003814697266,-40.78125
1750928845955008500,10.431008544921875,200.30625915527344,59.437503814697266,-40.80000305175781
1750928845965008600,10.441008544921875,200.4562530517578,59.812503814697266,-40.76250076293945
1750928845975008500,10.451008544921875,200.53126525878906,60.07500076293945,-40.81875228881836
1750928845985008600,10.461008544921874,200.60626220703125,60.11250305175781,-41.19375228881836
1750928845995008500,10.471008544921874,200.85000610351562,60.39375305175781,-41.36250305175781
1750928846005008600,10.481008544921876,201.09376525878906,60.750003814697266,-41.47500228881836
1750928846015008500,10.491008544921876,200.86875915527344,61.406253814697266,-41.775001525878906
1750928846025008600,10.501008544921875,200.98126220703125,61.48125076293945,-41.90625
1750928846035008500,10.511008544921875,200.7375030517578,61.61250305175781,-41.88750076293945
1750928846045008600,10.521008544921875,200.60626220703125,61.593753814697266,-42.150001525878906
1750928846055008500,10.531008544921875,200.4562530517578,61.556251525878906,-42.31875228881836
1750928846065008600,10.541008544921874,200.58750915527344,61.61250305175781,-42.45000076293945
1750928846075008500,10.551008544921874,200.53126525878906,61.91250228881836,-42.50625228881836
1750928846085008600,10.561008544921876,200.06251525878906,61.95000076293945,-42.46875
1750928846095008500,10.571008544921876,200.23126220703125,61.63125228881836,-42.46875
1750928846105008600,10.581008544921875,200.4562530517578,61.687503814697266,-42.41250228881836
1750928846115008500,10.591008544921875,200.49375915527344,61.66875076293945,-42.50625228881836
1750928846125008600,10.601008544921875,200.7375030517578,61.63125228881836,-42.58125305175781
1750928846135008500,10.611008544921875,201.00001525878906,61.66875076293945,-42.46875
1750928846145008600,10.621008544921875,201.1125030517578,61.61250305175781,-42.30000305175781
1750928846155008500,10.631008544921874,200.81251525878906,61.23750305175781,-42.375
1750928846165008600,10.641008544921876,201.2062530517578,61.125003814697266,-42.54375076293945
1750928846175008500,10.651008544921876,201.15000915527344,60.97500228881836,-42.48750305175781
1750928846185008600,10.661008544921875,201.0187530517578,60.82500076293945,-42.58125305175781
1750928846195008500,10.671008544921875,200.98126220703125,60.562503814697266,-42.78750228881836
1750928846205008600,10.681008544921875,200.96250915527344,60.375003814697266,-42.75
1750928846215008500,10.691008544921875,200.98126220703125,60.35625076293945,-42.84375
1750928846225008600,10.701008544921875,201.31875610351562,60.30000305175781,-42.86250305175781
1750928846235008500,10.711008544921874,201.56251525878906,60.35625076293945,-42.806251525878906
1750928846245008600,10.721008544921874,201.46876525878906,60.243751525878906,-42.88125228881836
1750928846255008500,10.731008544921876,201.61875915527344,60.30000305175781,-42.993751525878906
1750928846265008600,10.741008544921876,201.71250915527344,60.281253814697266,-43.16250228881836
1750928846275008500,10.751008544921875,201.78750610351562,60.30000305175781,-43.06875228881836
1750928846285008600,10.761008544921875,201.8625030517578,60.431251525878906,-43.20000076293945
1750928846295008500,10.771008544921875,201.88125610351562,60.375003814697266,-43.35000228881836
1750928846305008600,10.781008544921875,201.54376220703125,60.41250228881836,-43.61250305175781
1750928846315008500,10.791008544921874,201.69375610351562,60.468753814697266,-43.837501525878906
1750928846325008600,10.801008544921874,201.7687530517578,60.562503814697266,-43.95000076293945
1750928846335008500,10.811008544921876,201.65626525878906,60.67500305175781,-44.00625228881836
1750928846345008600,10.821008544921876,201.5812530517578,60.95625305175781,-44.08125305175781
1750928846355008500,10.831008544921875,201.65626525878906,61.087501525878906,-44.025001525878906
1750928846365008600,10.841008544921875,201.61875915527344,61.218753814697266,-44.0625
1750928846375008500,10.851008544921875,201.60000610351562,61.35000228881836,-44.118751525878906
1750928846385008600,10.861008544921875,201.60000610351562,61.500003814697266,-44.13750076293945
1750928846395008500,10.871008544921875,201.71250915527344,61.406253814697266,-44.38125228881836
1750928846405008600,10.881008544921874,201.88125610351562,61.42500305175781,-44.306251525878906
1750928846415008500,10.891008544921876,201.80625915527344,61.406253814697266,-44.64375305175781
1750928846425008600,10.901008544921876,201.71250915527344,61.20000076293945,-44.587501525878906
1750928846435008500,10.911008544921875,201.52500915527344,61.312503814697266,-44.83125305175781
1750928846445008600,10.921008544921875,201.45001220703125,61.181251525878906,-44.88750076293945
1750928846455008500,10.931008544921875,201.5812530517578,61.181251525878906,-44.8125
1750928846465008600,10.941008544921875,201.65626525878906,61.087501525878906,-44.90625
1750928846475008500,10.951008544921875,201.6750030517578,61.14375305175781,-44.56875228881836
1750928846485008600,10.961008544921874,201.3000030517578,61.087501525878906,-44.681251525878906
1750928846495008500,10.971008544921874,201.31875610351562,61.01250076293945,-44.8125
1750928846505008600,10.981008544921876,201.3937530517578,61.06875228881836,-45
1750928846515008500,10.991008544921876,201.4875030517578,60.91875076293945,-44.868751525878906
1750928846525008600,11.001008544921875,201.4875030517578,61.06875228881836,-44.88750076293945
1750928846535008500,11.011008544921875,201.43125915527344,60.993751525878906,-44.88750076293945
1750928846545008600,11.021008544921875,201.31875610351562,60.95625305175781,-44.98125076293945
1750928846555008500,11.031008544921875,201.2062530517578,60.97500228881836,-45.20625305175781
1750928846565008600,11.041008544921874,201.52500915527344,60.900001525878906,-45.20625305175781
1750928846575008500,11.051008544921874,201.63751220703125,60.993751525878906,-45.056251525878906
1750928846585008600,11.061008544921876,201.50625610351562,60.900001525878906,-44.98125076293945
1750928846595008500,11.071008544921876,201.50625610351562,61.031253814697266,-44.94375228881836
1750928846605008600,11.081008544921875,201.37501525878906,61.01250076293945,-44.75625228881836
1750928846615008500,11.091008544921875,201.26251220703125,61.10625076293945,-44.83125305175781
1750928846625008600,11.101008544921875,201.2062530517578,61.16250228881836,-44.493751525878906
1750928846635008500,11.111008544921875,201.00001525878906,61.23750305175781,-44.41875076293945
1750928846645008600,11.121008544921875,201.0187530517578,61.44375228881836,-44.56875228881836
1750928846655008500,11.131008544921874,201.0187530517578,61.33125305175781,-44.493751525878906
1750928846665008600,11.141008544921876,201.16876220703125,61.406253814697266,-44.45625305175781
1750928846675008500,11.151008544921876,201.28126525878906,61.312503814697266,-44.45625305175781
1750928846685008600,11.161008544921875,201.50625610351562,61.23750305175781,-44.45625305175781
1750928846695008500,11.171008544921875,201.80625915527344,61.181251525878906,-44.34375
1750928846705008600,11.181008544921875,201.82501220703125,60.993751525878906,-44.625
1750928846715008500,11.191008544921875,202.08750915527344,60.97500228881836,-44.41875076293945
1750928846725008600,11.201008544921875,201.7687530517578,60.76875305175781,-44.08125305175781
1750928846735008500,11.211008544921874,201.80625915527344,60.73125076293945,-44.15625
1750928846745008600,11.221008544921874,201.5812530517578,60.750003814697266,-44.10000228881836
1750928846755008500,11.231008544921876,201.4875030517578,60.656253814697266,-43.95000076293945
1750928846765008600,11.241008544921876,201.43125915527344,60.73125076293945,-43.95000076293945
1750928846775008500,11.251008544921875,201.22500610351562,60.63750076293945,-44.0625
1750928846785008600,11.261008544921875,201.33750915527344,60.78750228881836,-43.85625076293945
1750928846795008500,11.271008544921875,201.33750915527344,60.78750228881836,-43.85625076293945
1750928846805008600,11.281008544921875,201.4875030517578,60.86250305175781,-43.931251525878906
1750928846815008500,11.291008544921874,201.35626220703125,60.993751525878906,-43.743751525878906
1750928846825008600,11.301008544921874,201.41250610351562,60.843753814697266,-43.63125228881836
1750928846835008500,11.311008544921876,201.50625610351562,60.95625305175781,-43.70625305175781
1750928846845008600,11.321008544921876,201.31875610351562,60.806251525878906,-43.650001525878906
1750928846855008500,11.331008544921875,201.16876220703125,60.73125076293945,-43.556251525878906
1750928846865008600,11.341008544921875,201.13125610351562,60.60000228881836,-43.29375076293945
1750928846875008500,11.351008544921875,201.13125610351562,60.525001525878906,-43.48125076293945
1750928846885008600,11.361008544921875,201.22500610351562,60.60000228881836,-43.14375305175781
1750928846895008500,11.371008544921875,201.35626220703125,60.45000076293945,-42.95625305175781
1750928846905008600,11.381008544921874,201.56251525878906,60.45000076293945,-42.900001525878906
1750928846915008500,11.391008544921876,201.31875610351562,60.30000305175781,-42.84375
1750928846925008600,11.401008544921876,201.43125915527344,60.22500228881836,-42.60000228881836
1750928846935008500,11.411008544921875,201.5812530517578,60.31875228881836,-42.46875
1750928846945008600,11.421008544921875,201.46876525878906,60.281253814697266,-42.60000228881836
1750928846955008500,11.431008544921875,201.13125610351562,60.41250228881836,-42.13125228881836
1750928846965008600,11.441008544921875,200.77500915527344,60.16875076293945,-42.35625076293945
1750928846975008500,11.451008544921875,200.43751525878906,60.20625305175781,-42.26250076293945
1750928846985008600,11.461008544921874,200.2687530517578,60.243751525878906,-42.03750228881836
1750928846995008500,11.471008544921874,200.47500610351562,60.22500228881836,-41.868751525878906
1750928847005008600,11.481008544921876,200.1750030517578,60.243751525878906,-41.90625
1750928847015008500,11.491008544921876,200.23126220703125,60.11250305175781,-41.73750305175781
1750928847025008600,11.501008544921875,200.15626525878906,60.16875076293945,-41.36250305175781
1750928847035008500,11.511008544921875,200.4562530517578,59.94375228881836,-41.118751525878906
1750928847045008600,11.521008544921875,200.62501525878906,59.94375228881836,-40.6875
1750928847055008500,11.531008544921875,200.71876525878906,60.01875305175781,-40.368751525878906
1750928847065008600,11.541008544921874,200.49375915527344,59.94375228881836,-40.05000305175781
1750928847075008500,11.551008544921874,200.43751525878906,60.03750228881836,-39.78750228881836
1750928847085008600,11.561008544921876,200.5500030517578,60.056251525878906,-39.54375076293945
1750928847095008500,11.571008544921876,200.38125610351562,60.03750228881836,-39.31875228881836
1750928847105008600,11.581008544921875,200.0812530517578,60.01875305175781,-39.150001525878906
1750928847115008500,11.591008544921875,199.63125610351562,60.187503814697266,-38.962501525878906
1750928847125008600,11.601008544921875,199.40626525878906,60.468753814697266,-38.587501525878906
1750928847135008500,11.611008544921875,199.3312530517578,60.468753814697266,-38.47500228881836
1750928847145008600,11.621008544921875,199.55625915527344,60.69375228881836,-38.32500076293945
1750928847155008500,11.631008544921874,199.3312530517578,60.78750228881836,-38.10000228881836
1750928847165008600,11.641008544921876,199.38751220703125,60.750003814697266,-37.72500228881836
1750928847175008500,11.651008544921876,199.2375030517578,60.937503814697266,-37.42500305175781
1750928847185008600,11.661008544921875,199.31251525878906,61.01250076293945,-37.29375076293945
1750928847195008500,11.671008544921875,199.31251525878906,61.031253814697266,-37.16250228881836
1750928847205008600,11.681008544921875,199.3312530517578,60.750003814697266,-37.181251525878906
1750928847215008500,11.691008544921875,199.21876525878906,60.60000228881836,-37.10625076293945
1750928847225008600,11.701008544921875,199.0500030517578,60.35625076293945,-36.993751525878906
1750928847235008500,11.711008544921874,198.8625030517578,60.562503814697266,-36.712501525878906
1750928847245008600,11.721008544921874,198.65626525878906,60.50625228881836,-36.63750076293945
1750928847255008500,11.731008544921876,198.37501525878906,60.45000076293945,-36.58125305175781
1750928847265008600,11.741008544921876,198.4875030517578,60.41250228881836,-36.31875228881836
1750928847275008500,11.751008544921875,198.43125915527344,60.60000228881836,-36.48750305175781
1750928847285008600,11.761008544921875,198.3937530517578,60.712501525878906,-36.20625305175781
1750928847295008500,11.771008544921875,198.3937530517578,60.76875305175781,-35.90625
1750928847305008600,11.781008544921875,198.22500610351562,60.937503814697266,-35.85000228881836
1750928847315008500,11.791008544921874,198.28126525878906,60.60000228881836,-35.962501525878906
1750928847325008600,11.801008544921874,198.13125610351562,60.48750305175781,-35.98125076293945
1750928847335008500,11.811008544921876,198.13125610351562,60.562503814697266,-35.587501525878906
1750928847345008600,11.821008544921876,197.96250915527344,60.525001525878906,-35.56875228881836
1750928847355008500,11.831008544921875,197.88751220703125,60.187503814697266,-35.25
1750928847365008600,11.841008544921875,197.85000610351562,59.94375228881836,-35.118751525878906
1750928847375008500,11.851008544921875,197.85000610351562,59.868751525878906,-35.118751525878906
1750928847385008600,11.861008544921875,197.71876525878906,59.775001525878906,-34.76250076293945
1750928847395008500,11.871008544921875,197.43751525878906,59.85000228881836,-34.42500305175781
1750928847415008500,11.891008544921876,197.25001525878906,60.150001525878906,-33.993751525878906
1750928847425008600,11.901008544921876,197.23126220703125,60.22500228881836,-33.82500076293945
1750928847435008500,11.911008544921875,197.04376220703125,60.375003814697266,-33.73125076293945
1750928847445008600,11.921008544921875,196.74375915527344,60.48750305175781,-33.63750076293945
1750928847455008500,11.931008544921875,196.40626525878906,60.712501525878906,-33.30000305175781
1750928847465008600,11.941008544921875,196.0500030517578,60.73125076293945,-33.30000305175781
1750928847475008500,11.951008544921875,196.20001220703125,60.60000228881836,-33.243751525878906
1750928847485008600,11.961008544921874,196.25625610351562,60.618751525878906,-32.94375228881836
1750928847495008500,11.971008544921874,196.0500030517578,60.431251525878906,-32.85000228881836
1750928847505008600,11.981008544921876,195.90000915527344,60.431251525878906,-32.64375305175781
1750928847515008500,11.991008544921876,195.71250915527344,60.468753814697266,-32.32500076293945
1750928847525008600,12.001008544921875,195.60000610351562,60.48750305175781,-32.04375076293945
1750928847535008500,12.011008544921875,195.31875610351562,60.281253814697266,-31.89375114440918
1750928847545008600,12.021008544921875,195.3937530517578,60.39375305175781,-31.537500381469727
1750928847555008500,12.031008544921875,194.9250030517578,60.39375305175781,-31.275001525878906
1750928847565008600,12.041008544921874,194.58750915527344,60.45000076293945,-31.106250762939453
1750928847575008500,12.051008544921874,194.77500915527344,60.45000076293945,-31.012500762939453
1750928847585008600,12.061008544921876,194.75625610351562,60.468753814697266,-30.806251525878906
1750928847595008500,12.071008544921876,194.9250030517578,60.525001525878906,-30.58125114440918
1750928847605008600,12.081008544921875,194.90626525878906,60.63750076293945,-30.412500381469727
1750928847615008500,12.091008544921875,194.90626525878906,60.78750228881836,-30.281251907348633
1750928847625008600,12.101008544921875,194.60626220703125,60.58125305175781,-30.056251525878906
1750928847635008500,12.111008544921875,194.51251220703125,60.63750076293945,-30.150001525878906
1750928847645008600,12.121008544921875,194.25001525878906,60.58125305175781,-29.962501525878906
1750928847655008500,12.131008544921874,193.72500610351562,60.50625228881836,-29.83125114440918
1750928847665008600,12.141008544921876,193.27500915527344,60.525001525878906,-29.700000762939453
1750928847675008500,12.151008544921876,192.91876220703125,60.58125305175781,-29.64375114440918
1750928847685008600,12.161008544921875,192.69375610351562,60.712501525878906,-29.418750762939453
1750928847695008500,12.171008544921875,192.69375610351562,60.73125076293945,-29.250001907348633
1750928847705008600,12.181008544921875,192.6750030517578,60.88125228881836,-29.17500114440918
1750928847715008500,12.191008544921875,192.82501220703125,60.900001525878906,-28.856250762939453
1750928847725008600,12.201008544921875,192.90000915527344,60.937503814697266,-28.725000381469727
1750928847735008500,12.211008544921874,192.9562530517578,61.06875228881836,-28.312501907348633
1750928847745008600,12.221008544921874,192.88125610351562,61.14375305175781,-28.068750381469727
1750928847755008500,12.231008544921876,192.63751220703125,61.031253814697266,-27.58125114440918
1750928847765008600,12.241008544921876,192.54376220703125,60.937503814697266,-27.262500762939453
1750928847775008500,12.251008544921875,192.24375915527344,61.031253814697266,-26.868751525878906
1750928847785008600,12.261008544921875,192.26251220703125,60.97500228881836,-26.531251907348633
1750928847795008500,12.271008544921875,191.88751220703125,60.91875076293945,-26.212501525878906
1750928847805008600,12.281008544921875,191.58750915527344,60.91875076293945,-25.968751907348633
1750928847815008500,12.291008544921874,191.11875915527344,60.900001525878906,-25.818750381469727
1750928847825008600,12.301008544921874,190.83750915527344,60.97500228881836,-25.481250762939453
1750928847835008500,12.311008544921876,190.78125,61.01250076293945,-25.537500381469727
1750928847845008600,12.321008544921876,190.66876220703125,60.993751525878906,-25.556251525878906
1750928847855008500,12.331008544921875,190.3312530517578,60.937503814697266,-25.481250762939453
1750928847865008600,12.341008544921875,190.0500030517578,60.91875076293945,-25.556251525878906
1750928847875008500,12.351008544921875,189.7687530517578,61.01250076293945,-25.537500381469727
1750928847885008600,12.361008544921875,189.31875610351562,61.087501525878906,-25.293750762939453
1750928847895008500,12.371008544921875,189.35626220703125,61.087501525878906,-25.218751907348633
1750928847905008600,12.381008544921874,189.09375,61.06875228881836,-25.087501525878906
1750928847915008500,12.391008544921876,188.70001220703125,60.88125228881836,-24.937501907348633
1750928847925008600,12.401008544921876,188.4375,60.86250305175781,-24.618751525878906
1750928847935008500,12.411008544921875,188.28750610351562,60.843753814697266,-24.356250762939453
1750928847945008600,12.421008544921875,188.02500915527344,61.125003814697266,-23.92500114440918
1750928847955008500,12.431008544921875,187.78125,61.125003814697266,-23.325000762939453
1750928847965008600,12.441008544921875,187.95001220703125,61.10625076293945,-23.137500762939453
1750928847975008500,12.451008544921875,187.63125610351562,61.14375305175781,-23.006250381469727
1750928847985008600,12.461008544921874,187.76251220703125,61.031253814697266,-22.875
1750928847995008500,12.471008544921874,187.72500610351562,61.29375076293945,-22.537500381469727
1750928848005008600,12.481008544921876,187.3312530517578,61.48125076293945,-22.481250762939453
1750928848015008500,12.491008544921876,187.125,61.593753814697266,-22.61250114440918
1750928848025008600,12.501008544921875,186.97500610351562,61.406253814697266,-22.668750762939453
1750928848035008500,12.511008544921875,187.03125,61.53750228881836,-22.725000381469727
1750928848045008600,12.521008544921875,186.80625915527344,61.593753814697266,-22.70625114440918
1750928848055008500,12.531008544921875,186.69375610351562,61.48125076293945,-22.725000381469727
1750928848065008600,12.541008544921874,186.3937530517578,61.500003814697266,-22.875
1750928848075008500,12.551008544921874,186.375,61.48125076293945,-22.912500381469727
1750928848085008600,12.561008544921876,186.65625,61.556251525878906,-22.856250762939453
1750928848095008500,12.571008544921876,186.82501220703125,61.556251525878906,-22.40625
1750928848105008600,12.581008544921875,186.78750610351562,61.72500228881836,-22.200000762939453
1750928848115008500,12.591008544921875,186.9375,61.66875076293945,-22.350000381469727
1750928848125008600,12.601008544921875,187.0500030517578,61.61250305175781,-22.350000381469727
1750928848135008500,12.611008544921875,187.08750915527344,61.89375305175781,-22.23750114440918
1750928848145008600,12.621008544921875,187.20001220703125,61.743751525878906,-22.181251525878906
1750928848155008500,12.631008544921874,187.20001220703125,61.66875076293945,-22.200000762939453
1750928848165008600,12.641008544921876,187.06875610351562,61.462501525878906,-22.293750762939453
1750928848175008500,12.651008544921876,187.01251220703125,61.687503814697266,-22.51875114440918
1750928848185008600,12.661008544921875,187.10626220703125,61.53750228881836,-22.818750381469727
1750928848195008500,12.671008544921875,187.01251220703125,61.51875305175781,-22.537500381469727
1750928848205008600,12.681008544921875,186.88125610351562,61.81875228881836,-22.443750381469727
1750928848215008500,12.691008544921875,186.82501220703125,61.89375305175781,-22.14375114440918
1750928848225008600,12.701008544921875,186.88125610351562,62.38125228881836,-21.900001525878906
1750928848235008500,12.711008544921874,186.73126220703125,62.55000305175781,-21.881250381469727
1750928848245008600,12.721008544921874,186.46875,62.73750305175781,-21.75
1750928848255008500,12.731008544921876,186.41250610351562,62.493751525878906,-21.881250381469727
1750928848265008600,12.741008544921876,186.33750915527344,62.812503814697266,-21.787500381469727
1750928848275008500,12.751008544921875,186.26251220703125,62.868751525878906,-22.068750381469727
1750928848285008600,12.761008544921875,186.2062530517578,62.718753814697266,-22.162500381469727
1750928848295008500,12.771008544921875,186.22500610351562,62.64375305175781,-22.537500381469727
1750928848305008600,12.781008544921875,186.05625915527344,62.343753814697266,-22.59375
1750928848315008500,12.791008544921874,186.33750915527344,62.23125076293945,-22.668750762939453
1750928848325008600,12.801008544921874,186.63751220703125,62.04375076293945,-22.70625114440918
1750928848335008500,12.811008544921876,186.61875915527344,62.062503814697266,-22.51875114440918
1750928848345008600,12.821008544921876,186.60000610351562,61.781253814697266,-22.575000762939453
1750928848355008500,12.831008544921875,186.5625,61.85625076293945,-22.368751525878906
1750928848365008600,12.841008544921875,186.5625,61.81875228881836,-22.275001525878906
1750928848375008500,12.851008544921875,186.33750915527344,61.53750228881836,-22.350000381469727
1750928848385008600,12.861008544921875,186.43125915527344,61.462501525878906,-22.256250381469727
1750928848395008500,12.871008544921875,186.09375,61.500003814697266,-22.068750381469727
1750928848405008600,12.881008544921874,185.7375030517578,61.42500305175781,-21.918750762939453
1750928848415008500,12.891008544921876,185.58750915527344,61.38750076293945,-21.693750381469727
1750928848425008600,12.901008544921876,185.47500610351562,61.35000228881836,-21.337501525878906
1750928848435008500,12.911008544921875,185.2687530517578,61.33125305175781,-21.30000114440918
1750928848445008600,12.921008544921875,185.21250915527344,61.181251525878906,-21.262500762939453
1750928848455008500,12.931008544921875,185.23126220703125,61.087501525878906,-20.83125114440918
1750928848465008600,12.941008544921875,185.00625610351562,60.993751525878906,-20.90625
1750928848475008500,12.951008544921875,184.74375915527344,60.86250305175781,-21.01875114440918
1750928848485008600,12.961008544921874,184.6875,60.78750228881836,-20.943750381469727
1750928848495008500,12.971008544921874,184.57501220703125,60.69375228881836,-20.943750381469727
1750928848505008600,12.981008544921876,184.48126220703125,60.48750305175781,-20.868751525878906
1750928848515008500,12.991008544921876,184.21875,60.31875228881836,-20.64375114440918
1750928848525008600,13.001008544921875,183.99375915527344,60.281253814697266,-20.4375
1750928848535008500,13.011008544921875,183.82501220703125,60.375003814697266,-20.26875114440918
1750928848545008600,13.021008544921875,183.41250610351562,60.58125305175781,-19.61250114440918
1750928848555008500,13.031008544921875,183.3937530517578,60.54375076293945,-19.256250381469727
1750928848565008600,13.041008544921874,183.13125610351562,60.60000228881836,-19.256250381469727
1750928848575008500,13.051008544921874,182.77500915527344,60.58125305175781,-19.106250762939453
1750928848585008600,13.061008544921876,182.5500030517578,60.67500305175781,-18.86250114440918
1750928848595008500,13.071008544921876,182.28750610351562,60.73125076293945,-18.618751525878906
1750928848605008600,13.081008544921875,181.93125915527344,60.95625305175781,-18.506250381469727
1750928848615008500,13.091008544921875,181.66876220703125,61.14375305175781,-18.356250762939453
1750928848625008600,13.101008544921875,181.5,61.181251525878906,-18.600000381469727
1750928848635008500,13.111008544921875,181.16250610351562,61.181251525878906,-18.48750114440918
1750928848645008600,13.121008544921875,180.80625915527344,61.42500305175781,-18.1875
1750928848655008500,13.131008544921874,180.3000030517578,61.66875076293945,-17.90625
1750928848665008600,13.141008544921876,179.68125915527344,62.062503814697266,-17.73750114440918
1750928848675008500,13.151008544921876,179.21250915527344,62.13750076293945,-17.700000762939453
1750928848685008600,13.161008544921875,178.875,62.23125076293945,-17.325000762939453
1750928848695008500,13.171008544921875,178.53750610351562,62.51250076293945,-17.100000381469727
1750928848705008600,13.181008544921875,178.2375030517578,62.73750305175781,-16.668750762939453
1750928848715008500,13.191008544921875,178.03125,63.07500076293945,-16.537500381469727
1750928848725008600,13.201008544921875,177.6750030517578,63.26250076293945,-16.350000381469727
1750928848735008500,13.211008544921874,177.5812530517578,63.30000305175781,-16.23750114440918
1750928848745008600,13.221008544921874,177.35626220703125,63.22500228881836,-16.14375114440918
1750928848755008500,13.231008544921876,176.9250030517578,63.20625305175781,-15.750000953674316
1750928848765008600,13.241008544921876,176.4375,62.906253814697266,-15.787500381469727
1750928848775008500,13.251008544921875,176.11875915527344,62.75625228881836,-15.843750953674316
1750928848785008600,13.261008544921875,175.81875610351562,62.775001525878906,-15.918750762939453
1750928848795008500,13.271008544921875,175.3312530517578,62.66250228881836,-15.750000953674316
1750928848805008600,13.281008544921875,175.16250610351562,62.493751525878906,-15.750000953674316
1750928848815008500,13.291008544921874,174.71250915527344,62.41875076293945,-15.637500762939453
1750928848825008600,13.301008544921874,174.50625610351562,62.45625305175781,-15.562500953674316
1750928848835008500,13.311008544921876,174.3937530517578,62.531253814697266,-15.581250190734863
