time,seconds_elapsed,z,y,x
1750935420030260500,0.140260498046875,0.16062068939208984,-0.03370846062898636,0.06704121828079224
1750935420077322200,0.187322265625,0.06070423126220703,-0.06417758017778397,0.017487764358520508
1750935420124384000,0.234384033203125,0.06077098846435547,0.022271350026130676,-0.004930257797241211
1750935420152620800,0.262620849609375,0.028776168823242188,0.0239344984292984,-0.0457729697227478
1750935420171445500,0.281445556640625,0.03421783447265625,0.0318867564201355,-0.050470173358917236
1750935420190270200,0.300270263671875,0.06688880920410156,0.03420534357428551,0.04906773567199707
1750935420209095000,0.319094970703125,0.03480052947998047,0.013791423290967941,0.049322426319122314
1750935420227919600,0.337919677734375,0.08620166778564453,0.0030943788588047028,-0.017045438289642334
1750935420246744300,0.356744384765625,0.08887195587158203,0.025939079001545906,0.012108862400054932
1750935420265568800,0.37556884765625,0.03721332550048828,0.015301576815545559,-0.032077670097351074
1750935420284393500,0.3943935546875,-0.014888763427734375,0.0024658339098095894,-0.006864070892333984
1750935420303218200,0.41321826171875,0.0870523452758789,-0.016575241461396217,0.03127390146255493
1750935420322043000,0.43204296875,0.0870046615600586,0.004994215443730354,0.06728881597518921
1750935420340867600,0.45086767578125,0.0132293701171875,-0.08624950796365738,0.031868934631347656
1750935420359692300,0.4696923828125,-0.1354074478149414,-0.030582062900066376,-0.07121741771697998
1750935420378517000,0.48851708984375,-0.035925865173339844,-0.028198368847370148,0.003648042678833008
1750935420397341700,0.507341796875,-0.039275169372558594,-0.009886976331472397,0.0009265542030334473
1750935420416166400,0.52616650390625,-0.010066032409667969,0.005371227860450745,0.004885733127593994
1750935420434990800,0.544990966796875,0.04606819152832031,-0.021016156300902367,0.03894698619842529
1750935420453815600,0.563815673828125,0.024825096130371094,0.02423095703125,0.02659386396408081
1750935420472640300,0.58264013671875,0.14538955688476562,0.018480392172932625,0.022472023963928223
1750935420491465000,0.60146484375,0.07013702392578125,0.026097847148776054,0.025404751300811768
1750935420510289700,0.62028955078125,-0.0669260025024414,0.03746412321925163,-0.06237196922302246
1750935420529114400,0.6391142578125,0.04256629943847656,0.007986575365066528,-0.03134584426879883
1750935420547939000,0.65793896484375,0.073211669921875,0.0038305819034576416,0.0329742431640625
1750935420566763800,0.676763671875,-0.003662109375,-0.015343666076660156,0.00043708086013793945
1750935420585588500,0.69558837890625,0.014815330505371094,-0.0015052622184157372,0.006082057952880859
1750935420604413200,0.7144130859375,-0.018372535705566406,-0.037375472486019135,0.0033167004585266113
1750935420623238000,0.73323779296875,-0.02289104461669922,-0.015780754387378693,0.030196428298950195
1750935420642062600,0.7520625,-0.0035991668701171875,-0.0532231368124485,0.019337475299835205
1750935420660887000,0.770886962890625,0.02385711669921875,-0.026857152581214905,0.03463536500930786
1750935420679711700,0.789711669921875,-0.023352622985839844,0.02151639200747013,0.03979891538619995
1750935420707948800,0.81794873046875,0.032470703125,0.019898993894457817,-0.03094702959060669
1750935420726773500,0.8367734375,0.045754432678222656,0.013200782239437103,-0.05414164066314697
1750935420745598200,0.85559814453125,0.0015439987182617188,-0.0013258084654808044,-0.01992553472518921
1750935420764423000,0.8744228515625,0.03355216979980469,-0.022740518674254417,0.03385442495346069
1750935420783247600,0.89324755859375,-0.014431953430175781,-0.021869594231247902,-0.02885955572128296
1750935420802072300,0.912072265625,0.04178810119628906,-0.04473042115569115,0.02392023801803589
1750935420820897000,0.93089697265625,0.15668678283691406,-0.04104769229888916,0.022419095039367676
1750935420839721700,0.9497216796875,-0.011788368225097656,-0.02310768887400627,0.01045137643814087
1750935420858546400,0.96854638671875,-0.1467571258544922,-0.01268770918250084,0.005072295665740967
1750935420877371100,0.98737109375,-0.1368846893310547,-0.0006269253790378571,-0.003724217414855957
1750935420896195800,1.00619580078125,0.03553581237792969,0.010320093482732773,0.0344427227973938
1750935420915020500,1.0250205078125,0.08515262603759766,0.03807547315955162,0.03179454803466797
1750935420933845200,1.04384521484375,-0.11035633087158203,0.00037132948637008667,-0.05566096305847168
1750935420952669700,1.062669677734375,-0.02279949188232422,-0.02529372274875641,-0.029068291187286377
1750935420971494400,1.081494384765625,0.2760467529296875,0.015713371336460114,-0.0041574835777282715
1750935420990319000,1.100319091796875,0.18216991424560547,0.018548261374235153,0.06344705820083618
1750935421009143800,1.119143798828125,-0.04412269592285156,-0.001130327582359314,-0.009555578231811523
1750935421027968500,1.137968505859375,-0.07000541687011719,0.02219535782933235,-0.05389517545700073
1750935421046793200,1.156793212890625,0.025411605834960938,-0.0004848986864089966,-0.0452197790145874
1750935421065618000,1.175617919921875,0.029294967651367188,-0.013650275766849518,-0.057143449783325195
1750935421084442600,1.194442626953125,0.055319786071777344,-0.000344887375831604,-0.030876219272613525
1750935421103267300,1.213267333984375,0.048401832580566406,0.01197611540555954,0.063823401927948
1750935421122092000,1.232092041015625,-0.04270744323730469,-0.0002536401152610779,0.2104523777961731
1750935421140916700,1.250916748046875,-0.14427852630615234,0.04795099422335625,0.2835909128189087
1750935421159741400,1.269741455078125,0.0089569091796875,0.012493662536144257,0.14884501695632935
1750935421178566100,1.288566162109375,-0.24559688568115234,-0.005370505154132843,0.1352958083152771
1750935421197390800,1.307390869140625,-0.13043212890625,0.07492563128471375,0.020858049392700195
1750935421216215600,1.326215576171875,-0.010712623596191406,0.12994204461574554,-0.18213188648223877
1750935421235040300,1.345040283203125,-0.027576446533203125,0.05297481641173363,-0.2492539882659912
1750935421253865000,1.363864990234375,0.12194347381591797,0.029521171003580093,-0.2245609164237976
1750935421272689700,1.382689697265625,0.21515655517578125,0.03893623873591423,-0.12700319290161133
1750935421291514400,1.401514404296875,0.32939720153808594,-0.031616196036338806,-0.05717635154724121
1750935421310339000,1.420339111328125,0.2478017807006836,-0.02079014852643013,-0.04060935974121094
1750935421329163800,1.439163818359375,0.0021696090698242188,-0.041794270277023315,-0.16808366775512695
1750935421347988500,1.457988525390625,-0.015074729919433594,-0.0271543487906456,-0.1732262372970581
1750935421366813200,1.476813232421875,0.07563591003417969,-0.013102948665618896,0.09253805875778198
1750935421385638000,1.495637939453125,-0.13224124908447266,-0.02925579994916916,0.08832871913909912
1750935421404462600,1.514462646484375,-0.1645221710205078,-0.08907130360603333,0.044512271881103516
1750935421423287000,1.533287109375,-0.07024669647216797,-0.10997737944126129,-0.10916370153427124
1750935421442111700,1.55211181640625,0.04022026062011719,-0.05522774159908295,0.08404642343521118
1750935421460936400,1.5709365234375,0.016358375549316406,-0.08512279391288757,0.046355485916137695
1750935421479761200,1.58976123046875,0.007923126220703125,-0.038111984729766846,0.07084405422210693
1750935421498585900,1.6085859375,0.009614944458007812,-0.08214075863361359,-0.03113114833831787
1750935421517410600,1.62741064453125,-0.054622650146484375,-0.18113191425800323,-0.06001013517379761
1750935421536235300,1.6462353515625,0.03327751159667969,-0.06974057853221893,-0.08346009254455566
1750935421555060000,1.66506005859375,0.043745994567871094,0.05982072651386261,-0.03357142210006714
1750935421573884700,1.683884765625,0.12314510345458984,0.040737926959991455,-0.025712132453918457
1750935421592709400,1.70270947265625,0.041718482971191406,0.06709267199039459,0.06374698877334595
1750935421611534000,1.7215341796875,-0.11919116973876953,0.064827561378479,0.09682714939117432
1750935421630358800,1.74035888671875,-0.15755558013916016,0.0669657438993454,0.08559465408325195
1750935421649183500,1.75918359375,0.10158538818359375,0.07900750637054443,0.03907644748687744
1750935421668008200,1.77800830078125,-0.009234428405761719,0.03313612937927246,-0.05445575714111328
1750935421686833000,1.7968330078125,0.03699493408203125,0.027945399284362793,-0.1578540802001953
1750935421705657600,1.81565771484375,0.0985879898071289,0.05760890245437622,0.02680683135986328
1750935421724482300,1.834482421875,-0.018873214721679688,0.018336698412895203,0.0186002254486084
1750935421743307000,1.85330712890625,0.012493133544921875,0.027525149285793304,0.06473350524902344
1750935421762131700,1.872131591796875,0.1275186538696289,0.021905608475208282,0.04530972242355347
1750935421780956400,1.890956298828125,0.13675308227539062,-0.00005409121513366699,-0.0012233853340148926
1750935421799781000,1.909781005859375,-0.04168701171875,-0.032494038343429565,0.008225083351135254
1750935421818605800,1.928605712890625,-0.05113410949707031,-0.029267311096191406,-0.012303411960601807
1750935421837430500,1.947430419921875,-0.0846710205078125,-0.05508900433778763,0.04375654458999634
1750935421856255200,1.966255126953125,0.056328773498535156,-0.07353200018405914,-0.022491872310638428
1750935421875080000,1.985079833984375,0.08021259307861328,-0.030645914375782013,0.011709868907928467
1750935421893904600,2.003904541015625,0.1178579330444336,0.03438801318407059,0.04077237844467163
1750935421912729300,2.022729248046875,-0.036777496337890625,0.02758112922310829,0.04205954074859619
1750935421931554000,2.041553955078125,-0.12490177154541016,0.019053079187870026,-0.017455101013183594
1750935421950378800,2.060378662109375,-0.15487194061279297,0.0183415487408638,-0.018691182136535645
1750935421969203500,2.079203369140625,-0.1688690185546875,0.0252087339758873,0.005912125110626221
1750935421988028200,2.098028076171875,0.027765274047851562,0.016549795866012573,0.11170929670333862
1750935422006852900,2.116852783203125,0.17590045928955078,0.002198249101638794,0.08303403854370117
1750935422025677600,2.135677490234375,0.029840469360351562,0.00884273275732994,-0.0002779960632324219
1750935422044502300,2.154502197265625,-0.05469703674316406,0.01069246232509613,-0.05367839336395264
1750935422063327000,2.173326904296875,0.021276473999023438,-0.010586276650428772,0.010400533676147461
1750935422082151700,2.192151611328125,-0.01222991943359375,-0.013161372393369675,-0.0004317164421081543
1750935422100976400,2.210976318359375,-0.012063026428222656,0.016387533396482468,0.00879436731338501
1750935422119801000,2.229801025390625,0.07106208801269531,0.006069764494895935,0.006835877895355225
1750935422138625800,2.248625732421875,0.022764205932617188,0.03630610182881355,-0.03612619638442993
1750935422157450500,2.267450439453125,0.1203908920288086,-0.016563057899475098,-0.039936602115631104
1750935422176275200,2.286275146484375,0.008843421936035156,0.019387509673833847,-0.022542119026184082
1750935422195099600,2.305099609375,-0.057224273681640625,-0.02118239551782608,-0.03143841028213501
1750935422213924400,2.32392431640625,-0.06051921844482422,-0.06609838455915451,-0.009157657623291016
1750935422232749300,2.342749267578125,0.0024309158325195312,0.04792756214737892,0.029891788959503174
1750935422251573800,2.36157373046875,0.08536434173583984,0.02431200072169304,0.013733208179473877
1750935422270398500,2.3803984375,-0.019678115844726562,-0.037530072033405304,-0.0616796612739563
1750935422289223200,2.39922314453125,0.09651756286621094,0.09102184325456619,-0.02179640531539917
1750935422308048000,2.4180478515625,0.07965660095214844,0.015947747975587845,0.11055809259414673
1750935422326872600,2.43687255859375,0.0671854019165039,0.016276750713586807,0.009614408016204834
1750935422345697300,2.455697265625,-0.1170501708984375,0.03614175319671631,-0.049148380756378174
1750935422364522000,2.47452197265625,-0.1509265899658203,0.0009617507457733154,0.01623988151550293
1750935422383346700,2.4933466796875,-0.038155555725097656,-0.04869329184293747,0.03900325298309326
1750935422411583700,2.521583740234375,0.08997058868408203,-0.02367449179291725,0.16200977563858032
1750935422430408400,2.540408447265625,0.14276885986328125,-0.02567325159907341,0.07093065977096558
1750935422449233200,2.559233154296875,-0.03415203094482422,-0.05050059035420418,-0.07255613803863525
1750935422468057900,2.578057861328125,-0.19607925415039062,-0.0405740812420845,-0.1032673716545105
1750935422486882600,2.596882568359375,-0.12834548950195312,-0.023088522255420685,-0.05733555555343628
1750935422505707300,2.615707275390625,0.012011528015136719,-0.0234975665807724,0.03634488582611084
1750935422524532000,2.634531982421875,0.12341880798339844,-0.012326020747423172,0.025656461715698242
1750935422543356700,2.653356689453125,0.0957937240600586,0.007983408868312836,-0.01216965913772583
1750935422562181400,2.672181396484375,0.06476497650146484,0.020415019243955612,-0.08748143911361694
1750935422581006000,2.691006103515625,-0.049086570739746094,0.018617641180753708,-0.07327896356582642
1750935422599830800,2.709830810546875,0.059635162353515625,0.008938770741224289,-0.001835644245147705
1750935422618655500,2.728655517578125,0.010610580444335938,0.05444392189383507,0.07379788160324097
1750935422637480200,2.747480224609375,0.05241203308105469,0.02898319438099861,0.022707581520080566
1750935422656305000,2.766304931640625,-0.019439697265625,0.03153363615274429,0.01210707426071167
1750935422675129600,2.785129638671875,0.004652976989746094,0.0003526359796524048,-0.03991645574569702
1750935422693954300,2.803954345703125,-0.013747215270996094,0.0013360828161239624,0.04307311773300171
1750935422712779000,2.822779052734375,0.06621265411376953,-0.013313569128513336,0.05194801092147827
1750935422731603500,2.841603515625,0.0044193267822265625,-0.03544638678431511,0.03544110059738159
1750935422750428200,2.86042822265625,-0.004650115966796875,-0.030513372272253036,-0.01873105764389038
1750935422778665200,2.888665283203125,-0.05319786071777344,-0.03457934781908989,-0.07282322645187378
1750935422797490000,2.907489990234375,-0.014337539672851562,-0.014520872384309769,-0.07477694749832153
1750935422816314600,2.926314697265625,0.04662036895751953,0.016707733273506165,0.030000686645507812
1750935422835139300,2.945139404296875,0.03599357604980469,0.0016861259937286377,0.07752150297164917
1750935422853964000,2.963964111328125,0.01634502410888672,0.013202141970396042,0.03737282752990723
1750935422872788700,2.982788818359375,0.03012847900390625,0.023223813623189926,-0.019380629062652588
1750935422891613400,3.001613525390625,-0.040932655334472656,0.03915492072701454,-0.06573063135147095
1750935422910438100,3.020438232421875,0.03574943542480469,0.02995939925312996,-0.03843587636947632
1750935422929262800,3.039262939453125,-0.006768226623535156,0.016015101224184036,0.013093411922454834
1750935422948087600,3.058087646484375,-0.006293296813964844,0.008403338491916656,0.028485536575317383
1750935422966912300,3.076912353515625,-0.009775161743164062,0.024101030081510544,-0.03244483470916748
1750935422985737000,3.095737060546875,-0.0088958740234375,-0.011859491467475891,0.009846508502960205
1750935423004561700,3.114561767578125,-0.048923492431640625,-0.04794173687696457,0.002116382122039795
1750935423023386400,3.133386474609375,0.0013628005981445312,-0.008958261460065842,0.008408129215240479
1750935423042211000,3.152211181640625,0.11025619506835938,0.07667098194360733,0.10773634910583496
1750935423061035800,3.171035888671875,-0.011974334716796875,-0.10284171998500824,0.03176623582839966
1750935423079860200,3.189860107421875,-0.022571563720703125,-0.045745402574539185,-0.16016370058059692
1750935423098685000,3.208684814453125,0.03640270233154297,0.039917491376399994,-0.1061699390411377
1750935423117509600,3.227509521484375,-0.04867076873779297,0.039240024983882904,0.028949856758117676
1750935423136334300,3.246334228515625,-0.08852767944335938,0.027026690542697906,-0.0899081826210022
1750935423155159000,3.265158935546875,-0.03431224822998047,0.041829708963632584,0.03905951976776123
1750935423173983700,3.283983642578125,0.14021587371826172,0.008177205920219421,0.18801867961883545
1750935423192808400,3.302808349609375,0.047272682189941406,-0.0018381699919700623,0.05745744705200195
1750935423211633200,3.321633056640625,-0.027665138244628906,-0.044912755489349365,-0.07933789491653442
1750935423230457900,3.340457763671875,-0.04610729217529297,-0.05595250427722931,-0.062428057193756104
1750935423249282600,3.359282470703125,-0.10608386993408203,0.008074723184108734,-0.02124655246734619
1750935423268107300,3.378107177734375,-0.08026313781738281,-0.010415688157081604,0.09702885150909424
1750935423286932000,3.396931884765625,-0.09646415710449219,-0.01642271876335144,-0.006183624267578125
1750935423305756400,3.41575634765625,-0.02804851531982422,-0.0901150181889534,-0.10008233785629272
1750935423324581000,3.4345810546875,-0.014057159423828125,-0.004680171608924866,-0.01939624547958374
1750935423343405800,3.45340576171875,0.13065052032470703,-0.016069956123828888,-0.024512112140655518
1750935423362230500,3.47223046875,0.1677398681640625,-0.017967313528060913,0.05107438564300537
1750935423381055200,3.49105517578125,0.0676565170288086,-0.05378327518701553,-0.06989067792892456
1750935423399880000,3.5098798828125,-0.093780517578125,-0.017133429646492004,-0.09490692615509033
1750935423418704600,3.52870458984375,0.030379295349121094,0.026957295835018158,0.06844818592071533
1750935423437529300,3.547529296875,0.06258106231689453,0.05064566805958748,0.05475848913192749
1750935423456354000,3.56635400390625,0.005517005920410156,0.05684571713209152,0.05137228965759277
1750935423475178800,3.5851787109375,0.20876312255859375,0.05057688429951668,0.1288135051727295
1750935423494003500,3.60400341796875,0.2998075485229492,0.023767918348312378,0.3020108938217163
1750935423512828200,3.622828125,-0.07509422302246094,0.07303007692098618,-0.144423246383667
1750935423531652600,3.641652587890625,-0.3137693405151367,0.0459347665309906,-0.3956958055496216
1750935423550477300,3.660477294921875,-0.34220027923583984,-0.13205179572105408,-0.3044280409812927
1750935423569302000,3.679302001953125,-0.4518318176269531,-0.0627356693148613,-0.15747052431106567
1750935423588126700,3.698126708984375,-0.1313648223876953,-0.0705939382314682,0.25261974334716797
1750935423606951400,3.716951416015625,0.15158939361572266,-0.06969156861305237,0.14041662216186523
1750935423625776000,3.735776123046875,0.19540882110595703,-0.0359407402575016,-0.16249126195907593
1750935423644600800,3.754600830078125,0.38017845153808594,-0.15979212522506714,0.09853696823120117
1750935423663425500,3.773425537109375,0.1382589340209961,0.15346384048461914,0.24526047706604004
1750935423682250200,3.792250244140625,0.34345054626464844,-0.024983957409858704,0.020061731338500977
1750935423701075000,3.811074951171875,0.2411947250366211,-0.12059080600738525,-0.18712562322616577
1750935423719899600,3.829899658203125,-0.06926918029785156,-0.03589118272066116,-0.21188539266586304
1750935423738724000,3.84872412109375,-0.27770519256591797,0.08673365414142609,-0.10163760185241699
1750935423757548800,3.867548828125,-0.042435646057128906,0.13990047574043274,0.26774096488952637
1750935423776373500,3.88637353515625,0.013432502746582031,-0.03910815715789795,0.06284666061401367
1750935423795198200,3.9051982421875,-0.09148883819580078,-0.279642790555954,-0.23292499780654907
1750935423814023000,3.92402294921875,-0.3197345733642578,-0.061273716390132904,-0.21582883596420288
1750935423832847600,3.94284765625,-0.22205162048339844,0.0003617480397224426,0.3185150623321533
1750935423851672300,3.96167236328125,-0.1778087615966797,0.044432368129491806,0.26839613914489746
1750935423870497000,3.9804970703125,0.004847526550292969,-0.016276244074106216,0.154180645942688
1750935423889321700,3.99932177734375,0.19076251983642578,0.05608953535556793,-0.020804405212402344
1750935423908146200,4.018146240234375,0.1131887435913086,0.13230754435062408,-0.052687883377075195
1750935423926971000,4.036970947265625,0.05612373352050781,0.046896740794181824,-0.045619845390319824
1750935423945795600,4.055795654296875,0.02038288116455078,0.166841059923172,-0.03881394863128662
1750935423964620300,4.074620361328125,0.1672840118408203,0.040180377662181854,0.24531185626983643
1750935423983445000,4.093445068359375,-0.07909488677978516,0.0576862171292305,-0.06883794069290161
1750935424002269700,4.112269775390625,-0.19518661499023438,0.2330816388130188,-0.04325646162033081
1750935424021094400,4.131094482421875,0.032996177673339844,-0.026159144937992096,0.24197471141815186
1750935424039919000,4.149919189453125,-0.020517349243164062,-0.09009233862161636,-0.19970721006393433
1750935424058743600,4.16874365234375,-0.05682849884033203,-0.24779602885246277,-0.12778633832931519
1750935424077568300,4.187568359375,0.16566085815429688,-0.1364225149154663,-0.17892742156982422
1750935424096393000,4.20639306640625,0.0283355712890625,-0.03173838555812836,0.16085851192474365
1750935424115217700,4.2252177734375,0.16284942626953125,-0.03716113418340683,0.2064657211303711
1750935424134042400,4.24404248046875,0.25949954986572266,-0.026936855167150497,-0.029354214668273926
1750935424152867000,4.2628671875,0.14634227752685547,-0.08538254350423813,-0.057027220726013184
1750935424171691800,4.28169189453125,0.01589679718017578,-0.10201165080070496,-0.3330546021461487
1750935424190516500,4.3005166015625,-0.07452201843261719,0.039359815418720245,-0.021997570991516113
1750935424209341000,4.3193408203125,-0.20211410522460938,0.09665118157863617,-0.00026869773864746094
1750935424228165600,4.33816552734375,-0.07535648345947266,0.1210755705833435,0.23835647106170654
1750935424246990300,4.356990234375,0.0439910888671875,0.1882304698228836,0.2544436454772949
1750935424265815000,4.37581494140625,-0.03924751281738281,0.19549494981765747,-0.005636692047119141
1750935424284639700,4.3946396484375,0.006636619567871094,0.093910351395607,0.05037713050842285
1750935424303464400,4.41346435546875,0.2346038818359375,0.15255703032016754,0.16997122764587402
1750935424322289200,4.4322890625,0.03567314147949219,0.0945412814617157,0.02534031867980957
1750935424341113600,4.451113525390625,-0.08575439453125,-0.036292802542448044,-0.19360774755477905
1750935424359938300,4.469938232421875,-0.11203479766845703,-0.08427797257900238,-0.1930122971534729
1750935424378763000,4.488762939453125,-0.045889854431152344,-0.06583057343959808,-0.061127424240112305
1750935424397587700,4.507587646484375,-0.031360626220703125,-0.044923312962055206,0.09640586376190186
1750935424416412400,4.526412353515625,-0.03800773620605469,-0.05601771920919418,0.06758475303649902
1750935424435237000,4.545237060546875,0.048018455505371094,-0.11840417981147766,-0.025970816612243652
1750935424454061600,4.5640615234375,-0.024717330932617188,-0.10641553997993469,-0.08677220344543457
1750935424472886300,4.58288623046875,-0.025673866271972656,-0.0037200450897216797,-0.011882543563842773
1750935424491711000,4.6017109375,0.011776924133300781,0.07471779733896255,0.08648037910461426
1750935424510535700,4.62053564453125,0.03500938415527344,0.07751809060573578,0.11218273639678955
1750935424529360400,4.6393603515625,-0.045764923095703125,0.04081111401319504,-0.038101792335510254
1750935424548185000,4.65818505859375,-0.02557373046875,0.013892792165279388,-0.03820693492889404
1750935424567009500,4.677009521484375,0.07221412658691406,-0.030138887465000153,-0.020060420036315918
1750935424585834200,4.695834228515625,-0.047664642333984375,-0.01196199283003807,-0.09349572658538818
1750935424604659000,4.714658935546875,-0.013822555541992188,-0.008356399834156036,-0.0031288862228393555
1750935424623483600,4.733483642578125,0.1256561279296875,0.004783894866704941,0.06067252159118652
1750935424642308400,4.752308349609375,0.20511722564697266,0.013057675212621689,0.07082724571228027
1750935424661133000,4.771133056640625,0.10450172424316406,0.019478581845760345,0.02987539768218994
1750935424679957500,4.78995751953125,-0.048356056213378906,-0.01060773991048336,-0.046560049057006836
1750935424698782200,4.8087822265625,-0.25207042694091797,-0.022186338901519775,-0.16782516241073608
1750935424717607000,4.82760693359375,-0.13730716705322266,-0.003361497074365616,-0.03830254077911377
1750935424736431600,4.846431640625,-0.012119293212890625,0.02014557644724846,0.15067589282989502
1750935424755256300,4.86525634765625,0.10839653015136719,-0.03208283334970474,0.12851810455322266
1750935424774081000,4.8840810546875,-0.021859169006347656,-0.013471968472003937,0.061054348945617676
1750935424792905700,4.90290576171875,0.07280254364013672,0.01027737371623516,-0.01095736026763916
1750935424811730200,4.921730224609375,0.05290699005126953,0.0332438200712204,0.025454998016357422
1750935424830555000,4.940554931640625,-0.04646015167236328,0.042892567813396454,-0.10892683267593384
1750935424849379600,4.959379638671875,-0.058452606201171875,-0.0042319633066654205,-0.12658590078353882
1750935424868204300,4.978204345703125,0.02639007568359375,0.008768405765295029,-0.0010557174682617188
1750935424887029000,4.997029052734375,0.09461784362792969,0.020475473254919052,0.014373421669006348
1750935424905853400,5.015853515625,-0.014814376831054688,-0.025999166071414948,0.028962254524230957
1750935424924678100,5.03467822265625,-0.018118858337402344,-0.01759757474064827,-0.007550716400146484
1750935424943502800,5.0535029296875,-0.0813741683959961,0.027988959103822708,-0.05148029327392578
1750935424962327600,5.07232763671875,0.04240131378173828,0.012829745188355446,0.0848093032836914
1750935424981152300,5.09115234375,-0.004677772521972656,0.019459161907434464,0.05456233024597168
1750935424999976700,5.109976806640625,0.07069110870361328,0.010861579328775406,-0.030422687530517578
1750935425018801400,5.128801513671875,0.030277252197265625,0.027069857344031334,0.003650069236755371
1750935425037626000,5.147626220703125,-0.0633544921875,-0.012985222041606903,-0.034287333488464355
1750935425056450800,5.166450927734375,0.07009220123291016,-0.001641295850276947,0.012393593788146973
1750935425075275500,5.185275634765625,0.02148914337158203,-0.018373513594269753,-0.00999295711517334
1750935425094100000,5.204099853515625,-0.05817985534667969,-0.03672276437282562,-0.08338820934295654
1750935425112924700,5.222924560546875,-0.047196388244628906,0.0006737951189279556,-0.0015448331832885742
1750935425131749400,5.241749267578125,-0.06890869140625,-0.02540130726993084,-0.02867710590362549
1750935425150574000,5.260573974609375,0.08238697052001953,-0.01653917506337166,0.04105722904205322
1750935425169398800,5.279398681640625,-0.03230476379394531,0.0035575665533542633,0.0642397403717041
1750935425188223200,5.29822314453125,-0.021149635314941406,0.0010228231549263,0.02284371852874756
1750935425207048000,5.3170478515625,0.02724170684814453,0.0028213588520884514,0.03016960620880127
1750935425225872600,5.33587255859375,-0.034531593322753906,0.009229371324181557,0.007691621780395508
1750935425244697300,5.354697265625,-0.02817058563232422,-0.024007169529795647,-0.03195846080780029
1750935425263521800,5.373521728515625,-0.008131027221679688,0.03995296731591225,-0.007368922233581543
1750935425282346500,5.392346435546875,0.03456878662109375,-0.021104611456394196,-0.038324713706970215
1750935425301171200,5.411171142578125,-0.031057357788085938,-0.0406075045466423,-0.10721254348754883
1750935425319996000,5.429995849609375,0.012716293334960938,-0.020027833059430122,0.03666126728057861
1750935425338820600,5.448820556640625,0.09306716918945312,0.006205953191965818,0.12878084182739258
1750935425357645000,5.46764501953125,0.09119224548339844,0.0045853545889258385,0.041216135025024414
1750935425376469800,5.4864697265625,-0.0642251968383789,-0.00973796471953392,-0.07141852378845215
1750935425395294500,5.50529443359375,-0.11198139190673828,-0.03784778714179993,-0.12793052196502686
1750935425414119200,5.524119140625,-0.041108131408691406,-0.007802094332873821,0.02759695053100586
1750935425432943600,5.542943603515625,-0.018754005432128906,0.026521680876612663,0.06592309474945068
1750935425451768300,5.561768310546875,-0.006411552429199219,0.00030945055186748505,-0.05040419101715088
1750935425470593000,5.580593017578125,0.14894580841064453,0.012181217782199383,-0.06703567504882812
1750935425489417700,5.599417724609375,0.07985973358154297,0.02855667471885681,-0.02273380756378174
1750935425508242400,5.618242431640625,0.11823558807373047,0.026630479842424393,0.01647341251373291
1750935425527067000,5.63706689453125,0.1101531982421875,0.004819838330149651,0.03072655200958252
1750935425545891600,5.6558916015625,-0.15510177612304688,-0.07121609151363373,-0.07000696659088135
1750935425564716300,5.67471630859375,-0.16042232513427734,-0.02032395638525486,-0.08164000511169434
1750935425583541000,5.693541015625,0.17261409759521484,0.05565204098820686,-0.04479360580444336
1750935425602365400,5.712365478515625,0.09924888610839844,0.028301648795604706,0.05059194564819336
1750935425621190100,5.731190185546875,-0.03251457214355469,-0.0003222835948690772,-0.019533276557922363
1750935425640014800,5.750014892578125,-0.005092620849609375,0.03617347776889801,-0.13220477104187012
1750935425658839600,5.768839599609375,0.05792427062988281,0.04413584619760513,-0.04319155216217041
1750935425677664000,5.7876640625,-0.02700328826904297,-0.02091730199754238,0.06466197967529297
1750935425696488700,5.80648876953125,-0.2819852828979492,-0.12333865463733673,0.08477401733398438
1750935425715313400,5.8253134765625,0.058913230895996094,-0.03126360848546028,-0.05762147903442383
1750935425734138000,5.84413818359375,0.06952857971191406,-0.0022219540551304817,-0.05599558353424072
1750935425752962600,5.862962646484375,-0.08507823944091797,-0.012263044714927673,-0.08346998691558838
1750935425771787300,5.881787353515625,0.0007905960083007812,-0.0231816153973341,-0.05816853046417236
1750935425790612000,5.900612060546875,0.14348220825195312,0.004501376301050186,0.04952430725097656
1750935425809436700,5.919436767578125,0.17572689056396484,-0.016321970149874687,-0.013138532638549805
1750935425828261000,5.93826123046875,-0.07784271240234375,-0.08695352077484131,-0.025643587112426758
1750935425847085800,5.9570859375,-0.06115150451660156,-0.014817729592323303,-0.01129770278930664
1750935425865910500,5.97591064453125,-0.024934768676757812,0.005427569150924683,0.03714466094970703
1750935425884735200,5.9947353515625,0.15192413330078125,0.004640698432922363,0.07933807373046875
1750935425903559700,6.0135595703125,0.24985885620117188,0.018161684274673462,0.025632381439208984
1750935425922384400,6.03238427734375,0.2100677490234375,-0.00573614239692688,-0.11677861213684082
1750935425941209000,6.051208984375,0.28613948822021484,0.07967782020568848,-0.2659158706665039
1750935425960033800,6.07003369140625,-0.0682058334350586,-0.04242853820323944,-0.2366325855255127
1750935425978858200,6.088858154296875,-0.19411659240722656,-0.11048851907253265,0.01827216148376465
1750935425997683000,6.107682861328125,-0.26298999786376953,0.0400753915309906,0.06488561630249023
1750935426016507600,6.126507568359375,-0.2047271728515625,-0.037883199751377106,-0.023737192153930664
1750935426035332000,6.14533203125,-0.27039527893066406,-0.020967796444892883,-0.15461397171020508
1750935426054156800,6.16415673828125,-0.10676383972167969,0.047071993350982666,-0.10534453392028809
1750935426072981500,6.1829814453125,0.05739021301269531,-0.037890076637268066,0.05681133270263672
1750935426091806200,6.20180615234375,0.13567543029785156,-0.016124621033668518,0.12653851509094238
1750935426110630700,6.220630615234375,-0.33626651763916016,-0.08842448890209198,0.13739228248596191
1750935426129455400,6.239455322265625,-0.18834972381591797,-0.07109393179416656,-0.16068649291992188
1750935426148280000,6.258280029296875,0.07623863220214844,-0.044892434030771255,-0.12657475471496582
1750935426167104800,6.277104736328125,-0.23056697845458984,-0.004988193511962891,0.03244733810424805
1750935426185929200,6.29592919921875,-0.8483848571777344,0.2720266580581665,0.2168712615966797
1750935426204754000,6.31475390625,-1.1443066596984863,-0.4632415175437927,0.6355619430541992
1750935426223578600,6.33357861328125,-0.9957551956176758,-0.05216284096240997,-0.35623908042907715
1750935426242403000,6.352403076171875,-0.15197372436523438,-0.08721747994422913,-0.686173677444458
1750935426261227800,6.371227783203125,0.2038288116455078,0.12769895792007446,-0.3420524597167969
1750935426280052500,6.390052490234375,0.31472110748291016,0.1234445869922638,0.1462545394897461
1750935426298877200,6.408877197265625,0.2795267105102539,0.14096719026565552,0.5043655633926392
1750935426317701600,6.42770166015625,-0.050505638122558594,0.07616634666919708,0.4124410152435303
1750935426336526300,6.4465263671875,-0.08104515075683594,0.02259288728237152,0.08011674880981445
1750935426355351000,6.46535107421875,0.0868844985961914,-0.06808766722679138,-0.018175840377807617
1750935426374175500,6.484175537109375,0.1759653091430664,0.02144530415534973,0.10002905130386353
1750935426393000200,6.503000244140625,-0.42803955078125,0.21533752977848053,0.2890012860298157
1750935426411825000,6.521824951171875,0.25915050506591797,0.011948108673095703,0.41084522008895874
1750935426430649300,6.5406494140625,-0.6828584671020508,-0.10417461395263672,0.21260148286819458
1750935426449474000,6.55947412109375,-1.1477527618408203,-0.200788214802742,0.051502712070941925
1750935426468298800,6.578298828125,0.7938671112060547,-0.12975065410137177,0.03302249312400818
1750935426487123200,6.597123291015625,0.6068229675292969,0.12447889149188995,0.1237838864326477
1750935426505948000,6.615947998046875,0.10324668884277344,0.004270642995834351,-0.09245765209197998
1750935426524772600,6.634772705078125,0.1300344467163086,0.03210064768791199,-0.22840023040771484
1750935426543597300,6.653597412109375,0.42142486572265625,0.05226188898086548,0.04680144786834717
1750935426562421800,6.672421875,0.6867094039916992,0.07834364473819733,0.1778966188430786
1750935426581246500,6.69124658203125,0.44968414306640625,0.07506293058395386,0.24993836879730225
1750935426609483300,6.719483154296875,-0.04754638671875,0.08534993976354599,0.12317860126495361
1750935426628308000,6.738307861328125,-0.8058223724365234,0.05313287675380707,0.2247929573059082
1750935426647132700,6.757132568359375,-0.9471092224121094,-0.08283624798059464,0.10106801986694336
1750935426665957400,6.775957275390625,0.5737380981445312,-0.08352622389793396,-0.08013153076171875
1750935426684781800,6.79478173828125,0.9811382293701172,0.16622412204742432,0.29798436164855957
1750935426703606500,6.8136064453125,1.026937484741211,0.19040463864803314,0.3108022212982178
1750935426722431200,6.83243115234375,0.945683479309082,0.0950009822845459,0.3197805881500244
1750935426741255700,6.851255615234375,0.7274713516235352,0.16694381833076477,0.13895153999328613
1750935426760080400,6.870080322265625,0.8005638122558594,0.09809598326683044,0.013802051544189453
1750935426778905000,6.888905029296875,-0.043701171875,0.11352937668561935,-0.18459177017211914
1750935426797729500,6.9077294921875,-0.2665748596191406,0.15765275061130524,-0.14931797981262207
1750935426816554200,6.92655419921875,-0.1868419647216797,0.17477458715438843,0.06346392631530762
1750935426835379000,6.94537890625,0.4848308563232422,0.19530583918094635,0.059601664543151855
1750935426854203400,6.964203369140625,0.1783599853515625,0.07912329584360123,-0.15680217742919922
1750935426873028000,6.983028076171875,-0.41698741912841797,0.026988178491592407,-0.2384716272354126
1750935426891852800,7.001852783203125,-0.27163219451904297,-0.006278547458350658,-0.35450685024261475
1750935426910677200,7.02067724609375,0.14333534240722656,0.08620480448007584,-0.2820994555950165
1750935426929502000,7.039501953125,0.42862510681152344,0.22026672959327698,-0.20019693672657013
1750935426948326700,7.05832666015625,0.2743864059448242,0.11018366366624832,-0.1743519902229309
1750935426967151000,7.077151123046875,0.018037796020507812,-0.08229123055934906,-0.24205857515335083
1750935426985975800,7.095975830078125,-0.27423095703125,-0.12140289694070816,-0.2299540638923645
1750935427004800500,7.114800537109375,0.047415733337402344,-0.021030891686677933,-0.38615238666534424
1750935427023625000,7.133625,-0.18976211547851562,-0.09587177634239197,-0.18965578079223633
1750935427042449700,7.15244970703125,-0.29786109924316406,-0.10076463222503662,-0.1697530746459961
1750935427061274400,7.1712744140625,-0.12862491607666016,-0.027139469981193542,-0.26128506660461426
1750935427080098800,7.190098876953125,-0.01888751983642578,-0.014051772654056549,-0.0675811767578125
1750935427098923500,7.208923583984375,-0.1331958770751953,-0.1648879200220108,0.23132705688476562
1750935427117748000,7.227748046875,0.012174606323242188,0.029539011418819427,-0.09723591804504395
1750935427136572700,7.24657275390625,0.10914134979248047,-0.05831678956747055,-0.1168135404586792
1750935427155397400,7.2653974609375,0.3826780319213867,0.0404142402112484,-0.0391232967376709
1750935427174221800,7.284221923828125,-0.22420883178710938,0.08946110308170319,0.16130280494689941
1750935427193046500,7.303046630859375,-0.29555702209472656,-0.06989137828350067,-0.03241300582885742
1750935427211871200,7.321871337890625,-0.3981761932373047,-0.04583316296339035,-0.3187093734741211
1750935427230695700,7.34069580078125,-0.035091400146484375,-0.05332586169242859,-0.19595646858215332
1750935427249520400,7.359520263671875,-0.42761993408203125,-0.03990476578474045,-0.05574941635131836
1750935427268345000,7.378344970703125,-0.3843708038330078,-0.1758769154548645,0.0691215991973877
1750935427287168000,7.39716796875,-0.2980012893676758,-0.08255597949028015,0.035706281661987305
1750935427305992700,7.41599267578125,-0.21563148498535156,-0.07424377650022507,-0.14284944534301758
1750935427324817400,7.4348173828125,-0.41171932220458984,-0.1912580132484436,-0.22217750549316406
1750935427343641900,7.453641845703125,-0.08426856994628906,-0.0878138542175293,-0.28767454624176025
1750935427362466600,7.472466552734375,0.33195018768310547,0.01351100578904152,-0.008584856986999512
1750935427381291300,7.491291259765625,0.33489513397216797,0.08362005650997162,0.2951067090034485
1750935427400115700,7.51011572265625,-0.3724346160888672,-0.00900038331747055,0.39580273628234863
1750935427418940400,7.5289404296875,-0.11862373352050781,0.029981955885887146,0.21747508645057678
1750935427437764900,7.547764892578125,0.23256492614746094,0.013304725289344788,0.06089004874229431
1750935427456589600,7.566589599609375,0.08658409118652344,0.08525434136390686,0.19726018607616425
1750935427475414300,7.585414306640625,-0.23967933654785156,0.10467906296253204,0.20886477828025818
1750935427494238700,7.60423876953125,0.07021522521972656,0.04102342575788498,0.16104289889335632
1750935427513063400,7.6230634765625,0.3468437194824219,0.11900143325328827,0.25127458572387695
1750935427531887900,7.641887939453125,0.1977100372314453,0.10753566026687622,0.357785165309906
1750935427550712600,7.660712646484375,0.384033203125,0.05009260028600693,0.2936628460884094
1750935427569537300,7.679537353515625,-0.1325082778930664,0.017221741378307343,0.14213746786117554
1750935427588361700,7.69836181640625,0.41089534759521484,0.12405215948820114,0.1612352728843689
1750935427607186400,7.7171865234375,0.2807760238647461,0.14364200830459595,0.1596386432647705
1750935427626011100,7.73601123046875,0.18721675872802734,0.07350032031536102,-0.002209901809692383
1750935427644835600,7.754835693359375,-0.05324554443359375,0.06196357309818268,-0.06336504220962524
1750935427663660300,7.773660400390625,0.4085254669189453,0.09263598918914795,-0.019226789474487305
1750935427682484700,7.792484619140625,0.7755928039550781,0.27050259709358215,0.10533827543258667
1750935427701309400,7.811309326171875,0.7820606231689453,0.30824148654937744,0.011033773422241211
1750935427720134100,7.830134033203125,0.24414539337158203,0.40154510736465454,-0.10640290379524231
1750935427738958600,7.84895849609375,-0.486785888671875,0.05217526853084564,-0.2341557890176773
1750935427757783300,7.867783203125,-0.40259647369384766,-0.04216614365577698,-0.24111652374267578
1750935427776608000,7.88660791015625,-0.08540916442871094,-0.13004308938980103,-0.1070595383644104
1750935427795432400,7.905432373046875,0.2297382354736328,-0.1876005232334137,0.0127488374710083
1750935427814257200,7.924257080078125,0.9703817367553711,-0.015580922365188599,-0.24581646919250488
1750935427833081600,7.94308154296875,0.3622903823852539,0.00983002781867981,-0.25090229511260986
1750935427851906300,7.96190625,-0.2500925064086914,0.003963544964790344,-0.34939849376678467
1750935427870730800,7.980730712890625,0.04745769500732422,-0.1365598738193512,-0.4593210220336914
1750935427889555500,7.999555419921875,0.1867351531982422,-0.0001857280731201172,-0.5313565731048584
1750935427908380200,8.018380126953126,-0.10200214385986328,0.002416089177131653,-0.39251041412353516
1750935427927204600,8.03720458984375,-0.5294551849365234,-0.18139219284057617,0.2824888229370117
1750935427946029300,8.056029296875,0.0052509307861328125,0.10779822617769241,-0.1547842025756836
1750935427964853800,8.074853759765626,-0.11716651916503906,-0.012446386739611626,-0.1147162914276123
1750935427983678500,8.093678466796876,-0.06763458251953125,-0.13798129558563232,-0.07817769050598145
1750935428002503000,8.1125029296875,-0.2161245346069336,-0.17077039182186127,-0.05129384994506836
1750935428021327600,8.13132763671875,-0.5140542984008789,-0.06829198449850082,-0.15072870254516602
1750935428040152300,8.15015234375,-0.5456066131591797,-0.11293165385723114,-0.17032408714294434
1750935428058976800,8.168976806640625,-0.6436491012573242,-0.18845196068286896,-0.010084867477416992
1750935428077801500,8.187801513671875,-0.5816144943237305,-0.28091275691986084,0.12798810005187988
1750935428096626000,8.2066259765625,-0.07888317108154297,-0.10439759492874146,-0.09664607048034668
1750935428115450600,8.22545068359375,-0.3284482955932617,-0.030349329113960266,-0.1046903133392334
1750935428134275300,8.244275390625,-0.21557044982910156,-0.04893067479133606,-0.060904502868652344
1750935428153099800,8.263099853515625,0.016229629516601562,-0.12495718896389008,0.1745133399963379
1750935428171924500,8.281924560546875,0.2173633575439453,-0.2046927511692047,0.47717928886413574
1750935428190749000,8.3007490234375,0.29442691802978516,0.1430501639842987,0.11460280418395996
1750935428209573600,8.31957373046875,-0.12176895141601562,0.23325666785240173,0.12123000621795654
1750935428228398000,8.338398193359374,-0.16782283782958984,0.022067368030548096,0.14885106682777405
1750935428247222800,8.357222900390624,-0.35962772369384766,-0.06473273038864136,-0.04443737119436264
1750935428266047500,8.376047607421874,-0.008257865905761719,0.07692763209342957,0.20800721645355225
1750935428284872000,8.394871826171874,0.2848806381225586,0.13818395137786865,0.37774190306663513
1750935428303696600,8.413696533203124,0.04101276397705078,0.09331104159355164,0.368879497051239
1750935428322521000,8.43252099609375,0.0837087631225586,0.1684240996837616,0.22068679332733154
1750935428341345800,8.451345703125,1.1191234588623047,0.14835649728775024,0.2323247194290161
1750935428360170200,8.470170166015626,1.1853914260864258,0.31721794605255127,0.3512492775917053
1750935428378995000,8.488994873046876,0.7017078399658203,0.3066258430480957,0.07100158929824829
1750935428397819400,8.5078193359375,-0.2783536911010742,-0.016206055879592896,0.17659835517406464
1750935428416644000,8.52664404296875,-0.2039165496826172,0.1543453484773636,-0.2734990417957306
1750935428435468800,8.54546875,0.10872077941894531,-0.02639736235141754,-0.29361605644226074
1750935428454293200,8.564293212890625,0.48192405700683594,-0.010074138641357422,-0.24601894617080688
1750935428473118000,8.583117919921875,0.5420894622802734,0.20438560843467712,-0.3156282901763916
1750935428491942400,8.6019423828125,0.16182422637939453,0.12541308999061584,-0.01956188678741455
1750935428510767000,8.62076708984375,-0.5640430450439453,-0.032423779368400574,0.07059788703918457
1750935428529591600,8.639591552734375,-0.16997814178466797,-0.1826174259185791,-0.23163974285125732
1750935428548416300,8.658416259765625,-0.02785968780517578,-0.06787475943565369,-0.40308892726898193
1750935428567240700,8.67724072265625,0.26027393341064453,0.04246753454208374,-0.37154126167297363
1750935428586065400,8.6960654296875,0.020009994506835938,0.017761841416358948,0.05321145057678223
1750935428604889900,8.714889892578125,-0.5112810134887695,-0.18180949985980988,0.025120019912719727
1750935428623714600,8.733714599609375,-0.6457386016845703,-0.26383060216903687,-0.6011600494384766
1750935428642539000,8.7525390625,-1.1132574081420898,-0.12231262773275375,-0.5282518863677979
1750935428661363700,8.77136376953125,-0.1828451156616211,-0.06126295030117035,-0.4112839698791504
1750935428680188400,8.7901884765625,0.24672603607177734,-0.23693206906318665,0.0290374755859375
1750935428699012900,8.809012939453124,-0.038669586181640625,-0.0005385279655456543,-0.18616604804992676
1750935428717837600,8.827837646484374,-0.3567790985107422,0.03063836693763733,-0.26699984073638916
1750935428736662000,8.846662109375,-0.16526126861572266,-0.13925860822200775,0.05286979675292969
1750935428755486700,8.86548681640625,0.38452911376953125,-0.15857842564582825,0.27621936798095703
1750935428774311200,8.884311279296876,0.10077285766601562,-0.005562096834182739,0.1923035979270935
1750935428793135900,8.903135986328126,-0.0034685134887695312,0.049192965030670166,0.1932578831911087
1750935428811960300,8.921960205078125,-0.08233642578125,0.09388294816017151,0.27968329191207886
1750935428830785000,8.940784912109375,0.23160362243652344,0.07693138718605042,0.34908896684646606
1750935428849609500,8.959609375,0.14513778686523438,0.20080697536468506,0.4277891516685486
1750935428868434200,8.97843408203125,0.1861705780029297,0.08184415102005005,0.5678609609603882
1750935428887258600,8.997258544921875,0.7425785064697266,0.20515891909599304,0.45221906900405884
1750935428906083300,9.016083251953125,0.7674770355224609,0.25902649760246277,0.5570974349975586
1750935428924907800,9.03490771484375,0.4985074996948242,0.25780755281448364,0.27019256353378296
1750935428943732500,9.053732421875,0.1466045379638672,0.12516766786575317,0.005083620548248291
1750935428962557000,9.072556884765625,-0.13805294036865234,-0.00406983494758606,-0.3402841091156006
1750935428981381600,9.091381591796875,-0.06457710266113281,-0.012658298015594482,-0.2707274556159973
1750935429000206300,9.110206298828125,0.011290550231933594,0.001902252435684204,-0.07006490230560303
1750935429019030800,9.12903076171875,-0.30619049072265625,0.09647342562675476,0.06232500076293945
1750935429037855500,9.14785546875,0.3955392837524414,0.09731963276863098,-0.3356403112411499
1750935429056680000,9.166679931640624,0.15413284301757812,0.17508932948112488,-0.3326774835586548
1750935429075504600,9.185504638671874,-0.3807201385498047,-0.24205531179904938,-0.20026803016662598
1750935429094329000,9.2043291015625,-0.644744873046875,-0.20061859488487244,-0.09200453758239746
1750935429113153800,9.22315380859375,-0.31298160552978516,0.10259293019771576,-0.3700594902038574
1750935429131978200,9.241978271484374,0.08396530151367188,-0.030894923955202103,-0.2819943428039551
1750935429150803000,9.260802978515626,0.3036947250366211,-0.1714698076248169,-0.4249858856201172
1750935429169627400,9.27962744140625,-0.04957389831542969,-0.16100960969924927,-0.3929755687713623
1750935429188452000,9.2984521484375,-0.5156993865966797,-0.19016128778457642,-0.35309624671936035
1750935429207276500,9.317276611328126,-0.04182720184326172,-0.21646250784397125,-0.5124169588088989
1750935429226101200,9.336101318359376,0.01648998260498047,-0.01922839879989624,-0.4366699457168579
1750935429244925700,9.35492578125,-0.059210777282714844,-0.15132322907447815,-0.025235891342163086
1750935429263750400,9.37375048828125,-0.31560230255126953,0.03870245814323425,0.07915705442428589
1750935429282574800,9.392574951171875,-0.008426666259765625,-0.05880308151245117,0.45817622542381287
1750935429301399600,9.411399658203125,0.2720146179199219,0.17074492573738098,0.474598228931427
1750935429320224000,9.43022412109375,0.14774036407470703,0.1398390233516693,0.6496422290802002
1750935429339048700,9.449048583984375,0.1743144989013672,0.19685503840446472,0.44316262006759644
1750935429357873200,9.467873046875,0.17453289031982422,0.1780693531036377,0.3779062032699585
1750935429376697600,9.486697509765625,0.6455488204956055,0.21115493774414062,0.49017471075057983
1750935429395522300,9.505522216796875,1.1044797897338867,0.3848190903663635,0.5775372385978699
1750935429414347000,9.524346923828125,0.9101190567016602,0.2213006317615509,0.599711537361145
1750935429433171500,9.54317138671875,0.2280254364013672,0.04464930295944214,0.42151984572410583
1750935429451996000,9.561995849609374,0.0062313079833984375,0.037672072649002075,-0.1775074601173401
1750935429470820600,9.580820556640624,-0.6959800720214844,-0.0026634931564331055,-0.4691780209541321
1750935429499057400,9.609057373046875,0.031655311584472656,0.04267647862434387,-0.2703099250793457
1750935429517882000,9.627882080078125,0.5335378646850586,0.05834951996803284,0.07160037755966187
1750935429536706600,9.64670654296875,0.6469459533691406,0.13582387566566467,0.32108986377716064
1750935429555531300,9.66553125,0.30715465545654297,0.040870845317840576,0.027424931526184082
1750935429574355700,9.684355712890625,0.21251773834228516,-0.3347635567188263,-0.16671526432037354
1750935429593180400,9.703180419921875,0.7129039764404297,-0.31968551874160767,-0.5258301496505737
1750935429612004900,9.7220048828125,0.36255645751953125,-0.1447705179452896,-0.13921427726745605
1750935429630829600,9.74082958984375,-0.7995338439941406,0.28670787811279297,-0.4647672176361084
1750935429649654000,9.759654052734374,-1.1132125854492188,-0.11392593383789062,-0.7020511627197266
1750935429668478500,9.778478515625,-0.9912528991699219,-0.16564098000526428,-0.931483268737793
1750935429687303200,9.79730322265625,-1.3785390853881836,-0.0325508713722229,-0.8375599384307861
1750935429706127600,9.816127685546874,-0.8919792175292969,-0.14807555079460144,-0.6721434593200684
1750935429724952300,9.834952392578124,-0.8792171478271484,-0.2631029486656189,-0.466660737991333
1750935429743776800,9.85377685546875,-0.5808601379394531,-0.06136882305145264,-0.3249863386154175
1750935429762601500,9.8726015625,0.6014623641967773,0.09915629029273987,-0.20934832096099854
1750935429781426000,9.891426025390626,1.212904930114746,-0.001939326524734497,0.12965059280395508
1750935429800250600,9.910250732421876,0.7081270217895508,0.05368870496749878,0.3834528923034668
1750935429819075000,9.929074951171875,0.3875312805175781,0.08064508438110352,0.43476513028144836
1750935429837899800,9.947899658203125,0.4669075012207031,0.061366498470306396,0.3983041048049927
1750935429856724200,9.96672412109375,0.38933753967285156,0.03369951248168945,0.49211788177490234
1750935429875549000,9.985548828125,0.5453996658325195,0.23637300729751587,0.3558516502380371
1750935429894373400,10.004373291015625,-0.09226417541503906,0.022080689668655396,0.6276982426643372
1750935429913197800,10.02319775390625,0.04950237274169922,-0.03149798512458801,0.505905270576477
1750935429932022500,10.0420224609375,0.9633722305297852,0.14407861232757568,0.570912778377533
1750935429950847000,10.060846923828125,1.5585784912109375,0.19774159789085388,0.698289155960083
1750935429969671700,10.079671630859375,1.066420555114746,0.25205397605895996,0.5943735241889954
1750935429988496100,10.09849609375,0.22562408447265625,0.19902518391609192,0.038882553577423096
1750935430007321300,10.1173212890625,-1.0950450897216797,0.07477307319641113,-0.5386754870414734
1750935430026145800,10.136145751953125,-0.9995098114013672,-0.04489472508430481,-0.31264764070510864
1750935430044970500,10.154970458984375,0.23198413848876953,0.07192838191986084,-0.22739791870117188
1750935430063795000,10.173794921875,0.7497072219848633,0.1952989101409912,-0.10740840435028076
1750935430082619400,10.192619384765624,0.2154560089111328,-0.004739314317703247,0.29595208168029785
1750935430101444000,10.211444091796874,0.5688085556030273,-0.0403476357460022,-0.12284517288208008
1750935430120268500,10.2302685546875,0.3370237350463867,-0.1987234652042389,-0.7089716196060181
1750935430139093200,10.24909326171875,-1.3788261413574219,-0.15440544486045837,-1.484130620956421
1750935430157917700,10.267917724609376,-1.667914867401123,-0.14626088738441467,-1.3200145959854126
1750935430176742400,10.286742431640626,-1.0299224853515625,-0.31468889117240906,-0.9364559650421143
1750935430195566800,10.30556689453125,-0.642338752746582,-0.06273481249809265,-0.929731011390686
1750935430214391300,10.324391357421876,-0.48608970642089844,-0.12511838972568512,-1.0272836685180664
1750935430233216000,10.343216064453125,-0.3488883972167969,-0.061349958181381226,-0.5520268678665161
1750935430252040400,10.36204052734375,0.5083465576171875,-0.005522310733795166,0.054097115993499756
1750935430270865200,10.380865234375,1.4118680953979492,-0.006126701831817627,0.6365408301353455
1750935430289689600,10.399689697265625,1.0551223754882812,0.09600082039833069,1.004389762878418
1750935430308514300,10.418514404296875,0.39963817596435547,0.12059782445430756,0.8330093622207642
1750935430327338800,10.4373388671875,-0.19180011749267578,0.09028701484203339,0.6323724389076233
1750935430346163500,10.45616357421875,-0.1613626480102539,0.04558005928993225,0.5303399562835693
1750935430364988000,10.47498779296875,0.7574520111083984,0.2115902304649353,0.7376903891563416
1750935430383812400,10.493812255859375,1.1093130111694336,0.1739293932914734,1.277859091758728
1750935430402637000,10.512636962890625,1.1337041854858398,0.34192854166030884,0.9458115696907043
1750935430421461500,10.53146142578125,0.9599618911743164,0.30925455689430237,0.44128209352493286
1750935430440286200,10.5502861328125,0.6731081008911133,0.35875120759010315,-0.1956009566783905
1750935430459110700,10.569110595703124,-0.10486221313476562,0.06692270189523697,-0.5435147285461426
1750935430477935000,10.58793505859375,-0.1898813247680664,-0.08160100877285004,-0.4114464521408081
1750935430496759800,10.606759765625,-0.24286174774169922,0.1510155200958252,-0.7321547865867615
1750935430515584300,10.625584228515624,-0.0009565353393554688,0.26257503032684326,-0.8759922385215759
1750935430534409000,10.644408935546876,0.1987743377685547,-0.008135590702295303,-0.4368610382080078
1750935430553233400,10.6632333984375,0.49524688720703125,-0.00922064483165741,-0.1720719337463379
1750935430572058000,10.68205810546875,-0.9746837615966797,-0.17093497514724731,-0.19852685928344727
1750935430590882600,10.700882568359376,-0.7178449630737305,-0.17693769931793213,-1.0065252780914307
1750935430609707300,10.719707275390626,-0.4051694869995117,-0.3237878084182739,-0.9142482280731201
1750935430628531700,10.73853173828125,-0.5814523696899414,-0.32184821367263794,-0.7121714353561401
1750935430647356200,10.757356201171875,-0.7994346618652344,-0.2400118112564087,-0.8574252128601074
1750935430666180900,10.776180908203125,-0.6487188339233398,-0.35502827167510986,-0.7766868472099304
1750935430685005300,10.79500537109375,-0.2125082015991211,-0.22468388080596924,-0.3697618246078491
1750935430703830000,10.813830078125,0.3279695510864258,-0.0328679233789444,-0.02438032627105713
1750935430722654500,10.832654541015625,0.3945608139038086,-0.06783902645111084,0.46255117654800415
1750935430741479000,10.85147900390625,0.4223489761352539,0.011094599962234497,0.7702016830444336
1750935430760303600,10.8703037109375,0.5998554229736328,0.10001157224178314,0.6496294736862183
1750935430779128000,10.889128173828125,0.6353311538696289,0.23986104130744934,0.7552834153175354
1750935430797952800,10.907952880859375,0.5838346481323242,0.3895319998264313,0.7465887069702148
1750935430816777200,10.926777099609374,1.2148399353027344,0.25125041604042053,0.862506628036499
1750935430835601700,10.9456015625,0.9022350311279297,0.14547133445739746,0.9389615058898926
1750935430854426400,10.96442626953125,0.7352981567382812,0.282726526260376,0.486627459526062
1750935430873250800,10.983250732421874,0.6219072341918945,0.20613594353199005,0.33576369285583496
1750935430892075500,11.002075439453124,0.20902156829833984,0.06531450152397156,0.053150475025177
1750935430910900000,11.02089990234375,0.545985221862793,0.12728562951087952,0.08882668614387512
1750935430929724700,11.039724609375,0.0924825668334961,0.27662768959999084,-0.3480483591556549
1750935430948549000,11.058549072265626,-0.8918695449829102,0.05498433858156204,-0.06653463840484619
1750935430967373600,11.07737353515625,-0.5363655090332031,-0.07992193102836609,-0.3893886208534241
1750935430986198300,11.0961982421875,0.37852001190185547,0.17063003778457642,-1.0859978199005127
1750935431005022700,11.115022705078125,0.07191848754882812,0.13206958770751953,-0.7972973585128784
1750935431023847400,11.133847412109375,-1.0952777862548828,-0.2263610064983368,-0.45622289180755615
1750935431042671900,11.152671875,-0.8943195343017578,-0.10886991024017334,-1.281553030014038
1750935431061496300,11.171496337890625,-0.48153114318847656,-0.3988538682460785,-0.9307855367660522
1750935431080321000,11.190321044921875,-0.33307647705078125,-0.2238944172859192,-0.6803328990936279
1750935431099145500,11.2091455078125,-0.3549470901489258,-0.2894815504550934,-0.7177058458328247
1750935431117970200,11.22797021484375,-0.27495861053466797,-0.4581441879272461,-0.886620283126831
1750935431136794600,11.246794677734375,0.5176925659179688,-0.30986225605010986,-0.49850013852119446
1750935431155619000,11.265619140625,0.626612663269043,-0.06847460567951202,0.10778586566448212
1750935431174443800,11.28444384765625,0.09771251678466797,0.14783929288387299,0.5117449164390564
1750935431193268200,11.303268310546875,0.25378990173339844,0.043431222438812256,0.9077607989311218
1750935431212093000,11.322093017578124,0.6654052734375,0.20011110603809357,0.9737578630447388
1750935431230917400,11.34091748046875,0.9207553863525391,0.30258679389953613,1.0980262756347656
1750935431249741800,11.359741943359374,1.4560680389404297,0.2896735370159149,1.221368670463562
1750935431268566500,11.37856640625,1.0890016555786133,0.31468674540519714,1.0290848016738892
1750935431287391000,11.397390869140626,0.5453176498413086,0.35894864797592163,0.5322489738464355
1750935431306215700,11.416215576171876,-0.09242725372314453,0.15873456001281738,0.19618487358093262
1750935431325040000,11.4350400390625,-0.13166522979736328,0.1534121334552765,-0.023666560649871826
1750935431343864600,11.453864501953126,0.42912769317626953,-0.023399293422698975,0.1728440523147583
1750935431362689300,11.472689208984375,-0.1428384780883789,0.060016825795173645,-0.01099705696105957
1750935431381513700,11.491513671875,-0.27019596099853516,0.2608051598072052,-0.30389702320098877
1750935431400338400,11.51033837890625,-0.31712818145751953,0.36590397357940674,-0.8760669231414795
1750935431419163000,11.529162841796875,-0.9766244888305664,0.02658570557832718,-0.7344352006912231
1750935431437987300,11.5479873046875,-0.8525562286376953,-0.19872134923934937,-1.1094141006469727
1750935431456812000,11.56681201171875,-0.12964439392089844,-0.2288914918899536,-1.1081602573394775
1750935431475636500,11.585636474609375,-0.8646783828735352,-0.26082944869995117,-0.643315315246582
1750935431494461200,11.604461181640625,0.2299365997314453,-0.27991950511932373,-0.6510607004165649
1750935431513285600,11.62328564453125,0.16421985626220703,-0.15138907730579376,-1.0644932985305786
1750935431532110000,11.642110107421875,-0.5296182632446289,-0.2987446188926697,-1.1837289333343506
1750935431550934800,11.660934814453125,-0.08493709564208984,-0.3755824565887451,-0.908423900604248
1750935431569759200,11.67975927734375,1.0615901947021484,-0.19420534372329712,-0.1510113924741745
1750935431588584000,11.698583984375,0.75897216796875,0.16573111712932587,0.40481555461883545
1750935431607408400,11.717408447265624,0.4312095642089844,0.12049025297164917,0.8540740609169006
1750935431626232800,11.73623291015625,0.5547304153442383,0.05045364797115326,1.0661836862564087
1750935431645057500,11.7550576171875,0.9416065216064453,0.22254493832588196,1.132910966873169
1750935431663882000,11.773882080078126,1.1942424774169922,0.23371747136116028,1.1709421873092651
1750935431682706700,11.792706787109376,1.2127113342285156,0.10641302913427353,1.1969504356384277
1750935431701531100,11.81153125,0.2668333053588867,0.29735851287841797,0.7817481756210327
1750935431720355600,11.83035546875,0.1173257827758789,0.34388479590415955,0.3552687168121338
1750935431739180300,11.84918017578125,0.10550880432128906,0.232038676738739,0.23724210262298584
1750935431758004700,11.868004638671875,0.03489398956298828,0.11635439097881317,0.1303776502609253
1750935431776829400,11.886829345703125,0.2608165740966797,-0.034384503960609436,0.12483497709035873
1750935431795654000,11.90565380859375,0.6370277404785156,0.15994596481323242,-0.12694188952445984
1750935431814478300,11.924478271484375,-0.2652111053466797,0.09330525994300842,-0.553900420665741
1750935431833303000,11.943302978515625,-0.8603363037109375,0.006791040301322937,-0.7261781692504883
1750935431852127500,11.96212744140625,-0.02349567413330078,-0.1920083612203598,-0.9978487491607666
1750935431870952000,11.980951904296875,0.5728292465209961,-0.10279709100723267,-1.0627920627593994
1750935431889776600,11.999776611328125,0.09296226501464844,-0.08984479308128357,-0.8538063764572144
1750935431908601000,12.01860107421875,-0.6047163009643555,-0.03941965103149414,-0.7866414785385132
1750935431927425800,12.03742578125,-1.2445125579833984,0.02824580669403076,-1.0015991926193237
1750935431946250200,12.056250244140625,-1.591141700744629,-0.3433419466018677,-1.4783601760864258
1750935431965074700,12.07507470703125,-1.020742416381836,-0.3882453739643097,-1.2237666845321655
1750935431983899400,12.0938994140625,0.526702880859375,-0.08110085129737854,-0.5048618316650391
1750935432002723800,12.112723876953124,1.1823196411132812,-0.02671465277671814,0.13543027639389038
1750935432021548500,12.131548583984374,0.7533550262451172,0.11053505539894104,0.36066189408302307
1750935432040373000,12.150373046875,0.7742366790771484,-0.012192219495773315,0.7260437607765198
1750935432059197400,12.169197509765626,1.0610904693603516,-0.04600587487220764,1.0090793371200562
1750935432078022100,12.188022216796876,1.0324344635009766,0.03844797611236572,1.0928536653518677
1750935432096846600,12.2068466796875,0.9986152648925781,0.09808629751205444,1.1652896404266357
1750935432115671000,12.225671142578125,1.0689525604248047,0.31698164343833923,0.9304921627044678
1750935432134495700,12.244495849609375,0.6135749816894531,0.42563116550445557,1.0207889080047607
1750935432153320200,12.2633203125,-0.7470359802246094,0.19494792819023132,0.38667237758636475
1750935432172145000,12.282144775390625,-1.3115758895874023,0.1975584775209427,0.09469366073608398
1750935432190969300,12.30096923828125,-0.5791635513305664,-0.004880130290985107,-0.008690834045410156
1750935432209794000,12.3197939453125,0.08445453643798828,-0.12582948803901672,-0.25380074977874756
1750935432228618500,12.338618408203125,0.16657543182373047,0.20933812856674194,-0.6446479558944702
1750935432247443000,12.35744287109375,0.3910703659057617,0.1352550983428955,-0.34907734394073486
1750935432266267600,12.376267578125,0.6467447280883789,0.1473582684993744,-0.5554951429367065
1750935432285092000,12.395092041015625,0.2093505859375,0.13352948427200317,-0.756712794303894
1750935432303916500,12.41391650390625,-0.686741828918457,-0.15488535165786743,-1.3980635404586792
1750935432322741200,12.4327412109375,-2.0295753479003906,-0.4040296971797943,-1.9369521141052246
1750935432341565700,12.451565673828124,-1.4195404052734375,-0.6355757713317871,-1.61610746383667
1750935432360390400,12.470390380859374,-0.6914768218994141,-0.33401867747306824,-0.642473578453064
1750935432379214800,12.48921484375,-0.17876338958740234,-0.08900757133960724,0.05023550987243652
1750935432398039300,12.508039306640624,-0.011300086975097656,0.07057073712348938,-0.13668417930603027
1750935432416864000,12.526864013671876,0.22885894775390625,-0.08652514219284058,0.1405690461397171
1750935432435688400,12.5456884765625,0.5940151214599609,0.07726091146469116,0.6992766261100769
1750935432454513200,12.56451318359375,1.406113624572754,0.5275981426239014,1.2816548347473145
1750935432473337600,12.583337646484376,0.8820505142211914,0.3195621967315674,2.261829376220703
1750935432492162000,12.602162109375,0.654810905456543,-0.15203748643398285,2.1179981231689453
1750935432510986800,12.62098681640625,0.4161205291748047,0.2849920094013214,1.3388104438781738
1750935432529811200,12.639811279296875,0.8758058547973633,0.3516824245452881,0.7912134528160095
1750935432548635600,12.6586357421875,1.483388900756836,-0.03298552334308624,0.4434266984462738
1750935432567460400,12.67746044921875,0.11151599884033203,0.13313016295433044,-0.5433392524719238
1750935432586284800,12.696284912109375,-0.1435718536376953,-0.159820556640625,-0.8281998038291931
1750935432605109500,12.715109619140625,0.2602882385253906,-0.015196055173873901,-1.6091750860214233
1750935432623934000,12.733933837890625,0.16537952423095703,-0.49012964963912964,-1.0904912948608398
1750935432642758400,12.75275830078125,0.07529258728027344,-0.5300285816192627,-0.9209674596786499
1750935432661583000,12.7715830078125,0.11849784851074219,-0.24452370405197144,-0.8315823078155518
1750935432680407600,12.790407470703125,0.3389625549316406,0.18374288082122803,-0.7393693923950195
1750935432699232000,12.80923193359375,0.5661277770996094,0.14711493253707886,-0.7112454175949097
1750935432718056700,12.828056640625,-1.4927587509155273,-0.1495535522699356,-1.4751074314117432
1750935432736881200,12.846881103515624,-1.8146705627441406,-0.4069070816040039,-1.6390695571899414
1750935432755705900,12.865705810546874,-0.7784852981567383,-0.2848150134086609,-0.7423839569091797
1750935432783942700,12.893942626953125,-0.8512601852416992,0.15376801788806915,0.5492252111434937
1750935432802767000,12.91276708984375,-0.4099922180175781,0.2509543299674988,0.06484341621398926
1750935432821591800,12.931591796875,-0.7152681350708008,0.08369234204292297,0.12201523780822754
1750935432840416300,12.950416259765625,-0.2849159240722656,-0.02777111530303955,0.20785239338874817
1750935432859240700,12.96924072265625,0.2370128631591797,-0.1339932084083557,0.6424039602279663
1750935432878065400,12.9880654296875,1.545384407043457,0.13695001602172852,0.9557480812072754
1750935432896889900,13.006889892578124,1.7489862442016602,0.2617391347885132,1.105604648590088
1750935432915714300,13.02571435546875,1.0460395812988281,0.5348276495933533,1.117365837097168
1750935432934539000,13.0445390625,1.174910545349121,0.6377847790718079,0.5843871831893921
1750935432953363500,13.063363525390624,2.201303482055664,0.44076839089393616,0.3246457576751709
1750935432972188200,13.082188232421874,1.3815431594848633,0.4690212905406952,-0.2006758451461792
1750935432991012600,13.1010126953125,-1.1955156326293945,-0.1969357132911682,-0.26728811860084534
1750935433009837000,13.119837158203126,-1.5387029647827148,-0.05201989412307739,-0.6779509782791138
1750935433028661800,13.138661865234376,0.7984066009521484,-0.013766705989837646,-0.5796157717704773
1750935433047486200,13.157486328125,2.3728647232055664,-0.1297634243965149,-0.21190333366394043
1750935433066311000,13.176310791015625,2.5581178665161133,0.2666908800601959,-0.6765429973602295
1750935433085135400,13.19513525390625,1.2190961837768555,0.0814068615436554,-0.6352450847625732
1750935433103959800,13.213959716796875,-0.8899202346801758,-0.5618678331375122,-0.23122096061706543
1750935433122784500,13.232784423828125,-2.241959571838379,-0.6962239146232605,-0.903480052947998
1750935433141609000,13.25160888671875,-2.579972743988037,-1.0465953350067139,-0.43300771713256836
1750935433160433700,13.27043359375,-0.7982358932495117,0.017244160175323486,-1.3066871166229248
1750935433179258000,13.289258056640625,-0.016341209411621094,0.07897286117076874,-0.8117737770080566
1750935433198082600,13.30808251953125,-1.7559022903442383,-0.015471547842025757,0.1799318790435791
1750935433216907300,13.3269072265625,-2.463832378387451,-0.2731063961982727,0.49546146392822266
1750935433235731700,13.345731689453125,-1.049729347229004,0.10596916824579239,-0.6483922004699707
1750935433254556200,13.36455615234375,-0.07163429260253906,0.0035105720162391663,-0.42553210258483887
1750935433273380900,13.383380859375,0.5351142883300781,-0.05896295607089996,-0.21773672103881836
1750935433292205300,13.402205322265624,1.0045280456542969,-0.028447739779949188,0.012703120708465576
1750935433311030000,13.421030029296874,0.4136781692504883,-0.18078619241714478,0.5845091342926025
1750935433329854500,13.4398544921875,-1.029520034790039,-0.0589996874332428,0.40545082092285156
1750935433348679000,13.458678955078126,-0.739985466003418,-0.1775437295436859,0.26266658306121826
1750935433367503600,13.477503662109376,1.643692970275879,-0.011485755443572998,0.29664289951324463
1750935433386328000,13.496328125,2.070033073425293,0.2006264626979828,0.5254931449890137
1750935433405152800,13.51515283203125,2.1904869079589844,0.11310359835624695,0.363034725189209
1750935433423977200,13.533977294921876,1.2125930786132812,0.23487094044685364,0.5859613418579102
1750935433442801700,13.5528017578125,0.03906726837158203,0.3665825128555298,0.29088354110717773
1750935433461626400,13.57162646484375,0.7180967330932617,0.15409037470817566,0.11667370796203613
1750935433480450800,13.590450927734375,1.9084997177124023,0.31583791971206665,-0.15163278579711914
1750935433499275500,13.609275634765625,1.8343114852905273,0.21609285473823547,0.0267336368560791
1750935433518100000,13.628099853515625,0.6044492721557617,0.06678347289562225,-0.42283833026885986
1750935433536924700,13.646924560546875,-1.0513248443603516,-0.029786616563796997,-0.8237385153770447
1750935433555749000,13.6657490234375,-1.8474607467651367,-0.49791139364242554,-0.3702074885368347
1750935433574573600,13.684573486328125,-0.5986137390136719,0.03417554497718811,-0.5744783282279968
1750935433593398300,13.703398193359375,0.47321510314941406,-0.12187744677066803,-0.4821357727050781
1750935433612222700,13.72222265625,0.5022039413452148,0.09142230451107025,-0.3500434160232544
1750935433631047400,13.74104736328125,0.48468589782714844,0.36709505319595337,-0.5498025417327881
1750935433649872000,13.759871826171874,0.0038537979125976562,0.04742085933685303,-0.6613645553588867
1750935433668696300,13.7786962890625,-1.3919544219970703,-0.6014165878295898,-0.41013669967651367
1750935433687521000,13.79752099609375,-1.3935298919677734,-0.25465989112854004,-0.8049390316009521
1750935433706345500,13.816345458984374,-1.4039273262023926,-0.1168278306722641,-0.7016134262084961
1750935433725170200,13.835170166015626,-0.7669763565063477,-0.179418683052063,-0.3161475658416748
1750935433743994600,13.85399462890625,-0.8073101043701172,0.055765300989151,-0.11250066757202148
1750935433762819000,13.872819091796876,-0.8767766952514648,0.38345974683761597,-0.4337329864501953
1750935433781643800,13.891643798828126,-0.07494449615478516,-0.043106988072395325,-0.5028219223022461
1750935433800468200,13.91046826171875,-0.3282012939453125,-0.11116725951433182,-0.23479163646697998
1750935433819293000,13.92929296875,-1.050917625427246,0.017324477434158325,-0.00616687536239624
1750935433838117400,13.948117431640625,-0.26485157012939453,-0.07192640006542206,-0.13698461651802063
1750935433856942000,13.966942138671875,0.4628639221191406,0.021139340475201607,0.23836803436279297
1750935433875766500,13.9857666015625,1.7392005920410156,0.15989261865615845,0.7884559631347656
1750935433894591200,14.00459130859375,1.5585613250732422,0.14025214314460754,0.5178086757659912
1750935433913415700,14.023415771484375,-0.042575836181640625,-0.12738674879074097,0.32701218128204346
1750935433932240100,14.042240234375,-1.1134309768676758,0.004334777593612671,-0.025726795196533203
1750935433951064800,14.06106494140625,1.6903610229492188,-0.17722469568252563,-0.28145527839660645
1750935433969889300,14.07988916015625,2.093057632446289,0.051588356494903564,0.06657028198242188
1750935433988714000,14.0987138671875,2.0026626586914062,0.17946870625019073,0.3162868022918701
1750935434007538400,14.117538330078125,1.9752779006958008,0.41247034072875977,0.3043243885040283
1750935434026363000,14.13636279296875,1.9211597442626953,0.4623917043209076,-0.05703425407409668
1750935434045187600,14.1551875,0.5787754058837891,-0.13915398716926575,-0.1114654541015625
1750935434064012000,14.174011962890624,-1.1795463562011719,-0.38738518953323364,0.05295515060424805
1750935434082836700,14.192836669921874,-0.782536506652832,0.01935083419084549,-0.11312298476696014
1750935434101661200,14.2116611328125,-0.011407852172851562,0.014081910252571106,-0.3286135196685791
1750935434120486000,14.23048583984375,-0.16302776336669922,-0.020928174257278442,-0.7513773441314697
1750935434139310300,14.249310302734376,0.04775810241699219,-0.14317217469215393,-0.6870085000991821
1750935434158134800,14.268134765625,-0.06823348999023438,-0.16240063309669495,-0.734576940536499
1750935434176959500,14.28695947265625,0.02753734588623047,-0.13320359587669373,-0.8213040828704834
1750935434195784000,14.305783935546875,-1.1753215789794922,0.17742300033569336,-0.5486111640930176
1750935434214608600,14.324608642578125,-1.904806137084961,0.0385512113571167,-0.47039198875427246
1750935434233433000,14.34343310546875,-0.693507194519043,-0.10526764392852783,-0.8829759359359741
1750935434252257800,14.3622578125,-0.5862064361572266,-0.14106392860412598,-0.93332839012146
1750935434271082200,14.381082275390625,-0.6243782043457031,-0.004899799823760986,-0.44648420810699463
1750935434289907000,14.399906982421875,-1.0982027053833008,0.1490442156791687,-0.2607746124267578
1750935434308731400,14.4187314453125,-0.853419303894043,0.26065129041671753,-0.4626041054725647
1750935434327555800,14.437555908203125,-0.12371349334716797,0.03646343946456909,-0.2346532940864563
1750935434346380500,14.456380615234375,0.10992240905761719,0.04546231031417847,0.035932768136262894
1750935434365205000,14.475205078125,0.5289974212646484,-0.10645484924316406,0.11263412237167358
1750935434384029700,14.49402978515625,1.6211252212524414,-0.09980766475200653,0.4030604958534241
1750935434402854100,14.512854248046875,0.7704696655273438,0.1346203088760376,0.502233624458313
1750935434421678800,14.531678955078124,0.3809347152709961,0.063799649477005,0.21814191341400146
1750935434440503300,14.55050341796875,0.4517707824707031,-0.15774697065353394,0.8258137702941895
1750935434459328000,14.569327880859374,0.3043508529663086,-0.018931547179818153,0.860235333442688
1750935434478152400,14.58815234375,1.3319473266601562,-0.18768422305583954,0.7960329055786133
1750935434496977200,14.60697705078125,0.7572832107543945,0.028473561629652977,0.8913028240203857
1750935434515801600,14.625801513671876,0.2875709533691406,0.19634610414505005,0.5142877101898193
1750935434534626000,14.6446259765625,1.1455802917480469,0.2639482319355011,0.21402239799499512
1750935434553450800,14.66345068359375,2.112894058227539,0.3385462164878845,-0.010396480560302734
1750935434572275200,14.682275146484375,0.7934274673461914,0.16337263584136963,-0.03984940052032471
1750935434591100000,14.701099853515625,-0.6788043975830078,0.2597421407699585,-1.3499860763549805
1750935434609924400,14.71992431640625,-1.2305641174316406,-0.3475760519504547,-0.8596302270889282
1750935434628749000,14.7387490234375,-1.3842582702636719,-0.1880865842103958,-0.345855176448822
1750935434647573500,14.757573486328125,0.19515514373779297,0.21237200498580933,-0.10984736680984497
1750935434666398200,14.776398193359375,0.33003902435302734,0.1658889651298523,0.1323699951171875
1750935434685222700,14.79522265625,0.16944313049316406,0.2568720877170563,-0.2835731506347656
1750935434704047400,14.81404736328125,-0.3670082092285156,0.030969366431236267,-0.6106308102607727
1750935434722871800,14.832871826171875,-0.3197917938232422,-0.1336522102355957,-0.6992372870445251
1750935434741696300,14.8516962890625,-0.47646141052246094,-0.08208739757537842,-0.8360261917114258
1750935434760521000,14.87052099609375,-0.08843517303466797,-0.23827862739562988,-0.4725130796432495
1750935434779345400,14.889345458984375,0.040884971618652344,-0.11071880161762238,-0.442368745803833
1750935434798170000,14.908170166015625,-0.8792858123779297,0.07394884526729584,-0.36015647649765015
1750935434816994600,14.92699462890625,-2.4246277809143066,0.13202935457229614,-0.5830960869789124
1750935434835819300,14.9458193359375,-1.6995410919189453,0.4116476774215698,-1.0749552249908447
1750935434854643700,14.964643798828124,1.3441944122314453,-0.23918050527572632,-0.6246311068534851
1750935434873468400,14.983468505859374,2.1158580780029297,-0.010410787537693977,-0.07345354557037354
1750935434892292900,15.00229296875,0.06716346740722656,0.19625619053840637,0.37370872497558594
1750935434911117600,15.02111767578125,-0.27711009979248047,-0.06156866252422333,0.36004161834716797
1750935434929942000,15.03994189453125,0.9496965408325195,-0.1723979413509369,0.5480201244354248
1750935434948766500,15.058766357421876,0.9407615661621094,-0.07413157820701599,0.5920288562774658
1750935434967591200,15.077591064453125,1.5842523574829102,0.05067291855812073,0.6607677936553955
1750935434986415600,15.09641552734375,1.9000024795532227,0.11090826988220215,1.0047211647033691
1750935435005240300,15.115240234375,1.5129766464233398,0.27265387773513794,0.9948737621307373
1750935435024064800,15.134064697265625,0.8366603851318359,0.14689788222312927,0.7376916408538818
1750935435042889500,15.152889404296875,-0.5395498275756836,0.1650579869747162,0.3352808952331543
1750935435061714000,15.1717138671875,-0.22945404052734375,0.08153599500656128,0.23871135711669922
1750935435080538600,15.19053857421875,0.3588218688964844,0.26965010166168213,-0.1585637331008911
1750935435099363000,15.209363037109375,0.4249553680419922,0.31046485900878906,-0.04587787389755249
1750935435118187800,15.228187744140625,0.1835651397705078,-0.06140926480293274,-0.4676673412322998
1750935435137012200,15.24701220703125,0.22557353973388672,-0.2269551306962967,-0.7313356399536133
1750935435155836700,15.265836669921875,-0.21865177154541016,-0.18083477020263672,-0.7901628017425537
1750935435174661400,15.284661376953125,-0.5893363952636719,0.15033571422100067,-1.0582584142684937
1750935435193486000,15.303486083984374,-0.6385936737060547,-0.1273857206106186,-0.5277962684631348
1750935435212310500,15.322310546875,0.19516372680664062,-0.002011515200138092,-0.7010698914527893
1750935435231135000,15.341135009765624,-0.02306652069091797,-0.08359001576900482,-0.7272345423698425
1750935435249959700,15.359959716796874,-0.42637157440185547,-0.15670065581798553,-0.6705837845802307
1750935435268784000,15.3787841796875,-1.2168140411376953,-0.07105643302202225,-0.8110570907592773
1750935435287608800,15.39760888671875,-1.6651859283447266,-0.28951606154441833,-0.6581413149833679
1750935435306433300,15.416433349609376,-1.4194936752319336,0.0678500086069107,-0.7573615908622742
1750935435325258000,15.435258056640626,0.7423906326293945,0.13622131943702698,-0.4055365324020386
1750935435344082400,15.45408251953125,1.0496978759765625,0.06218528747558594,0.12216063588857651
1750935435362907100,15.4729072265625,0.37633419036865234,0.10313031077384949,0.2650320529937744
1750935435381731600,15.491731689453125,0.18136024475097656,0.06884406507015228,0.22749894857406616
1750935435400556300,15.510556396484375,-0.06555843353271484,-0.09063136577606201,0.5418349504470825
1750935435419380700,15.529380615234375,0.06972217559814453,-0.11304271966218948,0.7783709764480591
1750935435438205200,15.548205078125,0.8489866256713867,-0.021595045924186707,0.8617680072784424
1750935435457030000,15.56702978515625,1.9017467498779297,0.12480930984020233,0.7525011301040649
1750935435475854300,15.585854248046875,2.1424570083618164,0.30547070503234863,1.2204699516296387
1750935435494679000,15.604678955078125,0.7404260635375977,0.3500484824180603,1.1413161754608154
1750935435513503500,15.62350341796875,-0.48883533477783203,0.33346012234687805,0.1862870454788208
1750935435532328200,15.642328125,-0.5563631057739258,-0.05607651546597481,-0.02884972095489502
1750935435551152600,15.661152587890625,-0.2635784149169922,-0.10123719274997711,-0.27322760224342346
1750935435569977300,15.679977294921875,0.4009838104248047,-0.16584348678588867,-0.44270890951156616
1750935435588801800,15.6988017578125,0.42820167541503906,-0.06618295609951019,-0.5157826542854309
1750935435607626500,15.71762646484375,-0.3849372863769531,-0.11096107959747314,-0.29193174839019775
1750935435626451000,15.736450927734374,-1.093216896057129,0.11097505688667297,-0.9046627283096313
1750935435645275600,15.755275634765624,-1.163395881652832,-0.04185108840465546,-1.2992849349975586
1750935435664100000,15.77410009765625,-0.27204132080078125,-0.4179878532886505,-1.3543567657470703
1750935435682924500,15.792924560546876,0.058094024658203125,-0.0687686949968338,-1.0823121070861816
1750935435701749200,15.811749267578126,-0.8666191101074219,0.2605968117713928,-0.835078775882721
1750935435720573700,15.83057373046875,-0.4040803909301758,0.12221407890319824,-0.3129960298538208
1750935435739398400,15.8493984375,0.5195693969726562,-0.0026228129863739014,-0.04875291883945465
1750935435758222800,15.868222900390625,0.61114501953125,0.0986175537109375,-0.06492570042610168
1750935435777047600,15.887047607421875,0.2887411117553711,0.2520061135292053,-0.0731426477432251
1750935435795872000,15.9058720703125,0.08060550689697266,0.07849565148353577,0.16678690910339355
1750935435814696700,15.92469677734375,0.5651035308837891,0.004128403961658478,0.5317490100860596
1750935435833521200,15.943521240234375,1.2595090866088867,0.02154603600502014,0.9754503965377808
1750935435852345900,15.962345947265625,1.8402137756347656,0.18385599553585052,1.0109450817108154
1750935435871170300,15.98117041015625,2.305194854736328,0.14693981409072876,1.0853151082992554
1750935435889995000,15.9999951171875,0.9793930053710938,0.07773443311452866,1.1534795761108398
1750935435908819500,16.0188193359375,-1.0276985168457031,-0.14224541187286377,0.33284032344818115
1750935435927644000,16.037643798828125,-1.109588623046875,-0.0612969845533371,-0.24948596954345703
1750935435946468600,16.056468505859375,-0.3041095733642578,-0.08395582437515259,-0.35865163803100586
1750935435965293300,16.075293212890625,0.4835624694824219,0.012549638748168945,-0.09480519592761993
1750935435984117800,16.09411767578125,0.8141775131225586,0.19845448434352875,0.04271060228347778
1750935436002942200,16.112942138671876,-0.2318429946899414,0.220963716506958,-0.2856634259223938
1750935436021767000,16.131766845703126,-0.5994377136230469,-0.10281257331371307,-0.511838436126709
1750935436040591400,16.15059130859375,-0.29643821716308594,-0.033828139305114746,-0.9842137694358826
1750935436059416000,16.169416015625,0.34854793548583984,-0.14122344553470612,-0.9108437299728394
1750935436078240500,16.188240478515624,0.42802906036376953,-0.20660236477851868,-0.5835239887237549
1750935436097065200,16.207065185546874,0.18004322052001953,0.09898865222930908,-0.40369367599487305
1750935436115889700,16.2258896484375,-0.1960887908935547,0.20924201607704163,-0.7499010562896729
1750935436134714400,16.24471435546875,-1.2717266082763672,-0.21857057511806488,0.0018987655639648438
1750935436153538800,16.263538818359375,-0.7396631240844727,-0.0502399206161499,-0.2921116352081299
1750935436172363500,16.282363525390625,-0.8782024383544922,-0.0384041965007782,-0.38901543617248535
1750935436191188000,16.30118798828125,-0.5894889831542969,0.07499396800994873,-0.6397678852081299
1750935436210012700,16.3200126953125,-0.29631805419921875,0.013049781322479248,-0.5352044105529785
1750935436228837000,16.338837158203123,-0.33117008209228516,0.16012930870056152,-0.25768887996673584
1750935436247661600,16.35766162109375,0.09191417694091797,0.08930245041847229,0.05404996871948242
1750935436266486300,16.376486328125,0.35056209564208984,-0.00873526930809021,0.3991333246231079
1750935436285311000,16.39531103515625,-0.01141357421875,-0.006460890173912048,0.6214724779129028
1750935436304135400,16.414135498046875,-0.19683074951171875,-0.019998326897621155,0.361409455537796
1750935436322960100,16.432960205078125,-0.51300048828125,-0.1634095311164856,-0.07332269847393036
1750935436341784600,16.45178466796875,0.47130298614501953,-0.22776754200458527,-0.3355378806591034
1750935436360609000,16.470609130859376,0.9586248397827148,-0.1282278299331665,-0.07733100652694702
1750935436379433700,16.489433837890626,0.7652959823608398,0.1313711702823639,0.5033034682273865
1750935436398258200,16.508258056640624,0.10982418060302734,0.17211994528770447,0.5826371908187866
1750935436417083000,16.527082763671874,0.258148193359375,0.20672671496868134,0.4668257236480713
1750935436435907300,16.5459072265625,0.43372440338134766,0.16959743201732635,0.5965527296066284
1750935436454732000,16.56473193359375,-0.04856681823730469,0.18011969327926636,0.5436892509460449
1750935436473556500,16.583556396484376,0.6472635269165039,0.13230089843273163,0.3987414836883545
1750935436492381200,16.602381103515626,1.0990829467773438,0.2835519015789032,0.44787275791168213
1750935436511205600,16.62120556640625,1.1279315948486328,0.1757064014673233,0.503675103187561
1750935436530030300,16.6400302734375,0.5742416381835938,0.3390383720397949,0.3379783034324646
1750935436548854800,16.658854736328124,-0.49175453186035156,0.0028350278735160828,-0.0388374850153923
1750935436567679500,16.677679443359374,-1.3271141052246094,-0.24493880569934845,-0.510612964630127
1750935436586504000,16.69650390625,-0.032772064208984375,-0.168003112077713,-0.7741931676864624
1750935436605328600,16.71532861328125,0.3331184387207031,-0.14895682036876678,-0.4084088206291199
1750935436624153000,16.734153076171875,0.7389936447143555,0.19830867648124695,-0.14831602573394775
1750935436642977800,16.752977783203125,1.1031913757324219,0.4215427041053772,-0.6582126617431641
1750935436661802200,16.77180224609375,-0.6226291656494141,-0.3956069350242615,-0.4835308790206909
1750935436680627000,16.790626953125,-1.8380937576293945,-0.24444667994976044,-0.8827996253967285
1750935436699451400,16.809451416015627,-0.8998937606811523,-0.10675882548093796,-0.7705329656600952
1750935436718276000,16.828276123046876,-0.6942510604858398,-0.3722071051597595,-0.3670346736907959
1750935436737100500,16.8471005859375,-0.5222644805908203,-0.007131695747375488,-0.4736694097518921
1750935436755925200,16.86592529296875,-0.1690082550048828,-0.07561367750167847,-0.3308982849121094
1750935436774749700,16.884749755859374,0.15062713623046875,-0.06339240074157715,0.058049559593200684
1750935436793574400,16.903574462890624,-0.07978248596191406,0.15270766615867615,0.22803819179534912
1750935436812398800,16.92239892578125,-0.40190982818603516,0.284273236989975,0.42379510402679443
1750935436831223600,16.9412236328125,0.3590211868286133,0.006540089845657349,-0.028499603271484375
1750935436850048000,16.960048095703126,-0.03685760498046875,0.17498737573623657,0.05616593360900879
1750935436868872700,16.978872802734376,0.1894683837890625,0.18382182717323303,0.3208158016204834
1750935436887697200,16.997697265625,0.273101806640625,0.09283240139484406,0.3553050756454468
1750935436906521900,17.01652197265625,-0.23772716522216797,-0.04947999119758606,0.3187139928340912
1750935436925346300,17.03534619140625,-0.3432931900024414,-0.09136338531970978,-0.100308358669281
1750935436944171000,17.0541708984375,-0.17052078247070312,0.05683042109012604,-0.02489146590232849
1750935436962995700,17.07299560546875,-0.3715534210205078,-0.014795325696468353,0.2890526056289673
1750935436981820200,17.091820068359375,0.004364967346191406,0.01206904649734497,-0.4156063199043274
1750935437000644900,17.110644775390625,1.878143310546875,-0.1785469651222229,-0.29004353284835815
1750935437019469300,17.12946923828125,1.9184951782226562,0.127455472946167,0.2695978879928589
1750935437038294000,17.1482939453125,1.118927001953125,0.39406758546829224,0.4910406470298767
1750935437057118500,17.167118408203127,0.9758872985839844,0.28334349393844604,0.21707510948181152
1750935437075943200,17.185943115234377,0.5238323211669922,-0.24702966213226318,0.44141221046447754
1750935437094767600,17.204767578125,-0.5002050399780273,-0.2461985945701599,-0.20103329420089722
1750935437113592300,17.22359228515625,-0.3373889923095703,-0.18961244821548462,-0.5598179697990417
1750935437132416800,17.242416748046875,-1.0115671157836914,-0.38617783784866333,-0.12809133529663086
1750935437151241500,17.261241455078125,-0.29020023345947266,0.056921571493148804,-0.3348510265350342
1750935437170066000,17.28006591796875,-0.5771455764770508,0.03784121945500374,-0.37751877307891846
1750935437188890600,17.298890625,-0.3813657760620117,-0.04029370844364166,-0.6651597023010254
1750935437207715000,17.317715087890626,-0.7489118576049805,-0.004352584481239319,-0.5379348993301392
1750935437226539800,17.336539794921876,-0.5980749130249023,0.16764682531356812,-0.48674941062927246
1750935437245364200,17.3553642578125,-0.10307693481445312,0.3072579801082611,0.30606842041015625
1750935437264189000,17.37418896484375,0.3997173309326172,-0.08549004793167114,0.15447044372558594
1750935437283013600,17.393013671875,0.5252523422241211,-0.301676481962204,-0.12229418754577637
1750935437301838000,17.411838134765624,0.6245126724243164,0.2075425237417221,0.45520472526550293
1750935437320662800,17.430662841796874,-0.05814552307128906,0.3797903060913086,0.10040569305419922
1750935437339487200,17.4494873046875,-0.21904468536376953,-0.3329616189002991,-0.6583199501037598
1750935437358312000,17.46831201171875,-0.8810272216796875,-0.2358686625957489,-0.5779685974121094
1750935437377136400,17.487136474609375,-1.156477928161621,-0.5432174801826477,-0.833406388759613
1750935437395961000,17.505961181640625,0.826904296875,0.16823934018611908,-0.23868978023529053
1750935437414785500,17.52478564453125,1.5275144577026367,-0.19218140840530396,0.6610159873962402
1750935437433610200,17.5436103515625,0.31537818908691406,0.28501051664352417,0.864117443561554
1750935437452434700,17.5624345703125,0.046843528747558594,0.22364631295204163,0.7719671726226807
1750935437471259400,17.58125927734375,0.16062068939208984,0.08581238985061646,1.1726893186569214
1750935437490084000,17.600083984375,-0.3157815933227539,0.009951844811439514,0.38228434324264526
1750935437508908500,17.618908447265625,-1.4754953384399414,-0.12263619154691696,-0.31469598412513733
1750935437527733200,17.637733154296875,-0.33606815338134766,-0.26132625341415405,-0.22744643688201904
1750935437546557700,17.6565576171875,0.8382234573364258,-0.11183665692806244,-0.1619117259979248
1750935437565382400,17.67538232421875,0.27158069610595703,0.31673577427864075,0.6247029304504395
1750935437584206800,17.694206787109376,0.6267557144165039,0.36360299587249756,0.7732790112495422
1750935437603031600,17.713031494140626,1.3816852569580078,0.42581281065940857,0.5608344078063965
1750935437621856000,17.73185595703125,1.1020946502685547,0.3155362606048584,0.06651389598846436
1750935437640680700,17.7506806640625,0.5576629638671875,0.11030617356300354,-0.317386656999588
1750935437659505400,17.76950537109375,0.4795064926147461,-0.08227533847093582,-0.28019142150878906
1750935437678329900,17.788329833984374,-0.7310371398925781,-0.9452149868011475,-0.11298620700836182
1750935437697154600,17.807154541015624,-0.5685796737670898,-0.5218573808670044,-0.6873229742050171
1750935437715979000,17.82597900390625,-0.7644805908203125,0.0035296976566314697,-0.8468262553215027
1750935437734803700,17.8448037109375,-0.8082275390625,0.17624279856681824,-0.5935831069946289
1750935437753628400,17.86362841796875,-0.6010923385620117,0.26373323798179626,-0.4861665964126587
1750935437772452900,17.882452880859375,-0.15660572052001953,0.17845124006271362,0.18436026573181152
1750935437791277600,17.901277587890625,1.0963621139526367,0.10375580191612244,0.5055081844329834
1750935437810102000,17.92010205078125,1.0435857772827148,-0.16847769916057587,0.20911431312561035
1750935437828926700,17.9389267578125,-0.017879486083984375,-0.2381008416414261,-0.7271621227264404
1750935437847751200,17.957751220703123,-2.3846278190612793,0.03423669934272766,-1.0760962963104248
1750935437866576000,17.976575927734373,-2.5776453018188477,0.07007059454917908,-1.2242428064346313
1750935437885400600,17.995400634765623,-1.8989882469177246,-0.08531132340431213,-0.8564032316207886
1750935437904225000,18.01422509765625,0.23889446258544922,-0.3337840437889099,0.00033664703369140625
1750935437923049700,18.0330498046875,0.17110347747802734,-0.11451000720262527,-0.012488245964050293
1750935437941874200,18.051874267578125,-0.46843719482421875,0.0005601793527603149,-0.4066089391708374
1750935437960699000,18.070698974609375,-1.0465688705444336,-0.020823746919631958,-0.4889521300792694
1750935437979523300,18.0895234375,0.014302253723144531,-0.26666247844696045,-0.03993631899356842
1750935437998348000,18.10834814453125,1.7319765090942383,0.05161299183964729,0.6642638444900513
1750935438017172700,18.1271728515625,1.7857980728149414,-0.1038685217499733,1.0887174606323242
1750935438035997200,18.1459970703125,0.5057506561279297,0.49210095405578613,0.2891576290130615
1750935438054822000,18.16482177734375,0.39337158203125,0.3731890320777893,0.4927239418029785
1750935438073646600,18.183646484375,1.123870849609375,0.4330931603908539,0.7175146341323853
1750935438092471000,18.202470947265624,2.3149499893188477,0.16680701076984406,0.4918633699417114
1750935438111295700,18.221295654296874,1.919816017150879,0.10469458997249603,0.016952991485595703
1750935438130120200,18.2401201171875,0.5870857238769531,0.27606460452079773,-0.9677726030349731
1750935438148945000,18.25894482421875,0.09743881225585938,-0.06981518864631653,-0.5176112651824951
1750935438167769300,18.277769287109376,-0.03194904327392578,-1.111502766609192,0.626531720161438
1750935438186594000,18.296593994140625,-0.4365348815917969,-0.39928990602493286,-0.05077594518661499
1750935438205418800,18.315418701171875,-0.3222932815551758,0.49085623025894165,-0.8337436318397522
1750935438224243200,18.3342431640625,-0.41048336029052734,0.31639957427978516,-0.551199734210968
1750935438243068000,18.35306787109375,-0.6624698638916016,0.5612593293190002,-0.5276397466659546
1750935438261892400,18.371892333984373,-0.5385780334472656,0.3774283230304718,-0.35514628887176514
1750935438280717000,18.390717041015623,-0.5212135314941406,-0.0966884046792984,-0.44527244567871094
1750935438299541800,18.409541748046873,-0.4979391098022461,-0.31450745463371277,-0.7602807283401489
1750935438318366200,18.4283662109375,-0.14833450317382812,0.00661202147603035,-0.27502918243408203
1750935438337191000,18.44719091796875,0.5001115798950195,0.03042844869196415,0.18336820602416992
1750935438356015400,18.466015380859375,1.0930776596069336,0.01587032526731491,0.4107942581176758
1750935438374840000,18.484840087890625,-0.4862060546875,0.13286587595939636,0.21671342849731445
1750935438393664800,18.503664794921875,-0.7837715148925781,-0.29274290800094604,-0.43058252334594727
1750935438412489200,18.5224892578125,-0.9694957733154297,-0.3372045159339905,-1.13380765914917
1750935438431314000,18.54131396484375,-1.1348800659179688,-0.3757953643798828,-0.5821242332458496
1750935438450138600,18.560138671875,-1.0246343612670898,-0.061336517333984375,-0.18545126914978027
1750935438468963000,18.578963134765626,-1.0920228958129883,0.0070729851722717285,0.1551647186279297
1750935438487787800,18.597787841796876,-0.4479846954345703,0.30760541558265686,0.33923161029815674
1750935438506612500,18.616612548828126,0.45448970794677734,0.043256163597106934,0.1894327998161316
1750935438525437000,18.63543701171875,0.2839689254760742,-0.212471604347229,0.6661682724952698
1750935438544261600,18.65426171875,0.3931455612182617,0.04225987195968628,0.7236217260360718
1750935438563086300,18.67308642578125,1.4075584411621094,0.21974992752075195,0.6342095136642456
1750935438581910800,18.691910888671874,2.0329971313476562,0.23840367794036865,1.0268748998641968
1750935438600735500,18.710735595703124,1.5941333770751953,0.2615569829940796,0.959531843662262
1750935438619560000,18.729559814453125,-0.5439748764038086,0.012556850910186768,0.23684537410736084
1750935438638384600,18.748384521484375,-0.9382810592651367,-0.25039535760879517,-0.5731617212295532
1750935438657209300,18.767209228515625,-0.11470794677734375,-0.10232838988304138,-0.8469542264938354
1750935438676033800,18.78603369140625,1.3663759231567383,0.006215348839759827,-0.47133350372314453
1750935438694858500,18.8048583984375,2.1024112701416016,0.1485878825187683,0.30877333879470825
1750935438713683200,18.82368310546875,1.557037353515625,0.4127143919467926,-0.1479969024658203
1750935438732507600,18.842507568359373,0.5182485580444336,0.06891810894012451,-0.09135353565216064
1750935438751332400,18.861332275390627,-1.265580177307129,-0.49068331718444824,-0.014232456684112549
1750935438770157000,18.880156982421877,-1.1142816543579102,-0.2775527834892273,-0.8071433305740356
1750935438788981500,18.8989814453125,-0.5880327224731445,-0.27044910192489624,-0.9168281555175781
1750935438807806200,18.91780615234375,-0.3207206726074219,-0.13415727019309998,-0.44488561153411865
1750935438826631000,18.936630859375,0.10539531707763672,0.18443375825881958,-0.22125673294067383
1750935438845455400,18.955455322265625,0.522822380065918,0.12130111455917358,-0.11207985877990723
1750935438864280000,18.974280029296875,0.3656625747680664,0.11857655644416809,-0.057601213455200195
1750935438883104500,18.9931044921875,-0.4031248092651367,0.0577387809753418,-0.475405216217041
1750935438901929200,19.01192919921875,-1.0691776275634766,-0.3186078667640686,-1.1047258377075195
1750935438920754000,19.03075390625,-1.4525117874145508,-0.18377839028835297,-1.204409122467041
1750935438939578400,19.049578369140626,-0.5384244918823242,-0.0919746458530426,-0.3632519245147705
1750935438958403000,19.068403076171876,-0.8859462738037109,0.34943515062332153,-0.05085468292236328
1750935438977227800,19.087227783203126,-1.58339262008667,0.11262357234954834,0.058034420013427734
1750935438996052200,19.10605224609375,-2.2248640060424805,-0.21112844347953796,-0.03334450721740723
1750935439014877000,19.124876953125,-1.0413522720336914,-0.05058199167251587,-0.40467023849487305
1750935439033701600,19.14370166015625,-0.17467975616455078,-0.15383465588092804,0.171217143535614
1750935439052526000,19.162526123046874,0.27074337005615234,0.05688782036304474,0.3839585781097412
1750935439071350800,19.181350830078124,2.2872743606567383,0.2708190381526947,0.48880454897880554
1750935439090175500,19.200175537109374,1.334620475769043,0.22480306029319763,1.1546876430511475
1750935439109000000,19.219,0.4334230422973633,0.18139895796775818,0.8422735929489136
1750935439127824600,19.23782470703125,1.2321748733520508,0.037679195404052734,0.15739476680755615
1750935439146649300,19.2566494140625,1.9861068725585938,-0.06271570920944214,0.38180625438690186
1750935439165473800,19.275473876953125,1.2288742065429688,0.17310790717601776,0.32087278366088867
1750935439184298500,19.294298583984375,0.8054904937744141,0.25753679871559143,-0.10310667753219604
1750935439203123200,19.313123291015625,0.8702449798583984,0.2699964642524719,-0.5497159361839294
1750935439221948000,19.331947998046875,0.49950695037841797,0.09737798571586609,-0.5496957302093506
1750935439240772400,19.3507724609375,-0.4606208801269531,-0.21080932021141052,-0.44337186217308044
1750935439259597000,19.36959716796875,-0.2986574172973633,-0.23452633619308472,-0.5425116419792175
1750935439278421500,19.38842138671875,-0.0625009536743164,-0.3177569508552551,-0.5879265666007996
1750935439306658600,19.416658447265625,-0.10914897918701172,-0.0694194883108139,-0.8043888807296753
1750935439325483300,19.435483154296875,0.20908451080322266,-0.01508195698261261,-0.6281306743621826
1750935439344307700,19.4543076171875,0.265594482421875,-0.2042773962020874,-0.12355256080627441
1750935439363132400,19.47313232421875,-0.6736869812011719,-0.3253711462020874,0.06732654571533203
1750935439381957000,19.49195703125,-0.44403076171875,0.1037731021642685,-0.37168288230895996
1750935439400781600,19.510781494140623,-0.6668243408203125,0.08858257532119751,-0.3769986629486084
1750935439419606300,19.529606201171877,-0.7304658889770508,-0.01807957887649536,-0.20226526260375977
1750935439438431000,19.548430908203127,-0.8715953826904297,-0.052858516573905945,-0.18188714981079102
1750935439457255400,19.56725537109375,-1.0539579391479492,-0.2821602523326874,-0.19331073760986328
1750935439476080000,19.586080078125,-1.8254938125610352,-0.15660381317138672,-0.3539927005767822
1750935439494904800,19.60490478515625,-1.7797284126281738,-0.08040425181388855,-0.3155834674835205
1750935439513729500,19.6237294921875,-0.8492050170898438,0.07357943058013916,-0.1083681583404541
1750935439532554000,19.642553955078125,0.6970911026000977,0.2081635743379593,-0.13443565368652344
1750935439551378700,19.661378662109374,1.4905929565429688,0.13179245591163635,0.07299536466598511
1750935439570203400,19.680203369140624,0.10136795043945312,0.14465878903865814,0.5632214546203613
1750935439589027800,19.69902783203125,-0.628997802734375,0.24496813118457794,0.35024216771125793
1750935439607852500,19.7178525390625,0.1425323486328125,0.02079261839389801,-0.15965354442596436
1750935439626677200,19.73667724609375,1.984689712524414,-0.19413363933563232,-0.02184617519378662
1750935439645501700,19.755501708984376,1.457444190979004,0.10809028148651123,0.5262773036956787
1750935439664326400,19.774326416015626,1.2015504837036133,0.2104594111442566,0.5523379445075989
1750935439683151000,19.793151123046876,0.9691505432128906,0.19443419575691223,0.5160134434700012
1750935439701975800,19.811975830078126,0.18259143829345703,0.1726764738559723,0.11912906169891357
1750935439720800300,19.83080029296875,0.32589244842529297,0.1273975372314453,-0.3034887909889221
1750935439739625000,19.849625,1.3396987915039062,0.029666423797607422,-0.2040543556213379
1750935439758449700,19.86844970703125,1.1917667388916016,0.17209884524345398,-0.2703399360179901
1750935439777274000,19.887274169921874,0.7828540802001953,0.01156628131866455,-0.53590989112854
1750935439796098800,19.906098876953124,-0.21820545196533203,-0.2448321282863617,-0.7693045139312744
1750935439814923500,19.924923583984373,-0.8047409057617188,-0.2916110157966614,-0.6103808283805847
1750935439833748000,19.943748046875,-0.41617488861083984,-0.3679811656475067,-0.3734419345855713
1750935439852572700,19.96257275390625,0.07365226745605469,-0.13661685585975647,-0.20197641849517822
1750935439871397400,19.9813974609375,-0.10796737670898438,-0.006492689251899719,-0.10408234596252441
1750935439890222000,20.00022216796875,-0.032525062561035156,-0.03643365204334259,0.027647972106933594
1750935439909046500,20.019046630859375,-0.31873321533203125,0.06257130205631256,-0.47867417335510254
1750935439927871200,20.037871337890625,-1.2532930374145508,-0.15107285976409912,-0.5949251651763916
1750935439946696000,20.056696044921875,-1.78668212890625,-0.12614212930202484,-0.6031701564788818
1750935439965520600,20.075520751953125,-1.5704126358032227,-0.1317555457353592,-0.4560415744781494
1750935439984345000,20.094344970703126,-1.0393447875976562,-0.052229076623916626,-0.17213177680969238
1750935440003169800,20.113169677734376,-0.297576904296875,-0.04310987889766693,-0.07049560546875
1750935440021994500,20.131994384765626,-0.6684188842773438,0.27586549520492554,-0.16047453880310059
1750935440040819000,20.15081884765625,-0.8805389404296875,-0.07674689590930939,0.04794001579284668
1750935440059643600,20.1696435546875,-0.5458126068115234,-0.08837324380874634,-0.11329889297485352
1750935440078468400,20.18846826171875,0.07206916809082031,-0.02846282161772251,0.09294378757476807
1750935440097293000,20.20729296875,1.0050983428955078,0.08593878149986267,0.21504461765289307
1750935440116117500,20.226117431640624,1.6123991012573242,0.10498673468828201,0.28565844893455505
1750935440134942200,20.244942138671874,0.5963678359985352,0.07588754594326019,0.4646185338497162
1750935440153767000,20.263766845703124,0.42432689666748047,0.15348683297634125,0.2931510806083679
1750935440172591400,20.28259130859375,0.9371738433837891,0.09671199321746826,0.4416835308074951
1750935440191416000,20.301416015625,1.696542739868164,0.07146230340003967,0.5228228569030762
1750935440210240800,20.32024072265625,0.7750892639160156,0.0889194905757904,0.45253366231918335
1750935440229065500,20.3390654296875,0.35894203186035156,0.2515772879123688,-0.06532219052314758
1750935440247890000,20.357889892578125,0.6933088302612305,0.09834238886833191,-0.23332083225250244
1750935440266714600,20.376714599609375,0.4870491027832031,-0.012406796216964722,-0.3219606876373291
1750935440285539300,20.395539306640625,-0.08038806915283203,0.20966051518917084,-0.6475913524627686
1750935440304363800,20.41436376953125,-0.04358482360839844,-0.13051068782806396,-0.467604398727417
1750935440323188500,20.4331884765625,0.08539772033691406,-0.17233631014823914,-0.33959805965423584
1750935440342013200,20.45201318359375,-0.37996864318847656,-0.23990292847156525,-0.4246945381164551
1750935440360838000,20.470837890625,-0.5821475982666016,-0.16964209079742432,-0.3410067558288574
1750935440379662300,20.489662353515627,-0.04711151123046875,-0.04690907895565033,-0.34148693084716797
1750935440398487000,20.508487060546877,0.1828746795654297,-0.026104062795639038,-0.19048333168029785
1750935440417311700,20.527311767578126,-0.2700643539428711,0.0459989495575428,-0.35680341720581055
1750935440436136200,20.54613623046875,-0.6311044692993164,-0.10550358146429062,-0.4426276683807373
1750935440454961000,20.5649609375,-0.6076364517211914,-0.2735609710216522,-0.33838915824890137
1750935440473785600,20.58378564453125,-0.27710723876953125,-0.1424216628074646,-0.48141050338745117
1750935440492610300,20.6026103515625,-1.1012248992919922,0.0415867455303669,-0.47663259506225586
1750935440511434800,20.621434814453124,-2.949490547180176,-0.005359014496207237,-0.45684218406677246
1750935440530259500,20.640259521484374,-1.8045697212219238,0.19161902368068695,-0.7470760345458984
1750935440549084200,20.659084228515624,1.0976924896240234,-0.11319683492183685,-0.7060826420783997
1750935440567908900,20.677908935546874,1.840672492980957,0.06059611216187477,-0.030059516429901123
1750935440586733300,20.6967333984375,0.22577762603759766,0.3392246663570404,0.6250261664390564
1750935440605558000,20.71555810546875,-0.5785856246948242,0.06455792486667633,0.8665309548377991
1750935440624382700,20.7343828125,0.4834575653076172,-0.052046000957489014,0.5333256721496582
1750935440643207400,20.75320751953125,2.2424745559692383,0.03519973158836365,0.6280696988105774
1750935440662032000,20.772031982421876,2.120232582092285,-0.02040398120880127,1.0233941078186035
1750935440680856600,20.790856689453125,1.2377262115478516,0.4011419713497162,0.6826224327087402
1750935440699681300,20.809681396484375,0.4204273223876953,0.33835095167160034,0.2743767499923706
1750935440718505700,20.828505615234373,0.12663936614990234,-0.12511542439460754,0.18055987358093262
1750935440737330400,20.847330322265623,-0.21884918212890625,-0.08915987610816956,-0.17082935571670532
1750935440756155100,20.866155029296873,0.036955833435058594,-0.0810312032699585,-0.2539537250995636
1750935440774979800,20.884979736328123,0.1514902114868164,-0.03788003325462341,-0.20475134253501892
1750935440793804300,20.90380419921875,0.05297660827636719,-0.031168803572654724,0.014231622219085693
1750935440822041300,20.932041259765626,0.5329074859619141,0.09715035557746887,-0.13675034046173096
1750935440840866000,20.950865966796876,0.2836170196533203,-0.08772733807563782,-0.5201882123947144
1750935440859690500,20.9696904296875,-0.4160490036010742,-0.35787659883499146,-0.9169821739196777
1750935440878515200,20.98851513671875,-0.21575450897216797,-0.20142143964767456,-1.0185332298278809
1750935440897340000,21.00733984375,0.15346336364746094,-0.00020983070135116577,-0.7842941284179688
1750935440916164600,21.02616455078125,0.04234790802001953,0.014648478478193283,-0.2132406234741211
1750935440934989000,21.044989013671874,0.16058063507080078,0.25073087215423584,-0.1802980899810791
1750935440953813800,21.063813720703124,-0.37890148162841797,-0.007071949541568756,-0.31777024269104004
1750935440972638500,21.082638427734373,-1.2657575607299805,-0.16570442914962769,-0.7656469345092773
1750935440991463200,21.101463134765623,-1.7817111015319824,-0.06402191519737244,-0.782271146774292
1750935441010287600,21.12028759765625,-1.6296591758728027,-0.00862376019358635,-0.6196951866149902
1750935441029112300,21.1391123046875,-0.57733154296875,-0.2799736261367798,-0.15476679801940918
1750935441047937000,21.15793701171875,0.7252941131591797,0.06989877671003342,-0.2840855121612549
1750935441066761700,21.17676171875,0.35579681396484375,0.2056201994419098,0.14390909671783447
1750935441085586200,21.195586181640625,-0.10571575164794922,0.19620227813720703,0.38919657468795776
1750935441104411000,21.214410888671875,-0.08351707458496094,-0.05810193717479706,0.4489923119544983
1750935441123235600,21.233235595703125,-0.4940357208251953,-0.03414708375930786,0.49849197268486023
1750935441142060300,21.252060302734375,0.9801416397094727,-0.03474164009094238,0.38902056217193604
1750935441160884700,21.270884765625,2.038555145263672,0.16917821764945984,0.6618860960006714
1750935441179709400,21.28970947265625,2.1433820724487305,0.20630598068237305,1.1885316371917725
1750935441198534100,21.3085341796875,1.7075462341308594,0.297015905380249,1.153735876083374
1750935441217358600,21.327358642578126,1.045846939086914,0.3609517216682434,0.3704136610031128
1750935441236183300,21.346183349609376,0.32019519805908203,0.07289576530456543,-0.10800603032112122
1750935441255008000,21.365008056640626,-0.6399812698364258,-0.3704393208026886,-0.18351010978221893
1750935441273832700,21.383832763671876,-0.26641368865966797,-0.011911779642105103,-0.5157645344734192
1750935441292657200,21.4026572265625,0.00023746490478515625,-0.17751336097717285,-0.37472736835479736
1750935441311481900,21.42148193359375,-0.30035877227783203,-0.16517359018325806,-0.35747230052948
1750935441330306600,21.440306640625,-0.28626251220703125,0.13061656057834625,-0.7289450168609619
1750935441349131300,21.45913134765625,-0.6343917846679688,-0.11273793876171112,-1.0023705959320068
1750935441367955700,21.477955810546874,-0.3849325180053711,-0.2976350784301758,-1.211337685585022
1750935441386780400,21.496780517578124,0.06432151794433594,-0.13144733011722565,-1.229130506515503
1750935441405605000,21.515605224609374,-1.1347637176513672,0.018001481890678406,-0.47629714012145996
1750935441424429800,21.534429931640624,-0.974553108215332,0.07654902338981628,-0.37313270568847656
1750935441443254300,21.553254150390625,-0.6208410263061523,-0.1769029200077057,-0.25367021560668945
1750935441462079000,21.572078857421875,-0.2488546371459961,-0.09132638573646545,-0.554964542388916
1750935441480903700,21.590903564453125,-0.41197776794433594,0.03559580817818642,-0.6555070877075195
1750935441499728100,21.60972802734375,-0.19297313690185547,0.14659199118614197,-0.3581811785697937
1750935441518552800,21.628552734375,0.43476200103759766,0.08508918434381485,0.24086406826972961
1750935441537377500,21.64737744140625,0.27520179748535156,0.11772876977920532,0.6542805433273315
1750935441556202200,21.6662021484375,0.90264892578125,0.13714101910591125,0.7855814695358276
1750935441575026700,21.685026611328126,1.5162334442138672,0.1808731108903885,0.938861608505249
1750935441593851400,21.703851318359376,1.698918342590332,0.11044800281524658,0.9181886315345764
1750935441612676000,21.722676025390626,1.7179079055786133,0.13376235961914062,1.1693000793457031
1750935441631500800,21.741500732421876,1.2766332626342773,0.12645509839057922,0.8636383414268494
1750935441650325200,21.7603251953125,0.6107044219970703,0.23209916055202484,0.5050596594810486
1750935441669150000,21.77914990234375,0.5497350692749023,0.18982625007629395,-0.12276959419250488
1750935441687974700,21.797974609375,0.4327707290649414,-0.01682370901107788,-0.5614584684371948
1750935441706799400,21.81679931640625,-1.3061800003051758,-0.3527476489543915,-0.7426448464393616
1750935441725623800,21.835623779296874,-0.43442440032958984,-0.14544658362865448,-0.6776683926582336
1750935441744448500,21.854448486328124,0.48176002502441406,-0.19589965045452118,-0.13608336448669434
1750935441763273200,21.873273193359374,0.6625146865844727,0.10092231631278992,-0.07317352294921875
1750935441782097700,21.89209765625,0.11361885070800781,0.10587014257907867,-0.5445449352264404
1750935441800922400,21.91092236328125,-0.22611713409423828,-0.2528907358646393,-0.6750009059906006
1750935441819747000,21.9297470703125,-0.3536529541015625,-0.30349013209342957,-1.295942783355713
1750935441838571800,21.94857177734375,-0.672572135925293,-0.23832553625106812,-1.313708782196045
1750935441857396200,21.967396240234375,-1.0155401229858398,-0.30150508880615234,-0.9903378486633301
1750935441876221000,21.986220947265625,-2.0551910400390625,-0.02728893980383873,-0.6465249061584473
1750935441895045600,22.005045654296875,-1.6798133850097656,0.08948951959609985,-0.561575174331665
1750935441913870300,22.023870361328125,-0.4778299331665039,0.3464439809322357,-0.6380914449691772
1750935441932694800,22.04269482421875,0.9073419570922852,0.0716572105884552,-0.11008167266845703
1750935441951519500,22.06151953125,0.7313127517700195,0.18169939517974854,0.12032616138458252
1750935441970344200,22.08034423828125,-0.3276557922363281,0.151729017496109,0.1306239366531372
1750935441989168600,22.099168701171877,0.5487651824951172,0.003792501986026764,0.1393660604953766
1750935442007993300,22.117993408203127,1.1641254425048828,0.0724957063794136,0.9050464034080505
1750935442026818000,22.136818115234377,1.464554786682129,0.3928167223930359,1.0651748180389404
1750935442045642800,22.155642822265627,0.583470344543457,-0.2168111503124237,1.7418639659881592
1750935442064467200,22.17446728515625,0.5608234405517578,0.023690223693847656,1.1455796957015991
1750935442083292000,22.1932919921875,1.3154296875,0.13356800377368927,0.6849032640457153
1750935442102116600,22.21211669921875,2.2128705978393555,0.27529075741767883,0.42872655391693115
1750935442120941300,22.23094140625,1.6463022232055664,0.39299774169921875,-0.17973440885543823
1750935442139765800,22.249765869140624,0.041584014892578125,0.04651607573032379,-0.751885712146759
1750935442158590500,22.268590576171874,-2.1572632789611816,-0.520397424697876,-0.5457273721694946
1750935442177415200,22.287415283203124,-1.3442420959472656,-0.159275084733963,-0.6583979725837708
1750935442196240000,22.306239990234374,-0.5061149597167969,-0.21760293841362,-0.3717707395553589
1750935442215064300,22.325064208984376,-0.29894351959228516,0.05436015501618385,-0.304337739944458
1750935442233889000,22.343888916015626,0.5565967559814453,0.053450148552656174,-0.30687689781188965
1750935442252713700,22.362713623046876,1.1933345794677734,0.06355579197406769,-0.8587961196899414
1750935442271538200,22.3815380859375,-0.06813240051269531,-0.2529551684856415,-1.1504569053649902
1750935442290363000,22.40036279296875,-1.5069713592529297,-0.1015486940741539,-1.4339075088500977
1750935442309187600,22.4191875,-1.7977490425109863,-0.09180109947919846,-1.2087020874023438
1750935442328012000,22.438011962890624,-0.46344947814941406,0.015164196491241455,-0.5639791488647461
1750935442346836700,22.456836669921874,0.8256855010986328,0.07134242355823517,-0.15139079093933105
1750935442365661400,22.475661376953123,-0.054085731506347656,0.3840731084346771,-0.5095922946929932
1750935442384486100,22.494486083984373,-1.0828094482421875,0.08784609287977219,-0.8015754222869873
1750935442403310600,22.513310546875,0.0712442398071289,-0.034743525087833405,-0.42856335639953613
1750935442422135300,22.53213525390625,1.9644088745117188,0.1956137716770172,0.49965745210647583
1750935442440960000,22.5509599609375,1.2124385833740234,0.22358115017414093,1.4950846433639526
1750935442459784700,22.56978466796875,0.9857301712036133,0.1117124855518341,1.8172473907470703
1750935442478609200,22.588609130859375,0.9257640838623047,-0.1460186392068863,1.9751546382904053
1750935442497433900,22.607433837890625,1.4451303482055664,0.10214090347290039,1.1249815225601196
1750935442516258600,22.626258544921875,1.5503349304199219,0.09262523055076599,0.631155252456665
1750935442535083300,22.645083251953125,-0.13321495056152344,0.11093935370445251,-0.16519111394882202
1750935442553907700,22.66390771484375,-1.0348033905029297,-0.030864402651786804,-0.46847906708717346
1750935442572732400,22.682732421875,0.032820701599121094,0.017603248357772827,-0.47589027881622314
1750935442591557000,22.70155712890625,1.0905418395996094,0.3123868703842163,-0.6648792624473572
1750935442610381600,22.720381591796876,0.5504922866821289,-0.17063534259796143,-0.07202613353729248
1750935442629206300,22.739206298828126,-0.10964584350585938,-0.02253146469593048,-0.39395689964294434
1750935442648031000,22.758031005859376,-0.8296928405761719,-0.17106130719184875,-0.9636263847351074
1750935442666855700,22.776855712890626,-0.1438131332397461,-0.1403418779373169,-1.045163869857788
1750935442685680000,22.79568017578125,0.639495849609375,-0.07195591926574707,-0.6394267082214355
1750935442704504800,22.8145048828125,0.4969806671142578,0.12506140768527985,-0.8285613059997559
1750935442723329500,22.83332958984375,-0.7700099945068359,0.02409285306930542,-0.9146580696105957
1750935442742154000,22.852154052734374,-1.4456086158752441,-0.23331496119499207,-0.6374533176422119
1750935442760978700,22.870978759765624,-0.9690756797790527,-0.17700229585170746,-0.5631873607635498
1750935442779803400,22.889803466796874,-0.7497310638427734,-0.03644329309463501,-0.22887420654296875
1750935442798628000,22.908628173828124,0.6188020706176758,0.1050122007727623,-0.06050872802734375
1750935442817452500,22.92745263671875,0.7122650146484375,0.19321811199188232,-0.05468630790710449
1750935442836277200,22.94627734375,-0.8936138153076172,0.0670228898525238,-0.16379618644714355
1750935442855102000,22.96510205078125,-0.6991710662841797,0.15521706640720367,-0.37665510177612305
1750935442873926400,22.983926513671875,1.0083608627319336,0.08316081762313843,0.08971560001373291
1750935442892751000,23.002751220703125,0.9484529495239258,0.051056936383247375,1.121273398399353
1750935442911575800,23.021575927734375,-0.22607803344726562,-0.1940106898546219,1.3792750835418701
1750935442930400300,23.040400146484377,-0.7869472503662109,-0.08802975714206696,0.9723788499832153
1750935442949225000,23.059224853515627,-0.40751075744628906,-0.1857021301984787,0.7598187327384949
1750935442968049700,23.078049560546877,0.3113059997558594,0.08275134861469269,0.40531209111213684
1750935442986874400,23.096874267578126,1.5162849426269531,0.0969557911157608,0.31962960958480835
1750935443005698800,23.11569873046875,1.7601747512817383,0.3049284517765045,0.6020932197570801
1750935443024523500,23.1345234375,1.1407155990600586,0.07377411425113678,0.9219245910644531
1750935443043348200,23.15334814453125,-1.0105981826782227,0.21114957332611084,-0.3658176064491272
1750935443062173000,23.1721728515625,-0.5693330764770508,-0.39177602529525757,-0.864564836025238
1750935443080997400,23.190997314453124,0.5426931381225586,-0.367012083530426,-1.1644070148468018
1750935443099822000,23.209822021484374,0.38854503631591797,-0.20516693592071533,-0.4903883934020996
1750935443118646800,23.228646728515624,1.4662141799926758,0.2449207901954651,-0.11270499229431152
1750935443137471200,23.24747119140625,1.0842103958129883,0.32930421829223633,-0.38672327995300293
