time,seconds_elapsed,z,y,x
1750935420030260500,0.140260498046875,9.765104293823242,-0.020909497514367104,0.9014912247657776
1750935420077322200,0.187322265625,9.763725280761719,-0.0285936389118433,0.9160974025726318
1750935420124384000,0.234384033203125,9.762702941894531,-0.02405795268714428,0.9270546436309814
1750935420152620800,0.262620849609375,9.763469696044922,-0.025688763707876205,0.9189062714576721
1750935420171445500,0.281445556640625,9.764404296875,-0.024064410477876663,0.9089649319648743
1750935420190270200,0.300270263671875,9.76436996459961,-0.021589556708931923,0.9093986749649048
1750935420209095000,0.319094970703125,9.763983726501465,-0.020313549786806107,0.9135673642158508
1750935420227919600,0.337919677734375,9.7640962600708,-0.01917942613363266,0.9123867750167847
1750935420246744300,0.356744384765625,9.764204978942871,-0.013321300968527794,0.9113161563873291
1750935420265568800,0.37556884765625,9.764581680297852,-0.007491088472306728,0.9073446393013
1750935420284393500,0.3943935546875,9.764697074890137,-0.004241588059812784,0.9061256051063538
1750935420303218200,0.41321826171875,9.764272689819336,-0.00434097507968545,0.910686731338501
1750935420322043000,0.43204296875,9.76366138458252,-0.006752431392669678,0.9171993732452393
1750935420340867600,0.45086767578125,9.763497352600098,-0.011195194907486439,0.918907642364502
1750935420359692300,0.4696923828125,9.763657569885254,-0.014210405759513378,0.9171577095985413
1750935420378517000,0.48851708984375,9.763463020324707,-0.016587968915700912,0.9191886782646179
1750935420397341700,0.507341796875,9.763197898864746,-0.015762610360980034,0.922007143497467
1750935420416166400,0.52616650390625,9.763114929199219,-0.016660403460264206,0.9228686094284058
1750935420434990800,0.544990966796875,9.763175010681152,-0.01897384412586689,0.9221935272216797
1750935420453815600,0.563815673828125,9.763376235961914,-0.021135808899998665,0.9200210571289062
1750935420472640300,0.58264013671875,9.763461112976074,-0.02492820844054222,0.9190068244934082
1750935420491465000,0.60146484375,9.763312339782715,-0.02773483470082283,0.9205106496810913
1750935420510289700,0.62028955078125,9.76358413696289,-0.029525669291615486,0.917564332485199
1750935420529114400,0.6391142578125,9.763806343078613,-0.02876511588692665,0.9152315855026245
1750935420547939000,0.65793896484375,9.763593673706055,-0.02462422288954258,0.9176090359687805
1750935420566763800,0.676763671875,9.763696670532227,-0.019834429025650024,0.9166336059570312
1750935420585588500,0.69558837890625,9.76379108428955,-0.014560255222022533,0.9157260656356812
1750935420604413200,0.7144130859375,9.763978004455566,-0.012204110622406006,0.9137641191482544
1750935420623238000,0.73323779296875,9.76424503326416,-0.014642764814198017,0.9108796119689941
1750935420642062600,0.7520625,9.764554023742676,-0.02023967355489731,0.9074442386627197
1750935420660887000,0.770886962890625,9.764646530151367,-0.022660790011286736,0.9064012169837952
1750935420679711700,0.789711669921875,9.764673233032227,-0.02317645400762558,0.9060877561569214
1750935420707948800,0.81794873046875,9.764348030090332,-0.021564150229096413,0.9096340537071228
1750935420726773500,0.8367734375,9.76442813873291,-0.019661007449030876,0.9088131189346313
1750935420745598200,0.85559814453125,9.764942169189453,-0.019491145387291908,0.903286874294281
1750935420764423000,0.8744228515625,9.765486717224121,-0.02198714204132557,0.8973135948181152
1750935420783247600,0.89324755859375,9.765861511230469,-0.027609193697571754,0.8930777907371521
1750935420802072300,0.912072265625,9.766294479370117,-0.03342331945896149,0.8881153464317322
1750935420820897000,0.93089697265625,9.76618766784668,-0.03706462308764458,0.8891680240631104
1750935420839721700,0.9497216796875,9.765965461730957,-0.040618475526571274,0.8914394378662109
1750935420858546400,0.96854638671875,9.766284942626953,-0.04623343423008919,0.8876495957374573
1750935420877371100,0.98737109375,9.766703605651855,-0.053491465747356415,0.8826196789741516
1750935420896195800,1.00619580078125,9.766656875610352,-0.05961693078279495,0.8827453255653381
1750935420915020500,1.0250205078125,9.7664213180542,-0.06340043246746063,0.8850839138031006
1750935420933845200,1.04384521484375,9.767115592956543,-0.06874340772628784,0.8770029544830322
1750935420952669700,1.062669677734375,9.768120765686035,-0.07654903829097748,0.8650555610656738
1750935420971494400,1.081494384765625,9.768243789672852,-0.07919610291719437,0.8634361028671265
1750935420990319000,1.100319091796875,9.767955780029297,-0.0771951973438263,0.866881251335144
1750935421009143800,1.119143798828125,9.768281936645508,-0.0766550675034523,0.863248884677887
1750935421027968500,1.137968505859375,9.768945693969727,-0.08083552122116089,0.8553127646446228
1750935421046793200,1.156793212890625,9.769230842590332,-0.08682592213153839,0.8514500856399536
1750935421065618000,1.175617919921875,9.769392967224121,-0.09275341778993607,0.8489704132080078
1750935421084442600,1.194442626953125,9.769577026367188,-0.09643600136041641,0.8464330434799194
1750935421103267300,1.213267333984375,9.769887924194336,-0.09914680570363998,0.8425330519676208
1750935421122092000,1.232092041015625,9.770127296447754,-0.1012583076953888,0.8395020961761475
1750935421140916700,1.250916748046875,9.770210266113281,-0.10164303332567215,0.8384819626808167
1750935421159741400,1.269741455078125,9.77016544342041,-0.0996999517083168,0.8392285704612732
1750935421178566100,1.288566162109375,9.771045684814453,-0.09626474976539612,0.8293257355690002
1750935421197390800,1.307390869140625,9.772639274597168,-0.09527697414159775,0.8104501366615295
1750935421216215600,1.326215576171875,9.772889137268066,-0.09288350492715836,0.8077014088630676
1750935421235040300,1.345040283203125,9.77330207824707,-0.08775648474693298,0.8032872080802917
1750935421253865000,1.363864990234375,9.774617195129395,-0.07869420200586319,0.7880691289901733
1750935421272689700,1.382689697265625,9.77601146697998,-0.06898415833711624,0.7715036273002625
1750935421291514400,1.401514404296875,9.776718139648438,-0.060642044991254807,0.7632060647010803
1750935421310339000,1.420339111328125,9.776627540588379,-0.05233600363135338,0.7649931311607361
1750935421329163800,1.439163818359375,9.776803016662598,-0.04573943838477135,0.7631626129150391
1750935421347988500,1.457988525390625,9.776413917541504,-0.04128235951066017,0.7683776617050171
1750935421366813200,1.476813232421875,9.774758338928223,-0.03622789680957794,0.7894177436828613
1750935421385638000,1.495637939453125,9.773252487182617,-0.03445180878043175,0.8079174757003784
1750935421404462600,1.514462646484375,9.772732734680176,-0.041596367955207825,0.8138533234596252
1750935421423287000,1.533287109375,9.772604942321777,-0.054105568677186966,0.8146505951881409
1750935421442111700,1.55211181640625,9.771492004394531,-0.0656888335943222,0.8270645141601562
1750935421460936400,1.5709365234375,9.770275115966797,-0.07400445640087128,0.8406203389167786
1750935421479761200,1.58976123046875,9.76860523223877,-0.08265605568885803,0.8590070009231567
1750935421498585900,1.6085859375,9.766666412353516,-0.09594510495662689,0.8794375061988831
1750935421517410600,1.62741064453125,9.765125274658203,-0.11644336581230164,0.8939526677131653
1750935421536235300,1.6462353515625,9.763151168823242,-0.13674217462539673,0.9124475717544556
1750935421555060000,1.66506005859375,9.760966300964355,-0.14656412601470947,0.9340459108352661
1750935421573884700,1.683884765625,9.75946044921875,-0.14657166600227356,0.9496496319770813
1750935421592709400,1.70270947265625,9.757038116455078,-0.1441955715417862,0.9745832085609436
1750935421611534000,1.7215341796875,9.753063201904297,-0.14673268795013428,1.0132173299789429
1750935421630358800,1.74035888671875,9.749207496643066,-0.15368583798408508,1.0486798286437988
1750935421649183500,1.75918359375,9.746752738952637,-0.15610897541046143,1.0709009170532227
1750935421668008200,1.77800830078125,9.746524810791016,-0.15331558883190155,1.0733778476715088
1750935421686833000,1.7968330078125,9.748869895935059,-0.14817816019058228,1.0525991916656494
1750935421705657600,1.81565771484375,9.75085735321045,-0.13957764208316803,1.0352158546447754
1750935421724482300,1.834482421875,9.753143310546875,-0.12910401821136475,1.0148496627807617
1750935421743307000,1.85330712890625,9.755532264709473,-0.11923711746931076,0.9928596615791321
1750935421762131700,1.872131591796875,9.756622314453125,-0.10888038575649261,0.9832960963249207
1750935421780956400,1.890956298828125,9.75693130493164,-0.0965532436966896,0.9815047383308411
1750935421799781000,1.909781005859375,9.7579927444458,-0.08337615430355072,0.9721139669418335
1750935421818605800,1.928605712890625,9.760257720947266,-0.07236680388450623,0.9500129222869873
1750935421837430500,1.947430419921875,9.7628812789917,-0.0657653734087944,0.9231581687927246
1750935421856255200,1.966255126953125,9.765191078186035,-0.061713628470897675,0.8986738324165344
1750935421875080000,1.985079833984375,9.767035484313965,-0.056769829243421555,0.878738522529602
1750935421893904600,2.003904541015625,9.768404006958008,-0.05005987361073494,0.8638120889663696
1750935421912729300,2.022729248046875,9.76938533782959,-0.043315380811691284,0.8530131578445435
1750935421931554000,2.041553955078125,9.770425796508789,-0.0396241694688797,0.841188907623291
1750935421950378800,2.060378662109375,9.771506309509277,-0.038937389850616455,0.8285762667655945
1750935421969203500,2.079203369140625,9.77231216430664,-0.041025638580322266,0.818913996219635
1750935421988028200,2.098028076171875,9.772326469421387,-0.04667960852384567,0.8184413909912109
1750935422006852900,2.116852783203125,9.771944999694824,-0.051403965801000595,0.8227000832557678
1750935422025677600,2.135677490234375,9.771790504455566,-0.05323253571987152,0.8244180679321289
1750935422044502300,2.154502197265625,9.772103309631348,-0.055076610296964645,0.820586085319519
1750935422063327000,2.173326904296875,9.772246360778809,-0.057700496166944504,0.8186991214752197
1750935422082151700,2.192151611328125,9.772523880004883,-0.05989346653223038,0.8152276277542114
1750935422100976400,2.210976318359375,9.772880554199219,-0.06072448939085007,0.8108691573143005
1750935422119801000,2.229801025390625,9.7731351852417,-0.05996767804026604,0.8078402876853943
1750935422138625800,2.248625732421875,9.773138046264648,-0.061473846435546875,0.807696521282196
1750935422157450500,2.267450439453125,9.773238182067871,-0.06123161315917969,0.8065034747123718
1750935422176275200,2.286275146484375,9.77350902557373,-0.058911364525556564,0.8033958077430725
1750935422195099600,2.305099609375,9.773927688598633,-0.061397306621074677,0.7980958223342896
1750935422213924400,2.32392431640625,9.77453327178955,-0.06432438641786575,0.7904133200645447
1750935422232749300,2.342749267578125,9.77456283569336,-0.06825018674135208,0.7897172570228577
1750935422251573800,2.36157373046875,9.774022102355957,-0.0732751116156578,0.7959429025650024
1750935422270398500,2.3803984375,9.774491310119629,-0.07364831119775772,0.790112316608429
1750935422289223200,2.39922314453125,9.774679183959961,-0.06822991371154785,0.7882688641548157
1750935422308048000,2.4180478515625,9.774205207824707,-0.0649523064494133,0.7943965792655945
1750935422326872600,2.43687255859375,9.77421760559082,-0.060521870851516724,0.7946048378944397
1750935422345697300,2.455697265625,9.77450180053711,-0.056515272706747055,0.7914049029350281
1750935422364522000,2.47452197265625,9.774734497070312,-0.054877206683158875,0.7886323928833008
1750935422383346700,2.4933466796875,9.77501392364502,-0.053111590445041656,0.7852831482887268
1750935422411583700,2.521583740234375,9.774547576904297,-0.04944238066673279,0.7913076281547546
1750935422430408400,2.540408447265625,9.773808479309082,-0.047436296939849854,0.8005044460296631
1750935422449233200,2.559233154296875,9.773430824279785,-0.04654490202665329,0.8051424026489258
1750935422468057900,2.578057861328125,9.7736177444458,-0.04692399501800537,0.8028499484062195
1750935422486882600,2.596882568359375,9.773797035217285,-0.05005260929465294,0.8004779815673828
1750935422505707300,2.615707275390625,9.773598670959473,-0.05439881235361099,0.8026047348976135
1750935422524532000,2.634531982421875,9.773523330688477,-0.05596538260579109,0.8034250140190125
1750935422543356700,2.653356689453125,9.773578643798828,-0.057100776582956314,0.8026736378669739
1750935422562181400,2.672181396484375,9.77367877960205,-0.05992116034030914,0.8012470006942749
1750935422581006000,2.691006103515625,9.774026870727539,-0.06288972496986389,0.7967692017555237
1750935422599830800,2.709830810546875,9.774391174316406,-0.06277693063020706,0.7922876477241516
1750935422618655500,2.728655517578125,9.774338722229004,-0.060440342873334885,0.7931175231933594
1750935422637480200,2.747480224609375,9.774097442626953,-0.058913469314575195,0.796198308467865
1750935422656305000,2.766304931640625,9.774028778076172,-0.05669921264052391,0.7972065806388855
1750935422675129600,2.785129638671875,9.774089813232422,-0.0542573407292366,0.7966122627258301
1750935422693954300,2.803954345703125,9.773852348327637,-0.050494637340307236,0.7997744679450989
1750935422712779000,2.822779052734375,9.773444175720215,-0.04545699059963226,0.8050559759140015
1750935422731603500,2.841603515625,9.7728910446167,-0.04249558597803116,0.8119118213653564
1750935422750428200,2.86042822265625,9.771973609924316,-0.04263966903090477,0.8228684067726135
1750935422778665200,2.888665283203125,9.771400451660156,-0.04810762777924538,0.8293378353118896
1750935422797490000,2.907489990234375,9.771628379821777,-0.04901878163218498,0.8266004323959351
1750935422816314600,2.926314697265625,9.771605491638184,-0.046763304620981216,0.8269950747489929
1750935422835139300,2.945139404296875,9.771188735961914,-0.04609810933470726,0.8319426774978638
1750935422853964000,2.963964111328125,9.770625114440918,-0.04801865667104721,0.838435709476471
1750935422872788700,2.982788818359375,9.770278930664062,-0.04846007749438286,0.8424277901649475
1750935422891613400,3.001613525390625,9.770416259765625,-0.04528447985649109,0.8410097360610962
1750935422910438100,3.020438232421875,9.77031421661377,-0.04091809317469597,0.8424156308174133
1750935422929262800,3.039262939453125,9.76982593536377,-0.0365884006023407,0.8482611179351807
1750935422948087600,3.058087646484375,9.7691011428833,-0.03378923982381821,0.8566908836364746
1750935422966912300,3.076912353515625,9.7683687210083,-0.03511875867843628,0.8649467825889587
1750935422985737000,3.095737060546875,9.767447471618652,-0.03742039203643799,0.8751913905143738
1750935423004561700,3.114561767578125,9.766304016113281,-0.03960924595594406,0.8877541422843933
1750935423023386400,3.133386474609375,9.76467227935791,-0.04504396766424179,0.9052925705909729
1750935423042211000,3.152211181640625,9.761844635009766,-0.05873223766684532,0.9345092177391052
1750935423061035800,3.171035888671875,9.758493423461914,-0.08473044633865356,0.9669641256332397
1750935423079860200,3.189860107421875,9.75635051727295,-0.10336874425411224,0.9865725040435791
1750935423098685000,3.208684814453125,9.754992485046387,-0.10763485729694366,0.9994664788246155
1750935423117509600,3.227509521484375,9.754186630249023,-0.10222847014665604,1.0078585147857666
1750935423136334300,3.246334228515625,9.754305839538574,-0.09490624070167542,1.0074238777160645
1750935423155159000,3.265158935546875,9.754304885864258,-0.09062255918979645,1.0078274011611938
1750935423173983700,3.283983642578125,9.75342082977295,-0.09043946862220764,1.0163559913635254
1750935423192808400,3.302808349609375,9.751788139343262,-0.0947035700082779,1.0315251350402832
1750935423211633200,3.321633056640625,9.750935554504395,-0.09944494068622589,1.0391128063201904
1750935423230457900,3.340457763671875,9.751209259033203,-0.0980009213089943,1.0366883277893066
1750935423249282600,3.359282470703125,9.752053260803223,-0.0903487503528595,1.0294054746627808
1750935423268107300,3.378107177734375,9.752463340759277,-0.08153443783521652,1.0262587070465088
1750935423286932000,3.396931884765625,9.752691268920898,-0.07560808211565018,1.0245364904403687
1750935423305756400,3.41575634765625,9.753368377685547,-0.07373344898223877,1.0182135105133057
1750935423324581000,3.4345810546875,9.754284858703613,-0.07303710281848907,1.0094482898712158
1750935423343405800,3.45340576171875,9.755233764648438,-0.07595741748809814,1.000015139579773
1750935423362230500,3.47223046875,9.755655288696289,-0.0787750706076622,0.995685875415802
1750935423381055200,3.49105517578125,9.756538391113281,-0.07645390927791595,0.9871692061424255
1750935423399880000,3.5098798828125,9.757880210876465,-0.07011566311120987,0.974292516708374
1750935423418704600,3.52870458984375,9.758002281188965,-0.06164638698101044,0.9736415147781372
1750935423437529300,3.547529296875,9.757196426391602,-0.05191947892308235,0.9822484850883484
1750935423456354000,3.56635400390625,9.756422996520996,-0.04384174197912216,0.9902973175048828
1750935423475178800,3.5851787109375,9.75413703918457,-0.04235251620411873,1.0126266479492188
1750935423494003500,3.60400341796875,9.747236251831055,-0.04891527071595192,1.0767474174499512
1750935423512828200,3.622828125,9.737818717956543,-0.059755053371191025,1.1583251953125
1750935423531652600,3.641652587890625,9.732789993286133,-0.06141611188650131,1.1997524499893188
1750935423550477300,3.660477294921875,9.736204147338867,-0.04162866249680519,1.1725969314575195
1750935423569302000,3.679302001953125,9.742060661315918,-0.006010418292135,1.123655915260315
1750935423588126700,3.698126708984375,9.743444442749023,0.01128923799842596,1.111555576324463
1750935423606951400,3.716951416015625,9.743794441223145,0.01038934476673603,1.1084896326065063
1750935423625776000,3.735776123046875,9.746908187866211,0.01013407576829195,1.08077073097229
1750935423644600800,3.754600830078125,9.749882698059082,0.01429750770330429,1.0535520315170288
1750935423663425500,3.773425537109375,9.747758865356445,0.007378817070275545,1.0730944871902466
1750935423682250200,3.792250244140625,9.743586540222168,-0.019663143903017044,1.110184907913208
1750935423701075000,3.811074951171875,9.741246223449707,-0.05285187438130379,1.1294846534729004
1750935423719899600,3.829899658203125,9.741575241088867,-0.07034896314144135,1.125684380531311
1750935423738724000,3.84872412109375,9.742557525634766,-0.07335639744997025,1.1169465780258179
1750935423757548800,3.867548828125,9.740384101867676,-0.07863525301218033,1.1353920698165894
1750935423776373500,3.88637353515625,9.736987113952637,-0.09565284848213196,1.1628966331481934
1750935423795198200,3.9051982421875,9.738717079162598,-0.09916968643665314,1.1480107307434082
1750935423814023000,3.92402294921875,9.74293041229248,-0.07855907082557678,1.1133391857147217
1750935423832847600,3.94284765625,9.743891716003418,-0.054325975477695465,1.106359839439392
1750935423851672300,3.96167236328125,9.743110656738281,-0.03635876253247261,1.1139332056045532
1750935423870497000,3.9804970703125,9.742663383483887,-0.028358599171042442,1.1180851459503174
1750935423889321700,3.99932177734375,9.742979049682617,-0.024175185710191727,1.1154285669326782
1750935423908146200,4.018146240234375,9.743778228759766,-0.019071688875555992,1.1085196733474731
1750935423926971000,4.036970947265625,9.745152473449707,-0.015049072913825512,1.0964351892471313
1750935423945795600,4.055795654296875,9.74697494506836,-0.010608301497995853,1.0801680088043213
1750935423964620300,4.074620361328125,9.747759819030762,-0.008390840142965317,1.0730775594711304
1750935423983445000,4.093445068359375,9.75001049041748,0.007443099282681942,1.0524362325668335
1750935424002269700,4.112269775390625,9.753047943115234,0.04229312017560005,1.0230597257614136
1750935424021094400,4.131094482421875,9.754132270812988,0.07628525048494339,1.0106818675994873
1750935424039919000,4.149919189453125,9.756071090698242,0.1111869066953659,0.9884761571884155
1750935424058743600,4.16874365234375,9.757591247558594,0.13946406543254852,0.9697214365005493
1750935424077568300,4.187568359375,9.756559371948242,0.15708863735198975,0.9773744940757751
1750935424096393000,4.20639306640625,9.752287864685059,0.15289746224880219,1.0197460651397705
1750935424115217700,4.2252177734375,9.747992515563965,0.12030193954706192,1.0642205476760864
1750935424134042400,4.24404248046875,9.743738174438477,0.0627458244562149,1.1072574853897095
1750935424152867000,4.2628671875,9.741411209106445,0.006938362494111061,1.1292750835418701
1750935424171691800,4.28169189453125,9.743172645568848,-0.02866956777870655,1.1136196851730347
1750935424190516500,4.3005166015625,9.744165420532227,-0.045430831611156464,1.1043353080749512
1750935424209341000,4.3193408203125,9.743794441223145,-0.05479469895362854,1.1071878671646118
1750935424228165600,4.33816552734375,9.743095397949219,-0.055321674793958664,1.1132982969284058
1750935424246990300,4.356990234375,9.740620613098145,-0.05072301626205444,1.134955883026123
1750935424265815000,4.37581494140625,9.737625122070312,-0.05317612737417221,1.1602662801742554
1750935424284639700,4.3946396484375,9.736842155456543,-0.05684993416070938,1.1666427850723267
1750935424303464400,4.41346435546875,9.73694896697998,-0.05328383296728134,1.1659281253814697
1750935424322289200,4.4322890625,9.735766410827637,-0.04794790595769882,1.1759806871414185
1750935424341113600,4.451113525390625,9.735308647155762,-0.046355970203876495,1.1798393726348877
1750935424359938300,4.469938232421875,9.737051010131836,-0.041511934250593185,1.165544033050537
1750935424378763000,4.488762939453125,9.739625930786133,-0.03135664761066437,1.1441563367843628
1750935424397587700,4.507587646484375,9.740147590637207,-0.023630639538168907,1.139889121055603
1750935424416412400,4.526412353515625,9.738435745239258,-0.02686368115246296,1.1543484926223755
1750935424435237000,4.545237060546875,9.737547874450684,-0.036164943128824234,1.1615692377090454
1750935424454061600,4.5640615234375,9.738804817199707,-0.04329713433980942,1.150733232498169
1750935424472886300,4.58288623046875,9.74080753326416,-0.045477062463760376,1.1335686445236206
1750935424491711000,4.6017109375,9.741111755371094,-0.04732358455657959,1.1308842897415161
1750935424510535700,4.62053564453125,9.740220069885254,-0.05008792132139206,1.1384191513061523
1750935424529360400,4.6393603515625,9.739983558654785,-0.0516519770026207,1.140368938446045
1750935424548185000,4.65818505859375,9.740493774414062,-0.05343794822692871,1.1359161138534546
1750935424567009500,4.677009521484375,9.740965843200684,-0.05247468501329422,1.1319071054458618
1750935424585834200,4.695834228515625,9.742431640625,-0.04678751900792122,1.1194709539413452
1750935424604659000,4.714658935546875,9.743993759155273,-0.04088949039578438,1.1060280799865723
1750935424623483600,4.733483642578125,9.744772911071777,-0.03493437170982361,1.0993480682373047
1750935424642308400,4.752308349609375,9.744939804077148,-0.028893806040287018,1.0980440378189087
1750935424661133000,4.771133056640625,9.74471664428711,-0.02576402947306633,1.100109338760376
1750935424679957500,4.78995751953125,9.744717597961426,-0.029139455407857895,1.1000077724456787
1750935424698782200,4.8087822265625,9.746005058288574,-0.03664839640259743,1.0883187055587769
1750935424717607000,4.82760693359375,9.747522354125977,-0.04109552875161171,1.0744847059249878
1750935424736431600,4.846431640625,9.74828052520752,-0.04068482667207718,1.067596197128296
1750935424755256300,4.86525634765625,9.748533248901367,-0.03634171187877655,1.0654473304748535
1750935424774081000,4.8840810546875,9.748513221740723,-0.031074462458491325,1.0657923221588135
1750935424792905700,4.90290576171875,9.7479887008667,-0.030892441049218178,1.0705821514129639
1750935424811730200,4.921730224609375,9.746750831604004,-0.03466978669166565,1.0816879272460938
1750935424830555000,4.940554931640625,9.746156692504883,-0.03948385640978813,1.0868616104125977
1750935424849379600,4.959379638671875,9.746786117553711,-0.04495736584067345,1.0809874534606934
1750935424868204300,4.978204345703125,9.74795913696289,-0.04361407458782196,1.070408821105957
1750935424887029000,4.997029052734375,9.748146057128906,-0.03624184429645538,1.0689820051193237
1750935424905853400,5.015853515625,9.747143745422363,-0.032872557640075684,1.0781821012496948
1750935424924678100,5.03467822265625,9.746285438537598,-0.03171718120574951,1.0859664678573608
1750935424943502800,5.0535029296875,9.746672630310059,-0.029483458027243614,1.0825352668762207
1750935424962327600,5.07232763671875,9.74641227722168,-0.02868659608066082,1.084903597831726
1750935424981152300,5.09115234375,9.745182037353516,-0.030510177835822105,1.0958433151245117
1750935424999976700,5.109976806640625,9.744794845581055,-0.031468845903873444,1.0992573499679565
1750935425018801400,5.128801513671875,9.744894027709961,-0.028559105470776558,1.0984636545181274
1750935425037626000,5.147626220703125,9.74491024017334,-0.026813624426722527,1.0983537435531616
1750935425056450800,5.166450927734375,9.744268417358398,-0.023828953504562378,1.1041183471679688
1750935425075275500,5.185275634765625,9.743390083312988,-0.02147502265870571,1.1118793487548828
1750935425094100000,5.204099853515625,9.743720054626465,-0.02226446196436882,1.1089656352996826
1750935425112924700,5.222924560546875,9.743746757507324,-0.026124604046344757,1.1086452007293701
1750935425131749400,5.241749267578125,9.743355751037598,-0.0287415012717247,1.112022042274475
1750935425150574000,5.260573974609375,9.7431640625,-0.02329748496413231,1.1138209104537964
1750935425169398800,5.279398681640625,9.742559432983398,-0.014768675900995731,1.1192443370819092
1750935425188223200,5.29822314453125,9.741653442382812,-0.01226105447858572,1.1271353960037231
1750935425207048000,5.3170478515625,9.74084758758545,-0.014040659181773663,1.1340618133544922
1750935425225872600,5.33587255859375,9.740459442138672,-0.01564633660018444,1.137368083000183
1750935425244697300,5.354697265625,9.74028205871582,-0.01590885780751705,1.1388806104660034
1750935425263521800,5.373521728515625,9.739802360534668,-0.012901462614536285,1.1430108547210693
1750935425282346500,5.392346435546875,9.739553451538086,-0.009307866916060448,1.1451575756072998
1750935425301171200,5.411171142578125,9.7393217086792,-0.004214930813759565,1.1471599340438843
1750935425319996000,5.429995849609375,9.73824405670166,-0.0009001449216157198,1.1562877893447876
1750935425338820600,5.448820556640625,9.736723899841309,0.0015544058987870812,1.1690170764923096
1750935425357645000,5.46764501953125,9.734890937805176,0.003156971652060747,1.1841845512390137
1750935425376469800,5.4864697265625,9.733406066894531,0.003124039387330413,1.1963125467300415
1750935425395294500,5.50529443359375,9.732871055603027,0.002527546137571335,1.2006714344024658
1750935425414119200,5.524119140625,9.731365203857422,0.0012096340069547296,1.2128095626831055
1750935425432943600,5.542943603515625,9.728385925292969,-0.004344327375292778,1.2364834547042847
1750935425451768300,5.561768310546875,9.726362228393555,-0.011559827253222466,1.2522470951080322
1750935425470593000,5.580593017578125,9.725513458251953,-0.013832718133926392,1.258798360824585
1750935425489417700,5.599417724609375,9.72389030456543,-0.011089718900620937,1.2713074684143066
1750935425508242400,5.618242431640625,9.720939636230469,-0.009181270375847816,1.2936886548995972
1750935425527067000,5.63706689453125,9.713958740234375,-0.01126936823129654,1.345096468925476
1750935425545891600,5.6558916015625,9.705130577087402,-0.016534095630049706,1.4073137044906616
1750935425564716300,5.67471630859375,9.698393821716309,-0.019549982622265816,1.4529826641082764
1750935425583541000,5.693541015625,9.692505836486816,-0.014221526682376862,1.4918168783187866
1750935425602365400,5.712365478515625,9.685162544250488,-0.006099195219576359,1.5388203859329224
1750935425621190100,5.731190185546875,9.677806854248047,-0.001455835998058319,1.5844342708587646
1750935425640014800,5.750014892578125,9.671061515808105,0.0003135639417450875,1.6251050233840942
1750935425658839600,5.768839599609375,9.660208702087402,0.0019045837689191103,1.688420057296753
1750935425677664000,5.7876640625,9.642847061157227,0.0047118179500103,1.7848972082138062
1750935425696488700,5.80648876953125,9.627532958984375,0.006617687176913023,1.86573326587677
1750935425715313400,5.8253134765625,9.618406295776367,0.010218529962003231,1.9122095108032227
1750935425734138000,5.84413818359375,9.610255241394043,0.01462619286030531,1.9527370929718018
1750935425752962600,5.862962646484375,9.604582786560059,0.019830286502838135,1.9804015159606934
1750935425771787300,5.881787353515625,9.600892066955566,0.02590120956301689,1.998146653175354
1750935425790612000,5.900612060546875,9.593572616577148,0.03164602071046829,2.03291916847229
1750935425809436700,5.919436767578125,9.578459739685059,0.03801574185490608,2.1028671264648438
1750935425828261000,5.93826123046875,9.560762405395508,0.04634389281272888,2.1817572116851807
1750935425847085800,5.9570859375,9.547375679016113,0.060211051255464554,2.2392778396606445
1750935425865910500,5.97591064453125,9.536145210266113,0.07332682609558105,2.286250591278076
1750935425884735200,5.9947353515625,9.523423194885254,0.0835418552160263,2.338336944580078
1750935425903559700,6.0135595703125,9.503483772277832,0.09375041723251343,2.4177238941192627
1750935425922384400,6.03238427734375,9.475759506225586,0.10311514884233475,2.523832082748413
1750935425941209000,6.051208984375,9.441011428833008,0.11792230606079102,2.6502435207366943
1750935425960033800,6.07003369140625,9.399995803833008,0.12981504201889038,2.7917041778564453
1750935425978858200,6.088858154296875,9.356389999389648,0.13568368554115295,2.934274673461914
1750935425997683000,6.107682861328125,9.307958602905273,0.14305247366428375,3.084124803543091
1750935426016507600,6.126507568359375,9.256475448608398,0.14451929926872253,3.2352993488311768
1750935426035332000,6.14533203125,9.207330703735352,0.14212778210639954,3.372720956802368
1750935426054156800,6.16415673828125,9.16093635559082,0.13645969331264496,3.496999979019165
1750935426072981500,6.1829814453125,9.111140251159668,0.12579801678657532,3.625145673751831
1750935426091806200,6.20180615234375,9.056641578674316,0.11371305584907532,3.759613037109375
1750935426110630700,6.220630615234375,9.003094673156738,0.10001025348901749,3.886474370956421
1750935426129455400,6.239455322265625,8.967120170593262,0.08760136365890503,3.9690654277801514
1750935426148280000,6.258280029296875,8.942063331604004,0.08060961961746216,4.025345325469971
1750935426167104800,6.277104736328125,8.93388843536377,0.0742722824215889,4.043575763702393
1750935426185929200,6.29592919921875,8.960196495056152,0.06535414606332779,3.9850962162017822
1750935426204754000,6.31475390625,9.048462867736816,0.06367474049329758,3.780428886413574
1750935426223578600,6.33357861328125,9.186014175415039,0.07843027263879776,3.4323997497558594
1750935426242403000,6.352403076171875,9.329421043395996,0.10847902297973633,3.020021915435791
1750935426261227800,6.371227783203125,9.451207160949707,0.14689300954341888,2.6121811866760254
1750935426280052500,6.390052490234375,9.548714637756348,0.17957253754138947,2.2271454334259033
1750935426298877200,6.408877197265625,9.6243257522583,0.2001245766878128,1.8715486526489258
1750935426317701600,6.42770166015625,9.680542945861816,0.20267881453037262,1.5544792413711548
1750935426336526300,6.4465263671875,9.720637321472168,0.1941176950931549,1.2813776731491089
1750935426355351000,6.46535107421875,9.74870777130127,0.1938735395669937,1.0466543436050415
1750935426374175500,6.484175537109375,9.768433570861816,0.20946994423866272,0.839174211025238
1750935426393000200,6.503000244140625,9.784990310668945,0.23078133165836334,0.6091756820678711
1750935426411825000,6.521824951171875,9.796009063720703,0.2473810315132141,0.3839225769042969
1750935426430649300,6.5406494140625,9.801774024963379,0.25342920422554016,0.1771630048751831
1750935426449474000,6.55947412109375,9.803295135498047,0.2449691742658615,-0.07604348659515381
1750935426468298800,6.578298828125,9.79873275756836,0.23143579065799713,-0.31887146830558777
1750935426487123200,6.597123291015625,9.79035472869873,0.2260083705186844,-0.5179358124732971
1750935426505948000,6.615947998046875,9.776275634765625,0.21705719828605652,-0.7400797009468079
1750935426524772600,6.634772705078125,9.75397777557373,0.20368516445159912,-0.9943985342979431
1750935426543597300,6.653597412109375,9.728954315185547,0.17416638135910034,-1.219631552696228
1750935426562421800,6.672421875,9.70494270324707,0.14351649582386017,-1.4013826847076416
1750935426581246500,6.69124658203125,9.681288719177246,0.1277615875005722,-1.557784914970398
1750935426609483300,6.719483154296875,9.647000312805176,0.10333345085382462,-1.7592856884002686
1750935426628308000,6.738307861328125,9.623677253723145,0.06888910382986069,-1.8842754364013672
1750935426647132700,6.757132568359375,9.588500022888184,0.02341887354850769,-2.056821584701538
1750935426665957400,6.775957275390625,9.545733451843262,-0.004373103380203247,-2.2470734119415283
1750935426684781800,6.79478173828125,9.502947807312012,-0.0052600703202188015,-2.4216389656066895
1750935426703606500,6.8136064453125,9.467550277709961,-0.0055076610296964645,-2.556532144546509
1750935426722431200,6.83243115234375,9.453781127929688,-0.01529008336365223,-2.6069462299346924
1750935426741255700,6.851255615234375,9.462812423706055,-0.02491665631532669,-2.57389497756958
1750935426760080400,6.870080322265625,9.490988731384277,-0.02307741902768612,-2.4679908752441406
1750935426778905000,6.888905029296875,9.529723167419434,-0.009934077039361,-2.3140127658843994
1750935426797729500,6.9077294921875,9.571194648742676,0.003230501664802432,-2.13602614402771
1750935426816554200,6.92655419921875,9.611968040466309,0.00996717531234026,-1.9443124532699585
1750935426835379000,6.94537890625,9.660895347595215,0.00859147123992443,-1.6844662427902222
1750935426854203400,6.964203369140625,9.716306686401367,0.009903007186949253,-1.3280396461486816
1750935426873028000,6.983028076171875,9.757328033447266,0.014137999154627323,-0.98221355676651
1750935426891852800,7.001852783203125,9.780814170837402,0.013909894973039627,-0.7112430930137634
1750935426910677200,7.02067724609375,9.796035766601562,0.007633453235030174,-0.4560900032520294
1750935426929502000,7.039501953125,9.805448532104492,-0.0019013421842828393,-0.15349797904491425
1750935426948326700,7.05832666015625,9.804888725280762,-0.011356518603861332,0.18550001084804535
1750935426967151000,7.077151123046875,9.79319953918457,-0.024521125480532646,0.5128567814826965
1750935426985975800,7.095975830078125,9.775860786437988,-0.03791099414229393,0.7755658626556396
1750935427004800500,7.114800537109375,9.75628662109375,-0.04252217710018158,0.991694450378418
1750935427023625000,7.133625,9.731132507324219,-0.03950076550245285,1.2140321731567383
1750935427042449700,7.15244970703125,9.702269554138184,-0.034664761275053024,1.4265880584716797
1750935427061274400,7.1712744140625,9.67319107055664,-0.031753621995449066,1.6120673418045044
1750935427080098800,7.190098876953125,9.645380020141602,-0.030498292297124863,1.770905613899231
1750935427098923500,7.208923583984375,9.621445655822754,-0.028043391183018684,1.8966773748397827
1750935427117748000,7.227748046875,9.605567932128906,-0.021540522575378418,1.9755972623825073
1750935427136572700,7.24657275390625,9.594640731811523,-0.01036983821541071,2.0280885696411133
1750935427155397400,7.2653974609375,9.573403358459473,0.0008530120830982924,2.1261088848114014
1750935427174221800,7.284221923828125,9.539469718933105,0.004410996101796627,2.2735140323638916
1750935427193046500,7.303046630859375,9.507415771484375,0.0010865371441468596,2.4040403366088867
1750935427211871200,7.321871337890625,9.48799991607666,0.0009580890764482319,2.479562997817993
1750935427230695700,7.34069580078125,9.480025291442871,0.003638465655967593,2.509880781173706
1750935427249520400,7.359520263671875,9.481547355651855,0.009304783307015896,2.5041074752807617
1750935427268345000,7.378344970703125,9.497583389282227,0.011262025684118271,2.4425735473632812
1750935427287168500,7.39716845703125,9.527207374572754,0.01363320555537939,2.3243329524993896
1750935427305992700,7.41599267578125,9.570024490356445,0.01962357759475708,2.1411750316619873
1750935427324817400,7.4348173828125,9.624032974243164,0.026509100571274757,1.8835220336914062
1750935427343641900,7.453641845703125,9.680224418640137,0.03307916596531868,1.5692522525787354
1750935427362466600,7.472466552734375,9.726572036743164,0.046483203768730164,1.2498120069503784
1750935427381291300,7.491291259765625,9.759531021118164,0.06235748901963234,0.9581514000892639
1750935427400115700,7.51011572265625,9.78325080871582,0.0687829926609993,0.6735416650772095
1750935427418940400,7.5289404296875,9.798321723937988,0.05861470848321915,0.3998064398765564
1750935427437764900,7.547764892578125,9.805071830749512,0.04194093868136406,0.17083194851875305
1750935427456589600,7.566589599609375,9.806577682495117,0.027549514546990395,-0.025931432843208313
1750935427475414300,7.585414306640625,9.803671836853027,0.013047084212303162,-0.24133415520191193
1750935427494238700,7.60423876953125,9.795654296875,-0.004491578787565231,-0.46425196528434753
1750935427513063400,7.6230634765625,9.785484313964844,-0.020109249278903008,-0.6436540484428406
1750935427531887900,7.641887939453125,9.776080131530762,-0.037194736301898956,-0.7728284001350403
1750935427550712600,7.660712646484375,9.76987361907959,-0.05613303929567337,-0.8466379046440125
1750935427569537300,7.679537353515625,9.765290260314941,-0.08520010113716125,-0.8956807255744934
1750935427588361700,7.69836181640625,9.761445999145508,-0.11515871435403824,-0.9334397315979004
1750935427607186400,7.7171865234375,9.760774612426758,-0.14401662349700928,-0.9364475011825562
1750935427626011100,7.73601123046875,9.762456893920898,-0.1740606129169464,-0.9135215282440186
1750935427644835600,7.754835693359375,9.7636079788208,-0.20054501295089722,-0.8956138491630554
1750935427663660300,7.773660400390625,9.76457691192627,-0.2119298130273819,-0.8823248744010925
1750935427682484700,7.792484619140625,9.77210521697998,-0.2031741738319397,-0.7969079613685608
1750935427701309400,7.811309326171875,9.790092468261719,-0.18834766745567322,-0.5375933051109314
1750935427720134100,7.830134033203125,9.804203033447266,-0.18119323253631592,-0.12314064800739288
1750935427738958600,7.84895849609375,9.800105094909668,-0.18594485521316528,0.30619823932647705
1750935427757783300,7.867783203125,9.780794143676758,-0.2015540897846222,0.6825162768363953
1750935427776608000,7.88660791015625,9.751633644104004,-0.21879108250141144,1.0139893293380737
1750935427795432400,7.905432373046875,9.718851089477539,-0.23286157846450806,1.2884443998336792
1750935427814257200,7.924257080078125,9.67791748046875,-0.22776713967323303,1.567298412322998
1750935427833081600,7.94308154296875,9.618844032287598,-0.21024362742900848,1.8984227180480957
1750935427851906300,7.96190625,9.553706169128418,-0.19500485062599182,2.2043282985687256
1750935427870730800,7.980730712890625,9.496499061584473,-0.16962799429893494,2.440927028656006
1750935427889555500,7.999555419921875,9.443816184997559,-0.12464655190706253,2.639923095703125
1750935427908380200,8.018380126953126,9.389317512512207,-0.07516352087259293,2.829392671585083
1750935427927204600,8.03720458984375,9.345457077026367,-0.035372477024793625,2.971792697906494
1750935427946029300,8.056029296875,9.309540748596191,-0.004262689966708422,3.082667350769043
1750935427964853800,8.074853759765626,9.270040512084961,0.024742936715483665,3.199394464492798
1750935427983678500,8.093678466796876,9.235978126525879,0.05425236001610756,3.2960822582244873
1750935428002503000,8.1125029296875,9.217936515808105,0.08670278638601303,3.345521926879883
1750935428021327600,8.13132763671875,9.22114086151123,0.11791811138391495,3.3357207775115967
1750935428040152300,8.15015234375,9.24573802947998,0.13845977187156677,3.2661240100860596
1750935428058976800,8.168976806640625,9.288667678833008,0.14693932235240936,3.1415653228759766
1750935428077801500,8.187801513671875,9.35312271118164,0.14850033819675446,2.944051504135132
1750935428096626000,8.2066259765625,9.42979621887207,0.1538069099187851,2.6880624294281006
1750935428115450600,8.22545068359375,9.507664680480957,0.16106897592544556,2.397658348083496
1750935428134275300,8.244275390625,9.58211898803711,0.17002099752426147,2.0795345306396484
1750935428153099800,8.263099853515625,9.651329040527344,0.1931980699300766,1.727691650390625
1750935428171924500,8.281924560546875,9.711542129516602,0.23424501717090607,1.3421921730041504
1750935428190749000,8.3007490234375,9.756814956665039,0.27847084403038025,0.947317361831665
1750935428209573600,8.31957373046875,9.78503131866455,0.31237122416496277,0.570928692817688
1750935428228398000,8.338398193359374,9.798372268676758,0.33672356605529785,0.22118112444877625
1750935428247222800,8.357222900390624,9.800182342529297,0.3469100594520569,-0.08045142889022827
1750935428266047500,8.376047607421874,9.794206619262695,0.34882912039756775,-0.3496091961860657
1750935428284872000,8.394871826171874,9.782246589660645,0.354474276304245,-0.5936281681060791
1750935428303696600,8.413696533203124,9.767399787902832,0.3515027165412903,-0.8029487133026123
1750935428322521000,8.43252099609375,9.75356674194336,0.32923778891563416,-0.9643363356590271
1750935428341345800,8.451345703125,9.747995376586914,0.30158311128616333,-1.0276209115982056
1750935428360170200,8.470170166015626,9.756755828857422,0.28583094477653503,-0.9457312226295471
1750935428378995000,8.488994873046876,9.776723861694336,0.27251744270324707,-0.7154044508934021
1750935428397819400,8.5078193359375,9.794625282287598,0.25574633479118347,-0.41266703605651855
1750935428416644000,8.52664404296875,9.803251266479492,0.23382709920406342,-0.10939996689558029
1750935428435468800,8.54546875,9.801456451416016,0.21851375699043274,0.2325437217950821
1750935428454293200,8.564293212890625,9.785462379455566,0.21652671694755554,0.606812059879303
1750935428473118000,8.583117919921875,9.75180721282959,0.22208862006664276,1.0115967988967896
1750935428491942400,8.6019423828125,9.695228576660156,0.22441957890987396,1.4569039344787598
1750935428510767000,8.62076708984375,9.629807472229004,0.21491865813732147,1.8414652347564697
1750935428529591600,8.639591552734375,9.567998886108398,0.20256450772285461,2.1407363414764404
1750935428548416300,8.658416259765625,9.513379096984863,0.1979573667049408,2.3720927238464355
1750935428567240700,8.67724072265625,9.459802627563477,0.19767718017101288,2.577486753463745
1750935428586065400,8.6960654296875,9.39892292022705,0.19370552897453308,2.7916150093078613
1750935428604889900,8.714889892578125,9.34829044342041,0.18758784234523773,2.9571382999420166
1750935428623714600,8.733714599609375,9.323893547058105,0.18358086049556732,3.0334270000457764
1750935428642539000,8.7525390625,9.337407112121582,0.185720756649971,2.991443634033203
1750935428661363700,8.77136376953125,9.390416145324707,0.20115378499031067,2.8195738792419434
1750935428680188400,8.7901884765625,9.466469764709473,0.24241429567337036,2.549030303955078
1750935428699012900,8.809012939453124,9.554693222045898,0.29742053151130676,2.188554048538208
1750935428717837600,8.827837646484374,9.639296531677246,0.3424508273601532,1.771180272102356
1750935428736662000,8.846662109375,9.706751823425293,0.373322457075119,1.345360517501831
1750935428755486700,8.86548681640625,9.753317832946777,0.40189293026924133,0.9389612078666687
1750935428774311200,8.884311279296876,9.782074928283691,0.4256763160228729,0.5478946566581726
1750935428793135900,8.903135986328126,9.795242309570312,0.44728684425354004,0.1534505933523178
1750935428811960300,8.921960205078125,9.792908668518066,0.46939370036125183,-0.22136721014976501
1750935428830785000,8.940784912109375,9.780138969421387,0.48616522550582886,-0.5318922400474548
1750935428849609500,8.959609375,9.765179634094238,0.4961390197277069,-0.7519967555999756
1750935428868434200,8.97843408203125,9.752670288085938,0.49545150995254517,-0.9001926183700562
1750935428887258600,8.997258544921875,9.74870777130127,0.4869377911090851,-0.9465526938438416
1750935428906083300,9.016083251953125,9.758275032043457,0.47132977843284607,-0.8510529398918152
1750935428924907800,9.03490771484375,9.77558422088623,0.4487317204475403,-0.637948751449585
1750935428943732500,9.053732421875,9.791172981262207,0.42365947365760803,-0.3518836498260498
1750935428962557000,9.072556884765625,9.798477172851562,0.4000200927257538,-0.014891864731907845
1750935428981381600,9.091381591796875,9.792619705200195,0.37539196014404297,0.3661607503890991
1750935429000206300,9.110206298828125,9.769549369812012,0.34677380323410034,0.7784829139709473
1750935429019030800,9.12903076171875,9.734505653381348,0.31479430198669434,1.144857406616211
1750935429037855500,9.14785546875,9.692734718322754,0.2855137288570404,1.4627954959869385
1750935429056680000,9.166679931640624,9.632075309753418,0.255880743265152,1.824288249015808
1750935429075504600,9.185504638671874,9.556318283081055,0.21881066262722015,2.190725803375244
1750935429094329000,9.2043291015625,9.489421844482422,0.17313143610954285,2.468050956726074
1750935429113153800,9.22315380859375,9.442572593688965,0.12408629804849625,2.6443941593170166
1750935429131978200,9.241978271484374,9.415063858032227,0.08567992597818375,2.7421886920928955
1750935429150803000,9.260802978515626,9.409835815429688,0.07796863466501236,2.7603087425231934
1750935429169627400,9.27962744140625,9.437881469726562,0.09130800515413284,2.6624138355255127
1750935429188452000,9.2984521484375,9.503917694091797,0.11546493321657181,2.415076494216919
1750935429207276500,9.317276611328126,9.590444564819336,0.15101425349712372,2.0422918796539307
1750935429226101200,9.336101318359376,9.670577049255371,0.1926736682653427,1.616539478302002
1750935429244925700,9.35492578125,9.731490135192871,0.2287168800830841,1.190029501914978
1750935429263750400,9.37375048828125,9.773520469665527,0.25384321808815,0.7643558979034424
1750935429282574800,9.392574951171875,9.796855926513672,0.27459925413131714,0.3414463698863983
1750935429301399600,9.411399658203125,9.802345275878906,0.2889518141746521,-0.030443474650382996
1750935429320224000,9.43022412109375,9.796710014343262,0.291101336479187,-0.33184120059013367
1750935429339048700,9.449048583984375,9.783713340759277,0.29622286558151245,-0.6013168692588806
1750935429357873200,9.467873046875,9.764036178588867,0.3100743293762207,-0.8589744567871094
1750935429376697600,9.486697509765625,9.745327949523926,0.32462161779403687,-1.0457470417022705
1750935429395522300,9.505522216796875,9.741203308105469,0.3373110592365265,-1.0796167850494385
1750935429414347000,9.524346923828125,9.758440017700195,0.34741827845573425,-0.9069347977638245
1750935429433171500,9.54317138671875,9.782824516296387,0.34694159030914307,-0.588514506816864
1750935429451996000,9.561995849609374,9.798538208007812,0.3396380543708801,-0.20902034640312195
1750935429470820600,9.580820556640624,9.799873352050781,0.3275527060031891,0.15997835993766785
1750935429499057400,9.609057373046875,9.783321380615234,0.3064504861831665,0.6025704145431519
1750935429517882000,9.627882080078125,9.758113861083984,0.3003464937210083,0.9270404577255249
1750935429536706600,9.64670654296875,9.713720321655273,0.29461973905563354,1.3142391443252563
1750935429555531300,9.66553125,9.64984130859375,0.28906428813934326,1.722607970237732
1750935429574355700,9.684355712890625,9.57702922821045,0.2913687527179718,2.089503049850464
1750935429593180400,9.703180419921875,9.496548652648926,0.32370609045028687,2.4251089096069336
1750935429612004900,9.7220048828125,9.410523414611816,0.37779900431632996,2.7330782413482666
1750935429630829600,9.74082958984375,9.336702346801758,0.4149947762489319,2.970546245574951
1750935429649654000,9.759654052734374,9.292945861816406,0.4281061887741089,3.102947473526001
1750935429668478500,9.778478515625,9.282414436340332,0.43693801760673523,3.133089303970337
1750935429687303200,9.79730322265625,9.303146362304688,0.4381602704524994,3.0708084106445312
1750935429706127600,9.816127685546874,9.3626070022583,0.43434938788414,2.8850173950195312
1750935429724952300,9.834952392578124,9.454450607299805,0.4299981892108917,2.5688235759735107
1750935429743776800,9.85377685546875,9.565412521362305,0.4199262857437134,2.1205971240997314
1750935429762601500,9.8726015625,9.66864013671875,0.4078122675418854,1.5879219770431519
1750935429781426000,9.891426025390626,9.740004539489746,0.40816566348075867,1.065879464149475
1750935429800250600,9.910250732421876,9.78081226348877,0.40977567434310913,0.581537127494812
1750935429819075000,9.929074951171875,9.797611236572266,0.4066864848136902,0.10858865827322006
1750935429837899800,9.947899658203125,9.792548179626465,0.40198612213134766,-0.33883100748062134
1750935429856724200,9.96672412109375,9.772640228271484,0.39139100909233093,-0.7160314321517944
1750935429875549000,9.985548828125,9.748335838317871,0.3801564574241638,-0.9978952407836914
1750935429894373400,10.004373291015625,9.72619342803955,0.36016690731048584,-1.2007578611373901
1750935429922610200,10.032610107421876,9.707084655761719,0.31977617740631104,-1.3566995859146118
1750935429941435000,10.051434814453126,9.722721099853516,0.3055461049079895,-1.2432703971862793
1750935429960259300,10.07025927734375,9.761757850646973,0.30529579520225525,-0.8861480951309204
1750935429979084000,10.089083984375,9.795476913452148,0.3112417757511139,-0.34951531887054443
1750935429997909000,10.107908935546876,9.799113273620605,0.3221186399459839,0.2097700834274292
1750935430016733400,10.1267333984375,9.778823852539062,0.3138495683670044,0.6682016849517822
1750935430035558100,10.14555810546875,9.74699592590332,0.29345640540122986,1.0393999814987183
1750935430054382600,10.164382568359375,9.697924613952637,0.28348881006240845,1.4283803701400757
1750935430073207300,10.183207275390625,9.627485275268555,0.28450512886047363,1.8441753387451172
1750935430092031700,10.20203173828125,9.553589820861816,0.2911372184753418,2.1942055225372314
1750935430110856400,10.2208564453125,9.481674194335938,0.30923277139663696,2.4844725131988525
1750935430129681000,10.239680908203125,9.418214797973633,0.3326614499092102,2.7123711109161377
1750935430148505600,10.258505615234375,9.39127254486084,0.33310937881469727,2.8041796684265137
1750935430167330000,10.277330078125,9.412206649780273,0.32185113430023193,2.734438419342041
1750935430186154500,10.296154541015625,9.477978706359863,0.3232439458370209,2.496760129928589
1750935430204979200,10.314979248046875,9.576369285583496,0.3395146131515503,2.085252285003662
1750935430223803600,10.3338037109375,9.679649353027344,0.3450266718864441,1.5348399877548218
1750935430242628400,10.35262841796875,9.75929069519043,0.32894381880760193,0.9046671390533447
1750935430261452800,10.371452880859374,9.79784107208252,0.3053175210952759,0.28192487359046936
1750935430280277500,10.390277587890624,9.799056053161621,0.28130996227264404,-0.2641027867794037
1750935430299102000,10.40910205078125,9.775954246520996,0.2527635395526886,-0.7329629063606262
1750935430317926400,10.427926513671874,9.73935317993164,0.21267493069171906,-1.1270142793655396
1750935430336751000,10.446751220703124,9.70097827911377,0.16257347166538239,-1.4265305995941162
1750935430355575600,10.465575439453126,9.676746368408203,0.11829835176467896,-1.5864949226379395
1750935430374400300,10.484400146484376,9.68026351928711,0.10004866868257523,-1.5661654472351074
1750935430393224700,10.503224609375,9.706995964050293,0.09169847518205643,-1.391478419303894
1750935430412049400,10.52204931640625,9.743651390075684,0.07944071292877197,-1.1069512367248535
1750935430430873900,10.540873779296875,9.782330513000488,0.06124503165483475,-0.6874860525131226
1750935430449698300,10.5596982421875,9.805929183959961,0.038507141172885895,-0.11256149411201477
1750935430468523000,10.57852294921875,9.792394638061523,0.018950456753373146,0.528239369392395
1750935430487347500,10.597347412109375,9.743451118469238,0.021370045840740204,1.1113415956497192
1750935430506172200,10.616172119140625,9.678051948547363,0.03740466758608818,1.5824947357177734
1750935430524996600,10.63499658203125,9.609306335449219,0.0538894422352314,1.9567139148712158
1750935430543821300,10.6538212890625,9.53956127166748,0.07513639330863953,2.271897315979004
1750935430562645800,10.672645751953125,9.477858543395996,0.09699634462594986,2.5161821842193604
1750935430581470200,10.69147021484375,9.445940971374512,0.10195811837911606,2.633289098739624
1750935430600295000,10.710294921875,9.44082260131836,0.1045335903763771,2.6514766216278076
1750935430619119400,10.729119384765625,9.460657119750977,0.11822348088026047,2.5792179107666016
1750935430637944000,10.747944091796874,9.51534366607666,0.13665594160556793,2.3685319423675537
1750935430656768500,10.7667685546875,9.604365348815918,0.15539699792861938,1.9754536151885986
1750935430675593200,10.78559326171875,9.700094223022461,0.17586864531040192,1.430954933166504
1750935430694417700,10.804417724609374,9.77101993560791,0.19899415969848633,0.8111425042152405
1750935430713242000,10.8232421875,9.802336692810059,0.20792031288146973,0.20337137579917908
1750935430732066800,10.84206689453125,9.797989845275879,0.19197647273540497,-0.3645971119403839
1750935430750891300,10.860891357421876,9.76414680480957,0.15977782011032104,-0.8979483842849731
1750935430769716000,10.879716064453126,9.71075439453125,0.11999253183603287,-1.3628042936325073
1750935430788540400,10.89854052734375,9.654776573181152,0.07314557582139969,-1.7176555395126343
1750935430807364900,10.91736474609375,9.615549087524414,0.026220999658107758,-1.9263761043548584
1750935430826189600,10.936189453125,9.6114501953125,0.0009609706467017531,-1.9468947649002075
1750935430845014000,10.955013916015625,9.635226249694824,-0.005979385692626238,-1.8255878686904907
1750935430863838700,10.973838623046875,9.679763793945312,-0.005887723062187433,-1.5724252462387085
1750935430882663200,10.9926630859375,9.734248161315918,0.00461474759504199,-1.189447283744812
1750935430901487600,11.011487548828125,9.781181335449219,0.02695254236459732,-0.705800473690033
1750935430920312300,11.030312255859375,9.805788040161133,0.05971712991595268,-0.11553100496530533
1750935430939136800,11.04913671875,9.794438362121582,0.08542419970035553,0.4817301332950592
1750935430957961500,11.06796142578125,9.75873851776123,0.0916130393743515,0.9638561606407166
1750935430976786000,11.086785888671875,9.71537971496582,0.09228488802909851,1.3316386938095093
1750935430995610400,11.1056103515625,9.659515380859375,0.09762118756771088,1.6895676851272583
1750935431014435000,11.12443505859375,9.599967956542969,0.09679804742336273,2.0004076957702637
1750935431033259500,11.143259521484374,9.569502830505371,0.07907963544130325,2.142136335372925
1750935431052084200,11.162084228515624,9.571941375732422,0.061323102563619614,2.1318001747131348
1750935431070908700,11.18090869140625,9.602839469909668,0.0691298171877861,1.9877345561981201
1750935431089733000,11.199733154296876,9.660409927368164,0.09854909032583237,1.684387445449829
1750935431108557800,11.218557861328126,9.730026245117188,0.1279841512441635,1.2167952060699463
1750935431127382300,11.23738232421875,9.784106254577637,0.149985671043396,0.6474308371543884
1750935431146207000,11.25620703125,9.80488109588623,0.17891183495521545,0.0517798475921154
1750935431165031400,11.275031494140626,9.789769172668457,0.20308160781860352,-0.538102388381958
1750935431183856000,11.293856201171875,9.742399215698242,0.19214820861816406,-1.1041367053985596
1750935431202680600,11.3126806640625,9.674686431884766,0.14788319170475006,-1.5965455770492554
1750935431221505000,11.331505126953125,9.612994194030762,0.08374009281396866,-1.9374570846557617
1750935431240329700,11.350329833984375,9.586076736450195,0.018434839323163033,-2.068131446838379
1750935431259154200,11.369154296875,9.602015495300293,-0.01786733791232109,-1.9928261041641235
1750935431277979000,11.387978759765625,9.644832611083984,-0.02591986581683159,-1.773956060409546
1750935431296803300,11.40680322265625,9.704902648925781,-0.025323355570435524,-1.408761739730835
1750935431315627800,11.425627685546875,9.763407707214355,-0.0268758125603199,-0.9195272922515869
1750935431334452500,11.444452392578125,9.8004732131958,-0.021008199080824852,-0.34737488627433777
1750935431353277000,11.46327685546875,9.802706718444824,0.002386442618444562,0.278064489364624
1750935431372101600,11.4821015625,9.768939971923828,0.036786794662475586,0.8583871722221375
1750935431390926000,11.500926025390624,9.709405899047852,0.0648951455950737,1.3760883808135986
1750935431409750500,11.51975048828125,9.633936882019043,0.0729699432849884,1.8309340476989746
1750935431428575200,11.5385751953125,9.576272010803223,0.06967882066965103,2.1119987964630127
1750935431447399700,11.557399658203124,9.561233520507812,0.0796743705868721,2.178727865219116
1750935431466224000,11.57622412109375,9.577645301818848,0.10470019280910492,2.10431170463562
1750935431485048800,11.595048828125,9.620050430297852,0.12320157885551453,1.8999587297439575
1750935431503873300,11.613873291015626,9.673095703125,0.14558658003807068,1.6063681840896606
1750935431522698000,11.632697998046876,9.728653907775879,0.16664977371692657,1.2230746746063232
1750935431541522400,11.6515224609375,9.778646469116211,0.17216983437538147,0.7202962636947632
1750935431560347000,11.670346923828125,9.80406665802002,0.18587453663349152,0.1269608438014984
1750935431579171600,11.689171630859375,9.793295860290527,0.21316321194171906,-0.4650876820087433
1750935431597996000,11.70799609375,9.752582550048828,0.20954424142837524,-1.00678551197052
1750935431616820700,11.72682080078125,9.69216251373291,0.1534067690372467,-1.4862236976623535
1750935431635645200,11.745645263671875,9.621944427490234,0.07305415719747543,-1.8929401636123657
1750935431654469600,11.7644697265625,9.561175346374512,-0.000327532208757475,-2.1804370880126953
1750935431673294300,11.78329443359375,9.537518501281738,-0.03639436513185501,-2.2814009189605713
1750935431692118800,11.802118896484375,9.560248374938965,-0.02907348796725273,-2.184309482574463
1750935431710943500,11.820943603515625,9.612449645996094,-0.01546421367675066,-1.9418928623199463
1750935431729768000,11.839767822265625,9.682522773742676,-0.005501339677721262,-1.5553476810455322
1750935431748592600,11.858592529296875,9.752074241638184,0.008923204615712166,-1.033133864402771
1750935431767417000,11.8774169921875,9.797035217285156,0.03728880733251572,-0.43253713846206665
1750935431786241500,11.896241455078124,9.804879188537598,0.08907046169042587,0.1636827141046524
1750935431805066000,11.91506591796875,9.775909423828125,0.14633561670780182,0.7619554996490479
1750935431823890700,11.933890625,9.721955299377441,0.17647427320480347,1.2739051580429077
1750935431842715100,11.952715087890626,9.671091079711914,0.18437406420707703,1.6144343614578247
1750935431861539800,11.971539794921876,9.631566047668457,0.2075287103652954,1.8331018686294556
1750935431880364300,11.9903642578125,9.594292640686035,0.25013965368270874,2.014288902282715
1750935431899189000,12.00918896484375,9.560428619384766,0.28979724645614624,2.1643970012664795
1750935431918013400,12.028013427734376,9.543852806091309,0.3061617910861969,2.2341701984405518
1750935431936838000,12.046837890625,9.554362297058105,0.2921505868434906,2.190706491470337
1750935431955662600,12.06566259765625,9.60439395904541,0.27420586347579956,1.9623475074768066
1750935431974487000,12.084487060546875,9.682934761047363,0.2819344103336334,1.5269861221313477
1750935431993311700,12.103311767578125,9.753171920776367,0.31522929668426514,0.9729649424552917
1750935432012136200,12.12213623046875,9.793057441711426,0.34456783533096313,0.38429415225982666
1750935432030960600,12.140960693359375,9.798666954040527,0.3454638421535492,-0.19278861582279205
1750935432049785300,12.159785400390625,9.775263786315918,0.3259725868701935,-0.7129858136177063
1750935432068609800,12.17860986328125,9.737696647644043,0.30190858244895935,-1.1209408044815063
1750935432087434200,12.197434326171875,9.705077171325684,0.282509982585907,-1.3791507482528687
1750935432106259000,12.216259033203125,9.697235107421875,0.2695406377315521,-1.4357458353042603
1750935432125083400,12.23508349609375,9.729869842529297,0.26643404364585876,-1.195429801940918
1750935432143908000,12.253908203125,9.782028198242188,0.26825109124183655,-0.6405895352363586
1750935432162732500,12.272732666015624,9.803218841552734,0.2535783648490906,0.0546402782201767
1750935432181557000,12.291556884765624,9.777084350585938,0.22406606376171112,0.7271793484687805
1750935432200381700,12.310381591796874,9.7225341796875,0.2162807434797287,1.2633057832717896
1750935432219206100,12.3292060546875,9.661041259765625,0.24483458697795868,1.665751576423645
1750935432238030800,12.34803076171875,9.597946166992188,0.2829844057559967,1.9924200773239136
1750935432256855300,12.366855224609376,9.535181045532227,0.3131569027900696,2.269941806793213
1750935432275679700,12.3856796875,9.466136932373047,0.323013573884964,2.541320323944092
1750935432294504400,12.40450439453125,9.399409294128418,0.3145608901977539,2.7789487838745117
1750935432313329000,12.423328857421875,9.362536430358887,0.3022458851337433,2.9020605087280273
1750935432332153300,12.4421533203125,9.393411636352539,0.2982722818851471,2.8009390830993652
1750935432350978000,12.46097802734375,9.484501838684082,0.30437174439430237,2.4742627143859863
1750935432369802500,12.479802490234375,9.60339069366455,0.30058401823043823,1.9633958339691162
1750935432388627200,12.498627197265625,9.714493751525879,0.2615971863269806,1.315510869026184
1750935432407451600,12.51745166015625,9.787436485290527,0.2014768123626709,0.5795536041259766
1750935432426276000,12.536276123046875,9.803664207458496,0.15460540354251862,-0.18610379099845886
1750935432445100800,12.555100830078125,9.764509201049805,0.14569395780563354,-0.896397054195404
1750935432463925200,12.57392529296875,9.702126502990723,0.1791027933359146,-1.416701316833496
1750935432482749700,12.592749755859375,9.657173156738281,0.22493672370910645,-1.6907929182052612
1750935432501574400,12.611574462890625,9.662166595458984,0.24030743539333344,-1.6598730087280273
1750935432520398800,12.63039892578125,9.713935852050781,0.2048836350440979,-1.3296074867248535
1750935432539223600,12.6492236328125,9.776717185974121,0.1638793647289276,-0.7478832006454468
1750935432558048000,12.668048095703124,9.805017471313477,0.16520404815673828,-0.06870853900909424
1750935432576872400,12.68687255859375,9.790520668029785,0.19534055888652802,0.5271866321563721
1750935432595697200,12.705697265625,9.74548625946045,0.23284146189689636,1.0684953927993774
1750935432614521600,12.724521484375,9.676408767700195,0.2796954810619354,1.568209171295166
1750935432633346300,12.74334619140625,9.609814643859863,0.33755946159362793,1.9255872964859009
1750935432652170800,12.762170654296876,9.561856269836426,0.3903735280036926,2.142171859741211
1750935432670995500,12.780995361328126,9.521890640258789,0.41097018122673035,2.309781074523926
1750935432689820000,12.79981982421875,9.485723495483398,0.4000498056411743,2.4558916091918945
1750935432708644400,12.818644287109375,9.46347713470459,0.3723548352718353,2.54447340965271
1750935432727468800,12.83746875,9.485734939575195,0.3380158841609955,2.4651479721069336
1750935432746293500,12.85629345703125,9.547205924987793,0.3156251907348633,2.218472957611084
1750935432765118000,12.875117919921875,9.620165824890137,0.28648287057876587,1.88168466091156
1750935432783942700,12.893942626953125,9.69324779510498,0.2159299999475479,1.4712965488433838
1750935432802767000,12.91276708984375,9.756193161010742,0.10057924687862396,0.9884174466133118
1750935432821591800,12.931591796875,9.796318054199219,-0.046839918941259384,0.4476076364517212
1750935432840416300,12.950416259765625,9.803519248962402,-0.20696578919887543,-0.13624094426631927
1750935432859240700,12.96924072265625,9.7743501663208,-0.3675197660923004,-0.705275297164917
1750935432878065400,12.9880654296875,9.719587326049805,-0.5079070329666138,-1.2008477449417114
1750935432896889900,13.006889892578124,9.657149314880371,-0.616963267326355,-1.5903465747833252
1750935432915714300,13.02571435546875,9.599720001220703,-0.7165270447731018,-1.8714593648910522
1750935432934539000,13.0445390625,9.572551727294922,-0.8134613633155823,-1.9684847593307495
1750935432953363500,13.063363525390624,9.62272834777832,-0.8734394907951355,-1.6764888763427734
1750935432972188200,13.082188232421874,9.715511322021484,-0.8722612261772156,-1.0091516971588135
1750935432991012600,13.1010126953125,9.767036437988281,-0.8527570962905884,-0.21953938901424408
1750935433009837000,13.119837158203126,9.760493278503418,-0.8643501996994019,0.39504894614219666
1750935433028661800,13.138661865234376,9.729192733764648,-0.8736839294433594,0.8659515976905823
1750935433047486200,13.157486328125,9.681961059570312,-0.8291333913803101,1.3200525045394897
1750935433066311000,13.176310791015625,9.614314079284668,-0.7139371037483215,1.7960106134414673
1750935433085135400,13.19513525390625,9.521438598632812,-0.568394660949707,2.278050661087036
1750935433103959800,13.213959716796875,9.398736000061035,-0.4484579265117645,2.7627944946289062
1750935433122784500,13.232784423828125,9.269490242004395,-0.3729505240917206,3.1792826652526855
1750935433141609000,13.25160888671875,9.170201301574707,-0.31560125946998596,3.4609522819519043
1750935433160433700,13.27043359375,9.124545097351074,-0.24622833728790283,3.585031509399414
1750935433179258000,13.289258056640625,9.119598388671875,-0.1557704359292984,3.6026437282562256
1750935433198082600,13.30808251953125,9.160653114318848,-0.08126790076494217,3.4994587898254395
1750935433216907300,13.3269072265625,9.264875411987305,-0.05366192385554314,3.2139687538146973
1750935433235731700,13.345731689453125,9.412605285644531,-0.06420710682868958,2.7512035369873047
1750935433254556200,13.36455615234375,9.564452171325684,-0.07652423530817032,2.1646673679351807
1750935433273380900,13.383380859375,9.692059516906738,-0.08100251853466034,1.4925862550735474
1750935433292205300,13.402205322265624,9.772951126098633,-0.08750255405902863,0.8075586557388306
1750935433311030000,13.421030029296874,9.804634094238281,-0.1119939535856247,0.1642637550830841
1750935433329854500,13.4398544921875,9.792372703552246,-0.19013340771198273,-0.4936409294605255
1750935433348679000,13.458678955078126,9.7326021194458,-0.3195548951625824,-1.1596293449401855
1750935433367503600,13.477503662109376,9.647100448608398,-0.44142594933509827,-1.7055786848068237
1750935433386328000,13.496328125,9.575345993041992,-0.494686484336853,-2.058741331100464
1750935433405152800,13.51515283203125,9.53201675415039,-0.4928354322910309,-2.2512547969818115
1750935433423977200,13.533977294921876,9.512550354003906,-0.46617424488067627,-2.337620258331299
1750935433442801700,13.5528017578125,9.49882984161377,-0.4496811032295227,-2.3959169387817383
1750935433461626400,13.57162646484375,9.506860733032227,-0.44295161962509155,-2.365114212036133
1750935433480450800,13.590450927734375,9.571697235107422,-0.41327664256095886,-2.093370199203491
1750935433499275500,13.609275634765625,9.687414169311523,-0.33327826857566833,-1.4877214431762695
1750935433518100000,13.628099853515625,9.782023429870605,-0.21410119533538818,-0.6607456207275391
1750935433536924700,13.646924560546875,9.803421974182129,-0.0999252051115036,0.23091469705104828
1750935433555749000,13.6657490234375,9.757590293884277,-0.025215737521648407,0.9793821573257446
1750935433574573600,13.684573486328125,9.68768310546875,0.030678201466798782,1.5225783586502075
1750935433593398300,13.703398193359375,9.611002922058105,0.09505674988031387,1.9467908143997192
1750935433612222700,13.72222265625,9.528679847717285,0.16329382359981537,2.312567949295044
1750935433631047400,13.74104736328125,9.430785179138184,0.22188927233219147,2.679821014404297
1750935433649872000,13.759871826171874,9.310270309448242,0.2635066509246826,3.069171190261841
1750935433668696300,13.7786962890625,9.195637702941895,0.29006028175354004,3.395071506500244
1750935433687521000,13.79752099609375,9.124691009521484,0.3023540675640106,3.5803616046905518
1750935433706345500,13.816345458984374,9.11347484588623,0.30352604389190674,3.608717679977417
1750935433725170200,13.835170166015626,9.1654634475708,0.29458239674568176,3.4753262996673584
1750935433743994600,13.85399462890625,9.270903587341309,0.27978911995887756,3.1847219467163086
1750935433762819000,13.872819091796876,9.420441627502441,0.263437956571579,2.7122409343719482
1750935433781643800,13.891643798828126,9.57653522491455,0.24514245986938477,2.0976791381835938
1750935433800468200,13.91046826171875,9.700333595275879,0.21772482991218567,1.423561692237854
1750935433819293000,13.92929296875,9.781414031982422,0.16154465079307556,0.6842738389968872
1750935433838117400,13.948117431640625,9.806084632873535,0.07913704961538315,-0.06949745863676071
1750935433856942000,13.966942138671875,9.776359558105469,-0.018017731606960297,-0.7699765563011169
1750935433875766500,13.9857666015625,9.709053993225098,-0.09393958002328873,-1.3768852949142456
1750935433894591200,14.00459130859375,9.6290922164917,-0.1408134549856186,-1.8523335456848145
1750935433913415700,14.023415771484375,9.554094314575195,-0.18382978439331055,-2.2036049365997314
1750935433932240100,14.042240234375,9.47285270690918,-0.25286176800727844,-2.524186611175537
1750935433951064800,14.06106494140625,9.397490501403809,-0.30520370602607727,-2.786468029022217
1750935433969889300,14.07988916015625,9.353880882263184,-0.3087366819381714,-2.929159164428711
1750935433988714000,14.0987138671875,9.34932804107666,-0.2834594249725342,-2.9462053775787354
1750935434007538400,14.117538330078125,9.401084899902344,-0.2438882440328598,-2.7803761959075928
1750935434026363000,14.13636279296875,9.53074836730957,-0.1795429289340973,-2.302823781967163
1750935434045187600,14.1551875,9.693514823913574,-0.08641847968101501,-1.482804298400879
1750935434064012000,14.174011962890624,9.789589881896973,0.016879422590136528,-0.5779460072517395
1750935434082836700,14.192836669921874,9.804193496704102,0.11620739102363586,0.18620413541793823
1750935434101661200,14.2116611328125,9.771214485168457,0.21124960482120514,0.8056944012641907
1750935434120486000,14.23048583984375,9.714088439941406,0.30733293294906616,1.3085976839065552
1750935434139310300,14.249310302734376,9.643342018127441,0.3997593820095062,1.736817717552185
1750935434158134800,14.268134765625,9.560640335083008,0.48029395937919617,2.1292879581451416
1750935434176959500,14.28695947265625,9.462156295776367,0.5460759997367859,2.5178942680358887
1750935434195784000,14.305783935546875,9.368759155273438,0.5940787196159363,2.8361618518829346
1750935434214608600,14.324608642578125,9.33730697631836,0.623163104057312,2.9320218563079834
1750935434233433000,14.34343310546875,9.36148738861084,0.6427510976791382,2.8495280742645264
1750935434252257800,14.3622578125,9.415287017822266,0.6547591090202332,2.6634645462036133
1750935434271082200,14.381082275390625,9.494811058044434,0.6623589992523193,2.362251043319702
1750935434289907000,14.399906982421875,9.594402313232422,0.6618860363960266,1.9182649850845337
1750935434308731400,14.4187314453125,9.693645477294922,0.6369665265083313,1.340855598449707
1750935434327555800,14.437555908203125,9.76410961151123,0.5888481140136719,0.697006344795227
1750935434346380500,14.456380615234375,9.793122291564941,0.5134217739105225,0.039134155958890915
1750935434365205000,14.475205078125,9.779465675354004,0.4124300181865692,-0.6019397974014282
1750935434384029700,14.49402978515625,9.729116439819336,0.32015904784202576,-1.1883578300476074
1750935434402854100,14.512854248046875,9.651979446411133,0.24419452250003815,-1.717570424079895
1750935434421678800,14.531678955078124,9.557586669921875,0.16734059154987335,-2.189729928970337
1750935434440503300,14.55050341796875,9.471487998962402,0.09759615361690521,-2.5400352478027344
1750935434459328000,14.569327880859374,9.409049034118652,0.04067866876721382,-2.7637877464294434
1750935434478152400,14.58815234375,9.387476921081543,0.003995456732809544,-2.83648419380188
1750935434496977200,14.60697705078125,9.403478622436523,-0.015749329701066017,-2.782933473587036
1750935434515801600,14.625801513671876,9.432061195373535,-0.030329549685120583,-2.6843411922454834
1750935434534626000,14.6446259765625,9.478867530822754,-0.035648345947265625,-2.51399564743042
1750935434553450800,14.66345068359375,9.564244270324707,-0.014744733460247517,-2.1668896675109863
1750935434572275200,14.682275146484375,9.679474830627441,0.035392820835113525,-1.5738177299499512
1750935434591100000,14.701099853515625,9.769158363342285,0.0914863795042038,-0.8518005013465881
1750935434609924400,14.71992431640625,9.804244995117188,0.1478499323129654,-0.15905815362930298
1750935434628749000,14.7387490234375,9.798128128051758,0.1937597244977951,0.35989418625831604
1750935434647573500,14.757573486328125,9.775151252746582,0.22843830287456512,0.7514066100120544
1750935434666398200,14.776398193359375,9.74432373046875,0.2507130801677704,1.0750237703323364
1750935434685222700,14.79522265625,9.712674140930176,0.2553613781929016,1.3300931453704834
1750935434704047400,14.81404736328125,9.68638801574707,0.2421695590019226,1.5118352174758911
1750935434722871800,14.832871826171875,9.67039680480957,0.2204405814409256,1.6140767335891724
1750935434741696300,14.8516962890625,9.667250633239746,0.19315141439437866,1.6362589597702026
1750935434760521000,14.87052099609375,9.677871704101562,0.16777729988098145,1.5751256942749023
1750935434779345400,14.889345458984375,9.69675064086914,0.1599389612674713,1.4552792310714722
1750935434798170000,14.908170166015625,9.719743728637695,0.15245956182479858,1.2937217950820923
1750935434816994600,14.92699462890625,9.759232521057129,0.11403707414865494,0.9564270377159119
1750935434835819300,14.9458193359375,9.800442695617676,0.05987972393631935,0.34371814131736755
1750935434854643700,14.964643798828124,9.797762870788574,0.026607343927025795,-0.4165458381175995
1750935434873468400,14.983468505859374,9.743148803710938,0.013282185420393944,-1.114119052886963
1750935434892292900,15.00229296875,9.650632858276367,-0.044496193528175354,-1.7417521476745605
1750935434911117600,15.02111767578125,9.514922142028809,-0.1589221954345703,-2.3688364028930664
1750935434929942000,15.03994189453125,9.359211921691895,-0.28140780329704285,-2.9148480892181396
1750935434948766500,15.058766357421876,9.22237777709961,-0.3786245584487915,-3.312818765640259
1750935434967591200,15.077591064453125,9.134753227233887,-0.4403798580169678,-3.5401623249053955
1750935434986415600,15.09641552734375,9.123618125915527,-0.4665122926235199,-3.5654382705688477
1750935435005240300,15.115240234375,9.202922821044922,-0.4700196385383606,-3.3549485206604004
1750935435024064800,15.134064697265625,9.35698127746582,-0.44960904121398926,-2.900886058807373
1750935435042889500,15.152889404296875,9.517305374145508,-0.4108718931674957,-2.3286211490631104
1750935435061714000,15.1717138671875,9.63880729675293,-0.361517071723938,-1.7700563669204712
1750935435080538600,15.19053857421875,9.723270416259766,-0.301437109708786,-1.239971399307251
1750935435099363000,15.209363037109375,9.778299331665039,-0.2329167127609253,-0.7078110575675964
1750935435118187800,15.228187744140625,9.803207397460938,-0.15862345695495605,-0.20583754777908325
1750935435137012200,15.24701220703125,9.802999496459961,-0.07069285959005356,0.2580193877220154
1750935435155836700,15.265836669921875,9.783989906311035,0.016133949160575867,0.6660899519920349
1750935435174661400,15.284661376953125,9.755969047546387,0.07668046653270721,0.992765486240387
1750935435193486000,15.303486083984374,9.72802734375,0.10052238404750824,1.2352179288864136
1750935435212310500,15.322310546875,9.703890800476074,0.11378810554742813,1.4113619327545166
1750935435231135000,15.341135009765624,9.683096885681152,0.13293740153312683,1.5460796356201172
1750935435249959700,15.359959716796874,9.672506332397461,0.15794749557971954,1.6087511777877808
1750935435268784000,15.3787841796875,9.678743362426758,0.17747263610363007,1.568703055381775
1750935435287608800,15.39760888671875,9.708559036254883,0.18542718887329102,1.3710851669311523
1750935435306433300,15.416433349609376,9.758098602294922,0.17764468491077423,0.9582952260971069
1750935435325258000,15.435258056640626,9.796563148498535,0.17152822017669678,0.4102690815925598
1750935435344082400,15.45408251953125,9.804179191589355,0.16891975700855255,-0.14116504788398743
1750935435362907100,15.4729072265625,9.78140640258789,0.15676450729370117,-0.6854996085166931
1750935435381731600,15.491731689453125,9.731878280639648,0.11961530148983002,-1.202755331993103
1750935435400556300,15.510556396484375,9.663986206054688,0.054802488535642624,-1.6657607555389404
1750935435419380700,15.529380615234375,9.587529182434082,-0.027271350845694542,-2.061289072036743
1750935435438205200,15.548205078125,9.524547576904297,-0.10359882563352585,-2.33294677734375
1750935435457030000,15.56702978515625,9.504058837890625,-0.14895422756671906,-2.4126858711242676
1750935435475854300,15.585854248046875,9.545379638671875,-0.14762888848781586,-2.2437312602996826
1750935435494679000,15.604678955078125,9.635653495788574,-0.12068117409944534,-1.819342851638794
1750935435513503500,15.62350341796875,9.731100082397461,-0.09011752158403397,-1.2115920782089233
1750935435532328200,15.642328125,9.791305541992188,-0.05988116189837456,-0.5451066493988037
1750935435551152600,15.661152587890625,9.806386947631836,-0.0152394138276577,0.07023456692695618
1750935435569977300,15.679977294921875,9.78711986541748,0.05336616933345795,0.6162893176078796
1750935435588801800,15.6988017578125,9.74377727508545,0.13932617008686066,1.099904179573059
1750935435607626500,15.71762646484375,9.692890167236328,0.20727021992206573,1.4748915433883667
1750935435626451000,15.736450927734374,9.65540599822998,0.24347048997879028,1.6983095407485962
1750935435645275600,15.755275634765624,9.64189338684082,0.2480732649564743,1.7727757692337036
1750935435664100000,15.77410009765625,9.649130821228027,0.2462584525346756,1.73321533203125
1750935435682924500,15.792924560546876,9.678343772888184,0.26536446809768677,1.5587255954742432
1750935435701749200,15.811749267578126,9.72574234008789,0.2852642834186554,1.2243167161941528
1750935435720573700,15.83057373046875,9.773406982421875,0.2849646210670471,0.7547844052314758
1750935435739398400,15.8493984375,9.800349235534668,0.2758440375328064,0.21782483160495758
1750935435758222800,15.868222900390625,9.79678726196289,0.2608059346675873,-0.3540261685848236
1750935435777047600,15.887047607421875,9.75833797454834,0.23680326342582703,-0.9429537653923035
1750935435795872000,15.9058720703125,9.684585571289062,0.1858818531036377,-1.5312236547470093
1750935435814696700,15.92469677734375,9.582401275634766,0.11733351647853851,-2.0818731784820557
1750935435833521200,15.943521240234375,9.478418350219727,0.052681814879179,-2.515394449234009
1750935435852345900,15.962345947265625,9.418034553527832,0.005711736157536507,-2.7333104610443115
1750935435871170300,15.98117041015625,9.4462890625,-0.005103514064103365,-2.634007453918457
1750935435889995000,15.9999951171875,9.559106826782227,0.020707543939352036,-2.189392328262329
1750935435908819500,16.0188193359375,9.677927017211914,0.053650226444005966,-1.5827921628952026
1750935435927644000,16.037643798828125,9.759546279907227,0.08719457685947418,-0.9560620188713074
1750935435946468600,16.056468505859375,9.798624992370605,0.12854743003845215,-0.3752424120903015
1750935435965293300,16.075293212890625,9.803848266601562,0.18451498448848724,0.14457577466964722
1750935435984117800,16.09411767578125,9.780256271362305,0.2466350793838501,0.6753875017166138
1750935436002942200,16.112942138671876,9.730972290039062,0.295325368642807,1.1795541048049927
1750935436021767000,16.131766845703126,9.671859741210938,0.32217830419540405,1.5879974365234375
1750935436040591400,16.15059130859375,9.611392974853516,0.334494411945343,1.918237328529358
1750935436059416000,16.169416015625,9.541814804077148,0.3365933895111084,2.238496780395508
1750935436078240500,16.188240478515624,9.452376365661621,0.33021125197410583,2.5911242961883545
1750935436097065200,16.207065185546874,9.356492042541504,0.32141759991645813,2.919442892074585
1750935436115889700,16.2258896484375,9.275452613830566,0.3212811052799225,3.167513370513916
1750935436134714400,16.24471435546875,9.236851692199707,0.32806268334388733,3.277700901031494
1750935436153538800,16.263538818359375,9.245278358459473,0.33687230944633484,3.252957344055176
1750935436172363500,16.282363525390625,9.286761283874512,0.33950769901275635,3.132280111312866
1750935436191188000,16.30118798828125,9.365221977233887,0.34110382199287415,2.88905930519104
1750935436210012700,16.3200126953125,9.465641975402832,0.350396066904068,2.539536237716675
1750935436228837000,16.338837158203123,9.568556785583496,0.3564760088920593,2.118027687072754
1750935436247661600,16.35766162109375,9.656936645507812,0.3460487723350525,1.671591877937317
1750935436266486300,16.376486328125,9.721257209777832,0.3103518486022949,1.2534829378128052
1750935436285311000,16.39531103515625,9.766378402709961,0.24644041061401367,0.8529422283172607
1750935436304135400,16.414135498046875,9.794270515441895,0.16029193997383118,0.4657924175262451
1750935436322960100,16.432960205078125,9.806058883666992,0.06531189382076263,0.08570879697799683
1750935436341784600,16.45178466796875,9.802069664001465,-0.01318912860006094,-0.29942020773887634
1750935436360609000,16.470609130859376,9.784011840820312,-0.05015451833605766,-0.6640557050704956
1750935436379433700,16.489433837890626,9.75837230682373,-0.07972730696201324,-0.9686035513877869
1750935436398258200,16.508258056640624,9.728775978088379,-0.1247984915971756,-1.2270818948745728
1750935436417083000,16.527082763671874,9.695361137390137,-0.1732679307460785,-1.4629842042922974
1750935436435907300,16.5459072265625,9.666576385498047,-0.20753659307956696,-1.6384769678115845
1750935436454732000,16.56473193359375,9.646944046020508,-0.23217056691646576,-1.7472697496414185
1750935436473556500,16.583556396484376,9.643444061279297,-0.24637764692306519,-1.7645591497421265
1750935436492381200,16.602381103515626,9.670148849487305,-0.23492588102817535,-1.6135122776031494
1750935436511205600,16.62120556640625,9.726250648498535,-0.19914574921131134,-1.2372453212738037
1750935436530030300,16.6400302734375,9.783122062683105,-0.1523948311805725,-0.6615787744522095
1750935436548854800,16.658854736328124,9.806048393249512,-0.10863733291625977,-0.0006366102606989443
1750935436567679500,16.677679443359374,9.791078567504883,-0.08137443661689758,0.5464087724685669
1750935436586504000,16.69650390625,9.75814151763916,-0.048616744577884674,0.972981870174408
1750935436605328600,16.71532861328125,9.7120361328125,0.0035536945797502995,1.358941912651062
1750935436624153000,16.734153076171875,9.653389930725098,0.057669658213853836,1.7260149717330933
1750935436642977800,16.752977783203125,9.577221870422363,0.10661133378744125,2.10614275932312
1750935436661802200,16.77180224609375,9.495996475219727,0.14328265190124512,2.444566249847412
1750935436680627000,16.790626953125,9.43844223022461,0.15957917273044586,2.6572024822235107
1750935436699451400,16.809451416015627,9.416654586791992,0.17025627195835114,2.732766628265381
1750935436718276000,16.828276123046876,9.439291954040527,0.19623629748821259,2.6517255306243896
1750935436737100500,16.8471005859375,9.495333671569824,0.2281491458415985,2.4406940937042236
1750935436755925200,16.86592529296875,9.554433822631836,0.253362238407135,2.1952199935913086
1750935436774749700,16.884749755859374,9.607452392578125,0.2744440734386444,1.9472887516021729
1750935436793574400,16.903574462890624,9.655046463012695,0.28791624307632446,1.6933863162994385
1750935436812398800,16.92239892578125,9.705906867980957,0.29038527607917786,1.3716543912887573
1750935436831223600,16.9412236328125,9.747319221496582,0.29051199555397034,1.0371884107589722
1750935436850048000,16.960048095703126,9.773871421813965,0.2705850601196289,0.7540616989135742
1750935436868872700,16.978872802734376,9.791160583496094,0.22862932085990906,0.501288115978241
1750935436887697200,16.997697265625,9.801603317260742,0.18598417937755585,0.2536851763725281
1750935436906521900,17.01652197265625,9.805469512939453,0.15155556797981262,-0.013503119349479675
1750935436925346300,17.03534619140625,9.802729606628418,0.10298313200473785,-0.25745508074760437
1750935436944171000,17.0541708984375,9.798699378967285,0.027270345017313957,-0.39388513565063477
1750935436962995700,17.07299560546875,9.795470237731934,-0.06775379925966263,-0.4632059931755066
1750935436981820200,17.091820068359375,9.78915023803711,-0.16555240750312805,-0.5617210268974304
1750935437000644900,17.110644775390625,9.784229278564453,-0.22312182188034058,-0.6240670680999756
1750935437019469300,17.12946923828125,9.786246299743652,-0.2273501604795456,-0.589993953704834
1750935437038294000,17.1482939453125,9.794723510742188,-0.21164195239543915,-0.4347354769706726
1750935437057118500,17.167118408203127,9.80367660522461,-0.19670197367668152,-0.14006733894348145
1750935437075943200,17.185943115234377,9.802199363708496,-0.17380867898464203,0.23886221647262573
1750935437094767600,17.204767578125,9.789389610290527,-0.13209131360054016,0.5663824677467346
1750935437113592300,17.22359228515625,9.767659187316895,-0.08871328085660934,0.8691073656082153
1750935437132416800,17.242416748046875,9.733858108520508,-0.07420757412910461,1.1903334856033325
1750935437151241500,17.261241455078125,9.689637184143066,-0.07227759063243866,1.5086748600006104
1750935437170066000,17.28006591796875,9.645389556884766,-0.08183405548334122,1.7692227363586426
1750935437188890600,17.298890625,9.605401992797852,-0.10398557037115097,1.9737837314605713
1750935437207715000,17.317715087890626,9.574945449829102,-0.14908476173877716,2.1139044761657715
1750935437226539800,17.336539794921876,9.55260944366455,-0.22470204532146454,2.206249952316284
1750935437245364200,17.3553642578125,9.537699699401855,-0.30614426732063293,2.260296583175659
1750935437264189000,17.37418896484375,9.530556678771973,-0.3626294732093811,2.281968116760254
1750935437283013600,17.393013671875,9.532407760620117,-0.38069191575050354,2.2712674140930176
1750935437301838000,17.411838134765624,9.53963565826416,-0.36352625489234924,2.2435665130615234
1750935437320662800,17.430662841796874,9.547571182250977,-0.3540222644805908,2.2110934257507324
1750935437339487200,17.4494873046875,9.55614185333252,-0.3401489853858948,2.1759674549102783
1750935437358312000,17.46831201171875,9.585348129272461,-0.2990019917488098,2.0499000549316406
1750935437377136400,17.487136474609375,9.642217636108398,-0.2649565041065216,1.7685688734054565
1750935437395961000,17.505961181640625,9.698712348937988,-0.21587076783180237,1.4348374605178833
1750935437414785500,17.52478564453125,9.747156143188477,-0.14317157864570618,1.069034218788147
1750935437433610200,17.5436103515625,9.782017707824707,-0.056501466780900955,0.6923298835754395
1750935437461847000,17.571846923828126,9.80516242980957,0.026432715356349945,0.1687515527009964
1750935437480671700,17.590671630859376,9.80612850189209,0.06546939164400101,-0.07719190418720245
1750935437499496200,17.60949609375,9.802092552185059,0.09645261615514755,-0.2829448878765106
1750935437518321000,17.62832080078125,9.793213844299316,0.11215440183877945,-0.5007904171943665
1750935437537145600,17.6471455078125,9.78023624420166,0.13036169111728668,-0.7073661088943481
1750935437555970000,17.665969970703124,9.764479637145996,0.15127845108509064,-0.8957912921905518
1750935437574794800,17.684794677734374,9.752769470214844,0.14938215911388397,-1.0156558752059937
1750935437593619200,17.703619140625,9.750805854797363,0.13161946833133698,-1.0367430448532104
1750935437612444000,17.72244384765625,9.763310432434082,0.12586940824985504,-0.9123097062110901
1750935437631268400,17.741268310546875,9.787270545959473,0.14108902215957642,-0.5998558402061462
1750935437650093000,17.760093017578125,9.80473518371582,0.1693079024553299,-0.09427352994680405
1750935437668917500,17.77891748046875,9.790793418884277,0.20982304215431213,0.5164604187011719
1750935437687742200,17.7977421875,9.745070457458496,0.2571036219596863,1.066721796989441
1750935437706567000,17.81656689453125,9.677210807800293,0.307282954454422,1.5580670833587646
1750935437725391400,17.835391357421877,9.60818862915039,0.35163643956184387,1.9311792850494385
1750935437744216000,17.854216064453126,9.555767059326172,0.3788284957408905,2.171217441558838
1750935437763040500,17.87304052734375,9.516887664794922,0.3758709132671356,2.336224317550659
1750935437781865200,17.891865234375,9.478850364685059,0.355280339717865,2.4890878200531006
1750935437800689700,17.910689697265624,9.421835899353027,0.3400610685348511,2.6988425254821777
1750935437819514400,17.929514404296874,9.348519325256348,0.34366992115974426,2.94235897064209
1750935437838339000,17.948339111328124,9.28789234161377,0.344419926404953,3.128390073776245
1750935437857163500,17.96716357421875,9.287247657775879,0.3163181245326996,3.1332688331604004
1750935437875988200,17.98598828125,9.354889869689941,0.2705935835838318,2.9297099113464355
1750935437894812700,18.004812744140626,9.472996711730957,0.2332773208618164,2.5255327224731445
1750935437913637400,18.023637451171876,9.597908973693848,0.22301600873470306,2.0001983642578125
1750935437932461800,18.0424619140625,9.703978538513184,0.21522773802280426,1.3988813161849976
1750935437951286500,18.06128662109375,9.775725364685059,0.1779026985168457,0.7575734853744507
1750935437970111200,18.080111328125,9.805693626403809,0.09783821552991867,0.09584525972604752
1750935437988935700,18.098935791015624,9.791159629821777,0.0050749387592077255,-0.5509470701217651
1750935438007760400,18.117760498046874,9.739336013793945,-0.053377386182546616,-1.145808458328247
1750935438026585000,18.136585205078124,9.660391807556152,-0.08494018763303757,-1.6852306127548218
1750935438045409500,18.155409423828125,9.575175285339355,-0.1333780139684677,-2.113912343978882
1750935438064234200,18.174234130859375,9.517949104309082,-0.20422430336475372,-2.3531551361083984
1750935438083058700,18.19305859375,9.508049964904785,-0.2572600841522217,-2.3877153396606445
1750935438101883400,18.21188330078125,9.545710563659668,-0.25085169076919556,-2.233128786087036
1750935438120707800,18.230707763671877,9.611469268798828,-0.198552668094635,-1.9366545677185059
1750935438139532500,18.249532470703127,9.688270568847656,-0.13249172270298004,-1.5133575201034546
1750935438158357200,18.268357177734377,9.758030891418457,-0.06361260265111923,-0.9732264280319214
1750935438177181700,18.287181640625,9.797361373901367,0.007464509457349777,-0.4266771972179413
1750935438196006400,18.30600634765625,9.806312561035156,0.07298490405082703,0.03583252802491188
1750935438214830800,18.324830810546874,9.793593406677246,0.10795325040817261,0.49422308802604675
1750935438233655600,18.343655517578124,9.756258010864258,0.10346196591854095,0.9874862432479858
1750935438252480300,18.362480224609374,9.695473670959473,0.06496421992778778,1.4710391759872437
1750935438271304700,18.3813046875,9.62583065032959,0.019829800352454185,1.874396562576294
1750935438290129400,18.40012939453125,9.566975593566895,-0.0032069666776806116,2.154845952987671
1750935438308953900,18.418953857421876,9.527841567993164,0.0024035710375756025,2.3217687606811523
1750935438327778600,18.437778564453126,9.500909805297852,0.01905067451298237,2.429551362991333
1750935438346603300,18.456603271484376,9.465798377990723,0.0450298897922039,2.56261944770813
1750935438365427700,18.475427734375,9.408782958984375,0.07952497154474258,2.7638509273529053
1750935438384252400,18.49425244140625,9.361259460449219,0.10913725197315216,2.9198100566864014
1750935438403077000,18.5130771484375,9.345014572143555,0.14902997016906738,2.969660997390747
1750935438421901600,18.531901611328124,9.374187469482422,0.20712706446647644,2.8726491928100586
1750935438440726300,18.550726318359374,9.455892562866211,0.2802245318889618,2.5841712951660156
1750935438459551000,18.569551025390624,9.565730094909668,0.3440489172935486,2.1327972412109375
1750935438478375400,18.58837548828125,9.668106079101562,0.3552938401699066,1.6037070751190186
1750935438497200000,18.6072001953125,9.744675636291504,0.32705217599868774,1.0510568618774414
1750935438516024600,18.626024658203125,9.791671752929688,0.2998790144920349,0.4512611925601959
1750935438534849300,18.644849365234375,9.800189018249512,0.2785733640193939,-0.22153876721858978
1750935438553674000,18.663674072265625,9.763599395751953,0.25004467368125916,-0.8831728100776672
1750935438572498400,18.68249853515625,9.704232215881348,0.2247442752122879,-1.3956220149993896
1750935438591323100,18.7013232421875,9.664544105529785,0.21204987168312073,-1.6498570442199707
1750935438610147800,18.72014794921875,9.665837287902832,0.2018563598394394,-1.643538475036621
1750935438628972300,18.73897216796875,9.682733535766602,0.1716889888048172,-1.5445293188095093
1750935438647797000,18.757796875,9.695794105529785,0.1316683441400528,-1.4644560813903809
1750935438666621400,18.776621337890624,9.703325271606445,0.10218995064496994,-1.4161309003829956
1750935438685446100,18.795446044921874,9.712420463562012,0.11262741684913635,-1.351509928703308
1750935438704270800,18.814270751953124,9.735916137695312,0.16582779586315155,-1.1639741659164429
1750935438723095300,18.83309521484375,9.776935577392578,0.23614658415317535,-0.7253614664077759
1750935438741920000,18.851919921875,9.801807403564453,0.29970842599868774,-0.07155981659889221
1750935438760744700,18.87074462890625,9.782814025878906,0.33768144249916077,0.5940653085708618
1750935438779569200,18.889569091796876,9.727962493896484,0.3573663532733917,1.1871886253356934
1750935438798393900,18.908393798828126,9.653402328491211,0.37132441997528076,1.6865098476409912
1750935438817218600,18.927218505859376,9.578248023986816,0.38438713550567627,2.06876802444458
1750935438836043000,18.94604296875,9.50970458984375,0.4048651456832886,2.3605055809020996
1750935438854867700,18.96486767578125,9.437085151672363,0.43048232793807983,2.6318209171295166
1750935438873692400,18.9836923828125,9.351503372192383,0.4425184428691864,2.9195804595947266
1750935438892516900,19.002516845703123,9.262568473815918,0.42870065569877625,3.1924030780792236
1750935438911341600,19.021341552734373,9.203954696655273,0.40834739804267883,3.3601861000061035
1750935438930166300,19.040166259765623,9.208050727844238,0.40470004081726074,3.3493897914886475
1750935438948990700,19.05899072265625,9.262738227844238,0.42211687564849854,3.1927850246429443
1750935438967815400,19.0778154296875,9.349686622619629,0.43056946992874146,2.927177906036377
1750935438986640100,19.09664013671875,9.464451789855957,0.4084242284297943,2.5352983474731445
1750935439005464600,19.115464599609375,9.60155963897705,0.3651265501976013,1.961411714553833
1750935439024289300,19.134289306640625,9.72022819519043,0.3060343563556671,1.2625001668930054
1750935439043114000,19.153114013671875,9.789665222167969,0.2145940363407135,0.5355265736579895
1750935439061938400,19.1719384765625,9.805171012878418,0.09663722664117813,-0.14027072489261627
1750935439080763100,19.19076318359375,9.783523559570312,-0.004841874353587627,-0.6730647683143616
1750935439099587800,19.209587890625,9.746550559997559,-0.0918506383895874,-1.0801477432250977
1750935439118412300,19.228412353515626,9.710160255432129,-0.17527374625205994,-1.3610551357269287
1750935439137237000,19.247237060546876,9.69727611541748,-0.2332548350095749,-1.4418100118637085
1750935439156061700,19.266061767578126,9.711725234985352,-0.24210062623023987,-1.3394602537155151
1750935439174886100,19.28488623046875,9.739745140075684,-0.22464922070503235,-1.1212809085845947
1750935439193710800,19.3037109375,9.77205753326416,-0.20243972539901733,-0.7976879477500916
1750935439212535600,19.32253564453125,9.798296928405762,-0.1705140322446823,-0.36699914932250977
1750935439231360000,19.341360107421874,9.80505657196045,-0.12960997223854065,0.12024081498384476
1750935439250184700,19.360184814453124,9.788908004760742,-0.09129924327135086,0.5825215578079224
1750935439269009400,19.379009521484374,9.754021644592285,-0.054195236414670944,1.013175368309021
1750935439287833900,19.397833740234375,9.703520774841309,-0.008327949792146683,1.4184536933898926
1750935439306658600,19.416658447265625,9.640257835388184,0.04322943463921547,1.7983134984970093
1750935439325483300,19.435483154296875,9.562410354614258,0.08889929950237274,2.1731979846954346
1750935439344307700,19.4543076171875,9.467277526855469,0.12928573787212372,2.554274320602417
1750935439363132400,19.47313232421875,9.380894660949707,0.15916498005390167,2.8537464141845703
1750935439381957000,19.49195703125,9.326979637145996,0.18444405496120453,3.0238771438598633
1750935439400781600,19.510781494140623,9.299552917480469,0.20428332686424255,3.1059587001800537
1750935439419606300,19.529606201171877,9.290287017822266,0.21046578884124756,3.1331536769866943
1750935439438431000,19.548430908203127,9.296782493591309,0.20234398543834686,3.114368200302124
1750935439457255400,19.56725537109375,9.325606346130371,0.19254958629608154,3.027601718902588
1750935439476080000,19.586080078125,9.396480560302734,0.1868475079536438,2.800290107727051
1750935439494904800,19.60490478515625,9.507084846496582,0.17788323760032654,2.39876651763916
1750935439513729500,19.6237294921875,9.628937721252441,0.15811842679977417,1.8517439365386963
1750935439532554000,19.642553955078125,9.727049827575684,0.12898719310760498,1.240261197090149
1750935439551378700,19.661378662109374,9.782783508300781,0.09543714672327042,0.6770679354667664
1750935439570203400,19.680203369140624,9.805006980895996,0.03513775393366814,0.1760377436876297
1750935439589027800,19.69902783203125,9.801097869873047,-0.07869686931371689,-0.32041093707084656
1750935439607852500,19.7178525390625,9.77266788482666,-0.22675849497318268,-0.7835323810577393
1750935439626677200,19.73667724609375,9.736248970031738,-0.3361925184726715,-1.123749017715454
1750935439645501700,19.755501708984376,9.710282325744629,-0.38882946968078613,-1.315147876739502
1750935439664326400,19.774326416015626,9.702497482299805,-0.41417890787124634,-1.3639607429504395
1750935439683151000,19.793151123046876,9.714442253112793,-0.41705524921417236,-1.2751661539077759
1750935439701975800,19.811975830078126,9.733641624450684,-0.40492695569992065,-1.1236692667007446
1750935439720800300,19.83080029296875,9.751717567443848,-0.38847997784614563,-0.9609857797622681
1750935439739625000,19.849625,9.770736694335938,-0.35312169790267944,-0.7605231404304504
1750935439758449700,19.86844970703125,9.792166709899902,-0.2949768602848053,-0.44367459416389465
1750935439777274000,19.887274169921874,9.804035186767578,-0.22604939341545105,0.012925731018185616
1750935439796098800,19.906098876953124,9.790498733520508,-0.15237118303775787,0.5415712594985962
1750935439814923500,19.924923583984373,9.749731063842773,-0.08252231776714325,1.0518193244934082
1750935439833748000,19.943748046875,9.685405731201172,-0.016481870785355568,1.5372153520584106
1750935439852572700,19.96257275390625,9.594077110290527,0.04341371729969978,2.030318260192871
1750935439871397400,19.9813974609375,9.480548858642578,0.08984660357236862,2.506290912628174
1750935439890222000,20.00022216796875,9.363753318786621,0.1289326697587967,2.9109973907470703
1750935439909046500,20.019046630859375,9.250539779663086,0.16356801986694336,3.251328229904175
1750935439927871200,20.037871337890625,9.153281211853027,0.1761859655380249,3.51522159576416
1750935439946696000,20.056696044921875,9.111856460571289,0.17061614990234375,3.6215124130249023
1750935439965520600,20.075520751953125,9.147388458251953,0.16684049367904663,3.5309808254241943
1750935439984345000,20.094344970703126,9.238653182983398,0.16875889897346497,3.2846906185150146
1750935440003169800,20.113169677734376,9.35463809967041,0.1787431389093399,2.937546491622925
1750935440021994500,20.131994384765626,9.478235244750977,0.1851925104856491,2.5098090171813965
1750935440040819000,20.15081884765625,9.602949142456055,0.17425626516342163,1.9807555675506592
1750935440059643600,20.1696435546875,9.7059907913208,0.13356053829193115,1.3950917720794678
1750935440078468400,20.18846826171875,9.772601127624512,0.05502504110336304,0.8146320581436157
1750935440097293000,20.20729296875,9.802584648132324,-0.039605848491191864,0.2795525789260864
1750935440116117500,20.226117431640624,9.804620742797852,-0.11071881651878357,-0.16594251990318298
1750935440134942200,20.244942138671874,9.792222023010254,-0.1672530621290207,-0.5047920346260071
1750935440153767000,20.263766845703124,9.776130676269531,-0.22994881868362427,-0.7380900382995605
1750935440172591400,20.28259130859375,9.76684856414795,-0.2921866476535797,-0.8328728079795837
1750935440191416000,20.301416015625,9.770285606384277,-0.3333185613155365,-0.7751216292381287
1750935440210240800,20.32024072265625,9.781949043273926,-0.3504280745983124,-0.6008753180503845
1750935440229065500,20.3390654296875,9.794017791748047,-0.35030490159988403,-0.35341379046440125
1750935440247890000,20.357889892578125,9.801050186157227,-0.3311583697795868,0.011860273778438568
1750935440266714600,20.376714599609375,9.789422988891602,-0.29252004623413086,0.5020002722740173
1750935440285539300,20.395539306640625,9.749516487121582,-0.24708044528961182,1.0277540683746338
1750935440304363800,20.41436376953125,9.685647010803223,-0.20410215854644775,1.5221573114395142
1750935440323188500,20.4331884765625,9.595779418945312,-0.16745086014270782,2.0157785415649414
1750935440342013200,20.45201318359375,9.489558219909668,-0.13850125670433044,2.469712495803833
1750935440370250200,20.480250244140624,9.36283016204834,-0.09137226641178131,2.9153823852539062
1750935440389074700,20.49907470703125,9.300559043884277,-0.05710387974977493,3.109135627746582
1750935440407899400,20.5178994140625,9.246979713439941,-0.03096642531454563,3.2653934955596924
1750935440426724000,20.53672412109375,9.207554817199707,-0.01908808946609497,3.3750483989715576
1750935440445548500,20.555548583984375,9.19285774230957,-0.011881549842655659,3.414909839630127
1750935440464373200,20.574373291015625,9.204388618469238,0.0026950091123580933,3.38372802734375
1750935440483198000,20.593197998046875,9.233709335327148,0.018586071208119392,3.3028266429901123
1750935440502022700,20.612022705078125,9.303458213806152,0.02339112013578415,3.100886821746826
1750935440520847000,20.63084716796875,9.450980186462402,0.0060825408436357975,2.617122173309326
1750935440539671800,20.649671875,9.624826431274414,-0.01559807825833559,1.8795902729034424
1750935440558496500,20.66849658203125,9.745111465454102,-0.015155007131397724,1.096789002418518
1750935440577321200,20.6873212890625,9.798638343811035,-0.022180015221238136,0.39569735527038574
1750935440596145700,20.706145751953127,9.803125381469727,-0.0828523188829422,-0.24952413141727448
1750935440614970400,20.724970458984377,9.768922805786133,-0.20091554522514343,-0.8355581164360046
1750935440633795000,20.743795166015627,9.718179702758789,-0.3154244124889374,-1.2758779525756836
1750935440652619500,20.76261962890625,9.685445785522461,-0.3670978844165802,-1.492569088935852
1750935440671444200,20.7814443359375,9.685243606567383,-0.3661908805370331,-1.4941086769104004
1750935440690269000,20.80026904296875,9.71113395690918,-0.359538733959198,-1.3171898126602173
1750935440709093600,20.81909375,9.75032901763916,-0.36023932695388794,-0.9857423305511475
1750935440727918000,20.83791796875,9.783906936645508,-0.34797704219818115,-0.5696244239807129
1750935440746742800,20.85674267578125,9.800342559814453,-0.3188728392124176,-0.14826510846614838
1750935440765567500,20.8755673828125,9.798938751220703,-0.28132328391075134,0.26839879155158997
1750935440784392000,20.894391845703126,9.780708312988281,-0.24626432359218597,0.6689363718032837
1750935440803216600,20.913216552734376,9.747633934020996,-0.2184794843196869,1.0517985820770264
1750935440822041300,20.932041259765626,9.696091651916504,-0.19266650080680847,1.4557031393051147
1750935440840866000,20.950865966796876,9.619158744812012,-0.1659635603427887,1.9012199640274048
1750935440859690500,20.9696904296875,9.532295227050781,-0.1401851773262024,2.2991487979888916
1750935440878515200,20.98851513671875,9.455179214477539,-0.11507710069417953,2.59936785697937
1750935440897340000,21.00733984375,9.384081840515137,-0.09160452336072922,2.846226930618286
1750935440916164600,21.02616455078125,9.318946838378906,-0.07314751297235489,3.0532398223876953
1750935440934989000,21.044989013671874,9.267861366271973,-0.05576049163937569,3.205310106277466
1750935440953813800,21.063813720703124,9.234888076782227,-0.04216735064983368,3.2993123531341553
1750935440972638500,21.082638427734373,9.241717338562012,-0.027265621349215508,3.280292272567749
1750935440991463200,21.101463134765623,9.306733131408691,-0.014226269908249378,3.091102123260498
1750935441010287600,21.12028759765625,9.411201477050781,-0.016975149512290955,2.7566983699798584
1750935441029112300,21.1391123046875,9.535111427307129,-0.032665424048900604,2.2915003299713135
1750935441047937000,21.15793701171875,9.645832061767578,-0.03792587295174599,1.7683007717132568
1750935441066761700,21.17676171875,9.7298583984375,-0.03962693735957146,1.2241922616958618
1750935441085586200,21.195586181640625,9.78433609008789,-0.06828524172306061,0.6576409935951233
1750935441104411000,21.214410888671875,9.805319786071777,-0.13414138555526733,0.0899340957403183
1750935441123235600,21.233235595703125,9.79246711730957,-0.23399794101715088,-0.4724375009536743
1750935441142060300,21.252060302734375,9.752055168151855,-0.33788028359413147,-0.976547360420227
1750935441160884700,21.270884765625,9.709218978881836,-0.4069294333457947,-1.3175196647644043
1750935441179709400,21.28970947265625,9.690680503845215,-0.43383729457855225,-1.4397492408752441
1750935441198534100,21.3085341796875,9.706387519836426,-0.4237731695175171,-1.332990288734436
1750935441217358600,21.327358642578126,9.749629020690918,-0.3968296945095062,-0.978596568107605
1750935441236183300,21.346183349609376,9.79248332977295,-0.35793739557266235,-0.38669314980506897
1750935441255008000,21.365008056640626,9.797542572021484,-0.31237223744392395,0.28456398844718933
1750935441273832700,21.383832763671876,9.761459350585938,-0.26468533277511597,0.902350664138794
1750935441292657200,21.4026572265625,9.692258834838867,-0.21447516977787018,1.4780113697052002
1750935441311481900,21.42148193359375,9.598044395446777,-0.15566447377204895,2.005915641784668
1750935441330306600,21.440306640625,9.491454124450684,-0.10266847163438797,2.464172840118408
1750935441349131300,21.45913134765625,9.394587516784668,-0.07497651129961014,2.811847448348999
1750935441367955700,21.477955810546874,9.335997581481934,-0.057765036821365356,3.001033067703247
1750935441386780400,21.496780517578124,9.3147554397583,-0.03276395797729492,3.0667002201080322
1750935441405605000,21.515605224609374,9.336382865905762,-0.014883965253829956,3.000352382659912
1750935441424429800,21.534429931640624,9.401229858398438,-0.016003552824258804,2.7905237674713135
1750935441443254300,21.553254150390625,9.490775108337402,-0.025695346295833588,2.468785047531128
1750935441462079000,21.572078857421875,9.593770027160645,-0.02989048697054386,2.0320115089416504
1750935441480903700,21.590903564453125,9.69624137878418,-0.03237544745206833,1.4670499563217163
1750935441499728100,21.60972802734375,9.77528190612793,-0.04756037890911102,0.7823030352592468
1750935441518552800,21.628552734375,9.805953979492188,-0.09102560579776764,0.07327385246753693
1750935441537377500,21.64737744140625,9.787450790405273,-0.17093677818775177,-0.5890296101570129
1750935441556202200,21.6662021484375,9.736173629760742,-0.27089568972587585,-1.1418962478637695
1750935441575026700,21.685026611328126,9.68139934539795,-0.35681965947151184,-1.5210438966751099
1750935441593851400,21.703851318359376,9.649704933166504,-0.4100802540779114,-1.6986498832702637
1750935441612676000,21.722676025390626,9.65677261352539,-0.4328606128692627,-1.6522029638290405
1750935441631500800,21.741500732421876,9.699070930480957,-0.4348301291465759,-1.3817843198776245
1750935441650325200,21.7603251953125,9.753206253051758,-0.42082831263542175,-0.9318051338195801
1750935441669150000,21.77914990234375,9.792230606079102,-0.3931123614311218,-0.357870489358902
1750935441687974700,21.797974609375,9.796205520629883,-0.3400820791721344,0.29849115014076233
1750935441706799400,21.81679931640625,9.760360717773438,-0.2825174033641815,0.9088013172149658
1750935441725623800,21.835623779296874,9.70229721069336,-0.22729896008968353,1.4085972309112549
1750935441744448500,21.854448486328124,9.623051643371582,-0.1678600162267685,1.8812447786331177
1750935441763273200,21.873273193359374,9.521746635437012,-0.11109942197799683,2.3440053462982178
1750935441782097700,21.89209765625,9.410599708557129,-0.06390463560819626,2.758066177368164
1750935441800922400,21.91092236328125,9.312908172607422,-0.02619379758834839,3.0723650455474854
1750935441819747000,21.9297470703125,9.238293647766113,0.009671695530414581,3.2900187969207764
1750935441838571800,21.94857177734375,9.189702033996582,0.035192035138607025,3.4232330322265625
1750935441857396200,21.967396240234375,9.164934158325195,0.0456543043255806,3.4888808727264404
1750935441876221000,21.986220947265625,9.198980331420898,0.039530009031295776,3.39817214012146
1750935441895045600,22.005045654296875,9.310516357421875,0.02815616875886917,3.0795905590057373
1750935441913870300,22.023870361328125,9.461943626403809,0.010614616796374321,2.5771870613098145
1750935441932694800,22.04269482421875,9.604524612426758,0.003097149543464184,1.980776071548462
1750935441951519500,22.06151953125,9.717567443847656,0.007873664610087872,1.3187888860702515
1750935441970344200,22.08034423828125,9.791029930114746,-0.00513118552044034,0.5532763004302979
1750935441989168600,22.099168701171877,9.803171157836914,-0.03879774361848831,-0.258280485868454
1750935442007993300,22.117993408203127,9.757658004760742,-0.08794938772916794,-0.9750760793685913
1750935442026818000,22.136818115234377,9.695609092712402,-0.13502900302410126,-1.4653754234313965
1750935442045642800,22.155642822265627,9.659940719604492,-0.18058788776397705,-1.6802784204483032
1750935442064467200,22.17446728515625,9.657666206359863,-0.23395055532455444,-1.686751127243042
1750935442083292000,22.1932919921875,9.68289852142334,-0.2763121724128723,-1.5282405614852905
1750935442102116600,22.21211669921875,9.732293128967285,-0.274208664894104,-1.173741340637207
1750935442120941300,22.23094140625,9.786697387695312,-0.2199966162443161,-0.585266649723053
1750935442139765800,22.249765869140624,9.804457664489746,-0.1423584669828415,0.15072070062160492
1750935442158590500,22.268590576171874,9.768731117248535,-0.09769751876592636,0.8559873104095459
1750935442177415200,22.287415283203124,9.692437171936035,-0.09048178046941757,1.4895871877670288
1750935442196240000,22.306239990234374,9.586457252502441,-0.09436533600091934,2.0642940998077393
1750935442215064300,22.325064208984376,9.473130226135254,-0.10305571556091309,2.533688545227051
1750935442233889000,22.343888916015626,9.364134788513184,-0.1116253137588501,2.9104812145233154
1750935442252713700,22.362713623046876,9.246068000793457,-0.11210577934980392,3.2661986351013184
1750935442271538200,22.3815380859375,9.140642166137695,-0.11146308481693268,3.5505788326263428
1750935442290363000,22.40036279296875,9.094005584716797,-0.1145748645067215,3.6682868003845215
1750935442309187600,22.4191875,9.141254425048828,-0.11962942779064178,3.548738956451416
1750935442328012000,22.438011962890624,9.265776634216309,-0.11185961961746216,3.209869146347046
1750935442346836700,22.456836669921874,9.413529396057129,-0.09159018099308014,2.7472622394561768
1750935442365661400,22.475661376953123,9.564002990722656,-0.06948665529489517,2.16689133644104
1750935442384486100,22.494486083984373,9.706273078918457,-0.060496386140584946,1.3982073068618774
1750935442403310600,22.513310546875,9.793002128601074,-0.08609646558761597,0.5099797248840332
1750935442422135300,22.53213525390625,9.801342010498047,-0.12466050684452057,-0.29755762219429016
1750935442440960000,22.5509599609375,9.761855125427246,-0.15230637788772583,-0.9237828850746155
1750935442459784700,22.56978466796875,9.712597846984863,-0.1836744099855423,-1.3424152135849
1750935442478609200,22.588609130859375,9.688209533691406,-0.22223997116088867,-1.5031938552856445
1750935442497433900,22.607433837890625,9.699687957763672,-0.2451375275850296,-1.4234979152679443
1750935442516258600,22.626258544921875,9.744213104248047,-0.2307908535003662,-1.0804781913757324
1750935442535083300,22.645083251953125,9.789081573486328,-0.19678770005702972,-0.5527729392051697
1750935442553907700,22.66390771484375,9.805081367492676,-0.17494092881679535,0.012519522570073605
1750935442572732400,22.682732421875,9.78707504272461,-0.16135555505752563,0.5979338884353638
1750935442591557000,22.70155712890625,9.725857734680176,-0.1356971263885498,1.2488614320755005
1750935442610381600,22.720381591796876,9.617924690246582,-0.10283573716878891,1.9118965864181519
1750935442629206300,22.739206298828126,9.479805946350098,-0.07417462021112442,2.5096137523651123
1750935442648031000,22.758031005859376,9.335076332092285,-0.0693013072013855,3.0036559104919434
1750935442666855700,22.776855712890626,9.189957618713379,-0.07605002075433731,3.421882152557373
1750935442685680000,22.79568017578125,9.039360046386719,-0.08215735107660294,3.8017892837524414
1750935442704504800,22.8145048828125,8.880619049072266,-0.08768028765916824,4.15900182723999
1750935442723329500,22.83332958984375,8.740782737731934,-0.10620740801095963,4.444978713989258
1750935442742154000,22.852154052734374,8.67225456237793,-0.12626676261425018,4.576726913452148
1750935442760978700,22.870978759765624,8.69914436340332,-0.1347389966249466,4.5251665115356445
1750935442779803400,22.889803466796874,8.81751537322998,-0.12231205403804779,4.290320873260498
1750935442798628000,22.908628173828124,8.997452735900879,-0.08697130531072617,3.8998281955718994
1750935442817452500,22.92745263671875,9.181057929992676,-0.03677809238433838,3.446333408355713
1750935442836277200,22.94627734375,9.366470336914062,0.0029432678129523993,2.905099391937256
1750935442855102000,22.96510205078125,9.55310344696045,0.02940353751182556,2.215339422225952
1750935442873926400,22.983926513671875,9.693989753723145,0.04865757375955582,1.4814128875732422
1750935442892751000,23.002751220703125,9.766434669494629,0.0662245824933052,0.8847386240959167
1750935442911575800,23.021575927734375,9.796121597290039,0.07195504009723663,0.4485660791397095
1750935442949225000,23.059224853515627,9.806559562683105,-0.031197363510727882,-0.028583111241459846
1750935442968049700,23.078049560546877,9.805325508117676,-0.09811651706695557,-0.1279158741235733
1750935442986874400,23.096874267578126,9.804729461669922,-0.12636910378932953,-0.1472664773464203
1750935443005698800,23.11569873046875,9.805866241455078,-0.12368806451559067,0.009185345843434334
1750935443024523500,23.1345234375,9.795534133911133,-0.10321580618619919,0.45522552728652954
1750935443043348200,23.15334814453125,9.744110107421875,-0.11132828891277313,1.10014009475708
1750935443062173000,23.1721728515625,9.63907241821289,-0.1541147381067276,1.7985862493515015
1750935443080997400,23.190997314453124,9.48519229888916,-0.1738964468240738,2.484205722808838
1750935443099822000,23.209822021484374,9.30519962310791,-0.16354216635227203,3.091426372528076
1750935443118646800,23.228646728515624,9.114632606506348,-0.13526631891727448,3.6160151958465576
1750935443137471200,23.24747119140625,8.891060829162598,-0.10977970063686371,4.136106491088867
1750935443156296000,23.2662958984375,8.67060661315918,-0.08997916430234909,4.5807061195373535
1750935443175120600,23.28512060546875,8.518258094787598,-0.05673087760806084,4.858646869659424
1750935443193945300,23.3039453125,8.461341857910156,-0.012002452276647091,4.957413196563721
1750935443212769800,23.322769775390626,8.509909629821777,0.04107140377163887,4.873412132263184
1750935443231594500,23.341594482421876,8.644442558288574,0.09576200693845749,4.629777908325195
1750935443250419200,23.360419189453125,8.829432487487793,0.13169169425964355,4.265461444854736
1750935443269243600,23.37924365234375,9.044025421142578,0.1400766521692276,3.788980722427368
1750935443288068400,23.398068359375,9.26727294921875,0.12697778642177582,3.20497989654541
1750935443306893000,23.41689306640625,9.468554496765137,0.07906457781791687,2.5515878200531006
1750935443325717500,23.435717529296873,9.626115798950195,0.003877350827679038,1.8730393648147583
1750935443344542200,23.454542236328123,9.732667922973633,-0.0781940296292305,1.1997767686843872
1750935443363367000,23.473366943359373,9.789517402648926,-0.15641902387142181,0.5579137206077576
1750935443382191600,23.492191650390627,9.80406665802002,-0.22509557008743286,0.0020089694298803806
1750935443401016000,23.51101611328125,9.793741226196289,-0.27496102452278137,-0.42117926478385925
1750935443419840800,23.5298408203125,9.778594970703125,-0.2918547987937927,-0.6813859939575195
1750935443438665500,23.54866552734375,9.76039981842041,-0.29871413111686707,-0.9031960368156433
1750935443457490000,23.567489990234375,9.73672103881836,-0.3160286843776703,-1.1255161762237549
1750935443476314600,23.586314697265625,9.698773384094238,-0.3511902391910553,-1.4074249267578125
1750935443495139300,23.605139404296875,9.647857666015625,-0.40311485528945923,-1.7107700109481812
1750935443513964000,23.623964111328124,9.604419708251953,-0.4393994212150574,-1.9319517612457275
1750935443532788500,23.64278857421875,9.59394359588623,-0.4404127895832062,-1.9830939769744873
1750935443551613200,23.66161328125,9.636754989624023,-0.4189649522304535,-1.768562912940979
1750935443570438000,23.68043798828125,9.712119102478027,-0.40931421518325806,-1.2952172756195068
1750935443589262300,23.699262451171876,9.774259567260742,-0.4205191135406494,-0.6763082146644592
1750935443608087000,23.718087158203126,9.797481536865234,-0.41835904121398926,-0.06874901801347733
1750935443636324000,23.746323974609375,9.768805503845215,-0.33341965079307556,0.7935165762901306
1750935443655148500,23.7651484375,9.704309463500977,-0.2489643394947052,1.3909670114517212
1750935443673973200,23.78397314453125,9.598587036132812,-0.18532216548919678,2.0007901191711426
1750935443692798000,23.8027978515625,9.49433708190918,-0.15874192118644714,2.45005202293396
1750935443711622400,23.821622314453126,9.429816246032715,-0.12551277875900269,2.6894583702087402
1750935443730447000,23.840447021484376,9.381404876708984,-0.05923022702336311,2.85589337348938
1750935443749271800,23.859271728515626,9.329028129577637,0.02020925283432007,3.0231142044067383
1750935443768096300,23.87809619140625,9.27293586730957,0.07209932804107666,3.1902732849121094
1750935443786921000,23.8969208984375,9.23913860321045,0.08209963142871857,3.2866322994232178
1750935443805745700,23.91574560546875,9.278627395629883,0.0768992006778717,3.1735680103302
1750935443824570000,23.934570068359374,9.39332389831543,0.05608038231730461,2.8165066242218018
1750935443843394800,23.953394775390624,9.52188491821289,0.039558045566082,2.3457462787628174
1750935443862219500,23.972219482421874,9.623445510864258,0.048531461507081985,1.88608980178833
1750935443881044200,23.991044189453124,9.702795028686523,0.05154534429311752,1.4224963188171387
1750935443899868700,24.00986865234375,9.763219833374023,0.023900749161839485,0.9216020703315735
1750935443918693400,24.028693359375,9.798805236816406,-0.039188481867313385,0.39019539952278137
1750935443937518000,24.04751806640625,9.805217742919922,-0.12968622148036957,-0.1062328964471817
1750935443956342500,24.066342529296875,9.794269561767578,-0.18471115827560425,-0.4566665291786194
