time,seconds_elapsed,z,y,x
1750935420051585300,0.161585205078125,9.845867156982422,-0.025722842663526535,0.9224331378936768
1750935420079822300,0.189822265625,9.783653259277344,-0.06400800496339798,0.9224331378936768
1750935420126883800,0.2368837890625,9.855438232421875,-0.001794616924598813,0.8841479420661926
1750935420145708500,0.25570849609375,9.807581901550293,-0.001794616924598813,0.8745766878128052
1750935420164533200,0.274533203125,9.817152976989746,0.0077766734175384045,0.8602197170257568
1750935420183358000,0.29335791015625,9.855438232421875,0.012562318705022335,0.9607182741165161
1750935420202182700,0.3121826171875,9.8267240524292,-0.006580262444913387,0.9655039310455322
1750935420221007000,0.331007080078125,9.88415241241455,-0.01615155301988125,0.898504912853241
1750935420239831800,0.349831787109375,9.893723487854004,0.012562318705022335,0.9272187948226929
1750935420258656500,0.368656494140625,9.845867156982422,0.0077766734175384045,0.8793623447418213
1750935420277481200,0.387481201171875,9.793225288391113,-0.001794616924598813,0.9032905697822571
1750935420296306000,0.406305908203125,9.89850902557373,-0.020937198773026466,0.9463613629341125
1750935420315130600,0.425130615234375,9.903294563293457,-0.001794616924598813,0.989432156085968
1750935420333955300,0.443955322265625,9.831509590148926,-0.0975075215101242,0.9559326171875
1750935420352780000,0.462780029296875,9.678369522094727,-0.04486542567610741,0.8506484627723694
1750935420371604700,0.481604736328125,9.77408218383789,-0.04486542567610741,0.9272187948226929
1750935420390429200,0.50042919921875,9.769296646118164,-0.025722842663526535,0.9272187948226929
1750935420409254000,0.51925390625,9.79801082611084,-0.01136590726673603,0.9320043921470642
1750935420428078600,0.53807861328125,9.855438232421875,-0.04007977992296219,0.9655039310455322
1750935420446903300,0.5569033203125,9.836296081542969,0.0029910283628851175,0.9511470198631287
1750935420465728000,0.57572802734375,9.960722923278809,-0.006580262444913387,0.9463613629341125
1750935420484552700,0.594552734375,9.888937950134277,-0.001794616924598813,0.9511470198631287
1750935420503377400,0.61337744140625,9.750154495239258,0.0077766734175384045,0.8602197170257568
1750935420522202000,0.6322021484375,9.860223770141602,-0.020937198773026466,0.8889335989952087
1750935420541026800,0.65102685546875,9.893723487854004,-0.020937198773026466,0.9559326171875
1750935420559851300,0.669851318359375,9.817152976989746,-0.03529413416981697,0.9224331378936768
1750935420578676000,0.688676025390625,9.836296081542969,-0.01615155301988125,0.9272187948226929
1750935420597500700,0.707500732421875,9.802796363830566,-0.049651071429252625,0.9224331378936768
1750935420616325400,0.726325439453125,9.79801082611084,-0.030508488416671753,0.9463613629341125
1750935420635150000,0.745150146484375,9.817152976989746,-0.07357929646968842,0.9320043921470642
1750935420653974800,0.763974853515625,9.845867156982422,-0.049651071429252625,0.9463613629341125
1750935420672799500,0.782799560546875,9.79801082611084,-0.001794616924598813,0.9511470198631287
1750935420691624200,0.801624267578125,9.88415241241455,-0.030508488416671753,0.9272187948226929
1750935420710449000,0.820448974609375,9.845867156982422,0.0029910283628851175,0.8697910308837891
1750935420729273600,0.839273681640625,9.865009307861328,-0.006580262444913387,0.8841479420661926
1750935420748098300,0.858098388671875,9.845867156982422,-0.020937198773026466,0.898504912853241
1750935420766923000,0.876923095703125,9.8267240524292,-0.05922235921025276,0.9272187948226929
1750935420785747500,0.89574755859375,9.831509590148926,-0.04486542567610741,0.865005373954773
1750935420804572200,0.914572265625,9.955936431884766,-0.06400800496339798,0.9367900490760803
1750935420823396900,0.93339697265625,9.91286563873291,-0.05922235921025276,0.9320043921470642
1750935420842221600,0.9522216796875,9.731011390686035,-0.07357929646968842,0.9080761671066284
1750935420861046300,0.97104638671875,9.635298728942871,-0.054436713457107544,0.9032905697822571
1750935420879871000,0.98987109375,9.778867721557617,-0.030508488416671753,0.9032905697822571
1750935420898695700,1.00869580078125,9.927223205566406,-0.03529413416981697,0.9511470198631287
1750935420917520400,1.027520263671875,9.860223770141602,-0.04486542567610741,0.8937192559242249
1750935420936345000,1.046344970703125,9.711869239807129,-0.07357929646968842,0.8123632669448853
1750935420955169800,1.065169677734375,9.989436149597168,-0.0687936544418335,0.8506484627723694
1750935420973994500,1.083994384765625,10.123434066772461,-0.049651071429252625,0.9176474809646606
1750935420992819200,1.102819091796875,9.946365356445312,-0.0687936544418335,0.9080761671066284
1750935421011644000,1.121643798828125,9.711869239807129,-0.054436713457107544,0.8123632669448853
1750935421030468600,1.140468505859375,9.821938514709473,-0.07836493849754333,0.8171489238739014
1750935421049293300,1.159293212890625,9.865009307861328,-0.09272187948226929,0.7932206988334656
1750935421068118000,1.178117919921875,9.941579818725586,-0.0975075215101242,0.8171489238739014
1750935421086942700,1.196942626953125,9.89850902557373,-0.09272187948226929,0.8554341197013855
1750935421105767400,1.215767333984375,9.855438232421875,-0.10707881301641464,0.9798609018325806
1750935421124592000,1.234592041015625,9.716654777526855,-0.07357929646968842,1.1042876243591309
1750935421143416800,1.253416748046875,9.793225288391113,-0.07836493849754333,1.1234302520751953
1750935421162241500,1.272241455078125,9.783653259277344,-0.09272187948226929,0.9463613629341125
1750935421181066200,1.291066162109375,9.558728218078613,-0.08315058797597885,0.9080761671066284
1750935421199890700,1.309890625,9.845867156982422,0.0077766734175384045,0.7597211599349976
1750935421218715400,1.32871533203125,9.740582466125488,0.012562318705022335,0.5682953596115112
1750935421237540000,1.3475400390625,9.88415241241455,-0.04486542567610741,0.5635097622871399
1750935421256364800,1.36636474609375,9.994221687316895,-0.07836493849754333,0.625723123550415
1750935421275189500,1.385189453125,10.089935302734375,-0.06400800496339798,0.6831508874893188
1750935421294014200,1.40401416015625,10.204790115356445,-0.07357929646968842,0.711864709854126
1750935421312839000,1.4228388671875,9.960722923278809,-0.10229317098855972,0.7070791125297546
1750935421331663600,1.44166357421875,9.821938514709473,-0.0687936544418335,0.50129634141922
1750935421350488300,1.46048828125,9.888937950134277,-0.054436713457107544,0.7932206988334656
1750935421369313000,1.47931298828125,9.908080101013184,-0.054436713457107544,0.9080761671066284
1750935421388137700,1.4981376953125,9.683155059814453,-0.07836493849754333,0.9032905697822571
1750935421406962400,1.51696240234375,9.740582466125488,-0.1501496136188507,0.7836494445800781
1750935421425787100,1.535787109375,9.845867156982422,-0.1453639715909958,0.7980063557624817
1750935421444611800,1.55461181640625,9.888937950134277,-0.13579268753528595,0.9272187948226929
1750935421463436500,1.5734365234375,9.865009307861328,-0.1740778535604477,0.8602197170257568
1750935421482261200,1.59226123046875,9.850652694702148,-0.13100704550743103,0.9176474809646606
1750935421501086000,1.6110859375,9.836296081542969,-0.21236300468444824,0.8219345808029175
1750935421519910700,1.62991064453125,9.836296081542969,-0.25064817070961,0.8171489238739014
1750935421538735400,1.6487353515625,9.88415241241455,-0.12622138857841492,0.8793623447418213
1750935421557560000,1.66756005859375,9.932008743286133,-0.09272187948226929,0.9176474809646606
1750935421576384800,1.686384765625,9.946365356445312,-0.06400800496339798,0.9750752449035645
1750935421595209500,1.70520947265625,9.783653259277344,-0.08315058797597885,1.1330015659332275
1750935421614034200,1.7240341796875,9.635298728942871,-0.09272187948226929,1.1473584175109863
1750935421632859000,1.74285888671875,9.821938514709473,-0.0687936544418335,1.113858938217163
1750935421651683600,1.76168359375,9.89850902557373,-0.08793623000383377,1.113858938217163
1750935421670508300,1.78050830078125,9.778867721557617,-0.11186445504426956,0.9320043921470642
1750935421689333000,1.7993330078125,9.941579818725586,-0.13579268753528595,0.9750752449035645
1750935421708157700,1.81815771484375,9.865009307861328,-0.08793623000383377,1.089930772781372
1750935421726982400,1.836982421875,9.79801082611084,-0.11665010452270508,1.046859860420227
1750935421745807000,1.85580712890625,9.91286563873291,-0.06400800496339798,1.0516455173492432
1750935421764631800,1.8746318359375,9.989436149597168,-0.0975075215101242,1.0516455173492432
1750935421783456500,1.89345654296875,9.908080101013184,-0.1453639715909958,0.9798609018325806
1750935421802281200,1.91228125,9.759725570678711,-0.08315058797597885,0.9463613629341125
1750935421821106000,1.93110595703125,9.77408218383789,-0.11186445504426956,0.9415757060050964
1750935421839930600,1.9499306640625,9.807581901550293,-0.12143574655056,0.9320043921470642
1750935421858755300,1.96875537109375,9.951150894165039,-0.11186445504426956,0.8745766878128052
1750935421877580000,1.987580078125,9.975079536437988,-0.05922235921025276,0.9176474809646606
1750935421896404700,2.00640478515625,9.92243766784668,-0.020937198773026466,0.9176474809646606
1750935421915229200,2.025229248046875,9.759725570678711,-0.01615155301988125,0.8554341197013855
1750935421934054100,2.04405419921875,9.745368003845215,-0.06400800496339798,0.7932206988334656
1750935421952878800,2.06287890625,9.668798446655273,-0.03529413416981697,0.8315058946609497
1750935421971703300,2.081703369140625,9.783653259277344,-0.020937198773026466,0.8793623447418213
1750935421990528000,2.100528076171875,9.979865074157715,-0.05922235921025276,0.9607182741165161
1750935422009352700,2.119352783203125,9.984650611877441,-0.030508488416671753,0.8506484627723694
1750935422028177400,2.138177490234375,9.807581901550293,-0.030508488416671753,0.7836494445800781
1750935422047002000,2.157002197265625,9.860223770141602,-0.07357929646968842,0.8506484627723694
1750935422065826800,2.175826904296875,9.855438232421875,-0.07357929646968842,0.8075776696205139
1750935422084651500,2.194651611328125,9.836296081542969,-0.06400800496339798,0.8410771489143372
1750935422103476200,2.213476318359375,9.951150894165039,-0.04007977992296219,0.8267202377319336
1750935422122301000,2.232301025390625,9.869794845581055,-0.054436713457107544,0.7884350419044495
1750935422141125600,2.251125732421875,9.91286563873291,-0.07836493849754333,0.7740781307220459
1750935422159950300,2.269950439453125,9.932008743286133,-0.030508488416671753,0.7932206988334656
1750935422178775000,2.288775146484375,9.850652694702148,-0.07836493849754333,0.7357929348945618
1750935422197599700,2.307599853515625,9.79801082611084,-0.12622138857841492,0.8219345808029175
1750935422216424400,2.326424560546875,9.81236743927002,-0.07836493849754333,0.7980063557624817
1750935422235249200,2.345249267578125,9.999007225036621,-0.030508488416671753,0.8315058946609497
1750935422254073900,2.364073974609375,9.850652694702148,-0.054436713457107544,0.7645068168640137
1750935422272898600,2.382898681640625,9.975079536437988,-0.06400800496339798,0.6927221417427063
1750935422291723300,2.40172314453125,9.951150894165039,-0.001794616924598813,0.898504912853241
1750935422310548000,2.4205478515625,9.970293998718262,-0.07357929646968842,0.8841479420661926
1750935422329372700,2.43937255859375,9.841081619262695,-0.03529413416981697,0.7310073375701904
1750935422348197400,2.458197265625,9.745368003845215,-0.049651071429252625,0.778863787651062
1750935422367022000,2.47702197265625,9.721440315246582,-0.0687936544418335,0.8123632669448853
1750935422385846800,2.4958466796875,9.845867156982422,-0.07836493849754333,0.8315058946609497
1750935422404671500,2.51467138671875,9.955936431884766,-0.07357929646968842,0.9607182741165161
1750935422423496200,2.53349609375,10.013364791870117,-0.07357929646968842,0.8793623447418213
1750935422442321000,2.55232080078125,9.836296081542969,-0.0975075215101242,0.7405785918235779
1750935422461145600,2.5711455078125,9.668798446655273,-0.08793623000383377,0.7070791125297546
1750935422479970300,2.58997021484375,9.731011390686035,-0.07357929646968842,0.7501499056816101
1750935422498795000,2.608794921875,9.869794845581055,-0.07836493849754333,0.8458628058433533
1750935422517619700,2.62761962890625,9.984650611877441,-0.0687936544418335,0.836291491985321
1750935422536444400,2.6464443359375,9.960722923278809,-0.049651071429252625,0.7980063557624817
1750935422555268900,2.665268798828125,9.932008743286133,-0.04007977992296219,0.7214360237121582
1750935422574093600,2.684093505859375,9.817152976989746,-0.04486542567610741,0.7310073375701904
1750935422592918300,2.702918212890625,9.927223205566406,-0.054436713457107544,0.7980063557624817
1750935422611743000,2.721742919921875,9.879366874694824,-0.006580262444913387,0.8745766878128052
1750935422630567700,2.740567626953125,9.92243766784668,-0.030508488416671753,0.8267202377319336
1750935422649392400,2.759392333984375,9.850652694702148,-0.025722842663526535,0.8171489238739014
1750935422668217000,2.778217041015625,9.874580383300781,-0.054436713457107544,0.7645068168640137
1750935422687041800,2.797041748046875,9.855438232421875,-0.049651071429252625,0.8506484627723694
1750935422705866500,2.815866455078125,9.93679428100586,-0.05922235921025276,0.865005373954773
1750935422724691200,2.834691162109375,9.874580383300781,-0.07836493849754333,0.8554341197013855
1750935422743516000,2.853515869140625,9.865009307861328,-0.07357929646968842,0.8123632669448853
1750935422762340600,2.872340576171875,9.793225288391113,-0.05922235921025276,0.7692924737930298
1750935422781165300,2.891165283203125,9.845867156982422,-0.09272187948226929,0.7405785918235779
1750935422799990000,2.909989990234375,9.893723487854004,-0.049651071429252625,0.8171489238739014
1750935422818814700,2.928814697265625,9.908080101013184,-0.025722842663526535,0.8841479420661926
1750935422837639400,2.947639404296875,9.908080101013184,-0.020937198773026466,0.8937192559242249
1750935422856464100,2.966464111328125,9.893723487854004,-0.025722842663526535,0.8602197170257568
1750935422875288800,2.985288818359375,9.869794845581055,-0.020937198773026466,0.7836494445800781
1750935422894113500,3.004113525390625,9.841081619262695,0.012562318705022335,0.7740781307220459
1750935422912938200,3.022938232421875,9.869794845581055,-0.030508488416671753,0.8506484627723694
1750935422931763000,3.041762939453125,9.88415241241455,-0.020937198773026466,0.8841479420661926
1750935422950587600,3.060587646484375,9.841081619262695,-0.049651071429252625,0.9128618240356445
1750935422969412000,3.079412109375,9.874580383300781,-0.030508488416671753,0.8937192559242249
1750935422988236800,3.09823681640625,9.802796363830566,-0.049651071429252625,0.8458628058433533
1750935423007061500,3.1170615234375,9.81236743927002,-0.07836493849754333,0.8889335989952087
1750935423025886200,3.13588623046875,9.975079536437988,-0.025722842663526535,0.9750752449035645
1750935423044711000,3.1547109375,9.92243766784668,-0.0975075215101242,1.1234302520751953
1750935423063535600,3.17353564453125,9.807581901550293,-0.1788634955883026,0.8937192559242249
1750935423082360300,3.1923603515625,9.831509590148926,-0.0975075215101242,0.865005373954773
1750935423101185000,3.21118505859375,9.88415241241455,-0.049651071429252625,1.0133603811264038
1750935423120009700,3.230009765625,9.754940032958984,-0.05922235921025276,0.9655039310455322
1750935423138834400,3.24883447265625,9.783653259277344,-0.07836493849754333,1.022931694984436
1750935423157659100,3.2676591796875,9.88415241241455,-0.01615155301988125,1.1042876243591309
1750935423176483800,3.28648388671875,9.999007225036621,-0.09272187948226929,1.200000524520874
1750935423195308500,3.30530859375,9.841081619262695,-0.11665010452270508,1.0372886657714844
1750935423214133200,3.32413330078125,9.855438232421875,-0.1501496136188507,0.9320043921470642
1750935423232958000,3.3429580078125,9.77408218383789,-0.11186445504426956,1.022931694984436
1750935423251782400,3.361782470703125,9.77408218383789,-0.08315058797597885,1.0755738019943237
1750935423270607000,3.380607177734375,9.745368003845215,-0.0687936544418335,1.089930772781372
1750935423289431800,3.399431884765625,9.759725570678711,-0.13579268753528595,0.9655039310455322
1750935423308256500,3.418256591796875,9.831509590148926,-0.10707881301641464,0.9415757060050964
1750935423327081200,3.437081298828125,9.874580383300781,-0.11665010452270508,1.0037890672683716
1750935423345906000,3.455906005859375,10.003793716430664,-0.0975075215101242,1.022931694984436
1750935423364730600,3.474730712890625,9.999007225036621,-0.12622138857841492,1.0037890672683716
1750935423383555300,3.493555419921875,9.81236743927002,-0.10707881301641464,0.8745766878128052
1750935423402380000,3.512380126953125,9.8267240524292,-0.020937198773026466,0.9655039310455322
1750935423421204700,3.531204833984375,9.903294563293457,-0.025722842663526535,1.0803594589233398
1750935423440029400,3.550029541015625,9.865009307861328,0.012562318705022335,1.042074203491211
1750935423458854100,3.568854248046875,9.91286563873291,-0.030508488416671753,1.0995019674301147
1750935423477678800,3.587678955078125,10.200004577636719,0.026919255033135414,1.26699960231781
1750935423496503300,3.60650341796875,10.03729248046875,0.026919255033135414,1.2239288091659546
1750935423515328000,3.625327880859375,9.654440879821777,0.022133609279990196,0.9080761671066284
1750935423534152700,3.644152587890625,9.458230018615723,-0.15972091257572174,0.8458628058433533
1750935423552977400,3.662977294921875,9.376873970031738,-0.12143574655056,0.8602197170257568
1750935423571802000,3.681802001953125,9.553942680358887,-0.006580262444913387,1.171286702156067
1750935423590626800,3.700626708984375,9.850652694702148,-0.05922235921025276,1.353141188621521
1750935423609451500,3.719451416015625,9.984650611877441,-0.020937198773026466,1.109073281288147
1750935423628276200,3.738276123046875,9.970293998718262,0.13698910176753998,0.836291491985321
1750935423647101000,3.757100830078125,10.223933219909668,-0.03529413416981697,1.3196417093276978
1750935423665925400,3.77592529296875,10.04686450958252,0.0077766734175384045,1.357926845550537
1750935423684750000,3.79475,10.185647964477539,-0.16450655460357666,0.9798609018325806
1750935423703574800,3.81357470703125,9.917651176452637,-0.13100704550743103,0.9559326171875
1750935423722399500,3.8323994140625,9.692726135253906,-0.07357929646968842,0.9559326171875
1750935423741224200,3.85122412109375,9.659226417541504,0.06520441919565201,1.1377872228622437
1750935423760049000,3.870048828125,9.79801082611084,0.0077766734175384045,1.4775680303573608
1750935423778873600,3.88887353515625,9.845867156982422,-0.32243284583091736,1.0372886657714844
1750935423797698300,3.9076982421875,9.587442398071289,-0.2793620526790619,0.8458628058433533
1750935423816523000,3.92652294921875,9.54915714263916,-0.05922235921025276,1.176072359085083
1750935423835347500,3.945347412109375,9.630513191223145,0.046061836183071136,1.415354609489441
1750935423854172200,3.964172119140625,9.750154495239258,-0.001794616924598813,1.3722838163375854
1750935423872996900,3.982996826171875,9.941579818725586,-0.01136590726673603,1.1665010452270508
1750935423891821600,4.001821533203125,10.02293586730957,0.0364905446767807,1.113858938217163
1750935423910646300,4.020646240234375,9.965508460998535,0.05563312768936157,1.1234302520751953
1750935423929471000,4.039470947265625,9.869794845581055,0.14656038582324982,0.8937192559242249
1750935423948295700,4.058295654296875,9.946365356445312,0.10827522724866867,1.333998680114746
1750935423967120400,4.077120361328125,9.93679428100586,0.022133609279990196,1.0803594589233398
1750935423985945000,4.095945068359375,9.659226417541504,0.13698910176753998,0.9655039310455322
1750935424004769500,4.11476953125,9.783653259277344,0.11306086927652359,1.3052847385406494
1750935424023594200,4.13359423828125,9.831509590148926,0.0891326442360878,0.9367900490760803
1750935424042419000,4.1524189453125,9.731011390686035,-0.001794616924598813,0.7932206988334656
1750935424061243600,4.17124365234375,9.932008743286133,-0.025722842663526535,0.7645068168640137
1750935424080068400,4.190068359375,9.975079536437988,0.06520441919565201,1.0037890672683716
1750935424098893000,4.20889306640625,9.865009307861328,0.18963119387626648,1.262213945388794
1750935424117717800,4.2277177734375,10.066006660461426,0.012562318705022335,1.2143574953079224
1750935424136542500,4.24654248046875,10.042078018188477,-0.01136590726673603,1.089930772781372
1750935424155367000,4.265366943359375,9.865009307861328,-0.16929219663143158,0.9367900490760803
1750935424174191600,4.284191650390625,9.865009307861328,-0.10707881301641464,0.9080761671066284
1750935424193016300,4.303016357421875,9.673583984375,-0.10229317098855972,1.2861422300338745
1750935424211841000,4.321841064453125,9.510871887207031,0.20398813486099243,1.0995019674301147
1750935424230665700,4.340665771484375,9.908080101013184,0.07956135272979736,1.3722838163375854
1750935424249490400,4.359490478515625,9.850652694702148,-0.10707881301641464,1.4727823734283447
1750935424268315100,4.378315185546875,9.70229721069336,0.10348957777023315,1.176072359085083
1750935424287139800,4.397139892578125,9.965508460998535,0.12741780281066895,1.200000524520874
1750935424305964300,4.41596435546875,10.02293586730957,0.09391828626394272,1.32921302318573
1750935424324789000,4.4347890625,9.807581901550293,-0.05922235921025276,1.1282159090042114
1750935424343613700,4.45361376953125,9.754940032958984,-0.07357929646968842,0.9224331378936768
1750935424362438400,4.4724384765625,9.802796363830566,-0.0975075215101242,1.0325030088424683
1750935424381263000,4.49126318359375,9.817152976989746,-0.08315058797597885,1.1521440744400024
1750935424400087800,4.510087890625,9.778867721557617,-0.06400800496339798,1.3004990816116333
1750935424418912300,4.528912353515625,9.850652694702148,-0.12622138857841492,1.171286702156067
1750935424437737000,4.547737060546875,9.860223770141602,-0.14057832956314087,1.0995019674301147
1750935424456561700,4.566561767578125,9.81236743927002,-0.11186445504426956,1.0516455173492432
1750935424475386400,4.585386474609375,9.841081619262695,-0.001794616924598813,1.2095718383789062
1750935424494211000,4.604211181640625,9.874580383300781,0.04127619042992592,1.2574282884597778
1750935424513035800,4.623035888671875,9.865009307861328,0.0077766734175384045,1.195214867591858
1750935424531860200,4.641860107421875,9.783653259277344,-0.01615155301988125,1.0755738019943237
1750935424550685000,4.660684814453125,9.908080101013184,-0.06400800496339798,1.0995019674301147
1750935424569509600,4.679509521484375,9.831509590148926,-0.07836493849754333,1.0803594589233398
1750935424588334300,4.698334228515625,9.745368003845215,-0.05922235921025276,1.0707881450653076
1750935424607159000,4.717158935546875,9.903294563293457,-0.01615155301988125,1.1473584175109863
1750935424625983700,4.735983642578125,10.018150329589844,-0.01615155301988125,1.1617153882980347
1750935424644808200,4.75480810546875,10.042078018188477,-0.025722842663526535,1.2095718383789062
1750935424663633000,4.7736328125,9.893723487854004,-0.020937198773026466,1.109073281288147
1750935424682457600,4.79245751953125,9.64965534210205,-0.04007977992296219,0.989432156085968
1750935424701282300,4.8112822265625,9.630513191223145,-0.08315058797597885,0.9559326171875
1750935424720107000,4.83010693359375,9.740582466125488,-0.020937198773026466,1.1473584175109863
1750935424738931700,4.848931640625,9.92243766784668,-0.04486542567610741,1.2478569746017456
1750935424757756200,4.867756103515625,9.917651176452637,-0.049651071429252625,1.1665010452270508
1750935424776580900,4.886580810546875,9.869794845581055,-0.03529413416981697,1.0947163105010986
1750935424795405600,4.905405517578125,9.91286563873291,-0.049651071429252625,1.0995019674301147
1750935424814230300,4.924230224609375,9.879366874694824,-0.006580262444913387,1.0803594589233398
1750935424833055000,4.943054931640625,9.754940032958984,-0.04486542567610741,0.9702895879745483
1750935424851879700,4.961879638671875,9.836296081542969,-0.06400800496339798,1.0085747241973877
1750935424870704000,4.9807041015625,9.951150894165039,0.012562318705022335,1.1186445951461792
1750935424889528800,4.99952880859375,9.879366874694824,-0.030508488416671753,1.1425727605819702
1750935424908353500,5.018353515625,9.831509590148926,-0.05922235921025276,1.1042876243591309
1750935424927178200,5.03717822265625,9.692726135253906,-0.001794616924598813,1.046859860420227
1750935424946003000,5.0560029296875,9.845867156982422,-0.0687936544418335,1.1186445951461792
1750935424964827400,5.074827392578125,9.865009307861328,0.0029910283628851175,1.171286702156067
1750935424983652000,5.093652099609375,9.874580383300781,-0.025722842663526535,1.1042876243591309
1750935425002476800,5.112476806640625,9.941579818725586,0.0077766734175384045,1.089930772781372
1750935425021301500,5.131301513671875,9.793225288391113,-0.030508488416671753,1.0803594589233398
1750935425040126200,5.150126220703125,9.850652694702148,-0.04486542567610741,1.0803594589233398
1750935425058950700,5.16895068359375,9.92243766784668,-0.020937198773026466,1.1473584175109863
1750935425077775400,5.187775390625,9.79801082611084,-0.06400800496339798,1.089930772781372
1750935425096600000,5.20660009765625,9.81236743927002,-0.05922235921025276,1.0755738019943237
1750935425115424800,5.2254248046875,9.807581901550293,-0.030508488416671753,1.1234302520751953
1750935425134249500,5.24424951171875,9.879366874694824,-0.04007977992296219,1.113858938217163
1750935425153074000,5.263073974609375,9.888937950134277,-0.01136590726673603,1.200000524520874
1750935425171898600,5.281898681640625,9.817152976989746,-0.01136590726673603,1.1808580160140991
1750935425190723300,5.300723388671875,9.8267240524292,-0.001794616924598813,1.1569297313690186
1750935425209548000,5.319548095703125,9.869794845581055,-0.01136590726673603,1.1808580160140991
1750935425228372700,5.338372802734375,9.793225288391113,-0.03529413416981697,1.1186445951461792
1750935425247197200,5.357197265625,9.8267240524292,-0.006580262444913387,1.1330015659332275
1750935425266022000,5.37602197265625,9.850652694702148,-0.01136590726673603,1.1234302520751953
1750935425284846600,5.3948466796875,9.821938514709473,-0.006580262444913387,1.0995019674301147
1750935425303671300,5.41367138671875,9.850652694702148,-0.04486542567610741,1.109073281288147
1750935425322495700,5.432495849609375,9.869794845581055,-0.01615155301988125,1.2717852592468262
1750935425341320400,5.451320556640625,9.955936431884766,-0.01136590726673603,1.2813565731048584
1750935425360145200,5.470145263671875,9.855438232421875,-0.001794616924598813,1.1808580160140991
1750935425378969900,5.488969970703125,9.716654777526855,-0.04486542567610741,1.1042876243591309
1750935425397794600,5.507794677734375,9.735796928405762,-0.01136590726673603,1.1521440744400024
1750935425416619000,5.526618896484375,9.817152976989746,-0.006580262444913387,1.3100703954696655
1750935425435443700,5.545443603515625,9.78843879699707,0.0077766734175384045,1.3004990816116333
1750935425454268400,5.564268310546875,9.903294563293457,-0.01136590726673603,1.1617153882980347
1750935425473093000,5.583093017578125,9.979865074157715,0.022133609279990196,1.2382856607437134
1750935425491917600,5.60191748046875,9.88415241241455,0.012562318705022335,1.2717852592468262
1750935425510742300,5.6207421875,10.04686450958252,0.0077766734175384045,1.3483555316925049
1750935425529567000,5.63956689453125,9.778867721557617,-0.05922235921025276,1.420140266418457
1750935425548391700,5.6583916015625,9.573084831237793,-0.054436713457107544,1.333998680114746
1750935425567216400,5.67721630859375,9.836296081542969,-0.01136590726673603,1.3866406679153442
1750935425586040800,5.696040771484375,9.941579818725586,0.04127619042992592,1.5493526458740234
1750935425604865500,5.714865478515625,9.850652694702148,0.04127619042992592,1.592423439025879
1750935425623690200,5.733690185546875,9.731011390686035,-0.01615155301988125,1.568495273590088
1750935425642515000,5.752514892578125,9.783653259277344,0.0891326442360878,1.534995675086975
1750935425661339400,5.77133935546875,9.908080101013184,0.05563312768936157,1.7024933099746704
1750935425680164000,5.7901640625,9.544371604919434,-0.08793623000383377,2.0039889812469482
1750935425698988800,5.80898876953125,9.597013473510742,-0.054436713457107544,1.8556339740753174
1750935425717813500,5.8278134765625,9.81236743927002,-0.006580262444913387,1.92741858959198
1750935425736638000,5.846637939453125,9.678369522094727,0.01734796352684498,1.932204246520996
1750935425755462700,5.865462646484375,9.68794059753418,-0.025722842663526535,1.908276081085205
1750935425774287400,5.884287353515625,9.759725570678711,0.01734796352684498,2.0374884605407715
1750935425793112000,5.903112060546875,9.941579818725586,0.04127619042992592,2.1379871368408203
1750935425811936500,5.9219365234375,9.68794059753418,-0.025722842663526535,2.1475582122802734
1750935425830761200,5.94076123046875,9.525228500366211,0.0029910283628851175,2.252842426300049
1750935425849586000,5.9595859375,9.601799011230469,0.06520441919565201,2.30069899559021
1750935425868410400,5.978410400390625,9.668798446655273,0.09391828626394272,2.396411895751953
1750935425887235000,5.997235107421875,9.879366874694824,0.1178465187549591,2.4681966304779053
1750935425906059800,6.016059814453125,9.802796363830566,0.07477571070194244,2.4394826889038086
1750935425924884500,6.034884521484375,9.869794845581055,0.15134602785110474,2.420340061187744
1750935425943709000,6.053708984375,9.668798446655273,0.13220344483852386,2.5399811267852783
1750935425962533600,6.07253369140625,9.266803741455078,0.01734796352684498,2.8175487518310547
1750935425981358300,6.0913583984375,9.22851848602295,0.1944168359041214,3.152543783187866
1750935426000183000,6.11018310546875,9.17587661743164,0.18005990982055664,3.2578279972076416
1750935426019007500,6.129007568359375,9.084949493408203,0.08434699475765228,3.2578279972076416
1750935426037832200,6.147832275390625,9.046664237976074,0.1704886108636856,3.2626137733459473
1750935426056657000,6.166656982421875,9.22851848602295,0.18005990982055664,3.5497524738311768
1750935426075481600,6.185481689453125,9.238089561462402,0.03170489892363548,3.8799619674682617
1750935426094306000,6.20430615234375,9.137591361999512,0.09391828626394272,4.018745422363281
1750935426113130800,6.223130859375,8.611170768737793,-0.025722842663526535,3.961317777633667
1750935426131955500,6.24195556640625,9.10409164428711,0.04127619042992592,3.841676712036133
1750935426150780000,6.26077978515625,8.860024452209473,0.0029910283628851175,4.071387767791748
1750935426169604600,6.2796044921875,8.735597610473633,0.26141586899757385,4.076173305511475
1750935426188429300,6.29842919921875,7.960322856903076,-0.08315058797597885,4.506881237030029
1750935426207253800,6.317253662109375,7.960322856903076,-0.2554338276386261,3.8943188190460205
1750935426226078500,6.336078369140625,8.831310272216797,-0.020937198773026466,2.554338216781616
1750935426244903200,6.354903076171875,9.520442962646484,0.21355941891670227,2.2815563678741455
1750935426263727900,6.373727783203125,9.836296081542969,0.2757728099822998,2.334198474884033
1750935426282552300,6.39255224609375,10.051650047302246,0.30927231907844543,2.434697151184082
1750935426301377000,6.411376953125,9.850652694702148,0.2805584669113159,2.2719850540161133
1750935426320201700,6.43020166015625,9.697511672973633,0.2805584669113159,1.5876377820968628
1750935426339026400,6.4490263671875,9.711869239807129,0.11306086927652359,1.2813565731048584
1750935426357851000,6.467850830078125,10.099506378173828,0.19920247793197632,0.9415757060050964
1750935426376675600,6.486675537109375,9.716654777526855,0.2805584669113159,0.9320043921470642
1750935426395500300,6.505500244140625,9.735796928405762,0.5150550603866577,0.8171489238739014
1750935426414324700,6.52432470703125,9.841081619262695,0.12741780281066895,0.6496513485908508
1750935426433149400,6.5431494140625,8.788239479064941,0.10827522724866867,0.2189432680606842
1750935426451974100,6.56197412109375,9.553942680358887,0.07477571070194244,-0.3170489966869354
1750935426470798600,6.580798583984375,10.908280372619629,0.1704886108636856,-0.1782652884721756
1750935426489623300,6.599623291015625,10.118648529052734,0.34277185797691345,-0.6903293132781982
1750935426508448000,6.618447998046875,9.879366874694824,0.12741780281066895,-0.9822536706924438
1750935426527272700,6.637272705078125,10.137791633605957,0.26141586899757385,-1.2263215780258179
1750935426546097200,6.65609716796875,10.37228775024414,0.2231307178735733,-1.231107234954834
1750935426564921900,6.674921875,10.415358543395996,0.24227328598499298,-1.23589289188385
1750935426583746600,6.69374658203125,10.003793716430664,0.2231307178735733,-1.4847464561462402
1750935426611983400,6.7219833984375,9.348159790039062,0.18005990982055664,-1.6713865995407104
1750935426630808000,6.74080810546875,8.582456588745117,0.06041877344250679,-1.781456470489502
1750935426649632500,6.759632568359375,9.482157707214355,-0.11186445504426956,-2.2169501781463623
1750935426668457200,6.778457275390625,10.525428771972656,0.022133609279990196,-2.2600209712982178
1750935426687282000,6.797281982421875,10.549356460571289,0.2470589429140091,-2.1547367572784424
1750935426706106400,6.8161064453125,10.578070640563965,0.15613168478012085,-2.3461625576019287
1750935426724931000,6.83493115234375,10.353145599365234,0.13698910176753998,-2.3605196475982666
1750935426743755800,6.853755859375,10.381858825683594,0.09870393574237823,-2.4993033409118652
1750935426762580200,6.872580322265625,10.070792198181152,0.07477571070194244,-2.4993033409118652
1750935426781405000,6.891405029296875,9.46301555633545,0.0891326442360878,-2.4562325477600098
1750935426800229600,6.910229736328125,9.348159790039062,0.18963119387626648,-2.0829520225524902
1750935426819054000,6.92905419921875,9.908080101013184,0.18005990982055664,-1.7383856773376465
1750935426837878800,6.947878662109375,10.243075370788574,0.1944168359041214,-1.5948163270950317
1750935426856703500,6.966703369140625,9.707083702087402,0.07477571070194244,-1.3794622421264648
1750935426875528000,6.98552783203125,9.453444480895996,0.0029910283628851175,-1.1545369625091553
1750935426894352600,7.0043525390625,9.860223770141602,0.012562318705022335,-0.9056833982467651
1750935426913177300,7.02317724609375,10.228718757629395,0.18005990982055664,-0.5324030518531799
1750935426932001800,7.042001708984375,10.305289268493652,0.18484555184841156,-0.1256231814622879
1750935426950826500,7.060826416015625,9.975079536437988,-0.04486542567610741,0.18065811693668365
1750935426969651200,7.079651123046875,9.68794059753418,-0.15972091257572174,0.4295116662979126
1750935426988475600,7.0984755859375,9.740582466125488,-0.12143574655056,0.6065805554389954
1750935427007300400,7.11730029296875,9.850652694702148,-0.09272187948226929,0.7884350419044495
1750935427026125000,7.136125,9.544371604919434,-0.08793623000383377,1.195214867591858
1750935427044949500,7.154949462890625,9.558728218078613,-0.14057832956314087,1.3052847385406494
1750935427063774200,7.173774169921875,9.716654777526855,-0.030508488416671753,1.4727823734283447
1750935427082599000,7.192598876953125,9.68794059753418,-0.07357929646968842,1.908276081085205
1750935427101423400,7.21142333984375,9.64965534210205,-0.0687936544418335,2.066202402114868
1750935427120248000,7.230248046875,9.721440315246582,-0.04007977992296219,1.9369899034500122
1750935427139072800,7.24907275390625,9.994221687316895,-0.0687936544418335,1.9513468742370605
1750935427157897200,7.267897216796875,9.769296646118164,0.11306086927652359,2.3533411026000977
1750935427176722000,7.286721923828125,9.262018203735352,0.050847481936216354,2.396411895751953
1750935427195546600,7.305546630859375,9.161520004272461,-0.12622138857841492,2.3916261196136475
1750935427214371000,7.32437109375,9.367302894592285,-0.04486542567610741,2.2097716331481934
1750935427233195800,7.34319580078125,9.434301376342773,-0.01615155301988125,2.42512583732605
1750935427252020200,7.362020263671875,9.084949493408203,-0.11665010452270508,2.520838737487793
1750935427270845000,7.380844970703125,9.281160354614258,-0.07357929646968842,2.444268226623535
1750935427289668600,7.399668701171875,9.391230583190918,-0.11665010452270508,2.286342144012451
1750935427308492800,7.418492919921875,9.352945327758789,-0.11665010452270508,1.8508483171463013
1750935427327317200,7.437317138671875,9.391230583190918,-0.09272187948226929,1.439282774925232
1750935427346142000,7.456141845703125,9.984650611877441,-0.01136590726673603,1.2430713176727295
1750935427364966400,7.47496630859375,10.28614616394043,0.06999006122350693,1.3148560523986816
1750935427383791000,7.493791015625,9.793225288391113,0.0891326442360878,1.195214867591858
1750935427402615800,7.51261572265625,9.56351375579834,0.15134602785110474,0.8554341197013855
1750935427421440300,7.531440185546875,10.02293586730957,0.05563312768936157,0.4103690981864929
1750935427440265000,7.550264892578125,10.166504859924316,0.09391828626394272,0.16151553392410278
1750935427459089700,7.569089599609375,9.740582466125488,0.09870393574237823,0.10408778488636017
1750935427477914000,7.5879140625,9.711869239807129,0.09391828626394272,-0.17347964644432068
1750935427496738800,7.60673876953125,10.214361190795898,0.06520441919565201,-0.40797626972198486
1750935427515563500,7.6255634765625,10.00857925415039,0.08434699475765228,-0.3888336718082428
1750935427534388000,7.644387939453125,10.25743293762207,0.03170489892363548,-0.4893322288990021
1750935427553212700,7.663212646484375,9.841081619262695,-0.049651071429252625,-0.6472585201263428
1750935427572037000,7.682037109375,9.989436149597168,-0.11186445504426956,-0.7046862840652466
1750935427590861800,7.70086181640625,10.2478609085083,0.050847481936216354,-0.8051848411560059
1750935427609686500,7.7196865234375,10.056435585021973,-0.0687936544418335,-0.8626125454902649
1750935427628511000,7.738510986328125,9.917651176452637,-0.13579268753528595,-0.9056833982467651
1750935427647335700,7.757335693359375,10.032506942749023,-0.14057832956314087,-0.9966106414794922
1750935427666160000,7.77616015625,10.477572441101074,-0.054436713457107544,-0.8147560954093933
1750935427684984800,7.79498486328125,10.750353813171387,0.10348957777023315,-0.6281159520149231
1750935427703809500,7.8138095703125,10.4823579788208,0.16091732680797577,-0.29312077164649963
1750935427722634000,7.832634033203125,9.64965534210205,0.10348957777023315,-0.08255238085985184
1750935427741458700,7.851458740234375,9.33858871459961,-0.29371899366378784,0.3194418251514435
1750935427760283100,7.870283203125,9.759725570678711,-0.15972091257572174,0.5491527915000916
1750935427779107800,7.88910791015625,9.721440315246582,-0.494716078042984,1.2526426315307617
1750935427797932500,7.9079326171875,10.630712509155273,-0.2554338276386261,1.2191431522369385
1750935427816757000,7.926757080078125,10.563714027404785,-0.2841476798057556,1.534995675086975
1750935427835581700,7.945581787109375,9.54915714263916,-0.10707881301641464,1.755135416984558
1750935427854406100,7.96440625,9.620942115783691,-0.2841476798057556,1.9369899034500122
1750935427873230800,7.98323095703125,9.740582466125488,-0.21714866161346436,2.0231316089630127
1750935427892055600,8.0020556640625,9.558728218078613,-0.11186445504426956,2.3150558471679688
1750935427910880000,8.0208798828125,8.960522651672363,-0.3655036687850952,3.181257724761963
1750935427929704700,8.03970458984375,9.21416187286377,0.10348957777023315,2.92283296585083
1750935427948529200,8.058529052734375,9.415159225463867,0.01734796352684498,3.0759735107421875
1750935427967353900,8.077353759765625,9.147162437438965,-0.030508488416671753,3.1860432624816895
1750935427986178600,8.096178466796875,9.223732948303223,-0.11186445504426956,3.3296127319335938
1750935428005003000,8.1150029296875,9.003593444824219,-0.01615155301988125,3.300898790359497
1750935428023827700,8.13382763671875,8.706883430480957,0.0364905446767807,3.166900873184204
1750935428042652200,8.152652099609375,8.816953659057617,-0.006580262444913387,3.152543783187866
1750935428061476900,8.171476806640625,8.759525299072266,-0.0687936544418335,3.128615617752075
1750935428080301300,8.19030126953125,9.128020286560059,-0.01615155301988125,2.8462624549865723
1750935428099126000,8.2091259765625,9.362516403198242,0.0077766734175384045,2.544766902923584
1750935428117950700,8.22795068359375,9.32423210144043,0.22791635990142822,2.090130567550659
1750935428136775200,8.246775146484374,9.587442398071289,0.08434699475765228,2.0039889812469482
1750935428155600000,8.265599853515624,9.979865074157715,0.0364905446767807,1.8939191102981567
1750935428174424300,8.28442431640625,10.16171932220459,0.28534409403800964,1.4105689525604248
1750935428193249000,8.3032490234375,9.989436149597168,0.4863412082195282,0.8697910308837891
1750935428212073700,8.32207373046875,9.673583984375,0.4145565330982208,0.6113662123680115
1750935428230898200,8.340898193359376,9.673583984375,0.357128769159317,0.04187439754605293
1750935428249723000,8.359722900390626,9.592227935791016,0.3332005441188812,-0.16390834748744965
1750935428268547300,8.37854736328125,10.137791633605957,0.4289134442806244,-0.1543370634317398
1750935428287372000,8.3973720703125,10.051650047302246,0.4576273262500763,-0.24526432156562805
1750935428306196500,8.416196533203125,9.793225288391113,0.5102694034576416,-0.6281159520149231
1750935428325021200,8.435021240234375,10.329216957092285,0.5054838061332703,-0.8626125454902649
1750935428343845600,8.453845703125,11.228918075561523,0.529412031173706,-0.714257538318634
1750935428362670300,8.47267041015625,10.822138786315918,0.6203392744064331,-0.5563312768936157
1750935428381495000,8.4914951171875,10.200004577636719,0.4049852192401886,-0.503689169883728
1750935428400319500,8.510319580078125,9.381659507751465,0.28534409403800964,-0.24047867953777313
1750935428419144200,8.529144287109375,9.903294563293457,0.2709871530532837,-0.26919254660606384
1750935428437968600,8.54796875,10.200004577636719,0.21355941891670227,0.1136590763926506
1750935428456793300,8.56679345703125,10.415358543395996,0.29012975096702576,0.5730810165405273
1750935428475617800,8.58561767578125,10.51107120513916,0.6011967062950134,0.898504912853241
1750935428494442500,8.6044423828125,9.276374816894531,0.046061836183071136,2.0135602951049805
1750935428513267000,8.623266845703125,9.391230583190918,0.1417747437953949,1.8556339740753174
1750935428532091600,8.642091552734374,9.534799575805664,0.10348957777023315,1.92741858959198
1750935428550916000,8.660916015625,9.759725570678711,0.13220344483852386,2.080559253692627
1750935428569740800,8.67974072265625,9.707083702087402,0.3475574851036072,2.420340061187744
1750935428588565500,8.6985654296875,9.2859468460083,-0.01136590726673603,3.214757204055786
1750935428607390000,8.717389892578124,8.82652473449707,0.0891326442360878,2.616551637649536
1750935428626214700,8.736214599609376,8.424530029296875,-0.19322042167186737,2.568695068359375
1750935428645039000,8.7550390625,8.654241561889648,0.1417747437953949,2.458625316619873
1750935428663863800,8.77386376953125,9.731011390686035,0.13220344483852386,2.5160529613494873
1750935428682688300,8.792688232421876,9.750154495239258,0.07477571070194244,2.3676979541778564
1750935428701513000,8.811512939453126,9.415159225463867,0.4336991012096405,1.6785650253295898
1750935428720337400,8.83033740234375,9.467801094055176,0.30927231907844543,1.4632110595703125
1750935428739162000,8.849162109375,9.975079536437988,0.2709871530532837,1.3244273662567139
1750935428757986600,8.867986572265625,10.171290397644043,0.29012975096702576,1.0516455173492432
1750935428786223600,8.8962236328125,9.88415241241455,0.5006981492042542,0.3481557071208954
1750935428805048000,8.915048095703124,9.802796363830566,0.5676971673965454,0.05623133108019829
1750935428823872800,8.933872802734374,10.104291915893555,0.5676971673965454,-0.18783657252788544
1750935428842697200,8.952697265625,10.003793716430664,0.7016952633857727,-0.3314059376716614
1750935428861522000,8.97152197265625,10.032506942749023,0.582054078578949,-0.3409772217273712
1750935428880346400,8.990346435546876,10.587641716003418,0.6969096064567566,-0.503689169883728
1750935428899171000,9.009171142578126,10.625926971435547,0.735194742679596,-0.3026920557022095
1750935428917995500,9.02799560546875,10.377073287963867,0.7112665176391602,-0.37447673082351685
1750935428936820200,9.0468203125,10.042078018188477,0.5533402562141418,-0.35054850578308105
1750935428955644700,9.065644775390625,9.764511108398438,0.4001995921134949,-0.35533416271209717
1750935428974469400,9.084469482421875,9.831509590148926,0.36670008301734924,0.09930214285850525
1750935428993293800,9.1032939453125,9.88415241241455,0.3523431420326233,0.7166503667831421
1750935429012118500,9.122118408203125,9.530014038085938,0.4145565330982208,1.2191431522369385
1750935429030943000,9.14094287109375,10.190433502197266,0.3858426511287689,1.1425727605819702
1750935429049767700,9.159767578125,9.888937950134277,0.4336991012096405,1.511067509651184
1750935429068592400,9.17859228515625,9.276374816894531,-0.020937198773026466,2.0135602951049805
1750935429087416800,9.197416748046875,8.94137954711914,-0.025722842663526535,2.4011974334716797
1750935429106241500,9.216241455078125,9.223732948303223,0.22791635990142822,2.30069899559021
1750935429125066000,9.23506591796875,9.592227935791016,0.05563312768936157,2.4873390197753906
1750935429143890400,9.253890380859374,9.807581901550293,-0.09272187948226929,2.36291241645813
1750935429162715100,9.272715087890624,9.482157707214355,-0.0687936544418335,2.2959132194519043
1750935429181539600,9.29153955078125,9.080163955688477,-0.07357929646968842,2.0853450298309326
1750935429200364300,9.3103642578125,9.640084266662598,-0.06400800496339798,1.5493526458740234
1750935429219189000,9.32918896484375,9.778867721557617,0.17527425289154053,1.195214867591858
1750935429238013400,9.348013427734376,9.764511108398438,0.07956135272979736,1.176072359085083
1750935429256838000,9.366837890625,9.54915714263916,0.2949153780937195,0.8506484627723694
1750935429275662600,9.38566259765625,9.879366874694824,0.2183450609445572,0.8027920126914978
1750935429294487000,9.404487060546876,10.166504859924316,0.4624129831790924,0.44386860728263855
1750935429313311700,9.423311767578125,10.03729248046875,0.4336991012096405,0.31465616822242737
1750935429332136400,9.442136474609375,10.051650047302246,0.49591249227523804,-0.16390834748744965
1750935429350961000,9.4609609375,10.032506942749023,0.4911268353462219,-0.4893322288990021
1750935429369785300,9.479785400390625,10.487143516540527,0.5389832854270935,-0.5659025311470032
1750935429388610000,9.498610107421875,10.946565628051758,0.7256234884262085,-0.5132604837417603
1750935429407434500,9.5174345703125,10.774282455444336,0.5724828243255615,-0.3170489966869354
1750935429426259200,9.53625927734375,10.118648529052734,0.39541393518447876,-0.17347964644432068
1750935429445083600,9.555083740234375,9.91286563873291,0.3810569941997528,-0.3888336718082428
1750935429463908400,9.573908447265625,9.209376335144043,0.3284149169921875,-0.3074777126312256
1750935429482732800,9.59273291015625,9.530014038085938,0.3284149169921875,0.061016976833343506
1750935429501557500,9.6115576171875,10.209575653076172,0.36191442608833313,0.6448656916618347
1750935429520382000,9.6303818359375,10.429716110229492,0.3810569941997528,1.439282774925232
1750935429539206700,9.64920654296875,10.448858261108398,0.5724828243255615,1.5397813320159912
1750935429558031000,9.668031005859374,9.879366874694824,0.046061836183071136,1.9800606966018677
1750935429576855800,9.686855712890624,10.123434066772461,-0.01615155301988125,1.7694923877716064
1750935429595680300,9.70568017578125,10.142577171325684,0.0077766734175384045,2.358126640319824
1750935429614505000,9.7245048828125,9.329017639160156,0.6538388133049011,2.530410051345825
1750935429633329400,9.743329345703126,8.386244773864746,0.5102694034576416,2.5256242752075195
1750935429652154000,9.762154052734376,8.304888725280762,0.20398813486099243,2.3198416233062744
1750935429670978600,9.780978515625,8.285746574401855,0.3523431420326233,2.181057929992676
1750935429689803300,9.79980322265625,8.190033912658691,0.36670008301734924,2.3533411026000977
1750935429708627700,9.818627685546875,8.587242126464844,0.26141586899757385,2.104487419128418
1750935429727452200,9.8374521484375,8.893523216247559,0.20398813486099243,1.9752750396728516
1750935429746276900,9.85627685546875,9.568299293518066,0.4576273262500763,1.6163517236709595
1750935429765101300,9.875101318359375,10.903494834899902,0.44327038526535034,1.2335001230239868
1750935429783926000,9.893926025390625,10.774282455444336,0.4001995921134949,1.1617153882980347
1750935429802750500,9.91275048828125,10.329216957092285,0.41934216022491455,0.8027920126914978
1750935429821575200,9.9315751953125,10.357931137084961,0.5150550603866577,0.2907279431819916
1750935429840399600,9.950399658203125,10.334002494812012,0.39062830805778503,-0.10169496387243271
1750935429859224300,9.969224365234375,10.377073287963867,0.4911268353462219,-0.39840495586395264
1750935429878048800,9.988048828125,9.89850902557373,0.5198407173156738,-0.5994020700454712
1750935429896873500,10.00687353515625,9.711869239807129,0.3236292600631714,-0.7238288521766663
1750935429925110300,10.0351103515625,10.774282455444336,0.4576273262500763,-0.7716853022575378
1750935429943934700,10.053934814453125,11.405987739562988,0.5054838061332703,-0.40797626972198486
1750935429962759400,10.072759521484375,10.960922241210938,0.5629115104675293,-0.04426721855998039
1750935429981584000,10.091583984375,10.142577171325684,0.5198407173156738,-0.02512463741004467
1750935430000409000,10.1104091796875,8.807381629943848,0.4001995921134949,-0.07776673883199692
1750935430019233500,10.129233642578125,8.869595527648926,0.26141586899757385,0.5539384484291077
1750935430038058000,10.14805810546875,10.0612211227417,0.36191442608833313,1.0133603811264038
1750935430056882700,10.166882568359375,10.52064323425293,0.4815555512905121,1.5493526458740234
1750935430075707100,10.18570703125,9.91286563873291,0.28534409403800964,2.348555326461792
1750935430094531800,10.20453173828125,10.195219039916992,0.26141586899757385,2.2480568885803223
1750935430113356300,10.223356201171875,9.893723487854004,0.12741780281066895,1.932204246520996
1750935430132181000,10.242180908203125,8.123034477233887,0.18484555184841156,1.3244273662567139
1750935430151005400,10.26100537109375,7.821538925170898,0.18484555184841156,1.4967105388641357
1750935430169830000,10.279829833984374,8.496315002441406,0.0077766734175384045,1.726421594619751
1750935430188654600,10.298654541015624,8.96530818939209,0.2709871530532837,1.4009976387023926
1750935430207479000,10.31747900390625,9.223732948303223,0.2231307178735733,0.8123632669448853
1750935430226303700,10.3363037109375,9.453444480895996,0.2805584669113159,0.6831508874893188
1750935430245128200,10.355128173828126,10.37228775024414,0.31405797600746155,0.6448656916618347
1750935430263953000,10.373952880859376,11.300703048706055,0.29012975096702576,0.6352944374084473
1750935430282777300,10.39277734375,10.936994552612305,0.36670008301734924,0.49172505736351013
1750935430301602000,10.41160205078125,10.252646446228027,0.357128769159317,-0.11605189740657806
1750935430320426500,10.430426513671875,9.620942115783691,0.2805584669113159,-0.6711867451667786
1750935430339251000,10.4492509765625,9.616155624389648,0.18484555184841156,-1.0109676122665405
1750935430358075600,10.46807568359375,10.525428771972656,0.3188436031341553,-0.8769695162773132
1750935430376900000,10.486900146484375,10.898709297180176,0.2709871530532837,-0.2309073805809021
1750935430395724800,10.505724853515625,10.960922241210938,0.4289134442806244,-0.3314059376716614
1750935430414549200,10.52454931640625,10.831709861755371,0.3810569941997528,-0.48454657196998596
1750935430433374000,10.5433740234375,10.582856178283691,0.4097708761692047,-0.6185446381568909
1750935430452198400,10.562198486328125,9.81236743927002,0.09391828626394272,-0.3314059376716614
1750935430471023000,10.581023193359375,9.692726135253906,-0.06400800496339798,0.4295116662979126
1750935430489847600,10.59984765625,9.57787036895752,0.18005990982055664,0.6448656916618347
1750935430508672000,10.618672119140625,9.750154495239258,0.30927231907844543,0.9224331378936768
1750935430527496700,10.63749658203125,9.879366874694824,0.05563312768936157,1.7072789669036865
1750935430546321200,10.656321044921874,10.109077453613281,0.07956135272979736,2.262413740158081
1750935430565145900,10.675145751953124,8.587242126464844,-0.0687936544418335,2.420340061187744
1750935430583970300,10.69397021484375,8.821739196777344,-0.07357929646968842,1.6737794876098633
1750935430602794800,10.712794677734376,9.137591361999512,-0.21236300468444824,1.7407784461975098
1750935430621619500,10.731619384765626,8.994022369384766,-0.19322042167186737,1.8077775239944458
1750935430640444000,10.75044384765625,8.845666885375977,-0.09272187948226929,1.357926845550537
1750935430659268600,10.7692685546875,9.08973503112793,-0.18843477964401245,0.9559326171875
1750935430678093000,10.788093017578126,9.611370086669922,-0.03529413416981697,0.7645068168640137
1750935430696917500,10.80691748046875,10.204790115356445,0.17527425289154053,0.4821537733078003
1750935430715742200,10.8257421875,10.28614616394043,0.13698910176753998,0.3768695592880249
1750935430734566700,10.844566650390625,10.295717239379883,0.18963119387626648,0.12801600992679596
1750935430753391400,10.863391357421875,10.429716110229492,0.24227328598499298,-0.503689169883728
1750935430772215800,10.8822158203125,10.41057300567627,0.33798620104789734,-0.8147560954093933
1750935430791040300,10.901040283203125,10.310074806213379,0.4384847581386566,-1.1162517070770264
1750935430809865000,10.919864990234375,10.922636985778809,0.26141586899757385,-1.1162517070770264
1750935430828689400,10.938689453125,10.625926971435547,0.1417747437953949,-0.9822536706924438
1750935430847514000,10.95751416015625,10.49671459197998,0.2757728099822998,-1.2502498626708984
1750935430866338600,10.976338623046875,10.439287185668945,0.20398813486099243,-1.073180913925171
1750935430885163300,10.995163330078125,10.080363273620605,0.07956135272979736,-0.9200403094291687
1750935430903987700,11.01398779296875,10.458429336547852,0.1704886108636856,-0.3361915946006775
1750935430922812200,11.032812255859374,10.013364791870117,0.3523431420326233,-0.1543370634317398
1750935430941636900,11.051636962890624,8.998807907104492,0.14656038582324982,0.6831508874893188
1750935430960461300,11.07046142578125,9.309874534606934,0.012562318705022335,0.778863787651062
1750935430979286000,11.0892861328125,10.176076889038086,0.26620152592658997,0.43908295035362244
1750935430998110500,11.1081103515625,9.807581901550293,0.23270200192928314,1.085145115852356
1750935431016935000,11.126934814453126,8.587242126464844,-0.13579268753528595,1.659422516822815
1750935431035759600,11.145759521484376,8.769096374511719,-0.04007977992296219,0.8937192559242249
1750935431054584000,11.164583984375,9.195018768310547,-0.3367897868156433,1.1665010452270508
1750935431073408800,11.18340869140625,9.386445045471191,-0.14057832956314087,1.195214867591858
1750935431092233200,11.202233154296875,9.429515838623047,-0.1740778535604477,0.7645068168640137
1750935431111057700,11.2210576171875,9.573084831237793,-0.31764721870422363,0.061016976833343506
1750935431129882400,11.23988232421875,10.405787467956543,-0.1453639715909958,-0.14476576447486877
1750935431148706800,11.258706787109375,10.52064323425293,0.12741780281066895,-0.13998012244701385
1750935431167531500,11.277531494140625,9.960722923278809,0.3523431420326233,-0.32183465361595154
1750935431186356000,11.29635595703125,10.056435585021973,0.2183450609445572,-0.4701896607875824
1750935431205180400,11.315180419921875,10.401001930236816,0.3188436031341553,-0.833898663520813
1750935431224005000,11.334005126953125,10.611570358276367,0.3523431420326233,-0.9535398483276367
1750935431242829600,11.35282958984375,11.147562026977539,0.28534409403800964,-0.8530412912368774
1750935431261654300,11.371654296875,10.817353248596191,0.29012975096702576,-0.8913264274597168
1750935431280478700,11.390478759765625,10.329216957092285,0.3332005441188812,-1.0971091985702515
1750935431299303400,11.409303466796874,9.754940032958984,0.13220344483852386,-0.9918249845504761
1750935431318127900,11.4281279296875,9.764511108398438,0.12741780281066895,-0.6759724020957947
1750935431336952300,11.446952392578124,10.348360061645508,-0.03529413416981697,0.137587308883667
1750935431355777000,11.465777099609374,9.759725570678711,0.07956135272979736,0.5730810165405273
1750935431374601500,11.4846015625,9.582656860351562,0.31405797600746155,0.8315058946609497
1750935431393426200,11.50342626953125,9.46301555633545,0.4384847581386566,0.7597211599349976
1750935431412250600,11.522250732421876,8.726025581359863,0.09870393574237823,1.2861422300338745
1750935431431075000,11.541074951171876,8.807381629943848,-0.12622138857841492,1.0803594589233398
1750935431449899800,11.559899658203125,9.530014038085938,-0.13579268753528595,1.0707881450653076
1750935431468724200,11.57872412109375,8.821739196777344,-0.1453639715909958,1.3914263248443604
1750935431487549000,11.597548828125,9.965508460998535,-0.1453639715909958,1.1282159090042114
1750935431506373400,11.616373291015625,9.955936431884766,0.0077766734175384045,0.3768695592880249
1750935431525197800,11.63519775390625,9.31466007232666,-0.12622138857841492,-0.18783657252788544
1750935431544022500,11.6540224609375,9.79801082611084,-0.19800607860088348,-0.4749752879142761
1750935431562847000,11.672846923828125,10.956136703491211,0.0077766734175384045,-0.32662028074264526
1750935431581671400,11.69167138671875,10.630712509155273,0.3858426511287689,-0.34576287865638733
1750935431600496000,11.71049609375,10.252646446228027,0.30927231907844543,-0.4127618968486786
1750935431619320600,11.729320556640625,10.310074806213379,0.1657029688358307,-0.6520441770553589
1750935431638145300,11.748145263671875,10.630712509155273,0.2566302418708801,-0.9439685344696045
1750935431656969700,11.7669697265625,10.841280937194824,0.20877377688884735,-1.1114661693572998
1750935431675794200,11.785794189453124,10.865209579467773,0.06999006122350693,-1.0827522277832031
1750935431694619000,11.804618896484374,9.960722923278809,0.2757728099822998,-1.322034478187561
1750935431713443300,11.823443359375,9.874580383300781,0.3332005441188812,-1.4321043491363525
1750935431732268000,11.84226806640625,9.93679428100586,0.23270200192928314,-1.0875378847122192
1750935431751092500,11.861092529296876,9.927223205566406,0.13698910176753998,-0.6137589812278748
1750935431769917000,11.8799169921875,10.180862426757812,0.026919255033135414,-0.010767702013254166
1750935431788741600,11.89874169921875,10.549356460571289,0.2805584669113159,0.3433700501918793
1750935431807566000,11.917566162109376,9.601799011230469,0.26141586899757385,0.49651068449020386
1750935431826390800,11.936390869140626,8.946166038513184,0.18963119387626648,0.7549355626106262
1750935431845215200,11.95521533203125,9.735796928405762,0.0029910283628851175,0.7549355626106262
1750935431864040000,11.9740400390625,10.295717239379883,0.12741780281066895,0.8841479420661926
1750935431882864400,11.992864501953125,9.778867721557617,0.18484555184841156,1.26699960231781
1750935431901688800,12.011688720703125,9.0514497756958,0.26620152592658997,1.4488540887832642
1750935431920513300,12.03051318359375,8.400602340698242,0.3332005441188812,1.2526426315307617
1750935431939338000,12.049337890625,8.075178146362305,-0.05922235921025276,0.6448656916618347
1750935431958162400,12.068162353515625,8.706883430480957,-0.11186445504426956,0.5587241053581238
1750935431976987100,12.086987060546875,10.334002494812012,0.2183450609445572,0.7645068168640137
1750935431995811600,12.1058115234375,11.051849365234375,0.30927231907844543,0.8219345808029175
1750935432014636300,12.12463623046875,10.649855613708496,0.4624129831790924,0.4534398913383484
1750935432033460700,12.143460693359375,10.664212226867676,0.3284149169921875,0.25722843408584595
1750935432052285200,12.16228515625,10.922636985778809,0.2709871530532837,0.06580262631177902
1750935432071110000,12.18110986328125,10.860424041748047,0.3332005441188812,-0.19262222945690155
1750935432089934300,12.199934326171874,10.807781219482422,0.3762713670730591,-0.2883351147174835
1750935432108759000,12.218759033203124,10.89392375946045,0.5868397355079651,-0.4462614357471466
1750935432127583500,12.23758349609375,10.491929054260254,0.6969096064567566,0.061016976833343506
1750935432146408000,12.256407958984376,9.171091079711914,0.4624129831790924,0.0849452018737793
1750935432165232600,12.275232666015626,8.596813201904297,0.4384847581386566,0.50129634141922
1750935432184057000,12.29405712890625,9.281160354614258,0.21355941891670227,1.01814603805542
1750935432202881500,12.312881591796875,9.88415241241455,0.10348957777023315,1.2382856607437134
1750935432221706200,12.331706298828125,9.903294563293457,0.47676992416381836,1.2143574953079224
1750935432240530700,12.35053076171875,10.066006660461426,0.4384847581386566,1.8077775239944458
1750935432259355400,12.36935546875,10.25743293762207,0.47198426723480225,1.8795621395111084
1750935432278179800,12.388179931640625,9.750154495239258,0.4576273262500763,1.9417755603790283
1750935432297004300,12.40700439453125,8.793025016784668,0.15613168478012085,1.4967105388641357
1750935432315829000,12.4258291015625,7.433901786804199,-0.10229317098855972,0.9750752449035645
1750935432334653400,12.4446533203125,8.099106788635254,-0.3320041298866272,1.0707881450653076
1750935432353478000,12.463477783203125,8.931808471679688,-0.025722842663526535,1.6163517236709595
1750935432372302600,12.482302490234375,9.56351375579834,0.19920247793197632,1.7168502807617188
1750935432391127000,12.501126953125,9.8267240524292,0.3044866919517517,0.8267202377319336
1750935432409951700,12.51995166015625,10.113862991333008,0.0891326442360878,0.33858439326286316
1750935432428776200,12.538776123046874,10.468000411987305,0.2231307178735733,0.137587308883667
1750935432447600600,12.5576005859375,11.228918075561523,0.6873382925987244,0.0849452018737793
1750935432466425300,12.57642529296875,10.649855613708496,0.5246263742446899,0.6592226624488831
1750935432485249800,12.595249755859374,10.401001930236816,0.0891326442360878,0.38644084334373474
1750935432504074500,12.614074462890626,10.195219039916992,0.5150550603866577,-0.2069791555404663
1750935432522899000,12.63289892578125,10.721639633178711,0.5341976284980774,-0.2835494875907898
1750935432541723400,12.651723388671876,11.386844635009766,0.12741780281066895,0.0323031060397625
1750935432560548000,12.670548095703126,10.02293586730957,0.31405797600746155,-0.29790642857551575
1750935432579372500,12.68937255859375,9.735796928405762,0.05563312768936157,-0.020338991656899452
1750935432598197000,12.708197021484375,10.080363273620605,0.24227328598499298,-0.26440688967704773
1750935432617021700,12.727021728515625,9.91286563873291,-0.1788634955883026,0.6975077986717224
1750935432635846100,12.74584619140625,9.764511108398438,-0.15972091257572174,1.1473584175109863
1750935432654670800,12.7646708984375,9.764511108398438,0.1657029688358307,1.420140266418457
1750935432673495300,12.783495361328125,9.946365356445312,0.5964110493659973,1.6737794876098633
1750935432692319700,12.80231982421875,10.142577171325684,0.5389832854270935,1.8317056894302368
1750935432711144400,12.82114453125,8.075178146362305,0.20877377688884735,1.0803594589233398
1750935432729969000,12.839968994140625,7.788039684295654,-0.07836493849754333,0.7405785918235779
1750935432748793600,12.858793701171875,8.888737678527832,0.022133609279990196,1.333998680114746
1750935432767618000,12.8776181640625,9.156734466552734,0.4001995921134949,2.032702922821045
1750935432786442500,12.8964423828125,9.247661590576172,0.357128769159317,1.6450655460357666
1750935432805267200,12.91526708984375,9.30030345916748,0.23270200192928314,0.7262216806411743
1750935432824091600,12.934091552734374,9.319445610046387,-0.08315058797597885,0.2955136001110077
1750935432842916000,12.952916015625,9.841081619262695,-0.42293140292167664,0.05144568532705307
1750935432861740800,12.97174072265625,10.683355331420898,-0.45643091201782227,-0.2069791555404663
1750935432880565200,12.990565185546876,11.549556732177734,-0.40378883481025696,-0.34576287865638733
1750935432899390000,13.009389892578126,11.13320541381836,-0.21714866161346436,-0.6759724020957947
1750935432918214400,13.02821435546875,10.51107120513916,-0.14057832956314087,-1.073180913925171
1750935432937038800,13.047038818359376,11.57827091217041,-0.40378883481025696,-1.3651052713394165
1750935432955863600,13.065863525390625,11.779267311096191,-0.29850462079048157,-1.4416756629943848
1750935432974688000,13.08468798828125,10.281360626220703,-0.6909275650978088,-0.833898663520813
1750935432993512700,13.1035126953125,7.7593255043029785,-0.997208833694458,-0.3601198196411133
1750935433012337200,13.122337158203125,9.640084266662598,-0.8919246196746826,-0.17347964644432068
1750935433031161600,13.14116162109375,11.353344917297363,-0.9876375198364258,0.7980063557624817
1750935433049986300,13.159986328125,12.611969947814941,-0.5808576941490173,0.9320043921470642
1750935433068810800,13.178810791015625,11.721839904785156,-0.4899304509162903,1.4297115802764893
1750935433087635500,13.197635498046875,9.984650611877441,-0.5952146053314209,2.0997018814086914
1750935433106460000,13.2164599609375,7.6636128425598145,-1.0546365976333618,2.36291241645813
1750935433125284400,13.235284423828125,7.146762847900391,-1.0259226560592651,2.5591237545013428
1750935433144109000,13.254109130859375,7.242475986480713,-0.7962117195129395,2.6213371753692627
1750935433162933500,13.27293359375,9.276374816894531,-0.10707881301641464,2.4394826889038086
1750935433181758200,13.29175830078125,8.45324420928955,-0.03529413416981697,3.339184045791626
1750935433200582700,13.310582763671874,6.955337047576904,-0.2793620526790619,3.9804604053497314
1750935433219407000,13.329406982421874,7.338188648223877,-0.1501496136188507,2.8462624549865723
1750935433238231800,13.348231689453126,9.180662155151367,0.06999006122350693,1.8747764825820923
1750935433257056300,13.36705615234375,9.951150894165039,-0.16450655460357666,1.5445669889450073
1750935433275881000,13.385880859375,10.525428771972656,-0.08793623000383377,0.989432156085968
1750935433294705400,13.404705322265626,10.936994552612305,-0.2841476798057556,0.8937192559242249
1750935433313529900,13.42352978515625,9.319445610046387,-0.15972091257572174,0.381655216217041
1750935433332354600,13.4423544921875,8.869595527648926,-0.47557350993156433,-0.48454657196998596
1750935433351179000,13.461178955078125,9.989436149597168,-0.4085744619369507,-1.3268201351165771
1750935433370003700,13.480003662109375,11.9132661819458,-0.4660021960735321,-1.317248821258545
1750935433388828200,13.498828125,11.616556167602539,-0.3080759048461914,-1.7718851566314697
1750935433407652600,13.517652587890625,11.626127243041992,-0.35114672780036926,-1.8245272636413574
1750935433426477300,13.536477294921875,10.013364791870117,-0.10229317098855972,-1.9872392416000366
1750935433445301800,13.5553017578125,9.817152976989746,-0.2267199456691742,-2.245664119720459
1750935433464126200,13.574126220703125,10.85563850402832,-0.2027917206287384,-2.2743778228759766
1750935433482951000,13.592950927734375,11.932408332824707,-0.020937198773026466,-1.8867406845092773
1750935433501775400,13.611775390625,11.085349082946777,-0.18364913761615753,-1.2741780281066895
1750935433520600000,13.63060009765625,9.951150894165039,0.06999006122350693,-1.054038405418396
1750935433539424500,13.649424560546874,8.084749221801758,-0.5569294691085815,0.1423729509115219
1750935433558249200,13.668249267578124,8.290532112121582,-0.2554338276386261,0.8602197170257568
1750935433577073700,13.68707373046875,9.960722923278809,-0.001794616924598813,1.2095718383789062
1750935433595898000,13.705898193359374,10.0612211227417,0.15613168478012085,1.683350682258606
1750935433614722800,13.724722900390624,10.066006660461426,0.36191442608833313,2.2241287231445312
1750935433633547300,13.74354736328125,9.783653259277344,0.5485545992851257,2.2959132194519043
1750935433652372000,13.7623720703125,8.70209789276123,-0.25064817070961,2.8797619342803955
1750935433671196400,13.781196533203126,7.587042331695557,0.05563312768936157,2.750549554824829
1750935433690020900,13.800020751953125,7.99382209777832,0.046061836183071136,2.83669114112854
1750935433708845600,13.818845458984375,8.012965202331543,0.21355941891670227,2.999403238296509
1750935433727670000,13.837669921875,8.434102058410645,0.0891326442360878,3.339184045791626
1750935433746494700,13.85649462890625,8.448458671569824,0.6873382925987244,2.5734808444976807
1750935433765319200,13.875319091796875,8.97966480255127,0.3332005441188812,2.0757737159729004
1750935433784144000,13.894143798828125,9.874580383300781,0.15134602785110474,1.3004990816116333
1750935433802968300,13.91296826171875,8.84088134765625,0.0891326442360878,1.0564311742782593
1750935433821792800,13.931792724609375,9.281160354614258,0.10348957777023315,0.2763710021972656
1750935433840617500,13.950617431640625,9.793225288391113,-0.04007977992296219,-0.48454657196998596
1750935433859442000,13.96944189453125,11.104491233825684,0.07956135272979736,-0.5419743061065674
1750935433878266600,13.9882666015625,11.56869888305664,0.0077766734175384045,-0.8434699773788452
1750935433897091000,14.007091064453125,10.630712509155273,-0.14057832956314087,-1.695314884185791
1750935433915915500,14.02591552734375,8.50588607788086,-0.34636107087135315,-2.111665964126587
1750935433934740200,14.044740234375,9.735796928405762,-0.29371899366378784,-2.9874391555786133
1750935433953564700,14.063564697265624,11.659626960754395,-0.47557350993156433,-2.953939437866211
1750935433972389400,14.082389404296874,11.48255729675293,-0.13579268753528595,-2.8486554622650146
1750935433991213800,14.1012138671875,11.429915428161621,0.01734796352684498,-2.6045875549316406
1750935434010038500,14.12003857421875,11.544771194458008,0.2709871530532837,-2.465803623199463
1750935434028863000,14.138863037109376,11.195419311523438,0.1704886108636856,-2.1020946502685547
1750935434047687700,14.157687744140626,9.295517921447754,-0.6095715761184692,-0.9296116232872009
1750935434066512100,14.17651220703125,8.706883430480957,0.0364905446767807,-0.29312077164649963
1750935434085336600,14.195336669921875,9.654440879821777,0.09870393574237823,0.41994038224220276
1750935434104161300,14.214161376953125,9.740582466125488,0.2997010350227356,0.4486542344093323
1750935434122985700,14.23298583984375,9.836296081542969,0.28534409403800964,0.7980063557624817
1750935434141810400,14.251810546875,9.56351375579834,0.3284149169921875,1.2382856607437134
1750935434160635000,14.270634765625,9.630513191223145,0.3188436031341553,1.6259230375289917
1750935434179459600,14.28945947265625,9.171091079711914,0.6442674994468689,1.9800606966018677
1750935434198284000,14.308283935546875,7.572685241699219,0.7208378314971924,2.530410051345825
1750935434217108700,14.327108642578125,8.065607070922852,0.6394818425178528,2.2671995162963867
1750935434235933200,14.34593310546875,9.046664237976074,0.5150550603866577,1.7599210739135742
1750935434254757600,14.364757568359375,8.82652473449707,0.529412031173706,1.9178473949432373
1750935434273582300,14.383582275390625,8.82652473449707,0.706480860710144,2.0135602951049805
1750935434292406800,14.40240673828125,8.601598739624023,1.0031908750534058,1.1665010452270508
1750935434311231500,14.4212314453125,9.367302894592285,0.7160521745681763,0.6352944374084473
1750935434330056000,14.440055908203124,9.879366874694824,0.6729813814163208,0.25722843408584595
1750935434348880600,14.458880615234374,9.951150894165039,0.3332005441188812,-0.13519448041915894
1750935434367705000,14.477705078125,11.003993034362793,0.23270200192928314,-0.6520441770553589
1750935434386529500,14.496529541015626,11.157134056091309,0.2997010350227356,-0.9678967595100403
1750935434405354200,14.515354248046876,10.03729248046875,0.3762713670730591,-1.628315806388855
1750935434424178700,14.5341787109375,10.195219039916992,0.1178465187549591,-2.035095691680908
1750935434443003400,14.55300341796875,9.697511672973633,-0.09272187948226929,-1.7336000204086304
1750935434461827800,14.571827880859376,10.334002494812012,-0.08315058797597885,-2.111665964126587
1750935434480652500,14.590652587890625,10.712068557739258,-0.11186445504426956,-2.001596212387085
1750935434499477000,14.60947705078125,9.821938514709473,0.13698910176753998,-2.049452543258667
1750935434518301700,14.6283017578125,10.262218475341797,0.18005990982055664,-2.2791635990142822
1750935434537126100,14.647126220703125,11.228918075561523,0.26141586899757385,-2.3222343921661377
1750935434555950800,14.665950927734375,11.611769676208496,0.36191442608833313,-1.872383713722229
1750935434574775300,14.684775390625,9.664012908935547,0.1944168359041214,-2.001596212387085
1750935434593599700,14.703599853515625,8.922237396240234,0.046061836183071136,-1.6761722564697266
1750935434612424400,14.722424560546875,8.285746574401855,-0.29850462079048157,-0.32183465361595154
1750935434631249000,14.741248779296875,9.381659507751465,0.3523431420326233,0.137587308883667
1750935434650073600,14.760073486328125,10.128219604492188,0.3284149169921875,1.113858938217163
1750935434668898000,14.77889794921875,10.16171932220459,0.4576273262500763,1.26699960231781
1750935434687722800,14.79772265625,9.654440879821777,0.4336991012096405,0.9128618240356445
1750935434706547200,14.816547119140624,9.367302894592285,0.12263216078281403,0.9559326171875
1750935434725372000,14.835371826171874,9.367302894592285,0.1178465187549591,0.745364248752594
1750935434744196400,14.8541962890625,9.405587196350098,-0.006580262444913387,1.042074203491211
1750935434763020800,14.873020751953124,9.869794845581055,-0.025722842663526535,1.1042876243591309
1750935434781845500,14.891845458984376,9.664012908935547,0.2231307178735733,1.022931694984436
1750935434800670000,14.910669921875,7.654041290283203,-0.020937198773026466,1.022931694984436
1750935434819494700,14.92949462890625,7.448258876800537,0.28534409403800964,-0.19262222945690155
1750935434838319000,14.948319091796876,9.558728218078613,0.2757728099822998,-1.0301101207733154
1750935434857143800,14.967143798828126,12.06640625,-0.29371899366378784,-1.1210373640060425
1750935434875968300,14.98596826171875,10.99442195892334,0.23270200192928314,-1.2502498626708984
1750935434894793000,15.00479296875,9.247661590576172,-0.03529413416981697,-1.6426727771759033
1750935434913617400,15.023617431640625,9.841081619262695,-0.2602194547653198,-2.341377019882202
1750935434932442000,15.042442138671875,10.401001930236816,-0.5377869009971619,-2.5663022994995117
1750935434951266600,15.0612666015625,10.405787467956543,-0.42293140292167664,-2.906083106994629
1750935434970091300,15.08009130859375,11.085349082946777,-0.4133601188659668,-2.748156785964966
1750935434988915700,15.098915771484375,10.975278854370117,-0.2745763957500458,-2.451446771621704
1750935435007740200,15.117740234375,10.697711944580078,-0.26979073882102966,-2.293520450592041
1750935435026564900,15.13656494140625,9.635298728942871,-0.29850462079048157,-2.2265214920043945
1750935435045389300,15.155389404296875,9.099306106567383,-0.29850462079048157,-1.6618152856826782
1750935435064214000,15.174214111328125,9.874580383300781,-0.16450655460357666,-1.451246976852417
1750935435083038500,15.19303857421875,10.501500129699707,0.022133609279990196,-1.0827522277832031
1750935435101863200,15.21186328125,10.042078018188477,0.046061836183071136,-0.7286145091056824
1750935435120687600,15.2306875,10.223933219909668,-0.25064817070961,-0.6424728631973267
1750935435139512300,15.24951220703125,9.927223205566406,-0.2793620526790619,-0.3026920557022095
1750935435158336800,15.268336669921876,9.472586631774902,0.012562318705022335,-0.058624155819416046
1750935435177161500,15.287161376953126,9.108877182006836,0.20398813486099243,0.2667997181415558
1750935435195986000,15.30598583984375,9.573084831237793,-0.01615155301988125,0.8075776696205139
1750935435214810400,15.324810302734376,10.042078018188477,0.06041877344250679,0.7980063557624817
1750935435233635000,15.343635009765626,9.482157707214355,-0.001794616924598813,0.9176474809646606
1750935435252459800,15.362459716796875,9.017950057983398,0.06999006122350693,0.7740781307220459
1750935435271284200,15.3812841796875,8.539385795593262,0.0891326442360878,0.7692924737930298
1750935435290108700,15.400108642578125,7.926823139190674,-0.09272187948226929,0.6544370055198669
1750935435308933400,15.418933349609375,9.477372169494629,0.4289134442806244,-0.16390834748744965
1750935435327757800,15.4377578125,11.099705696105957,0.26620152592658997,0.0323031060397625
1750935435346582500,15.45658251953125,10.515857696533203,0.2709871530532837,-0.15912270545959473
1750935435365407000,15.475406982421875,10.094720840454102,0.20398813486099243,-0.6999006271362305
1750935435384231700,15.494231689453125,9.836296081542969,0.18963119387626648,-1.2023934125900269
1750935435403056000,15.51305615234375,9.692726135253906,-0.15493527054786682,-1.140179991722107
1750935435421880800,15.531880859375,10.104291915893555,-0.08793623000383377,-1.475175142288208
1750935435440705300,15.550705322265625,10.836495399475098,-0.09272187948226929,-1.5756736993789673
1750935435459530000,15.569530029296875,12.008978843688965,-0.01615155301988125,-1.3986048698425293
1750935435478354400,15.5883544921875,11.190633773803711,0.20877377688884735,-0.9200403094291687
1750935435497179000,15.607178955078124,9.836296081542969,0.2231307178735733,-0.6855437159538269
1750935435516003600,15.626003662109374,9.233304023742676,0.12741780281066895,-1.073180913925171
1750935435534828000,15.644828125,9.477372169494629,-0.18364913761615753,-0.29790642857551575
1750935435553652700,15.66365283203125,9.951150894165039,-0.06400800496339798,-0.09690931439399719
1750935435572477200,15.682477294921876,10.468000411987305,-0.08793623000383377,0.44386860728263855
1750935435591302000,15.701302001953126,9.644869804382324,-0.07836493849754333,1.1569297313690186
1750935435610126300,15.720126220703126,9.003593444824219,0.2757728099822998,1.0707881450653076
1750935435628951000,15.738950927734376,8.438887596130371,0.39541393518447876,0.5826523303985596
1750935435647775500,15.757775390625,8.998807907104492,0.06999006122350693,0.2907279431819916
1750935435666600200,15.77660009765625,9.769296646118164,-0.24107688665390015,0.6687939167022705
1750935435685424600,15.795424560546875,9.405587196350098,0.4576273262500763,0.3433700501918793
1750935435704249300,15.814249267578125,8.96530818939209,0.6203392744064331,0.3481557071208954
1750935435723073800,15.83307373046875,9.970293998718262,0.2709871530532837,0.3577269911766052
1750935435741898200,15.851898193359375,10.458429336547852,0.24227328598499298,0.02273181453347206
1750935435760723000,15.870722900390625,10.487143516540527,0.4815555512905121,-0.747757077217102
1750935435779547400,15.88954736328125,9.869794845581055,0.36191442608833313,-1.2215359210968018
1750935435798372000,15.9083720703125,9.989436149597168,0.21355941891670227,-1.4799607992172241
1750935435817196500,15.927196533203125,10.52064323425293,0.11306086927652359,-1.6187444925308228
1750935435836021200,15.946021240234375,11.185847282409668,0.15613168478012085,-1.6761722564697266
1750935435854845700,15.964845703125,11.683554649353027,0.1417747437953949,-1.7048860788345337
1750935435873670400,15.98367041015625,11.597413063049316,0.15613168478012085,-1.2454642057418823
1750935435892494800,16.002494873046874,9.515657424926758,-0.025722842663526535,-1.1497513055801392
1750935435911319600,16.021319580078124,8.682954788208008,0.0364905446767807,-1.412961721420288
1750935435930144000,16.04014404296875,9.070592880249023,-0.054436713457107544,-0.9966106414794922
1750935435948968700,16.05896875,10.018150329589844,0.06520441919565201,-0.2835494875907898
1750935435967793200,16.077793212890626,10.817353248596191,0.36670008301734924,0.4007977843284607
1750935435986617600,16.09661767578125,10.13300609588623,0.5581258535385132,0.8123632669448853
1750935436005442300,16.1154423828125,9.223732948303223,0.3523431420326233,0.9415757060050964
1750935436024267000,16.13426708984375,9.33858871459961,0.2997010350227356,0.9846464991569519
1750935436043091500,16.153091552734374,9.635298728942871,0.2566302418708801,1.1042876243591309
1750935436061916000,16.171916015625,10.142577171325684,0.13220344483852386,1.7072789669036865
1750935436080740600,16.19074072265625,9.78843879699707,0.26141586899757385,2.276770830154419
1750935436099565000,16.20956494140625,9.453444480895996,0.4576273262500763,2.5495524406433105
1750935436118389800,16.2283896484375,8.414958953857422,0.1417747437953949,3.0041887760162354
1750935436137214200,16.247214111328127,8.21874713897705,0.4049852192401886,3.0185458660125732
1750935436156039000,16.266038818359377,8.745168685913086,0.20877377688884735,2.9563324451446533
1750935436174863400,16.28486328125,8.520243644714355,0.41934216022491455,2.472982168197632
1750935436193688000,16.30368798828125,9.195018768310547,0.3284149169921875,2.1858434677124023
1750935436212512500,16.322512451171875,9.238089561462402,0.45284169912338257,1.9369899034500122
1750935436231337200,16.341337158203125,9.520442962646484,0.46719861030578613,1.8556339740753174
1750935436250161700,16.36016162109375,10.104291915893555,0.33798620104789734,1.7120646238327026
1750935436268986400,16.378986328125,9.970293998718262,0.2709871530532837,1.6163517236709595
1750935436287810800,16.397810791015626,9.754940032958984,0.18005990982055664,1.171286702156067
1750935436306635500,16.416635498046876,9.601799011230469,0.050847481936216354,0.4534398913383484
1750935436325460000,16.4354599609375,9.721440315246582,-0.2315055876970291,-0.29312077164649963
1750935436344284700,16.45428466796875,10.779067993164062,-0.2267199456691742,-0.8243274092674255
1750935436363109000,16.473109130859374,10.73121166229248,-0.0687936544418335,-0.5563312768936157
1750935436381933800,16.491933837890624,10.295717239379883,0.05563312768936157,-0.45104706287384033
1750935436400758300,16.51075830078125,9.81236743927002,0.09391828626394272,-0.8865407705307007
1750935436419582700,16.529582763671876,10.300503730773926,-0.006580262444913387,-1.0444670915603638
1750935436438407400,16.548407470703125,9.869794845581055,-0.10229317098855972,-1.0827522277832031
1750935436457232000,16.56723193359375,9.927223205566406,-0.054436713457107544,-1.3459627628326416
1750935436476056600,16.586056640625,10.678568840026855,-0.04007977992296219,-1.3507484197616577
1750935436494881300,16.60488134765625,11.003993034362793,0.012562318705022335,-0.9726824164390564
1750935436513705700,16.623705810546873,10.678568840026855,0.07956135272979736,-0.5228317379951477
1750935436532530200,16.6425302734375,10.223933219909668,0.21355941891670227,-0.35533416271209717
1750935436551355000,16.66135498046875,8.821739196777344,-0.3367897868156433,0.10408778488636017
1750935436570179300,16.680179443359375,9.084949493408203,-0.15972091257572174,-0.05383851006627083
1750935436589004000,16.699004150390625,10.180862426757812,-0.29371899366378784,0.6496513485908508
1750935436607828700,16.717828857421875,10.262218475341797,0.07477571070194244,1.2813565731048584
1750935436626653200,16.736653076171876,10.807781219482422,0.4336991012096405,1.6354942321777344
1750935436645477600,16.7554775390625,10.13300609588623,0.1657029688358307,1.7072789669036865
1750935436664302300,16.77430224609375,8.036892890930176,-0.2554338276386261,1.92741858959198
1750935436683126800,16.793126708984374,7.926823139190674,0.06999006122350693,1.812563180923462
1750935436701951500,16.811951416015624,8.907880783081055,-0.1501496136188507,2.3054845333099365
1750935436720776000,16.83077587890625,8.773882865905762,0.10827522724866867,2.11405873298645
1750935436739600600,16.8496005859375,9.415159225463867,0.16091732680797577,1.8604196310043335
1750935436758425300,16.86842529296875,9.601799011230469,0.17527425289154053,1.9417755603790283
1750935436777249800,16.887249755859376,9.927223205566406,0.31405797600746155,2.0757737159729004
1750935436796074500,16.906074462890626,9.238089561462402,0.6011967062950134,1.8460626602172852
1750935436814899000,16.92489892578125,9.960722923278809,0.42412781715393066,1.2861422300338745
1750935436833723400,16.943723388671874,10.113862991333008,0.3475574851036072,0.9128618240356445
1750935436852548000,16.962548095703124,9.754940032958984,0.45284169912338257,0.9463613629341125
1750935436871372800,16.981372802734374,10.204790115356445,0.4001995921134949,0.6305087804794312
1750935436890197200,17.000197265625,9.989436149597168,0.18963119387626648,0.592223584651947
1750935436909022000,17.01902197265625,9.544371604919434,0.05563312768936157,-0.09212367236614227
1750935436946671000,17.056671142578125,9.683155059814453,0.03170489892363548,-0.21655045449733734
1750935436965495600,17.07549560546875,9.429515838623047,-0.10229317098855972,-0.5611169338226318
1750935436984320300,17.0943203125,10.807781219482422,-0.3080759048461914,-1.1306086778640747
1750935437003144700,17.113144775390627,12.09033489227295,-0.40378883481025696,-0.6041877269744873
1750935437021969400,17.131969482421876,11.300703048706055,0.10827522724866867,-0.12083754688501358
1750935437040793900,17.1507939453125,10.8699951171875,0.18963119387626648,0.04666004329919815
1750935437059618600,17.16961865234375,10.860424041748047,-0.05922235921025276,0.2955136001110077
1750935437078443000,17.188443115234374,9.81236743927002,-0.5186443328857422,0.6879364848136902
1750935437097267700,17.207267822265624,9.496515274047852,-0.16929219663143158,0.20458634197711945
1750935437116092200,17.226092041015626,9.041878700256348,-0.47557350993156433,0.534795880317688
1750935437134916900,17.244916748046876,9.419944763183594,-0.0687936544418335,1.2143574953079224
1750935437153741300,17.2637412109375,9.108877182006836,-0.049651071429252625,1.333998680114746
1750935437172566000,17.28256591796875,9.400801658630371,-0.1501496136188507,1.4775680303573608
1750935437191390500,17.301390380859374,9.166305541992188,-0.13100704550743103,1.3818551301956177
1750935437210215200,17.320215087890624,8.898308753967285,-0.05922235921025276,1.5541383028030396
1750935437229039900,17.339039794921874,9.08973503112793,-0.12622138857841492,2.2959132194519043
1750935437247864300,17.3578642578125,9.989436149597168,-0.12143574655056,2.717050075531006
1750935437266689000,17.37668896484375,9.89850902557373,-0.6765705943107605,2.1714866161346436
1750935437285513500,17.395513427734375,10.324431419372559,-0.5569294691085815,2.5256242752075195
1750935437304338200,17.414338134765625,9.597013473510742,0.19920247793197632,2.496910333633423
1750935437323162600,17.43316259765625,9.678369522094727,-0.42293140292167664,1.9896320104599
1750935437341987300,17.4519873046875,9.171091079711914,-0.5712863802909851,1.2717852592468262
1750935437360811800,17.470811767578127,8.247461318969727,-0.844068169593811,1.3483555316925049
1750935437379636500,17.489636474609377,10.324431419372559,-0.054436713457107544,1.0803594589233398
1750935437398461200,17.508461181640627,10.908280372619629,-0.29850462079048157,1.1377872228622437
1750935437417285600,17.52728564453125,11.224132537841797,-0.03529413416981697,1.4775680303573608
1750935437436110300,17.5461103515625,9.850652694702148,0.23270200192928314,1.6067804098129272
1750935437454934800,17.564934814453125,9.975079536437988,0.2757728099822998,1.2095718383789062
1750935437473759500,17.583759521484374,10.118648529052734,0.09391828626394272,0.8267202377319336
1750935437492584000,17.602583984375,8.82652473449707,0.09391828626394272,-0.3026920557022095
1750935437511408600,17.62140869140625,8.745168685913086,-0.13579268753528595,-0.9726824164390564
1750935437530233000,17.640233154296876,10.477572441101074,-0.001794616924598813,-0.9966106414794922
1750935437549057800,17.659057861328126,10.539785385131836,0.4289134442806244,-0.9439685344696045
1750935437567882200,17.67788232421875,10.123434066772461,0.47198426723480225,-0.2883351147174835
1750935437586707000,17.69670703125,10.946565628051758,0.5868397355079651,-0.2835494875907898
1750935437605531600,17.71553173828125,11.315059661865234,0.5341976284980774,-0.5084748268127441
1750935437624356000,17.734356201171874,10.683355331420898,0.33798620104789734,-0.6329016089439392
1750935437643180800,17.753180908203124,10.334002494812012,0.24227328598499298,-0.6376872062683105
1750935437662005200,17.772005126953125,9.927223205566406,-0.25064817070961,0.6400800347328186
1750935437680830000,17.790829833984375,9.343374252319336,-0.4995017349720001,0.20937198400497437
1750935437699654400,17.809654296875,9.185447692871094,0.11306086927652359,0.8123632669448853
1750935437718479000,17.82847900390625,8.850452423095703,0.5054838061332703,1.2287144660949707
1750935437737303800,17.8473037109375,9.008378982543945,0.582054078578949,1.597209095954895
1750935437756128300,17.866128173828123,8.893523216247559,0.4863412082195282,2.3676979541778564
1750935437774953000,17.884952880859377,10.180862426757812,0.5724828243255615,2.764906644821167
1750935437793777400,17.90377734375,10.783853530883789,0.3523431420326233,3.2961132526397705
1750935437812602000,17.92260205078125,10.0612211227417,0.046061836183071136,2.726621389389038
1750935437831426600,17.941426513671875,8.190033912658691,0.15134602785110474,2.204986095428467
1750935437850251300,17.960251220703125,6.457630157470703,0.5676971673965454,1.8029918670654297
1750935437869076000,17.979075927734375,7.156334400177002,0.21355941891670227,1.7886348962783813
1750935437887900400,17.997900390625,8.70209789276123,-0.001794616924598813,2.1858434677124023
1750935437906725000,18.01672509765625,10.252646446228027,0.01734796352684498,2.066202402114868
1750935437925549600,18.035549560546876,9.616155624389648,0.23270200192928314,1.1282159090042114
1750935437944374300,18.054374267578126,8.927022933959961,0.13220344483852386,0.36251261830329895
1750935437963199000,18.073198974609376,9.386445045471191,-0.06400800496339798,-0.40319061279296875
1750935437982023400,18.0920234375,10.783853530883789,-0.001794616924598813,-0.2835494875907898
1750935438000848100,18.11084814453125,11.750554084777832,-0.1788634955883026,-0.15912270545959473
1750935438019672600,18.129672607421874,10.750353813171387,0.09870393574237823,-1.077966570854187
1750935438038497300,18.148497314453124,9.979865074157715,0.3810569941997528,-1.8771693706512451
1750935438057321700,18.16732177734375,10.276575088500977,0.18484555184841156,-1.6713865995407104
1750935438076146400,18.186146484375,11.372488021850586,0.050847481936216354,-1.7670994997024536
1750935438094971100,18.20497119140625,12.013764381408691,-0.2602194547653198,-1.848455548286438
1750935438113795600,18.223795654296875,10.88435173034668,0.17527425289154053,-2.647658348083496
1750935438132620300,18.242620361328125,9.92243766784668,-0.08793623000383377,-2.2600209712982178
1750935438151444700,18.26144482421875,10.080363273620605,-0.5569294691085815,-1.1736794710159302
1750935438170269400,18.28026953125,9.941579818725586,-1.0019944906234741,0.18065811693668365
1750935438189094100,18.29909423828125,9.41037368774414,0.42412781715393066,-0.6424728631973267
1750935438207918600,18.317918701171877,9.640084266662598,0.4145565330982208,-0.19740787148475647
1750935438226743300,18.336743408203127,9.171091079711914,0.6107679605484009,0.46779683232307434
1750935438245568000,18.355568115234377,9.22851848602295,0.5150550603866577,1.0516455173492432
1750935438264392400,18.374392333984375,9.295517921447754,0.26141586899757385,1.4919248819351196
1750935438283217200,18.393217041015625,9.319445610046387,-0.28893333673477173,1.482353687286377
1750935438302041600,18.41204150390625,9.30030345916748,-0.1788634955883026,1.8317056894302368
1750935438320866300,18.4308662109375,9.429515838623047,0.11306086927652359,2.4394826889038086
1750935438339691000,18.44969091796875,10.802995681762695,0.012562318705022335,2.8654050827026367
1750935438358515500,18.468515380859376,9.726225852966309,0.18484555184841156,3.0903303623199463
1750935438377340200,18.487340087890626,8.754739761352539,0.07956135272979736,3.071187973022461
1750935438396164600,18.50616455078125,8.596813201904297,-0.20757736265659332,2.0135602951049805
1750935438414989300,18.5249892578125,8.486743927001953,-0.1501496136188507,1.9561325311660767
1750935438433814000,18.54381396484375,8.347960472106934,0.08434699475765228,2.2337000370025635
1750935438452638500,18.562638427734374,8.462815284729004,0.4384847581386566,1.9896320104599
1750935438471463200,18.581463134765624,8.812167167663574,0.4863412082195282,2.1714866161346436
1750935438490287900,18.600287841796874,10.003793716430664,0.4863412082195282,1.1186445951461792
1750935438509112300,18.6191123046875,10.37228775024414,0.2231307178735733,0.9702895879745483
1750935438527937000,18.63793701171875,10.080363273620605,0.14656038582324982,0.41515472531318665
1750935438546761500,18.656761474609375,10.764710426330566,0.39541393518447876,-0.19262222945690155
1750935438565586200,18.675586181640625,11.626127243041992,0.4624129831790924,-0.5611169338226318
1750935438584411000,18.694410888671875,11.659626960754395,0.5054838061332703,-0.6855437159538269
1750935438603235300,18.7132353515625,10.453643798828125,0.26141586899757385,-0.9152546525001526
1750935438622060000,18.73206005859375,8.697312355041504,0.08434699475765228,-1.8963119983673096
1750935438640884700,18.750884765625,9.281160354614258,-0.06400800496339798,-2.2360928058624268
1750935438659709200,18.769709228515627,10.338788032531738,0.12741780281066895,-2.26959228515625
1750935438678534000,18.788533935546877,11.812767028808594,0.15613168478012085,-1.322034478187561
1750935438697358300,18.8073583984375,11.774481773376465,0.5006981492042542,-1.0253244638442993
1750935438716183000,18.82618310546875,10.999207496643066,0.529412031173706,-0.9248259663581848
1750935438735007700,18.8450078125,9.348159790039062,-0.13100704550743103,0.1423729509115219
1750935438753832200,18.863832275390624,8.386244773864746,-0.025722842663526535,0.22851456701755524
1750935438772657000,18.882656982421874,9.123234748840332,0.08434699475765228,0.2476571500301361
1750935438791481600,18.901481689453124,9.19023323059082,0.1657029688358307,0.898504912853241
1750935438810306000,18.92030615234375,9.606584548950195,0.3858426511287689,1.8891334533691406
1750935438829130800,18.939130859375,9.979865074157715,0.6299105882644653,2.152343988418579
1750935438847955500,18.95795556640625,9.989436149597168,0.49591249227523804,2.606980323791504
1750935438866780000,18.97677978515625,9.606584548950195,0.582054078578949,2.764906644821167
1750935438885604600,18.9956044921875,8.486743927001953,0.2949153780937195,2.386840581893921
1750935438904429300,19.01442919921875,7.969893932342529,0.10827522724866867,2.080559253692627
1750935438923253800,19.033253662109374,8.204390525817871,0.28534409403800964,2.5974090099334717
1750935438942078500,19.052078369140624,8.85523796081543,0.5246263742446899,3.0855448246002197
1750935438960903200,19.070903076171874,8.237890243530273,0.7447660565376282,3.0041887760162354
1750935438979727600,19.0897275390625,7.352545738220215,0.21355941891670227,2.688336133956909
1750935438998552300,19.10855224609375,7.878966808319092,0.24227328598499298,1.755135416984558
1750935439017377000,19.127376953125,9.606584548950195,0.1657029688358307,1.0707881450653076
1750935439036201500,19.146201416015625,9.750154495239258,0.20877377688884735,0.9607182741165161
1750935439055026200,19.165026123046875,11.35813045501709,0.3044866919517517,0.09930214285850525
1750935439073851000,19.183850830078125,11.879766464233398,0.2949153780937195,0.17108681797981262
1750935439092675300,19.20267529296875,10.649855613708496,0.09391828626394272,-0.039481572806835175
1750935439111500000,19.2215,10.295717239379883,-0.01615155301988125,-0.867398202419281
1750935439130324700,19.24032470703125,11.740982055664062,-0.3128615617752075,-1.2646067142486572
1750935439149149200,19.259149169921876,11.439486503601074,-0.19800607860088348,-0.98703932762146
1750935439167974000,19.277973876953126,10.831709861755371,-0.01136590726673603,-0.9296116232872009
1750935439186798600,19.296798583984376,10.697711944580078,0.10348957777023315,-1.211964726448059
1750935439205623000,19.315623046875,10.721639633178711,0.046061836183071136,-0.9343972206115723
1750935439224447700,19.33444775390625,9.860223770141602,-0.15972091257572174,-0.4127618968486786
1750935439243272400,19.3532724609375,9.544371604919434,-0.32721850275993347,0.11844471842050552
1750935439262097000,19.372096923828124,9.616155624389648,-0.3320041298866272,0.47258245944976807
1750935439280921600,19.390921630859374,9.888937950134277,-0.3032902777194977,0.836291491985321
1750935439309158700,19.41915869140625,9.678369522094727,0.01734796352684498,1.3004990816116333
1750935439327983000,19.437983154296877,10.094720840454102,0.0891326442360878,1.8987047672271729
1750935439346807800,19.456807861328127,9.10409164428711,-0.32243284583091736,3.0281169414520264
1750935439365632500,19.475632568359377,8.82652473449707,0.15134602785110474,2.717050075531006
1750935439384457000,19.49445703125,8.955737113952637,0.3332005441188812,2.6452653408050537
1750935439403281700,19.51328173828125,8.673383712768555,0.21355941891670227,2.9276185035705566
1750935439422106400,19.5321064453125,8.515457153320312,0.21355941891670227,2.9419753551483154
1750935439440930800,19.550930908203124,8.534600257873535,-0.001794616924598813,2.8941190242767334
1750935439459755500,19.569755615234374,7.8693952560424805,-0.049651071429252625,2.6979074478149414
1750935439478580200,19.588580322265624,7.7114691734313965,0.07956135272979736,2.2337000370025635
1750935439497405000,19.607405029296874,8.424530029296875,0.3044866919517517,1.8460626602172852
1750935439516229400,19.6262294921875,9.573084831237793,0.30927231907844543,1.4536397457122803
1750935439535054000,19.64505419921875,11.161919593811035,0.2470589429140091,0.8458628058433533
1750935439553878800,19.663878662109376,10.913065910339355,0.1704886108636856,0.8075776696205139
1750935439572703200,19.682703125,9.453444480895996,0.30927231907844543,0.4007977843284607
1750935439591528000,19.70152783203125,9.266803741455078,-0.09272187948226929,-0.364905446767807
1750935439610352600,19.7203525390625,11.147562026977539,-0.37507495284080505,-1.29810631275177
1750935439629177000,19.739177001953124,11.654840469360352,-0.48514479398727417,-0.9104689955711365
1750935439648001800,19.758001708984374,10.946565628051758,-0.24107688665390015,-0.6999006271362305
1750935439666826500,19.776826416015624,11.018349647521973,-0.16929219663143158,-0.8291130661964417
1750935439685651000,19.79565087890625,10.314860343933105,-0.2841476798057556,-0.7668996453285217
1750935439704475600,19.8144755859375,9.951150894165039,-0.2793620526790619,-1.1497513055801392
1750935439723300400,19.83330029296875,10.678568840026855,-0.26500511169433594,-1.2263215780258179
1750935439742125000,19.852125,11.338988304138184,-0.18843477964401245,-0.8195417523384094
1750935439760949500,19.870949462890625,10.917851448059082,-0.11186445504426956,-0.6472585201263428
1750935439779774200,19.889774169921875,10.267004013061523,-0.39421752095222473,-0.3409772217273712
1750935439798599000,19.908598876953125,9.22851848602295,-0.42293140292167664,0.10887342691421509
1750935439817423400,19.92742333984375,9.204590797424316,-0.3367897868156433,0.7692924737930298
1750935439836248000,19.946248046875,9.654440879821777,-0.3320041298866272,1.5445669889450073
1750935439855072800,19.96507275390625,9.68794059753418,0.08434699475765228,2.142772674560547
1750935439873897500,19.9838974609375,9.376873970031738,0.0077766734175384045,2.7122645378112793
1750935439892722000,20.002721923828126,9.372088432312012,0.16091732680797577,2.9036903381347656
1750935439911546600,20.021546630859376,8.419744491577148,0.14656038582324982,2.884547710418701
1750935439949195800,20.05919580078125,7.462615489959717,0.10348957777023315,3.0855448246002197
1750935439968020500,20.0780205078125,7.888537883758545,0.0077766734175384045,3.1381869316101074
1750935439986845200,20.09684521484375,8.82652473449707,0.12741780281066895,3.0520453453063965
1750935440005669600,20.115669677734374,9.142376899719238,0.3332005441188812,2.606980323791504
1750935440024494300,20.134494384765624,8.625527381896973,0.23270200192928314,2.2911276817321777
1750935440043319000,20.153319091796874,9.084949493408203,0.050847481936216354,1.6163517236709595
1750935440062143700,20.172143798828124,9.501300811767578,0.01734796352684498,1.0516455173492432
1750935440080968200,20.19096826171875,10.228718757629395,0.03170489892363548,0.7549355626106262
1750935440099793000,20.20979296875,11.463415145874023,0.04127619042992592,0.28115665912628174
1750935440118617600,20.22861767578125,11.08056354522705,-0.0687936544418335,0.04666004329919815
1750935440137442300,20.2474423828125,10.142577171325684,-0.04007977992296219,-0.2883351147174835
1750935440156266800,20.266266845703125,10.515857696533203,-0.1740778535604477,-0.40797626972198486
1750935440175091500,20.285091552734375,11.324631690979004,-0.19322042167186737,-0.34576287865638733
1750935440193916200,20.303916259765625,11.248061180114746,-0.28893333673477173,-0.2069791555404663
1750935440212740900,20.322740966796875,10.338788032531738,-0.15972091257572174,-0.29312077164649963
1750935440231565300,20.3415654296875,10.448858261108398,-0.1453639715909958,-0.42711883783340454
1750935440250390000,20.36039013671875,10.49671459197998,-0.37028929591178894,0.0849452018737793
1750935440269214700,20.379214599609377,10.085148811340332,-0.08315058797597885,0.15672987699508667
1750935440288039200,20.3980390625,9.616155624389648,-0.2267199456691742,0.7645068168640137
1750935440306863900,20.41686376953125,9.855438232421875,-0.32721850275993347,1.3818551301956177
1750935440325688600,20.4356884765625,9.568299293518066,-0.3032902777194977,1.8508483171463013
1750935440344513000,20.454512939453124,8.879166603088379,-0.45643091201782227,2.396411895751953
1750935440363337700,20.473337646484374,9.262018203735352,-0.1453639715909958,2.530410051345825
1750935440382162400,20.492162353515624,9.472586631774902,-0.16929219663143158,2.937189817428589
1750935440400987100,20.510987060546874,9.405587196350098,0.04127619042992592,2.970689296722412
1750935440419811600,20.5298115234375,8.821739196777344,-0.06400800496339798,3.0281169414520264
1750935440438636300,20.54863623046875,8.587242126464844,-0.19322042167186737,3.0376882553100586
1750935440457461000,20.5674609375,8.903095245361328,-0.21236300468444824,3.0376882553100586
1750935440476285700,20.58628564453125,8.759525299072266,-0.03529413416981697,2.8558337688446045
1750935440495110100,20.605110107421876,7.165905475616455,-0.07357929646968842,2.6739792823791504
1750935440513934800,20.623934814453126,6.495915412902832,0.026919255033135414,2.17627215385437
1750935440532759600,20.642759521484376,9.381659507751465,0.07477571070194244,1.046859860420227
1750935440551584300,20.661584228515625,11.750554084777832,-0.12622138857841492,0.6209374666213989
1750935440570408700,20.68040869140625,10.927422523498535,0.20398813486099243,0.7884350419044495
1750935440589233400,20.6992333984375,9.553942680358887,0.17527425289154053,0.5252245664596558
1750935440608058000,20.71805810546875,9.376873970031738,-0.2554338276386261,-0.010767702013254166
1750935440626882600,20.736882568359373,11.46820068359375,-0.3032902777194977,-0.833898663520813
1750935440645707300,20.755707275390623,12.004193305969238,-0.40378883481025696,-0.6137589812278748
1750935440664532000,20.774531982421873,11.506485939025879,-0.2027917206287384,-0.589830756187439
1750935440683356700,20.793356689453127,10.506285667419434,0.0891326442360878,-0.9056833982467651
1750935440702181000,20.81218115234375,10.13300609588623,-0.21714866161346436,-0.8099704384803772
1750935440721005800,20.831005859375,9.754940032958984,-0.5234299302101135,-0.5228317379951477
1750935440739830500,20.84983056640625,9.79801082611084,-0.3367897868156433,-0.4366901218891144
1750935440758655200,20.8686552734375,10.128219604492188,-0.37507495284080505,0.05144568532705307
1750935440777479700,20.887479736328125,9.869794845581055,-0.2793620526790619,0.6400800347328186
1750935440796304400,20.906304443359375,9.951150894165039,-0.24586252868175507,1.0707881450653076
1750935440815129000,20.925129150390624,10.329216957092285,-0.0975075215101242,1.333998680114746
1750935440833953500,20.94395361328125,10.003793716430664,-0.2554338276386261,1.4009976387023926
1750935440852778200,20.9627783203125,9.21416187286377,-0.4995017349720001,1.4057832956314087
1750935440871603000,20.98160302734375,9.333803176879883,-0.31764721870422363,1.6067804098129272
1750935440890427600,21.000427734375,9.630513191223145,-0.09272187948226929,2.090130567550659
1750935440909252000,21.019252197265626,9.453444480895996,-0.05922235921025276,2.8701908588409424
1750935440928076800,21.038076904296876,9.520442962646484,0.1944168359041214,3.056830883026123
1750935440946901500,21.056901611328126,8.946166038513184,-0.049651071429252625,3.0137600898742676
1750935440965726200,21.075726318359376,8.060821533203125,-0.19322042167186737,2.544766902923584
1750935440984550700,21.094550537109374,7.6013994216918945,-0.07836493849754333,2.334198474884033
1750935441003375400,21.113375244140624,7.850253105163574,-0.025722842663526535,2.1571295261383057
1750935441022200000,21.132199951171874,9.022735595703125,-0.3128615617752075,2.152343988418579
1750935441041024800,21.151024658203124,10.439287185668945,0.03170489892363548,1.4967105388641357
1750935441059849200,21.16984912109375,10.156933784484863,0.1657029688358307,1.3770694732666016
1750935441078674000,21.188673828125,9.750154495239258,0.12741780281066895,1.0516455173492432
1750935441097498600,21.20749853515625,9.793225288391113,-0.19322042167186737,0.5395814776420593
1750935441116323000,21.226322998046875,9.367302894592285,-0.26979073882102966,0.02273181453347206
1750935441135147800,21.245147705078125,10.802995681762695,-0.37507495284080505,-0.5946164131164551
1750935441153972500,21.263972412109375,11.82712459564209,-0.24107688665390015,-0.6664010882377625
1750935441172797200,21.282797119140625,11.922837257385254,-0.2315055876970291,-0.26440688967704773
1750935441191621600,21.30162158203125,11.511271476745605,-0.13100704550743103,-0.19262222945690155
1750935441210446300,21.3204462890625,10.898709297180176,-0.04007977992296219,-0.6185446381568909
1750935441229271000,21.33927099609375,10.219147682189941,-0.28893333673477173,-0.4989035129547119
1750935441248095700,21.358095703125,9.262018203735352,-0.6861419081687927,0.10408778488636017
1750935441266920200,21.376920166015626,9.597013473510742,-0.2793620526790619,0.39601215720176697
1750935441285745000,21.395744873046876,9.793225288391113,-0.39421752095222473,1.1186445951461792
1750935441304569600,21.414569580078126,9.396016120910645,-0.32243284583091736,1.6689938306808472
1750935441323394300,21.433394287109376,9.30030345916748,0.026919255033135414,1.7599210739135742
1750935441342218800,21.45221875,8.850452423095703,-0.18843477964401245,1.836491346359253
1750935441361043500,21.47104345703125,9.037093162536621,-0.355932354927063,1.817348837852478
1750935441379868200,21.4898681640625,9.46301555633545,-0.16450655460357666,1.8652052879333496
1750935441398692600,21.508692626953124,8.280961036682129,0.0029910283628851175,2.5495524406433105
1750935441417517300,21.527517333984374,8.501100540161133,0.06041877344250679,2.4394826889038086
1750935441436342000,21.546342041015624,8.94137954711914,-0.2027917206287384,2.2337000370025635
1750935441455166700,21.565166748046874,9.415159225463867,-0.12143574655056,1.4919248819351196
1750935441473991200,21.5839912109375,9.352945327758789,0.0029910283628851175,0.8219345808029175
1750935441492816000,21.60281591796875,9.64965534210205,0.09870393574237823,0.4295116662979126
1750935441511640600,21.621640625,10.310074806213379,-0.006580262444913387,0.31465616822242737
1750935441530465300,21.64046533203125,10.13300609588623,-0.054436713457107544,0.061016976833343506
1750935441549289700,21.659289794921875,10.712068557739258,-0.13579268753528595,-0.364905446767807
1750935441568114400,21.678114501953125,11.276775360107422,-0.1788634955883026,-0.5946164131164551
1750935441586939100,21.696939208984375,11.434700965881348,-0.3032902777194977,-0.7956135272979736
1750935441605763800,21.715763916015625,11.46820068359375,-0.3032902777194977,-0.4989035129547119
1750935441624588300,21.73458837890625,11.075778007507324,-0.3128615617752075,-0.5324030518531799
1750935441643413000,21.7534130859375,10.468000411987305,-0.19322042167186737,-0.4366901218891144
1750935441662237700,21.77223779296875,10.448858261108398,-0.20757736265659332,-0.48454657196998596
1750935441681062100,21.791062255859377,10.338788032531738,-0.3607180118560791,-0.259621262550354
1750935441699886800,21.809886962890626,8.558527946472168,-0.6382854580879211,0.17587246000766754
1750935441718711600,21.828711669921876,9.367302894592285,-0.37507495284080505,0.745364248752594
1750935441737536300,21.847536376953126,10.204790115356445,-0.3655036687850952,1.7647067308425903
1750935441756360700,21.866360595703124,10.28614616394043,-0.01136590726673603,2.2959132194519043
1750935441775185400,21.885185302734374,9.625727653503418,0.04127619042992592,2.2432711124420166
1750935441794010000,21.904010009765624,9.185447692871094,-0.2793620526790619,2.4299113750457764
1750935441812834800,21.922834716796874,8.97966480255127,-0.29371899366378784,2.0279171466827393
1750935441831659300,21.9416591796875,8.606385231018066,-0.2027917206287384,2.142772674560547
1750935441850484000,21.96048388671875,8.233104705810547,-0.2554338276386261,2.530410051345825
1750935441869308700,21.97930859375,7.218547821044922,0.012562318705022335,2.779263496398926
1750935441888133000,21.998133056640626,7.697112083435059,0.1178465187549591,2.5399811267852783
1750935441906957800,22.016957763671876,9.046664237976074,0.357128769159317,1.9561325311660767
1750935441925782500,22.035782470703126,10.578070640563965,0.07477571070194244,1.8843477964401245
1750935441944607200,22.054607177734376,10.52064323425293,0.18963119387626648,1.4488540887832642
1750935441963431700,22.073431640625,9.534799575805664,0.14656038582324982,0.6879364848136902
1750935441982256400,22.09225634765625,10.42492961883545,-0.03529413416981697,-0.12083754688501358
1750935442001081000,22.1110810546875,10.999207496643066,-0.01615155301988125,-0.07776673883199692
1750935442019905800,22.12990576171875,11.24327564239502,0.2566302418708801,-0.4127618968486786
1750935442038730200,22.148730224609373,10.329216957092285,-0.39900317788124084,0.04666004329919815
1750935442057555000,22.167554931640623,10.305289268493652,-0.21236300468444824,-0.5563312768936157
1750935442076379600,22.186379638671873,11.090134620666504,-0.1453639715909958,-0.8578268885612488
1750935442095204400,22.205204345703127,12.047264099121094,-0.001794616924598813,-0.7573283910751343
1750935442114028800,22.22402880859375,11.544771194458008,0.1704886108636856,-0.7716853022575378
1750935442132853500,22.242853515625,9.960722923278809,-0.0975075215101242,-0.5994020700454712
1750935442151678200,22.26167822265625,7.716254711151123,-0.6191428303718567,0.3194418251514435
1750935442170502700,22.280502685546875,8.443673133850098,-0.25064817070961,0.8458628058433533
1750935442189327400,22.299327392578125,9.171091079711914,-0.3128615617752075,1.7120646238327026
1750935442208152000,22.318152099609375,9.262018203735352,-0.049651071429252625,2.252842426300049
1750935442226976800,22.336976806640624,10.00857925415039,-0.05922235921025276,2.630908489227295
1750935442245801200,22.35580126953125,10.530214309692383,-0.049651071429252625,2.4394826889038086
1750935442264626000,22.3746259765625,9.161520004272461,-0.3655036687850952,2.434697151184082
1750935442283450600,22.39345068359375,7.668398380279541,-0.21714866161346436,2.2671995162963867
1750935442302275300,22.412275390625,7.414759159088135,-0.21236300468444824,2.3676979541778564
1750935442321099800,22.431099853515626,8.869595527648926,-0.0975075215101242,2.669193744659424
1750935442339924500,22.449924560546876,10.310074806213379,-0.020937198773026466,2.616551637649536
1750935442358749200,22.468749267578126,9.582656860351562,0.31405797600746155,1.6737794876098633
1750935442377574000,22.487573974609376,8.692526817321777,0.026919255033135414,0.6065805554389954
1750935442396398300,22.5063984375,9.932008743286133,-0.12143574655056,0.0849452018737793
1750935442415223000,22.52522314453125,11.84148120880127,0.06999006122350693,0.19980068504810333
1750935442434047700,22.5440478515625,11.056634902954102,0.06999006122350693,0.5635097622871399
1750935442452872200,22.5628720703125,10.783853530883789,-0.07357929646968842,0.4630111753940582
1750935442471697000,22.58169677734375,10.702497482299805,-0.37028929591178894,0.4582255482673645
1750935442490521600,22.600521484375,11.238490104675293,-0.1453639715909958,-0.3122633695602417
1750935442509346000,22.619345947265625,11.396415710449219,-0.14057832956314087,-0.46061834692955017
1750935442528170800,22.638170654296875,9.759725570678711,-0.08793623000383377,-0.7238288521766663
1750935442546995500,22.656995361328125,8.869595527648926,-0.20757736265659332,-0.45583271980285645
1750935442565820200,22.675820068359375,9.917651176452637,-0.1453639715909958,0.12801600992679596
1750935442584644600,22.69464453125,10.917851448059082,0.17527425289154053,0.5970092415809631
1750935442603469300,22.71346923828125,10.27178955078125,-0.2745763957500458,1.8604196310043335
1750935442622294000,22.7322939453125,9.472586631774902,-0.0975075215101242,2.142772674560547
1750935442641118700,22.75111865234375,8.601598739624023,-0.24107688665390015,2.0709879398345947
1750935442659943200,22.769943115234376,9.137591361999512,-0.21714866161346436,2.410768747329712
1750935442678767900,22.788767822265626,9.769296646118164,-0.15493527054786682,3.2004003524780273
1750935442697592600,22.807592529296876,9.467801094055176,0.0364905446767807,3.372683525085449
1750935442716417000,22.8264169921875,8.056035995483398,-0.08315058797597885,3.5736806392669678
1750935442735241700,22.84524169921875,7.304689407348633,-0.3607180118560791,3.9804604053497314
1750935442754066400,22.86406640625,7.802396297454834,-0.3128615617752075,3.999603033065796
1750935442772891100,22.88289111328125,8.137392044067383,-0.15972091257572174,4.095315933227539
1750935442791715600,22.901715576171874,9.68794059753418,0.01734796352684498,3.8703906536102295
1750935442810540300,22.920540283203124,9.970293998718262,0.15613168478012085,3.4205398559570312
1750935442829365000,22.939364990234374,8.548956871032715,0.06999006122350693,2.764906644821167
1750935442848189400,22.958189453125,8.927022933959961,0.18484555184841156,1.8556339740753174
1750935442867014100,22.97701416015625,10.779067993164062,0.13220344483852386,1.5828521251678467
1750935442885838800,22.9958388671875,10.798210144042969,0.1178465187549591,2.0135602951049805
1750935442904663600,23.01466357421875,9.654440879821777,-0.12143574655056,1.8317056894302368
1750935442923488000,23.033488037109375,9.099306106567383,-0.049651071429252625,1.1234302520751953
1750935442942312700,23.052312744140625,9.477372169494629,-0.21714866161346436,0.7310073375701904
1750935442961137400,23.071137451171875,10.195219039916992,-0.01615155301988125,0.2763710021972656
1750935442979962000,23.089962158203125,11.405987739562988,-0.030508488416671753,0.17108681797981262
1750935442998786600,23.10878662109375,11.659626960754395,0.18005990982055664,0.6113662123680115
1750935443017611300,23.127611328125,11.037492752075195,-0.030508488416671753,1.3818551301956177
1750935443036436000,23.14643603515625,8.831310272216797,0.09870393574237823,0.745364248752594
1750935443055260400,23.165260498046877,9.161520004272461,-0.5473581552505493,0.9511470198631287
1750935443074085000,23.184085205078127,10.118648529052734,-0.542572557926178,1.3435698747634888
1750935443092909800,23.202909912109376,9.783653259277344,-0.37028929591178894,2.630908489227295
1750935443111734300,23.221734375,10.673783302307129,0.10827522724866867,3.5401811599731445
1750935443130559000,23.24055908203125,10.070792198181152,0.2183450609445572,3.793820381164551
1750935443149383700,23.2593837890625,8.620741844177246,-0.16450655460357666,3.793820381164551
1750935443168208400,23.27820849609375,7.7832536697387695,-0.4325026869773865,4.157529354095459
1750935443187032800,23.29703271484375,7.486543655395508,-0.01136590726673603,4.076173305511475
1750935443205857500,23.315857421875,7.654041290283203,-0.04007977992296219,4.320241451263428
1750935443224682200,23.33468212890625,7.6636128425598145,0.13220344483852386,4.344169616699219
1750935443243506700,23.353506591796876,7.58225679397583,0.17527425289154053,4.157529354095459
1750935443262331400,23.372331298828126,7.610970497131348,0.2470589429140091,3.3583266735076904
1750935443281156000,23.391156005859376,8.199604988098145,0.18963119387626648,2.726621389389038
1750935443299980800,23.409980712890626,8.395816802978516,-0.11665010452270508,2.6021945476531982
1750935443318805200,23.42880517578125,10.113862991333008,0.03170489892363548,2.0518453121185303
1750935443337630000,23.4476298828125,10.582856178283691,0.22791635990142822,1.482353687286377
1750935443356454700,23.46645458984375,10.807781219482422,0.1657029688358307,1.0133603811264038
1750935443375279000,23.485279052734374,10.137791633605957,-0.1453639715909958,0.8315058946609497
1750935443394103800,23.504103759765623,11.190633773803711,-0.26500511169433594,-0.17347964644432068
1750935443412928500,23.522928466796873,11.262417793273926,-0.4468596279621124,-0.13519448041915894
1750935443431753200,23.541753173828123,10.113862991333008,-0.1501496136188507,-0.48454657196998596
1750935443450577700,23.56057763671875,9.764511108398438,-0.26979073882102966,-0.9248259663581848
1750935443469402400,23.57940234375,8.711668968200684,-0.494716078042984,-1.3363914489746094
1750935443488227000,23.59822705078125,9.721440315246582,-0.4420739710330963,-2.063809633255005
1750935443507051500,23.617051513671875,11.525628089904785,-0.40378883481025696,-2.0829520225524902
1750935443525876200,23.635876220703125,11.956336975097656,-0.2027917206287384,-1.5134602785110474
1750935443544701000,23.654700927734375,11.157134056091309,-0.25064817070961,-0.98703932762146
1750935443563525400,23.673525390625,9.501300811767578,-0.21714866161346436,-1.2167502641677856
1750935443582350000,23.69235009765625,8.644669532775879,-0.7004988193511963,-0.9152546525001526
1750935443601174800,23.7111748046875,9.616155624389648,-0.6430711150169373,-0.7573283910751343
1750935443619999200,23.729999267578126,10.836495399475098,-0.42771705985069275,0.04187439754605293
1750935443638824000,23.748823974609376,11.037492752075195,-0.14057832956314087,0.7501499056816101
1750935443657648600,23.767648681640626,10.439287185668945,0.1944168359041214,1.3148560523986816
1750935443676473300,23.786473388671876,8.338388442993164,-0.48514479398727417,2.434697151184082
1750935443695297800,23.8052978515625,8.558527946472168,-0.3320041298866272,2.3772692680358887
1750935443714122500,23.82412255859375,10.37228775024414,-0.4707878530025482,2.0709879398345947
1750935443732947200,23.842947265625,10.702497482299805,-0.1740778535604477,2.8654050827026367
1750935443751771600,23.861771728515624,9.841081619262695,0.3284149169921875,3.339184045791626
1750935443770596400,23.880596435546874,8.194819450378418,0.34277185797691345,2.83669114112854
1750935443789421000,23.899421142578124,6.821339130401611,-0.4181457459926605,2.7457640171051025
1750935443808245500,23.91824560546875,6.093921184539795,-0.03529413416981697,1.9465612173080444
1750935443827070200,23.9370703125,8.405387878417969,-0.006580262444913387,1.8029918670654297
1750935443845895000,23.95589501953125,11.104491233825684,0.13698910176753998,1.8029918670654297
1750935443864719600,23.9747197265625,10.539785385131836,0.5150550603866577,1.7694923877716064
