time,seconds_elapsed,z,y,x
1751620571013256000,0.143255859375,9.806262969970703,0.005263018887490034,-0.08702124655246735
1751620571032079600,0.16207958984375,9.805727005004883,0.12281263619661331,-0.05500201880931854
1751620571060314600,0.190314697265625,9.805814743041992,0.08782169222831726,-0.0931316688656807
1751620571107373300,0.237373291015625,9.804951667785645,0.15241262316703796,-0.10042941570281982
1751620571135608600,0.265608642578125,9.804789543151855,0.15568509697914124,-0.11065654456615448
1751620571154432000,0.284431884765625,9.804970741271973,0.13789725303649902,-0.11806178092956543
1751620571173255400,0.30325537109375,9.804964065551758,0.14244261384010315,-0.11298348754644394
1751620571192079000,0.3220791015625,9.804862976074219,0.1566406935453415,-0.10261132568120956
1751620571210902500,0.340902587890625,9.804924964904785,0.1544383317232132,-0.09993971139192581
1751620571229726000,0.359725830078125,9.80509090423584,0.14058417081832886,-0.10402186214923859
1751620571248549400,0.37854931640625,9.805137634277344,0.13655799627304077,-0.10497082024812698
1751620571267372800,0.397372802734375,9.805000305175781,0.14798875153064728,-0.10233981907367706
1751620571286196200,0.4161962890625,9.804886817932129,0.1555403172969818,-0.10187399387359619
1751620571305020000,0.43502001953125,9.804900169372559,0.1517113298177719,-0.10637840628623962
1751620571323843300,0.45384326171875,9.80491828918457,0.1483103632926941,-0.1094900369644165
1751620571342666800,0.472666748046875,9.804850578308105,0.1533993035554886,-0.10838915407657623
1751620571361490200,0.491490234375,9.804765701293945,0.15997950732707977,-0.10664696991443634
1751620571380313900,0.51031396484375,9.804798126220703,0.15767250955104828,-0.1070396676659584
1751620571399137300,0.52913720703125,9.804885864257812,0.1514430046081543,-0.10802172869443893
1751620571417960700,0.547960693359375,9.804903984069824,0.15088558197021484,-0.10722683370113373
1751620571436784000,0.5667841796875,9.804858207702637,0.15531185269355774,-0.10496514290571213
1751620571455607600,0.585607666015625,9.804841995239258,0.15653979778289795,-0.10467872023582458
1751620571474431200,0.60443115234375,9.804872512817383,0.15371866524219513,-0.10597290098667145
1751620571493254700,0.623254638671875,9.80488109588623,0.1527150571346283,-0.10668866336345673
1751620571512078000,0.642078125,9.804824829101562,0.15677514672279358,-0.10598806291818619
1751620571530901500,0.660901611328125,9.804777145385742,0.15995556116104126,-0.10562005639076233
1751620571549725000,0.679724853515625,9.804789543151855,0.15849517285823822,-0.10663880407810211
1751620571568548600,0.698548583984375,9.804816246032715,0.15633025765419006,-0.10731029510498047
1751620571587372000,0.7173720703125,9.80482006072998,0.1569851189851761,-0.10595643520355225
1751620571606195500,0.736195556640625,9.804801940917969,0.15929050743579865,-0.10427757352590561
1751620571625019000,0.755018798828125,9.804821014404297,0.1582157015800476,-0.10413499176502228
1751620571643842600,0.773842529296875,9.804862022399902,0.1551937758922577,-0.10479596257209778
1751620571662666000,0.792666015625,9.804856300354004,0.1556699275970459,-0.10465718805789948
1751620571681489400,0.811489501953125,9.80481243133545,0.15872402489185333,-0.10413124412298203
1751620571700312800,0.830312744140625,9.804788589477539,0.15986715257167816,-0.1046927347779274
1751620571719136300,0.84913623046875,9.804804801940918,0.15843413770198822,-0.10532892495393753
1751620571737960000,0.8679599609375,9.804808616638184,0.15791849792003632,-0.10560227930545807
1751620571756783400,0.886783447265625,9.804790496826172,0.15961453318595886,-0.10488902032375336
1751620571775606800,0.905606689453125,9.804780960083008,0.16050171852111816,-0.10438361018896103
1751620571794430200,0.92443017578125,9.80480670928955,0.15907558798789978,-0.10417129099369049
1751620571813253600,0.943253662109375,9.804832458496094,0.157079815864563,-0.1046774759888649
1751620571832077300,0.962077392578125,9.804829597473145,0.15755346417427063,-0.10431690514087677
1751620571850900700,0.980900634765625,9.804798126220703,0.15963010489940643,-0.10414431989192963
1751620571869724200,0.99972412109375,9.804787635803223,0.15995344519615173,-0.10460318624973297
1751620571888547600,1.018547607421875,9.804792404174805,0.15890298783779144,-0.10571159422397614
1751620571907371300,1.037371337890625,9.804780006408691,0.15954218804836273,-0.10589515417814255
1751620571926194700,1.056194580078125,9.804750442504883,0.16151925921440125,-0.10563605278730392
1751620571945018000,1.07501806640625,9.80474853515625,0.1617099940776825,-0.10561596602201462
1751620571963841500,1.093841552734375,9.804774284362793,0.15974608063697815,-0.10606490820646286
1751620571982665200,1.112665283203125,9.804789543151855,0.15886415541172028,-0.10607846826314926
1751620572001488600,1.131488525390625,9.804784774780273,0.15966324508190155,-0.10526968538761139
1751620572020312000,1.15031201171875,9.80477237701416,0.16062024235725403,-0.10498372465372086
1751620572039135500,1.169135498046875,9.804780006408691,0.15982143580913544,-0.10548805445432663
1751620572057959000,1.187958984375,9.804787635803223,0.15893973410129547,-0.10610281676054001
1751620572076782600,1.206782470703125,9.804777145385742,0.15969233214855194,-0.10600094497203827
1751620572095606000,1.22560595703125,9.804755210876465,0.16107401251792908,-0.10600753128528595
1751620572114429400,1.244429443359375,9.804743766784668,0.1612444370985031,-0.10671386867761612
1751620572133252900,1.2632529296875,9.804752349853516,0.16028444468975067,-0.10741134732961655
1751620572152076500,1.28207666015625,9.804755210876465,0.16032874584197998,-0.10706540942192078
1751620572170900000,1.30089990234375,9.804750442504883,0.16105759143829346,-0.1063428521156311
1751620572189723400,1.319723388671875,9.804759979248047,0.16060709953308105,-0.10614767670631409
1751620572208546800,1.338546875,9.80477237701416,0.15960507094860077,-0.10660991072654724
1751620572227370200,1.357370361328125,9.804773330688477,0.1597040593624115,-0.10637535154819489
1751620572246194000,1.37619384765625,9.804763793945312,0.1605539470911026,-0.10586804896593094
1751620572265017300,1.395017333984375,9.8047513961792,0.1611686795949936,-0.10618805885314941
1751620572283840800,1.4138408203125,9.804752349853516,0.160739928483963,-0.10670106112957001
1751620572302664200,1.432664306640625,9.804757118225098,0.1603325754404068,-0.10688363015651703
1751620572321488000,1.45148779296875,9.804756164550781,0.1606893092393875,-0.10640545934438705
1751620572340311300,1.470311279296875,9.804749488830566,0.16137421131134033,-0.10600396245718002
1751620572359134700,1.489134765625,9.80475902557373,0.1609136313199997,-0.10581895709037781
1751620572377958100,1.507958251953125,9.804768562316895,0.16026106476783752,-0.10595238953828812
1751620572396781800,1.52678173828125,9.804763793945312,0.16049006581306458,-0.10600107908248901
1751620572415605200,1.545605224609375,9.804757118225098,0.16098490357398987,-0.10589507967233658
1751620572434428700,1.5644287109375,9.804754257202148,0.16103650629520416,-0.10605800151824951
1751620572453252000,1.583252197265625,9.804752349853516,0.16053710877895355,-0.10696735233068466
1751620572472075500,1.602075439453125,9.80474853515625,0.1607332080602646,-0.10703081637620926
1751620572490899200,1.620899169921875,9.804743766784668,0.16131266951560974,-0.10657990723848343
1751620572509722600,1.63972265625,9.804736137390137,0.16158808767795563,-0.10687560588121414
1751620572528546000,1.658546142578125,9.804744720458984,0.16103781759738922,-0.10689914971590042
1751620572547369500,1.677369384765625,9.804759979248047,0.16019995510578156,-0.10683926194906235
1751620572566193000,1.69619287109375,9.804756164550781,0.16056223213672638,-0.1065538227558136
1751620572585016600,1.7150166015625,9.804752349853516,0.16086314618587494,-0.10653845965862274
1751620572603840000,1.733840087890625,9.804755210876465,0.16083212196826935,-0.10625359416007996
1751620572622663400,1.752663330078125,9.804758071899414,0.16053561866283417,-0.10648217797279358
1751620572641486800,1.77148681640625,9.804750442504883,0.1608026921749115,-0.1066751778125763
1751620572660310500,1.790310546875,9.804742813110352,0.16141054034233093,-0.10654733330011368
1751620572679134000,1.809134033203125,9.804740905761719,0.16144241392612457,-0.10672729462385178
1751620572697957400,1.827957275390625,9.804743766784668,0.16113445162773132,-0.10683386772871017
1751620572716780800,1.84678076171875,9.8047456741333,0.16106924414634705,-0.10677502304315567
1751620572735604500,1.8656044921875,9.804743766784668,0.16150833666324615,-0.10628557950258255
1751620572754428000,1.884427978515625,9.804744720458984,0.16143974661827087,-0.10628366470336914
1751620572773251300,1.903251220703125,9.804747581481934,0.1613127738237381,-0.10616577416658401
1751620572792074800,1.92207470703125,9.804743766784668,0.16116963326931,-0.10679706931114197
1751620572810898200,1.940898193359375,9.80473518371582,0.16165359318256378,-0.10685864835977554
1751620572829721900,1.959721923828125,9.804737091064453,0.1617288440465927,-0.10664664208889008
1751620572848545300,1.978545166015625,9.804738998413086,0.16163623332977295,-0.10651403665542603
1751620572867368700,1.99736865234375,9.804742813110352,0.1615111380815506,-0.10636244714260101
1751620572886192000,2.016192138671875,9.804743766784668,0.161702498793602,-0.10592814534902573
1751620572905015600,2.035015625,9.804741859436035,0.161961168050766,-0.10574506968259811
1751620572923839200,2.053839111328125,9.804744720458984,0.16182191669940948,-0.10572487115859985
1751620572942662700,2.07266259765625,9.804753303527832,0.16137301921844482,-0.10559669137001038
1751620572961486000,2.091486083984375,9.804755210876465,0.16126371920108795,-0.10555442422628403
1751620572980309500,2.1103095703125,9.804741859436035,0.16219539940357208,-0.10541524738073349
1751620572999133200,2.12913330078125,9.8047456741333,0.16204802691936493,-0.10532812029123306
1751620573017956600,2.14795654296875,9.804749488830566,0.16198626160621643,-0.10516512393951416
1751620573036780000,2.166780029296875,9.804742813110352,0.1622397005558014,-0.10524285584688187
1751620573055603500,2.185603515625,9.804737091064453,0.16283150017261505,-0.10495427995920181
1751620573074427100,2.20442724609375,9.804731369018555,0.1633681058883667,-0.10457191616296768
1751620573093250600,2.22325048828125,9.804734230041504,0.16322781145572662,-0.10458875447511673
1751620573112074000,2.242073974609375,9.804732322692871,0.1631670594215393,-0.10484063625335693
1751620573130897400,2.2608974609375,9.804736137390137,0.1631159782409668,-0.10458192229270935
1751620573149720800,2.279720947265625,9.804734230041504,0.1633816361427307,-0.10436704009771347
1751620573168544500,2.29854443359375,9.804726600646973,0.16350983083248138,-0.1047857329249382
1751620573187368000,2.317367919921875,9.804729461669922,0.16325758397579193,-0.10495927184820175
1751620573206191400,2.33619140625,9.804718971252441,0.16362683475017548,-0.10536061972379684
1751620573225014800,2.355014892578125,9.80472183227539,0.1633242666721344,-0.10561706870794296
1751620573243838200,2.373838134765625,9.80471420288086,0.1636061817407608,-0.1058616191148758
1751620573262662000,2.392661865234375,9.804718017578125,0.16346195340156555,-0.10575231164693832
1751620573281485300,2.4114853515625,9.804718971252441,0.16342376172542572,-0.10564805567264557
1751620573300308700,2.430308837890625,9.80471420288086,0.16351404786109924,-0.10594278573989868
1751620573319132200,2.449132080078125,9.804713249206543,0.16355539858341217,-0.10607057064771652
1751620573337955800,2.467955810546875,9.804716110229492,0.16333404183387756,-0.10603747516870499
1751620573356779300,2.486779296875,9.804725646972656,0.16296368837356567,-0.10574489086866379
1751620573375602700,2.505602783203125,9.804713249206543,0.16337142884731293,-0.106268972158432
1751620573394426000,2.524426025390625,9.804717063903809,0.1635446697473526,-0.1056855246424675
1751620573413249500,2.54324951171875,9.804716110229492,0.1635611206293106,-0.10566792637109756
1751620573432073200,2.5620732421875,9.804717063903809,0.16384166479110718,-0.10521209985017776
1751620573450896600,2.580896728515625,9.80471420288086,0.16398294270038605,-0.10524057596921921
1751620573469720000,2.599719970703125,9.804722785949707,0.16319876909255981,-0.10566006600856781
1751620573488543500,2.61854345703125,9.80472469329834,0.16251306235790253,-0.10650705546140671
1751620573507367000,2.637366943359375,9.804719924926758,0.16287003457546234,-0.10646536201238632
1751620573526190600,2.656190673828125,9.80470085144043,0.1642346829175949,-0.10610675811767578
1751620573545014000,2.675013916015625,9.804695129394531,0.16456836462020874,-0.10618386417627335
1751620573563837400,2.69383740234375,9.804709434509277,0.16364748775959015,-0.10627461224794388
1751620573582660900,2.712660888671875,9.804717063903809,0.16326169669628143,-0.10612675547599792
1751620573601484300,2.731484375,9.804718971252441,0.1636359840631485,-0.10534494370222092
1751620573620308000,2.750307861328125,9.80472183227539,0.16368089616298676,-0.10497795045375824
1751620573639131400,2.76913134765625,9.804740905761719,0.16251921653747559,-0.10506103187799454
1751620573657954800,2.787954833984375,9.804743766784668,0.1619691103696823,-0.10560980439186096
1751620573676778200,2.8067783203125,9.804738998413086,0.16243286430835724,-0.10535883158445358
1751620573695602000,2.825601806640625,9.804720878601074,0.16342605650424957,-0.10551516711711884
1751620573714425300,2.84442529296875,9.804713249206543,0.16362826526165009,-0.10589203238487244
1751620573733248800,2.863248779296875,9.80472469329834,0.16277845203876495,-0.10610092431306839
1751620573752072200,2.882072265625,9.804722785949707,0.16320540010929108,-0.1056799441576004
1751620573770895600,2.9008955078125,9.804716110229492,0.16370071470737457,-0.10546580702066422
1751620573789719300,2.91971923828125,9.804723739624023,0.16341689229011536,-0.10521525144577026
1751620573808542700,2.938542724609375,9.804743766784668,0.16233524680137634,-0.10505536943674088
1751620573827366100,2.9573662109375,9.804740905761719,0.16241960227489471,-0.10524846613407135
1751620573846189600,2.976189453125,9.80473518371582,0.16289135813713074,-0.10501038283109665
1751620573865013000,2.995012939453125,9.804727554321289,0.16323654353618622,-0.10517485439777374
1751620573883836700,3.013836669921875,9.804728507995605,0.1629430055618286,-0.10556527227163315
1751620573902660000,3.03266015625,9.804716110229492,0.16337189078330994,-0.1059887483716011
1751620573921483500,3.0514833984375,9.804708480834961,0.1639709770679474,-0.10577145963907242
1751620573940307000,3.070306884765625,9.804704666137695,0.1645168513059616,-0.10532636195421219
1751620573959130600,3.089130615234375,9.804708480834961,0.16410362720489502,-0.10558576136827469
1751620573977954000,3.1079541015625,9.804713249206543,0.16377565264701843,-0.10565365105867386
1751620573996777500,3.126777587890625,9.804719924926758,0.16361220180988312,-0.1053253710269928
1751620574015601000,3.145600830078125,9.804720878601074,0.16380919516086578,-0.1048840880393982
1751620574034424300,3.16442431640625,9.804733276367188,0.1632671058177948,-0.10453759133815765
1751620574053248000,3.183248046875,9.804734230041504,0.1630779206752777,-0.10479006171226501
1751620574072071400,3.202071533203125,9.80472469329834,0.16355837881565094,-0.10488326102495193
1751620574090894800,3.220894775390625,9.804710388183594,0.16422419250011444,-0.10520206391811371
1751620574119130000,3.249130126953125,9.804709434509277,0.16433241963386536,-0.10516639798879623
1751620574137953500,3.26795361328125,9.804715156555176,0.16384781897068024,-0.10539872199296951
1751620574156777000,3.28677685546875,9.804722785949707,0.16338315606117249,-0.10534469783306122
1751620574175600400,3.305600341796875,9.804734230041504,0.16292986273765564,-0.10505439341068268
1751620574194424000,3.324424072265625,9.804740905761719,0.16252104938030243,-0.10508664697408676
1751620574213247500,3.34324755859375,9.804755210876465,0.16189730167388916,-0.1047000139951706
1751620574232071000,3.36207080078125,9.804749488830566,0.16218680143356323,-0.10479078441858292
1751620574250894300,3.380894287109375,9.804740905761719,0.1626727133989334,-0.10477364808320999
1751620574269717800,3.3997177734375,9.804732322692871,0.1630304753780365,-0.10502209514379501
1751620574288541400,3.41854150390625,9.804726600646973,0.16325496137142181,-0.10526323318481445
1751620574307364900,3.43736474609375,9.804712295532227,0.16395927965641022,-0.1054130271077156
1751620574326188300,3.456188232421875,9.804723739624023,0.16356708109378815,-0.10501251369714737
1751620574345011700,3.47501171875,9.804730415344238,0.1633492112159729,-0.10459189116954803
1751620574363835100,3.493835205078125,9.804740905761719,0.16273967921733856,-0.1046866625547409
1751620574382658800,3.512658935546875,9.804755210876465,0.16222907602787018,-0.10420132428407669
1751620574401482200,3.531482177734375,9.804757118225098,0.16203661262989044,-0.1043136790394783
1751620574420305700,3.5503056640625,9.804757118225098,0.16213193535804749,-0.10418138653039932
1751620574439129000,3.569129150390625,9.804746627807617,0.16269725561141968,-0.10429483652114868
1751620574457952800,3.587952880859375,9.80473518371582,0.16319267451763153,-0.10448949038982391
1751620574476776200,3.606776123046875,9.804729461669922,0.16345573961734772,-0.10467158257961273
1751620574495599600,3.625599609375,9.804728507995605,0.16335467994213104,-0.10491928458213806
1751620574514423000,3.644423095703125,9.804728507995605,0.16345636546611786,-0.10477300733327866
1751620574533246500,3.66324658203125,9.804734230041504,0.1630845069885254,-0.10470644384622574
1751620574552070000,3.68206982421875,9.804747581481934,0.1624915450811386,-0.1044439747929573
1751620574570893600,3.7008935546875,9.804744720458984,0.16264572739601135,-0.10447084158658981
1751620574589717000,3.719717041015625,9.804750442504883,0.16229702532291412,-0.10456083714962006
1751620574608540400,3.73854052734375,9.804742813110352,0.16242340207099915,-0.10500077158212662
1751620574627363800,3.75736376953125,9.804749488830566,0.16218744218349457,-0.10469559580087662
1751620574646187300,3.776187255859375,9.8047456741333,0.16242626309394836,-0.10474177449941635
1751620574665011000,3.795010986328125,9.804743766784668,0.16255715489387512,-0.10475500673055649
1751620574683834400,3.81383447265625,9.804746627807617,0.16244745254516602,-0.10453281551599503
1751620574702657800,3.83265771484375,9.804749488830566,0.16210605204105377,-0.10494116693735123
1751620574721481200,3.851481201171875,9.80474853515625,0.16204717755317688,-0.105103999376297
1751620574740305000,3.870304931640625,9.804747581481934,0.16214148700237274,-0.1050598993897438
1751620574759128300,3.88912841796875,9.8047513961792,0.1618453413248062,-0.10501507669687271
1751620574777951700,3.90795166015625,9.804754257202148,0.161794051527977,-0.10494666546583176
1751620574796775200,3.926775146484375,9.804758071899414,0.16159206628799438,-0.10487791150808334
1751620574815598600,3.9455986328125,9.804759979248047,0.1614600419998169,-0.10496100783348083
1751620574834422000,3.964422119140625,9.804754257202148,0.1616392433643341,-0.10504192113876343
1751620574853245700,3.98324560546875,9.804755210876465,0.16135971248149872,-0.10554496198892593
1751620574872069000,4.002069091796875,9.80474853515625,0.1614735722541809,-0.10584001988172531
1751620574890892500,4.020892578125,9.804742813110352,0.16186819970607758,-0.10589340329170227
1751620574909716000,4.039716064453125,9.804742813110352,0.1620921492576599,-0.1055515706539154
1751620574928539600,4.05853955078125,9.804741859436035,0.16192415356636047,-0.10585138946771622
1751620574947363000,4.077363037109375,9.804752349853516,0.16155250370502472,-0.10551173239946365
1751620574966186500,4.0961865234375,9.804753303527832,0.16159459948539734,-0.10526955127716064
1751620574985010000,4.115010009765625,9.804757118225098,0.16144059598445892,-0.10514410585165024
1751620575003833300,4.133833251953125,9.804754257202148,0.16147883236408234,-0.10541164129972458
1751620575022656800,4.15265673828125,9.804753303527832,0.16148240864276886,-0.10543480515480042
1751620575041480400,4.17148046875,9.80474853515625,0.1617514193058014,-0.10551073402166367
1751620575060304000,4.190303955078125,9.804743766784668,0.16198091208934784,-0.10557395219802856
1751620575079127300,4.209127197265625,9.804747581481934,0.1619982123374939,-0.10516591370105743
1751620575097950700,4.22795068359375,9.804757118225098,0.16162286698818207,-0.10500919073820114
1751620575116774100,4.246774169921875,9.804762840270996,0.16149456799030304,-0.10458160191774368
1751620575135597800,4.265597900390625,9.80476188659668,0.16176337003707886,-0.10416442155838013
1751620575154421200,4.284421142578125,9.804767608642578,0.1614397019147873,-0.10419300943613052
1751620575173244700,4.30324462890625,9.80477523803711,0.1609286516904831,-0.10427220910787582
1751620575192068000,4.322068115234375,9.80477237701416,0.1611916571855545,-0.1041920855641365
1751620575210891500,4.3408916015625,9.804757118225098,0.1619909256696701,-0.10422590374946594
1751620575229715200,4.359715087890625,9.804749488830566,0.16240960359573364,-0.10436876118183136
1751620575248538600,4.37853857421875,9.804756164550781,0.16168373823165894,-0.10494454950094223
1751620575267362000,4.397362060546875,9.804769515991211,0.16132403910160065,-0.10424696654081345
1751620575286185500,4.416185546875,9.804769515991211,0.16147778928279877,-0.10399877279996872
1751620575305009000,4.4350087890625,9.804777145385742,0.1611151546239853,-0.10383003950119019
1751620575323832300,4.453832275390625,9.804788589477539,0.1605071723461151,-0.10363779217004776
1751620575342656000,4.472656005859375,9.804790496826172,0.16046682000160217,-0.10356608033180237
1751620575361479400,4.4914794921875,9.804777145385742,0.16120636463165283,-0.10362254083156586
1751620575380302800,4.510302734375,9.80476188659668,0.16176101565361023,-0.10425332933664322
1751620575399126300,4.529126220703125,9.804760932922363,0.16152119636535645,-0.1047489121556282
1751620575417950000,4.547949951171875,9.80476188659668,0.16143664717674255,-0.10472702980041504
1751620575436773400,4.5667734375,9.804755210876465,0.161912739276886,-0.10463021695613861
1751620575455596800,4.5855966796875,9.804753303527832,0.1621328592300415,-0.10444103926420212
1751620575474420200,4.604420166015625,9.80475902557373,0.16183827817440033,-0.1043434888124466
1751620575493243600,4.62324365234375,9.804773330688477,0.16138945519924164,-0.10375270992517471
1751620575512067000,4.642067138671875,9.804777145385742,0.16124257445335388,-0.10357154905796051
1751620575530890800,4.660890869140625,9.80477237701416,0.1615232229232788,-0.10358121246099472
1751620575549714200,4.679714111328125,9.80477523803711,0.16113150119781494,-0.1039799377322197
1751620575568537600,4.69853759765625,9.804769515991211,0.16117559373378754,-0.10440868884325027
1751620575587361000,4.717361083984375,9.804760932922363,0.16145305335521698,-0.10479375720024109
1751620575606184400,4.736184326171875,9.804752349853516,0.16215844452381134,-0.10449137538671494
1751620575625008000,4.755008056640625,9.8047456741333,0.16237419843673706,-0.10489940643310547
1751620575643831600,4.77383154296875,9.804743766784668,0.16227427124977112,-0.10506273806095123
1751620575662655000,4.792655029296875,9.804749488830566,0.1621728092432022,-0.104831762611866
1751620575681478400,4.811478515625,9.804753303527832,0.16216228902339935,-0.10445524752140045
1751620575700301800,4.8303017578125,9.804753303527832,0.16217786073684692,-0.10440703481435776
1751620575719125500,4.84912548828125,9.8047513961792,0.16206319630146027,-0.10470043867826462
1751620575737949000,4.867948974609375,9.80474853515625,0.16181498765945435,-0.10537056624889374
1751620575756772400,4.8867724609375,9.804739952087402,0.16223467886447906,-0.1056007370352745
1751620575775595800,4.905595703125,9.804728507995605,0.1629170924425125,-0.1055891215801239
1751620575794419200,4.924419189453125,9.804730415344238,0.1627892702817917,-0.10560593008995056
1751620575813242600,4.94324267578125,9.804739952087402,0.1622781753540039,-0.10551350563764572
1751620575832066300,4.96206640625,9.804742813110352,0.16217783093452454,-0.10534556955099106
1751620575850889700,4.9808896484375,9.804741859436035,0.16234907507896423,-0.10529167205095291
1751620575869713200,4.999713134765625,9.804749488830566,0.16172680258750916,-0.10551542788743973
1751620575888536600,5.01853662109375,9.804764747619629,0.1608968824148178,-0.10535061359405518
1751620575907360300,5.0373603515625,9.804766654968262,0.16095566749572754,-0.10503339767456055
1751620575926183700,5.05618359375,9.804753303527832,0.16180004179477692,-0.10496710240840912
1751620575945007000,5.075007080078125,9.804750442504883,0.16187530755996704,-0.10509392619132996
1751620575963830500,5.09383056640625,9.8047513961792,0.16184933483600616,-0.10502003878355026
1751620575982654000,5.112654052734375,9.804754257202148,0.16176843643188477,-0.1049496978521347
1751620576001477400,5.131477294921875,9.8047456741333,0.1623113453388214,-0.10487820208072662
1751620576020301000,5.150301025390625,9.804739952087402,0.16255956888198853,-0.10515705496072769
1751620576039124500,5.16912451171875,9.804747581481934,0.16213731467723846,-0.10500001907348633
1751620576067359700,5.19735986328125,9.804758071899414,0.16159208118915558,-0.10483389347791672
1751620576086183200,5.21618310546875,9.804756164550781,0.16170351207256317,-0.10487829148769379
1751620576105006600,5.235006591796875,9.804749488830566,0.16169580817222595,-0.10543408989906311
1751620576123830000,5.253830078125,9.804750442504883,0.16164688766002655,-0.10550262033939362
1751620576142653400,5.2726533203125,9.804741859436035,0.16180507838726044,-0.10603716224431992
1751620576161477000,5.29147705078125,9.804736137390137,0.1624215990304947,-0.10569292306900024
1751620576180300500,5.310300537109375,9.804732322692871,0.16280481219291687,-0.10538741201162338
1751620576199124000,5.3291240234375,9.80473804473877,0.16248351335525513,-0.10537990927696228
1751620576217947400,5.347947509765625,9.804746627807617,0.16198505461215973,-0.10536964982748032
1751620576236770800,5.366770751953125,9.804744720458984,0.16189412772655487,-0.10567332059144974
1751620576255594200,5.38559423828125,9.804739952087402,0.1623402088880539,-0.10534986853599548
1751620576274418000,5.40441796875,9.804736137390137,0.1625310480594635,-0.10545384138822556
1751620576293241300,5.423241455078125,9.804738998413086,0.16222193837165833,-0.10570980608463287
1751620576312064800,5.442064697265625,9.804728507995605,0.16277670860290527,-0.10581936687231064
1751620576330888200,5.46088818359375,9.804717063903809,0.16339126229286194,-0.10587192326784134
1751620576349712000,5.4797119140625,9.804713249206543,0.16364525258541107,-0.10581754893064499
1751620576368535300,5.498535400390625,9.804715156555176,0.163451686501503,-0.10595037788152695
1751620576387358700,5.517358642578125,9.80471420288086,0.16344842314720154,-0.10607539862394333
1751620576406182100,5.53618212890625,9.804717063903809,0.16332919895648956,-0.10592799633741379
1751620576425005600,5.555005615234375,9.80471420288086,0.1635090857744217,-0.10597861558198929
1751620576443829000,5.5738291015625,9.804715156555176,0.16352154314517975,-0.10587052255868912
1751620576462652700,5.592652587890625,9.804718971252441,0.16322879493236542,-0.10600214451551437
1751620576481476000,5.61147607421875,9.804717063903809,0.16325432062149048,-0.10613381117582321
1751620576509711400,5.63971142578125,9.804713249206543,0.16351550817489624,-0.10608381778001785
1751620576528534800,5.65853466796875,9.80471420288086,0.1632242500782013,-0.106400266289711
1751620576547358200,5.677358154296875,9.804717063903809,0.16320163011550903,-0.10620255023241043
1751620576566181600,5.696181640625,9.804715156555176,0.1631532609462738,-0.10640474408864975
1751620576585005000,5.715005126953125,9.804720878601074,0.16286630928516388,-0.10636310279369354
1751620576603828700,5.733828857421875,9.804725646972656,0.16267022490501404,-0.10609123110771179
1751620576622652200,5.752652099609375,9.804732322692871,0.16242560744285583,-0.10602669417858124
1751620576641475600,5.7714755859375,9.804736137390137,0.1624286025762558,-0.10560889542102814
1751620576660299000,5.790299072265625,9.804738998413086,0.16220049560070038,-0.10572180896997452
1751620576679122400,5.809122314453125,9.80473804473877,0.1622563898563385,-0.10566988587379456
1751620576697945900,5.82794580078125,9.804734230041504,0.1625763326883316,-0.1055721566081047
1751620576716769500,5.84676953125,9.804729461669922,0.16292700171470642,-0.10547508299350739
1751620576735593000,5.865593017578125,9.804729461669922,0.16330282390117645,-0.10491661727428436
1751620576754416400,5.88441650390625,9.8047456741333,0.1626226007938385,-0.10433356463909149
1751620576773239800,5.90323974609375,9.804755210876465,0.16238631308078766,-0.10389222949743271
1751620576792063200,5.922063232421875,9.804760932922363,0.16218365728855133,-0.1037324070930481
1751620576810887000,5.940886962890625,9.804756164550781,0.16261479258537292,-0.10346616804599762
1751620576829710300,5.95971044921875,9.804749488830566,0.1629956066608429,-0.10346940159797668
1751620576848533800,5.97853369140625,9.804744720458984,0.1631840169429779,-0.1036827564239502
1751620576867357200,5.997357177734375,9.804738998413086,0.16328983008861542,-0.10404384136199951
1751620576886180600,6.0161806640625,9.804732322692871,0.16373810172080994,-0.10392425954341888
1751620576905004000,6.035004150390625,9.804732322692871,0.16377755999565125,-0.10388436168432236
1751620576923827700,6.05382763671875,9.804732322692871,0.1636112928390503,-0.1041608601808548
1751620576942651100,6.072651123046875,9.804743766784668,0.16276207566261292,-0.10438145697116852
1751620576961474600,6.091474609375,9.80474853515625,0.16260698437690735,-0.10409847646951675
1751620576980298000,6.110298095703125,9.8047456741333,0.1626809686422348,-0.10432412475347519
1751620576999121700,6.12912158203125,9.804752349853516,0.16219723224639893,-0.1045052707195282
1751620577017945000,6.147945068359375,9.804752349853516,0.16205231845378876,-0.10471262782812119
1751620577036768500,6.1667685546875,9.804757118225098,0.16182823479175568,-0.1045660451054573
1751620577055592000,6.185592041015625,9.80474853515625,0.16229775547981262,-0.10466966032981873
1751620577074415400,6.204415283203125,9.804742813110352,0.16235268115997314,-0.10499821603298187
1751620577093238800,6.22323876953125,9.804743766784668,0.16225479543209076,-0.10512527078390121
1751620577112062500,6.2420625,9.804747581481934,0.1622711569070816,-0.10473230481147766
1751620577130886000,6.260885986328125,9.804746627807617,0.16236190497875214,-0.10466881841421127
1751620577149709300,6.279709228515625,9.80474853515625,0.16218259930610657,-0.10476589947938919
1751620577168532700,6.29853271484375,9.804756164550781,0.1617717146873474,-0.10478252917528152
1751620577187356200,6.317356201171875,9.804757118225098,0.16192196309566498,-0.10448553413152695
1751620577206179800,6.336179931640625,9.8047513961792,0.1623757779598236,-0.10427409410476685
1751620577225003300,6.355003173828125,9.804743766784668,0.16284224390983582,-0.10421963036060333
1751620577243826700,6.37382666015625,9.804742813110352,0.16283799707889557,-0.10440817475318909
1751620577262650000,6.392650146484375,9.804742813110352,0.16290798783302307,-0.10432251542806625
1751620577281473500,6.4114736328125,9.804743766784668,0.16297052800655365,-0.10414500534534454
1751620577300297000,6.430296875,9.804746627807617,0.1628798544406891,-0.10386355221271515
1751620577319120600,6.44912060546875,9.804750442504883,0.16267946362495422,-0.1039792150259018
1751620577337944000,6.467944091796875,9.804757118225098,0.16237083077430725,-0.10378921031951904
1751620577356767500,6.486767578125,9.8047513961792,0.1627734899520874,-0.10363902151584625
1751620577375591000,6.5055908203125,9.804742813110352,0.16289182007312775,-0.10416025668382645
1751620577394414300,6.524414306640625,9.804739952087402,0.16303972899913788,-0.10427337139844894
1751620577413238000,6.543238037109375,9.804742813110352,0.1627608984708786,-0.10446775704622269
1751620577432061400,6.5620615234375,9.804743766784668,0.16272085905075073,-0.10448895394802094
1751620577450884900,6.580884765625,9.804744720458984,0.16274315118789673,-0.10439878702163696
1751620577469708300,6.599708251953125,9.80474853515625,0.16274160146713257,-0.10395540297031403
1751620577488531700,6.61853173828125,9.804760932922363,0.16215579211711884,-0.10364563763141632
1751620577507355100,6.637355224609375,9.804763793945312,0.16221055388450623,-0.10337850451469421
1751620577526178800,6.6561787109375,9.804759979248047,0.16234466433525085,-0.1034354716539383
1751620577545002200,6.675002197265625,9.804765701293945,0.1620871126651764,-0.1033378541469574
1751620577563825700,6.69382568359375,9.804758071899414,0.16245169937610626,-0.10355886816978455
1751620577582649000,6.712649169921875,9.804747581481934,0.16277138888835907,-0.10395564138889313
1751620577601472800,6.73147265625,9.804749488830566,0.16265861690044403,-0.10402987152338028
1751620577620296200,6.750296142578125,9.804752349853516,0.16250553727149963,-0.10402553528547287
1751620577639119600,6.76911962890625,9.804747581481934,0.1627802550792694,-0.10398665070533752
1751620577657943000,6.787943115234375,9.804749488830566,0.16281574964523315,-0.10371463000774384
1751620577676766500,6.806766357421875,9.80474853515625,0.16280598938465118,-0.10379721969366074
1751620577695590000,6.82558984375,9.804749488830566,0.1626410335302353,-0.10400213301181793
1751620577714413600,6.84441357421875,9.804750442504883,0.16263771057128906,-0.10391445457935333
1751620577733237000,6.863237060546875,9.80474853515625,0.1628708392381668,-0.10372351109981537
1751620577752060400,6.882060302734375,9.804756164550781,0.162438303232193,-0.10369738191366196
1751620577770883800,6.9008837890625,9.804758071899414,0.1622576266527176,-0.10382568091154099
1751620577789707300,6.919707275390625,9.804758071899414,0.1625053435564041,-0.10348743945360184
1751620577808531000,6.938531005859375,9.804758071899414,0.16253602504730225,-0.10335441678762436
1751620577827354400,6.957354248046875,9.804755210876465,0.16250967979431152,-0.10368220508098602
1751620577846177800,6.976177734375,9.80475902557373,0.16219991445541382,-0.10385741293430328
1751620577865001200,6.995001220703125,9.804773330688477,0.16155211627483368,-0.1035076230764389
1751620577883824600,7.01382470703125,9.804780006408691,0.16128072142601013,-0.10325788706541061
1751620577902648000,7.03264794921875,9.804786682128906,0.16097846627235413,-0.10316285490989685
1751620577921471700,7.0514716796875,9.804784774780273,0.16091333329677582,-0.10330349951982498
1751620577940295200,7.070295166015625,9.804787635803223,0.16069799661636353,-0.10351863503456116
1751620577959118600,7.08911865234375,9.804780006408691,0.1609150618314743,-0.10384120792150497
1751620577977942000,7.10794189453125,9.804774284362793,0.16112488508224487,-0.10407213121652603
1751620577996765400,7.126765380859375,9.804770469665527,0.16114121675491333,-0.104420967400074
1751620578015589000,7.145589111328125,9.804766654968262,0.1612664759159088,-0.10460198670625687
1751620578034412500,7.16441259765625,9.804764747619629,0.16130705177783966,-0.10466617345809937
1751620578053236000,7.183236083984375,9.80477237701416,0.1610422432422638,-0.10434076935052872
1751620578072059400,7.202059326171875,9.804771423339844,0.16121047735214233,-0.10406338423490524
1751620578090882800,7.2208828125,9.80477237701416,0.1612091362476349,-0.10410486161708832
1751620578109706500,7.23970654296875,9.804770469665527,0.16122420132160187,-0.10422196984291077
1751620578128530000,7.258530029296875,9.804763793945312,0.1616392731666565,-0.10417955368757248
1751620578147353300,7.277353271484375,9.80475902557373,0.161796435713768,-0.10444619506597519
1751620578166176800,7.2961767578125,9.804765701293945,0.16147565841674805,-0.10431613028049469
1751620578185000200,7.315000244140625,9.804768562316895,0.16156333684921265,-0.10395863652229309
1751620578203823600,7.33382373046875,9.804774284362793,0.1614091694355011,-0.10364203155040741
1751620578222647300,7.352647216796875,9.804779052734375,0.16129153966903687,-0.10337911546230316
1751620578241470700,7.371470703125,9.804780960083008,0.16122500598430634,-0.10320186614990234
1751620578260294100,7.390294189453125,9.804778099060059,0.1614222228527069,-0.10326360911130905
1751620578279117600,7.40911767578125,9.804777145385742,0.1613846868276596,-0.10348426550626755
1751620578297941200,7.427941162109375,9.804771423339844,0.16162656247615814,-0.10346508026123047
1751620578316764700,7.4467646484375,9.804763793945312,0.16213135421276093,-0.1034458801150322
1751620578335588000,7.465588134765625,9.80475902557373,0.16222615540027618,-0.10381852090358734
1751620578354411500,7.48441162109375,9.804755210876465,0.1623639315366745,-0.10386710613965988
1751620578373235000,7.50323486328125,9.804756164550781,0.16218070685863495,-0.10406715422868729
1751620578392058600,7.52205859375,9.804757118225098,0.16195884346961975,-0.10441429167985916
1751620578410882000,7.540882080078125,9.804754257202148,0.16210432350635529,-0.10436796396970749
1751620578429705500,7.55970556640625,9.804752349853516,0.162278950214386,-0.10434778034687042
1751620578448529000,7.57852880859375,9.8047513961792,0.16244907677173615,-0.10414369404315948
1751620578467352300,7.597352294921875,9.804754257202148,0.1623469442129135,-0.10413648933172226
1751620578486176000,7.616176025390625,9.804744720458984,0.1627182811498642,-0.10441117733716965
1751620578504999400,7.63499951171875,9.804741859436035,0.16255776584148407,-0.10482566803693771
1751620578523822800,7.65382275390625,9.804742813110352,0.1626441776752472,-0.10460568964481354
1751620578542646300,7.672646240234375,9.804692268371582,0.16373209655284882,-0.10767862945795059
1751620578561469700,7.6914697265625,9.80466079711914,0.16507263481616974,-0.10854201763868332
1751620578580293400,7.71029345703125,9.804718971252441,0.16431860625743866,-0.10430502891540527
1751620578599116800,7.72911669921875,9.804657936096191,0.1650879979133606,-0.1087615042924881
1751620578617940200,7.747940185546875,9.80482006072998,0.16203093528747559,-0.09819696843624115
1751620578636763600,7.766763671875,9.804815292358398,0.16195334494113922,-0.0987238958477974
1751620578655587000,7.785587158203125,9.804864883422852,0.16052460670471191,-0.09614787250757217
1751620578674410800,7.80441064453125,9.80492115020752,0.15832018852233887,-0.09401755779981613
1751620578693234200,7.823234130859375,9.805030822753906,0.15526916086673737,-0.08742651343345642
1751620578712057600,7.8420576171875,9.805269241333008,0.1497277468442917,-0.06839956343173981
1751620578730881000,7.860881103515625,9.805355072021484,0.14754432439804077,-0.06038127467036247
1751620578749704400,7.879704345703125,9.805185317993164,0.15258964896202087,-0.0738452598452568
1751620578768528100,7.898528076171875,9.80509090423584,0.15519551932811737,-0.08059863746166229
1751620578787351600,7.9173515625,9.805096626281738,0.15563462674617767,-0.0790354385972023
1751620578806175000,7.936175048828125,9.805148124694824,0.1545456200838089,-0.07476617395877838
1751620578824998400,7.954998291015625,9.805203437805176,0.15270332992076874,-0.07113993167877197
1751620578843822000,7.973822021484375,9.80522632598877,0.1511961668729782,-0.07121783494949341
1751620578862645500,7.9926455078125,9.80518913269043,0.15196439623832703,-0.07461462169885635
1751620578881469000,8.011468994140625,9.805110931396484,0.15393975377082825,-0.08059725165367126
1751620578900292400,8.030292236328124,9.805084228515625,0.154652938246727,-0.08240539580583572
1751620578919116000,8.049115966796874,9.805057525634766,0.15509434044361115,-0.08475202322006226
1751620578937939500,8.067939453125,9.804986953735352,0.1564405858516693,-0.09028486162424088
1751620578956763000,8.086762939453125,9.804924011230469,0.158189594745636,-0.09394174069166183
1751620578975586300,8.10558642578125,9.804829597473145,0.15984222292900085,-0.10075260698795319
1751620578994409700,8.12440966796875,9.804802894592285,0.15965040028095245,-0.10360289365053177
1751620579013233400,8.1432333984375,9.804815292358398,0.15894536674022675,-0.10354921221733093
1751620579032056800,8.162056884765626,9.804840087890625,0.15808779001235962,-0.10246957093477249
1751620579050880300,8.18088037109375,9.804902076721191,0.15559683740139008,-0.10039174556732178
1751620579069703700,8.19970361328125,9.805272102355957,0.1404692828655243,-0.08543278276920319
1751620579088527000,8.218527099609375,9.805492401123047,0.13189436495304108,-0.07281298190355301
1751620579107350800,8.237350830078125,9.80548095703125,0.13465574383735657,-0.06921641528606415
1751620579135586000,8.2655859375,9.80530834197998,0.1437852680683136,-0.07510291785001755
1751620579154409500,8.284409423828125,9.805180549621582,0.14782477915287018,-0.08351997286081314
1751620579173233000,8.30323291015625,9.805152893066406,0.14704257249832153,-0.08800957351922989
1751620579192056300,8.322056396484374,9.805326461791992,0.13922119140625,-0.08114820718765259
1751620579210880000,8.3408798828125,9.805688858032227,0.12198478728532791,-0.0629754289984703
1751620579229703400,8.359703369140625,9.805927276611328,0.10861820727586746,-0.04873775690793991
1751620579248526800,8.37852685546875,9.805960655212402,0.10537606477737427,-0.04914390295743942
1751620579267350300,8.397350341796875,9.805872917175293,0.10827577114105225,-0.05938207730650902
1751620579286173700,8.416173583984374,9.805691719055176,0.11620260775089264,-0.0728176161646843
1751620579304997400,8.434997314453126,9.8054838180542,0.1256326138973236,-0.08417027443647385
1751620579323820800,8.45382080078125,9.805384635925293,0.13161711394786835,-0.08652950078248978
1751620579342644200,8.472644287109375,9.805500984191895,0.12939806282520294,-0.07616131007671356
1751620579361467600,8.491467529296875,9.805755615234375,0.11935773491859436,-0.057407453656196594
1751620579380291300,8.510291259765625,9.805962562561035,0.10768741369247437,-0.043706972151994705
1751620579399114800,8.52911474609375,9.806035041809082,0.102395199239254,-0.03978133574128151
1751620579417938200,8.547938232421876,9.806005477905273,0.10425076633691788,-0.04215182736515999
1751620579436761600,8.56676171875,9.805974960327148,0.10713016986846924,-0.04196358099579811
1751620579455585000,8.5855849609375,9.805926322937012,0.11003152281045914,-0.04550064355134964
1751620579474408700,8.60440869140625,9.805917739868164,0.11081241816282272,-0.045755594968795776
1751620579493232000,8.623232177734375,9.805985450744629,0.1073136031627655,-0.03899068012833595
1751620579512055600,8.6420556640625,9.806046485900879,0.1040048599243164,-0.03176666796207428
1751620579530879000,8.66087890625,9.806038856506348,0.1035064160823822,-0.035791583359241486
1751620579549702700,8.67970263671875,9.805964469909668,0.10743393003940582,-0.043483030050992966
1751620579568526000,8.698526123046875,9.805867195129395,0.1130586788058281,-0.05062858387827873
1751620579587349500,8.717349609375,9.805776596069336,0.11834679543972015,-0.05600763484835625
1751620579606173200,8.736173095703125,9.805710792541504,0.12091454863548279,-0.06165240332484245
1751620579624996600,8.75499658203125,9.805685043334961,0.1211356520652771,-0.06526054441928864
1751620579643820000,8.773820068359376,9.805634498596191,0.12002811580896378,-0.07419996708631516
1751620579662643500,8.7926435546875,9.805670738220215,0.1158369928598404,-0.07608752697706223
1751620579681467100,8.811467041015625,9.805752754211426,0.11004456132650375,-0.07420527189970016
1751620579700290600,8.83029052734375,9.805902481079102,0.10323313623666763,-0.06333700567483902
1751620579719114000,8.849114013671874,9.8060941696167,0.09608941525220871,-0.040960442274808884
1751620579737937400,8.8679375,9.806167602539062,0.09240610152482986,-0.030343137681484222
1751620579756760800,8.8867607421875,9.80616569519043,0.09109655022621155,-0.03476665914058685
1751620579775584500,8.90558447265625,9.806118965148926,0.09182058274745941,-0.04472781717777252
1751620579794408000,8.924407958984375,9.806034088134766,0.09588135033845901,-0.05360855534672737
1751620579813231400,8.9432314453125,9.805878639221191,0.10502474755048752,-0.06412134319543839
1751620579832054800,8.9620546875,9.805800437927246,0.10944121330976486,-0.06846023350954056
1751620579850878500,8.98087841796875,9.805952072143555,0.10435028374195099,-0.05305037274956703
1751620579869702000,8.999701904296876,9.806145668029785,0.09522990882396698,-0.028776846826076508
1751620579888525300,9.018525390625,9.806221008300781,0.09077039361000061,-0.012988315895199776
1751620579907348700,9.0373486328125,9.806270599365234,0.08618246763944626,0.0032108400482684374
1751620579926172400,9.05617236328125,9.806305885314941,0.08009644597768784,0.01829061098396778
1751620579944995800,9.074995849609374,9.806310653686523,0.07924944162368774,0.01973949931561947
1751620579963819300,9.0938193359375,9.806275367736816,0.08501208573579788,0.010376032441854477
1751620579982642700,9.112642578125,9.806207656860352,0.09317056834697723,-0.0012200449127703905
1751620580001466400,9.13146630859375,9.806127548217773,0.10061588883399963,-0.011477517895400524
1751620580020289800,9.150289794921875,9.806121826171875,0.10047201812267303,-0.015979863703250885
1751620580039113200,9.16911328125,9.806182861328125,0.09452585875988007,-0.015313827432692051
1751620580057936600,9.1879365234375,9.806300163269043,0.08214030414819717,-0.010297716595232487
1751620580076760300,9.20676025390625,9.80639934539795,0.06908730417490005,-0.012302468530833721
1751620580095583700,9.225583740234375,9.806400299072266,0.06412828713655472,-0.028035959228873253
1751620580114407200,9.2444072265625,9.806346893310547,0.06430577486753464,-0.04256023094058037
1751620580133230600,9.263230712890625,9.806353569030762,0.06235557422041893,-0.0437605045735836
1751620580152054300,9.28205419921875,9.806382179260254,0.06192649528384209,-0.03786264732480049
1751620580170877700,9.300877685546874,9.806442260742188,0.060876041650772095,-0.01940462552011013
1751620580189701000,9.319701171875,9.806486129760742,0.056300800293684006,-0.007016282994300127
1751620580208524800,9.33852490234375,9.806492805480957,0.05403372645378113,-0.012602760456502438
1751620580227348200,9.35734814453125,9.806488037109375,0.0491255484521389,-0.02760624885559082
1751620580246171600,9.376171630859375,9.806476593017578,0.042422544211149216,-0.04001472517848015
1751620580264995000,9.3949951171875,9.806450843811035,0.040326327085494995,-0.04758445546030998
1751620580283818800,9.41381884765625,9.806400299072266,0.043279651552438736,-0.05496133863925934
1751620580302642200,9.43264208984375,9.80638599395752,0.04414249211549759,-0.05683678016066551
1751620580321465600,9.451465576171875,9.806392669677734,0.04363998398184776,-0.05604815110564232
1751620580340289300,9.470289306640625,9.806397438049316,0.042938776314258575,-0.05571196600794792
1751620580359112700,9.48911279296875,9.806406021118164,0.04165233299136162,-0.05528595671057701
1751620580377936100,9.50793603515625,9.806498527526855,0.037565529346466064,-0.039537522941827774
1751620580396759600,9.526759521484376,9.806561470031738,0.03874654322862625,-0.015470560640096664
1751620580415583200,9.545583251953126,9.806551933288574,0.04313782975077629,-0.007403707597404718
1751620580434406700,9.56440673828125,9.80653190612793,0.04679703712463379,-0.01122258324176073
1751620580453230000,9.58322998046875,9.806514739990234,0.04710355028510094,-0.020409787073731422
1751620580472053500,9.602053466796875,9.806489944458008,0.0493888333439827,-0.02639458328485489
1751620580490877200,9.620877197265624,9.80647087097168,0.05275537446141243,-0.02715727873146534
1751620580509700600,9.63970068359375,9.80644702911377,0.05736340209841728,-0.026614245027303696
1751620580528524000,9.65852392578125,9.806413650512695,0.06223387271165848,-0.02744613215327263
1751620580547347500,9.677347412109375,9.806391716003418,0.06419084966182709,-0.030589092522859573
1751620580566171100,9.696171142578125,9.806416511535645,0.062260933220386505,-0.026815570890903473
1751620580584994600,9.71499462890625,9.806437492370605,0.06252460926771164,-0.01641944609582424
1751620580603818000,9.73381787109375,9.806445121765137,0.0623183436691761,-0.01081207673996687
1751620580622641700,9.7526416015625,9.80645751953125,0.061146050691604614,-0.005527916830033064
1751620580641465000,9.771465087890626,9.8064603805542,0.06096188724040985,-0.0006211667787283659
1751620580660288500,9.79028857421875,9.806464195251465,0.060287367552518845,-0.0009949106024578214
1751620580679112000,9.80911181640625,9.806480407714844,0.057725634425878525,0.0002573195961304009
1751620580697935600,9.827935546875,9.806502342224121,0.053649336099624634,0.005642034579068422
1751620580716759000,9.846759033203124,9.806509971618652,0.049754951149225235,0.016498198732733727
1751620580735582500,9.86558251953125,9.806497573852539,0.04969179257750511,0.023040177300572395
1751620580754406100,9.88440625,9.806464195251465,0.053405337035655975,0.028463002294301987
1751620580773229600,9.9032294921875,9.806448936462402,0.05597994104027748,0.028704658150672913
1751620580792053000,9.922052978515625,9.806471824645996,0.05620509386062622,0.018572837114334106
1751620580810876400,9.94087646484375,9.806500434875488,0.052595146000385284,0.012916343286633492
1751620580829700000,9.9597001953125,9.806492805480957,0.04605889692902565,0.03118482045829296
1751620580848523500,9.9785234375,9.806459426879883,0.04317305237054825,0.04319177567958832
1751620580867347000,9.997346923828125,9.806447982788086,0.04736105352640152,0.04137725755572319
1751620580886170600,10.016170654296875,9.806458473205566,0.05236007645726204,0.031933464109897614
1751620580904994000,10.034994140625,9.806488990783691,0.052832189947366714,0.019288282841444016
1751620580923817500,10.0538173828125,9.806480407714844,0.05434565618634224,0.019393326714634895
1751620580942641000,10.072640869140624,9.806387901306152,0.05573827400803566,0.04526197910308838
1751620580961464600,10.091464599609376,9.806169509887695,0.04941859096288681,0.08360905945301056
1751620580980288000,10.1102880859375,9.805990219116211,0.0482705757021904,0.10303302109241486
1751620580999111400,10.129111328125,9.806120872497559,0.05193030834197998,0.08766629546880722
1751620581017935000,10.14793505859375,9.806319236755371,0.0516284741461277,0.06179555878043175
1751620581036758500,10.166758544921874,9.806406021118164,0.051131412386894226,0.04670484736561775
1751620581055582000,10.18558203125,9.806373596191406,0.057447344064712524,0.04609532281756401
1751620581074405400,10.2044052734375,9.80634880065918,0.06374387443065643,0.04321931302547455
1751620581093229000,10.22322900390625,9.806329727172852,0.06434502452611923,0.046372245997190475
1751620581112052500,10.242052490234375,9.806304931640625,0.062039755284786224,0.05396193638443947
1751620581130876000,10.2608759765625,9.806245803833008,0.06451887637376785,0.061380915343761444
1751620581149699600,10.279699462890624,9.806116104125977,0.07410305738449097,0.0705697238445282
1751620581168523000,10.29852294921875,9.806018829345703,0.08623096346855164,0.07039523124694824
1751620581187346400,10.317346435546876,9.806012153625488,0.09194561839103699,0.06371486186981201
1751620581206169900,10.336169921875,9.805999755859375,0.09384071081876755,0.0629265308380127
1751620581224993500,10.35499365234375,9.805950164794922,0.09905600547790527,0.06268506497144699
1751620581243817000,10.37381689453125,9.805998802185059,0.09789638966321945,0.056554101407527924
1751620581262640400,10.392640380859374,9.806036949157715,0.09124443680047989,0.06083479896187782
1751620581281464000,10.411464111328126,9.805949211120605,0.09228214621543884,0.07229632884263992
1751620581300287500,10.43028759765625,9.805902481079102,0.09855300933122635,0.07030660659074783
1751620581319111000,10.44911083984375,9.805974006652832,0.09987229853868484,0.05737117677927017
1751620581337934300,10.467934326171875,9.806020736694336,0.09891049563884735,0.050611063838005066
1751620581356758000,10.486758056640625,9.806049346923828,0.0947892963886261,0.05290219187736511
1751620581375581400,10.50558154296875,9.8060302734375,0.09165447950363159,0.06132917106151581
1751620581394404900,10.52440478515625,9.805883407592773,0.0989866703748703,0.07235398888587952
1751620581413228500,10.543228515625,9.805849075317383,0.10201425105333328,0.0729161947965622
1751620581432052000,10.562052001953125,9.805925369262695,0.10507594048976898,0.056406520307064056
1751620581450875400,10.58087548828125,9.805953025817871,0.10935050994157791,0.04127845540642738
1751620581469699000,10.599698974609375,9.805957794189453,0.10888391733169556,0.04156162589788437
1751620581488522500,10.6185224609375,9.80600643157959,0.10208126902580261,0.046914879232645035
1751620581507346000,10.637345947265626,9.806009292602539,0.09880297631025314,0.053006380796432495
1751620581526169300,10.65616943359375,9.805862426757812,0.11121191084384918,0.055654559284448624
1751620581544993000,10.674992919921875,9.805819511413574,0.12049749493598938,0.04211626201868057
1751620581563816400,10.69381640625,9.805846214294434,0.12326700240373611,0.02391265518963337
1751620581582639900,10.712639892578125,9.805845260620117,0.12447313964366913,0.017363594844937325
1751620581601463600,10.731463623046874,9.805874824523926,0.12059991806745529,0.025470837950706482
1751620581620287000,10.750286865234376,9.805825233459473,0.12260765582323074,0.0340886265039444
1751620581639110400,10.7691103515625,9.805756568908691,0.12718401849269867,0.03641212731599808
1751620581657933800,10.787933837890625,9.805732727050781,0.12990599870681763,0.03323237970471382
1751620581676757500,10.806757568359375,9.805746078491211,0.12750662863254547,0.03846333548426628
1751620581695581000,10.825580810546874,9.805737495422363,0.1254836469888687,0.04639524966478348
1751620581714404400,10.844404296875,9.805684089660645,0.12825119495391846,0.04989388957619667
1751620581733228000,10.86322802734375,9.805644035339355,0.13136446475982666,0.049877315759658813
1751620581752051500,10.882051513671875,9.805673599243164,0.12926095724105835,0.04943683370947838
1751620581770875000,10.900875,9.80572509765625,0.12430988252162933,0.0518648587167263
1751620581789698600,10.919698486328125,9.805709838867188,0.12493900209665298,0.053093429654836655
1751620581808522000,10.93852197265625,9.805681228637695,0.1304137408733368,0.04479510337114334
1751620581827345400,10.957345458984374,9.805611610412598,0.13739711046218872,0.03863712027668953
1751620581846168800,10.9761689453125,9.80557632446289,0.14103762805461884,0.03435206785798073
1751620581864992500,10.994992431640625,9.805620193481445,0.1371402144432068,0.03717589005827904
1751620581883816000,11.01381591796875,9.80562973022461,0.13511544466018677,0.04189201071858406
1751620581902639400,11.032639404296875,9.805521011352539,0.1418236941099167,0.044988736510276794
1751620581921463000,11.051463134765624,9.805421829223633,0.14904190599918365,0.043014731258153915
1751620581940286500,11.070286376953124,9.805495262145996,0.14404413104057312,0.043615203350782394
1751620581959110000,11.08910986328125,9.805652618408203,0.12926195561885834,0.053338635712862015
1751620581977933600,11.10793359375,9.805689811706543,0.11798878014087677,0.07001177966594696
1751620581996757000,11.126757080078125,9.805553436279297,0.10302295535802841,0.10436981916427612
1751620582015580400,11.145580322265625,9.805293083190918,0.10487991571426392,0.12496054917573929
1751620582034404000,11.164404052734374,9.80518913269043,0.1295686811208725,0.10887434333562851
1751620582053227500,11.1832275390625,9.80528450012207,0.1433108150959015,0.07902167737483978
1751620582072051000,11.202051025390626,9.805355072021484,0.14301976561546326,0.07039099186658859
1751620582090874600,11.22087451171875,9.805314064025879,0.14403149485588074,0.07390426099300385
1751620582109698000,11.239697998046875,9.805066108703613,0.1594444364309311,0.07518263906240463
1751620582128521500,11.258521484375,9.804970741271973,0.16441141068935394,0.07691268622875214
1751620582147345000,11.277344970703124,9.805027961730957,0.16017857193946838,0.07835183292627335
1751620582166168600,11.29616845703125,9.805109977722168,0.15674348175525665,0.07512271404266357
1751620582184992000,11.314991943359376,9.805068016052246,0.16228172183036804,0.06844456493854523
1751620582203815400,11.3338154296875,9.804986953735352,0.16510602831840515,0.0731680616736412
1751620582222639000,11.35263916015625,9.804964065551758,0.16194488108158112,0.08268273621797562
1751620582241462500,11.371462646484375,9.804997444152832,0.1568160504102707,0.08851369470357895
1751620582260286000,11.390285888671874,9.805023193359375,0.15565283596515656,0.08763053268194199
1751620582279109600,11.409109619140626,9.80501937866211,0.159823939204216,0.08010085672140121
1751620582297933000,11.42793310546875,9.804985046386719,0.16515474021434784,0.07334953546524048
1751620582316756500,11.446756591796875,9.80490493774414,0.1731085628271103,0.0652928277850151
1751620582335580200,11.465580078125,9.804848670959473,0.17735625803470612,0.06226614862680435
1751620582354403600,11.484403564453125,9.804878234863281,0.17306172847747803,0.06916087120771408
1751620582373227000,11.50322705078125,9.804998397827148,0.15409234166145325,0.09298000484704971
1751620582392050700,11.52205078125,9.804864883422852,0.151180699467659,0.11025819182395935
1751620582410874000,11.5408740234375,9.804886817932129,0.16134662926197052,0.09242148697376251
1751620582429697500,11.559697509765625,9.805033683776855,0.16070468723773956,0.07679414004087448
1751620582448521000,11.57852099609375,9.804922103881836,0.17098203301429749,0.0683407336473465
1751620582467344600,11.5973447265625,9.804698944091797,0.18554943799972534,0.061983902007341385
1751620582495580000,11.625579833984375,9.804474830627441,0.1965356320142746,0.06347610801458359
1751620582514403300,11.6444033203125,9.804320335388184,0.2036615014076233,0.06488271802663803
1751620582533226800,11.663226806640624,9.804025650024414,0.21298272907733917,0.07801418006420135
1751620582552050400,11.682050537109374,9.803853988647461,0.2121361494064331,0.09912942349910736
1751620582570873900,11.700873779296876,9.804054260253906,0.1975865662097931,0.10902780294418335
1751620582589697300,11.719697265625,9.80414867401123,0.18412186205387115,0.12312763184309006
1751620582608521000,11.73852099609375,9.804097175598145,0.18871648609638214,0.12019844353199005
1751620582627344400,11.757344482421875,9.804047584533691,0.19563910365104675,0.11296973377466202
1751620582646167800,11.776167724609374,9.804098129272461,0.1870947927236557,0.12270712852478027
1751620582664991500,11.794991455078126,9.804067611694336,0.18267075717449188,0.13143381476402283
1751620582683815000,11.81381494140625,9.804067611694336,0.1856260746717453,0.12720833718776703
1751620582702638300,11.832638427734375,9.804141998291016,0.20354852080345154,0.08804432302713394
1751620582721462000,11.8514619140625,9.804239273071289,0.202908456325531,0.07813835144042969
1751620582740285400,11.870285400390625,9.804204940795898,0.19825707376003265,0.092946857213974
1751620582759108900,11.88910888671875,9.80417251586914,0.19640879333019257,0.10006076097488403
1751620582777932500,11.9079326171875,9.804197311401367,0.19845914840698242,0.09335573017597198
1751620582796756000,11.926755859375,9.80422306060791,0.20193028450012207,0.08259095251560211
1751620582815579400,11.945579345703125,9.804197311401367,0.20600619912147522,0.0751814916729927
1751620582834403000,11.964403076171875,9.804193496704102,0.20740103721618652,0.0718604326248169
1751620582853226500,11.9832265625,9.804186820983887,0.2090141475200653,0.06787541508674622
1751620582872050000,12.0020498046875,9.804049491882324,0.2142876535654068,0.0713406428694725
1751620582890873600,12.02087353515625,9.803971290588379,0.21428491175174713,0.08128723502159119
1751620582909697000,12.039697021484375,9.803956985473633,0.21339331567287445,0.08530581742525101
1751620582928520400,12.0585205078125,9.803905487060547,0.21598026156425476,0.08470483869314194
1751620582956755700,12.086755615234376,9.803839683532715,0.22225482761859894,0.07568216323852539
1751620582975579100,12.1055791015625,9.80376148223877,0.22552579641342163,0.07597769796848297
1751620582994402800,12.12440283203125,9.803776741027832,0.22392649948596954,0.07879284024238586
1751620583013226200,12.143226318359375,9.803960800170898,0.21721036732196808,0.07468251883983612
1751620583032049700,12.162049560546874,9.804046630859375,0.21525564789772034,0.06863056868314743
1751620583050873300,12.180873291015626,9.804008483886719,0.22072845697402954,0.05555166304111481
1751620583069696800,12.19969677734375,9.80399227142334,0.22344815731048584,0.04688681289553642
1751620583088520200,12.218520263671875,9.803980827331543,0.224169060587883,0.04586455598473549
1751620583107344000,12.23734375,9.803960800170898,0.22208166122436523,0.058638691902160645
1751620583126167300,12.256167236328125,9.803936004638672,0.21532534062862396,0.08290383964776993
1751620583144990700,12.27499072265625,9.803863525390625,0.20512516796588898,0.11216257512569427
1751620583163814400,12.293814453125,9.803709983825684,0.2022782415151596,0.12941306829452515
1751620583182637800,12.312637939453126,9.803704261779785,0.21137602627277374,0.11439438164234161
1751620583201461200,12.331461181640625,9.80372142791748,0.22601911425590515,0.07964938133955002
1751620583220285000,12.350284912109375,9.803753852844238,0.233689084649086,0.046782899647951126
1751620583239108400,12.3691083984375,9.803828239440918,0.2327321618795395,0.03453846275806427
1751620583257931800,12.387931884765624,9.803864479064941,0.22995531558990479,0.041944727301597595
1751620583276755500,12.40675537109375,9.803933143615723,0.22281189262866974,0.06042615324258804
1751620583304990700,12.43499072265625,9.803874969482422,0.21754302084445953,0.08419319242238998
1751620583323814100,12.453814208984374,9.803906440734863,0.21607470512390137,0.08440900593996048
1751620583342637600,12.472637451171876,9.803953170776367,0.21867375075817108,0.0712582990527153
1751620583361461200,12.491461181640625,9.803998947143555,0.2212509959936142,0.05513172596693039
1751620583380284700,12.51028466796875,9.803863525390625,0.22816327214241028,0.05095238238573074
1751620583399108000,12.529108154296875,9.803716659545898,0.23115670680999756,0.06388600170612335
1751620583417931800,12.547931884765624,9.803631782531738,0.22975029051303864,0.07999894767999649
1751620583436755200,12.566755126953124,9.803600311279297,0.2281091958284378,0.08819174766540527
1751620583455578600,12.58557861328125,9.803590774536133,0.23086902499198914,0.08189689368009567
1751620583474402300,12.60440234375,9.803550720214844,0.2370224893093109,0.06778249889612198
1751620583493225700,12.623225830078125,9.803498268127441,0.24088026583194733,0.061523742973804474
1751620583512049200,12.642049072265625,9.803566932678223,0.23781409859657288,0.06251657009124756
1751620583530872600,12.66087255859375,9.803728103637695,0.2303810864686966,0.06497981399297714
1751620583549696300,12.6796962890625,9.803834915161133,0.22574464976787567,0.06508098542690277
1751620583568519700,12.698519775390626,9.803862571716309,0.225818932056427,0.06057010591030121
1751620583587343000,12.717343017578125,9.803818702697754,0.22966128587722778,0.05270769074559212
1751620583606166800,12.736166748046875,9.803760528564453,0.2336498349905014,0.04546279460191727
1751620583624990200,12.754990234375,9.803719520568848,0.23651249706745148,0.03914501145482063
1751620583643813600,12.773813720703124,9.803754806518555,0.23506157100200653,0.039158549159765244
1751620583662637300,12.79263720703125,9.80385971069336,0.22880901396274567,0.048693135380744934
1751620583681460700,12.811460693359376,9.803947448730469,0.22314053773880005,0.05685633420944214
1751620583700284200,12.8302841796875,9.803926467895508,0.22357279062271118,0.058555468916893005
1751620583719107800,12.84910791015625,9.80382251739502,0.22948552668094635,0.05283297225832939
1751620583737931300,12.86793115234375,9.803738594055176,0.2346067875623703,0.04530727490782738
1751620583756754700,12.886754638671874,9.803667068481445,0.23900261521339417,0.0370236374437809
1751620583775578400,12.905578369140626,9.803642272949219,0.24116754531860352,0.028788339346647263
1751620583794401800,12.92440185546875,9.803584098815918,0.244282066822052,0.02089611440896988
1751620583813225200,12.94322509765625,9.803543090820312,0.24616041779518127,0.018028350546956062
1751620583832049000,12.962048828125,9.80345630645752,0.24970030784606934,0.01649893820285797
1751620583850872300,12.980872314453125,9.803380012512207,0.2527982294559479,0.01475451048463583
1751620583869695700,12.99969580078125,9.80332088470459,0.2550939917564392,0.014609764330089092
1751620583888519400,13.01851953125,9.803315162658691,0.2551610767841339,0.016995122656226158
1751620583907342800,13.0373427734375,9.803380012512207,0.2523566782474518,0.020977716892957687
1751620583926166300,13.056166259765625,9.803475379943848,0.24770720303058624,0.029960962012410164
1751620583944990000,13.074989990234375,9.803597450256348,0.2414914220571518,0.039431117475032806
1751620583963813400,13.0938134765625,9.80364990234375,0.23802505433559418,0.04665344953536987
1751620583982636800,13.11263671875,9.803651809692383,0.23737457394599915,0.04961346089839935
1751620584001460500,13.13146044921875,9.803630828857422,0.23800930380821228,0.050582367926836014
1751620584020284000,13.150283935546875,9.803512573242188,0.24291272461414337,0.05026528984308243
1751620584039107300,13.169107421875,9.803420066833496,0.24630014598369598,0.05171020328998566
1751620584057931000,13.187930908203125,9.803372383117676,0.2476435750722885,0.054348453879356384
1751620584076754400,13.20675439453125,9.803353309631348,0.24745547771453857,0.058504872024059296
1751620584095577900,13.225577880859374,9.803234100341797,0.25218772888183594,0.05826003849506378
1751620584114401500,13.244401611328126,9.803071022033691,0.25889852643013,0.05623931437730789
1751620584133225000,13.263224853515625,9.80300235748291,0.2621942162513733,0.05267403647303581
1751620584152048400,13.28204833984375,9.80295467376709,0.26443997025489807,0.05025896802544594
1751620584170872000,13.3008720703125,9.802932739257812,0.2655336856842041,0.04882686212658882
1751620584189695500,13.319695556640625,9.802875518798828,0.26768001914024353,0.048772044479846954
1751620584208519000,13.338518798828124,9.802778244018555,0.2716333270072937,0.04628651961684227
1751620584227342600,13.357342529296876,9.802726745605469,0.2739899158477783,0.04309508204460144
1751620584246166000,13.376166015625,9.802759170532227,0.2722116708755493,0.047036051750183105
1751620584264989400,13.394989501953125,9.80281925201416,0.2678428888320923,0.058068446815013885
1751620584283813000,13.413813232421875,9.802828788757324,0.2641637325286865,0.07172360271215439
1751620584302636500,13.432636474609374,9.802815437316895,0.26150962710380554,0.08250507712364197
1751620584321460000,13.4514599609375,9.802820205688477,0.2576518654823303,0.09342757612466812
1751620584340283600,13.47028369140625,9.80293083190918,0.25646132230758667,0.0846644714474678
1751620584359107000,13.489107177734375,9.80301284790039,0.2590099573135376,0.06507230550050735
1751620584377930500,13.507930419921875,9.803126335144043,0.258573442697525,0.047310419380664825
1751620584396754200,13.526754150390625,9.803250312805176,0.25397220253944397,0.04653976112604141
1751620584415577600,13.54557763671875,9.803285598754883,0.2504851520061493,0.05695395544171333
1751620584434401000,13.564401123046874,9.803301811218262,0.24846608936786652,0.06267457455396652
1751620584453224700,13.583224609375,9.803197860717773,0.25470560789108276,0.05319918319582939
1751620584472048000,13.602048095703125,9.803009033203125,0.2644215524196625,0.038409605622291565
1751620584490871600,13.62087158203125,9.802885055541992,0.2708960473537445,0.021098142489790916
1751620584509695200,13.6396953125,9.802887916564941,0.2713161110877991,0.01279519684612751
1751620584528518700,13.6585185546875,9.803045272827148,0.26507869362831116,0.020463135093450546
1751620584547342000,13.677342041015624,9.803230285644531,0.2570926249027252,0.031176172196865082
1751620584566165800,13.696165771484376,9.803263664245605,0.2555205225944519,0.0333862379193306
1751620584584989200,13.7149892578125,9.803159713745117,0.2599603235721588,0.029358772560954094
1751620584603812600,13.7338125,9.803038597106934,0.26465484499931335,0.02790125086903572
1751620584622636300,13.75263623046875,9.80300235748291,0.26479384303092957,0.037684373557567596
1751620584641459700,13.771459716796874,9.803061485290527,0.2609684467315674,0.0475887693464756
1751620584660283100,13.790283203125,9.803010940551758,0.26230597496032715,0.050621915608644485
1751620584679106800,13.80910693359375,9.802858352661133,0.2680577039718628,0.04989016801118851
1751620584697930200,13.82793017578125,9.80272388458252,0.2725003659725189,0.05228600651025772
1751620584716753700,13.846753662109375,9.80254077911377,0.2773841321468353,0.06020490080118179
1751620584735577300,13.865577392578125,9.802640914916992,0.2720969021320343,0.06768835335969925
1751620584754400800,13.88440087890625,9.802728652954102,0.26967287063598633,0.06459853053092957
1751620584773224200,13.90322412109375,9.802779197692871,0.26996296644210815,0.05502541735768318
1751620584792047900,13.9220478515625,9.802722930908203,0.2735414206981659,0.04683983698487282
1751620584810871300,13.940871337890625,9.802587509155273,0.2786230742931366,0.044994380325078964
1751620584829694700,13.95969482421875,9.802510261535645,0.280767560005188,0.04843425005674362
1751620584848518400,13.978518310546875,9.802507400512695,0.2808536887168884,0.04841936007142067
1751620584867341800,13.997341796875,9.802369117736816,0.28668493032455444,0.0417814739048481
1751620584886165200,14.016165283203126,9.802352905273438,0.28799381852149963,0.0364772267639637
1751620584904989000,14.034989013671876,9.802469253540039,0.28433850407600403,0.03388053923845291
1751620584923812400,14.053812255859375,9.80257797241211,0.2811397612094879,0.0285993292927742
1751620584942635800,14.0726357421875,9.802536964416504,0.2834871709346771,0.017253192141652107
1751620584961459500,14.09145947265625,9.802428245544434,0.28771084547042847,0.003226667642593384
1751620584980283000,14.110282958984374,9.802339553833008,0.2906721532344818,-0.005255941767245531
1751620584999106300,14.129106201171876,9.802329063415527,0.291049063205719,-0.004917704965919256
1751620585017930000,14.147929931640626,9.802325248718262,0.29118525981903076,-0.005248440429568291
1751620585036753400,14.16675341796875,9.80229377746582,0.29224032163619995,-0.005372908432036638
1751620585055576800,14.185576904296875,9.802275657653809,0.29283231496810913,-0.004864722024649382
1751620585074400500,14.204400390625,9.802263259887695,0.2932550609111786,-0.004378399346023798
1751620585093224000,14.223223876953124,9.802254676818848,0.2935643196105957,-0.003127527888864279
1751620585112047400,14.24204736328125,9.802602767944336,0.2746102213859558,0.06300089508295059
1751620585130871000,14.26087109375,9.802624702453613,0.27068498730659485,0.07520563155412674
1751620585149694500,14.279694580078125,9.80258560180664,0.2721109688282013,0.07520769536495209
1751620585168518000,14.298517822265625,9.802562713623047,0.2744581401348114,0.06947129219770432
1751620585187341600,14.317341552734375,9.80256462097168,0.27638399600982666,0.060968365520238876
1751620585206165000,14.3361650390625,9.80258846282959,0.2769898772239685,0.05411561578512192
1751620585224988400,14.354988525390626,9.80260181427002,0.2773788869380951,0.04954700917005539
1751620585243811800,14.373811767578125,9.802614212036133,0.2768983840942383,0.0495709553360939
1751620585262635500,14.392635498046875,9.80264663696289,0.2758585810661316,0.0490313284099102
1751620585281459000,14.411458984375,9.802681922912598,0.27468663454055786,0.04852132126688957
1751620585300282600,14.43028271484375,9.802724838256836,0.27315589785575867,0.04851271212100983
1751620585319106000,14.44910595703125,9.802750587463379,0.2721666097640991,0.04889674857258797
1751620585337929500,14.467929443359376,9.802755355834961,0.2721543610095978,0.04803885146975517
1751620585356753200,14.486753173828125,9.802765846252441,0.27182134985923767,0.0478716604411602
1751620585375576600,14.50557666015625,9.802780151367188,0.271357923746109,0.04729679599404335
1751620585394400000,14.52439990234375,9.802797317504883,0.27108603715896606,0.04553014785051346
1751620585413223700,14.5432236328125,9.802818298339844,0.2706024944782257,0.04369289427995682
1751620585432047000,14.562047119140624,9.80284595489502,0.2697267532348633,0.042692881077528
1751620585450870500,14.58087060546875,9.802884101867676,0.26852452754974365,0.04193783923983574
1751620585469694200,14.599694091796875,9.802906036376953,0.2679077982902527,0.04058763384819031
1751620585488517600,14.618517578125,9.802923202514648,0.267387330532074,0.03979825973510742
1751620585507341000,14.637341064453125,9.802936553955078,0.2670022249221802,0.039367660880088806
1751620585526164700,14.656164794921875,9.802942276000977,0.26706546545028687,0.03719242662191391
1751620585544988200,14.67498828125,9.802957534790039,0.2664312720298767,0.037978388369083405
1751620585563811600,14.6938115234375,9.802996635437012,0.26392921805381775,0.04456092417240143
1751620585582635300,14.71263525390625,9.803043365478516,0.26119911670684814,0.05007214471697807
1751620585601458700,14.731458740234375,9.803072929382324,0.25921136140823364,0.054368726909160614
1751620585629694000,14.75969384765625,9.80296516418457,0.2641178071498871,0.05006735026836395
1751620585648517400,14.778517333984375,9.80285930633545,0.26885077357292175,0.045224521309137344
1751620585667340800,14.7973408203125,9.802809715270996,0.27160361409187317,0.03928970545530319
1751620585686164500,14.81616455078125,9.802901268005371,0.2686366140842438,0.036968350410461426
1751620585704988000,14.83498779296875,9.802947044372559,0.26724278926849365,0.034686628729104996
1751620585723811600,14.8538115234375,9.802938461303711,0.26796385645866394,0.03144948557019234
1751620585742635000,14.872635009765625,9.80289363861084,0.2694789469242096,0.03230341151356697
1751620585761458400,14.89145849609375,9.80282974243164,0.2719898819923401,0.030640214681625366
1751620585780282000,14.9102822265625,9.802763938903809,0.27496087551116943,0.02453146129846573
1751620585799105500,14.92910546875,9.802815437316895,0.2733692526817322,0.02136644721031189
1751620585817929000,14.947928955078124,9.802877426147461,0.27143141627311707,0.017587807029485703
1751620585836752600,14.966752685546876,9.802877426147461,0.27173084020614624,0.012173252180218697
1751620585855576000,14.985576171875,9.802854537963867,0.2726687490940094,0.008828077465295792
1751620585874399500,15.0043994140625,9.802838325500488,0.27330926060676575,0.006863099057227373
1751620585893223200,15.02322314453125,9.802849769592285,0.2729718089103699,0.003956526052206755
1751620585912046600,15.042046630859375,9.80280590057373,0.2744887173175812,-0.0045878044329583645
1751620585930870000,15.0608701171875,9.802760124206543,0.2761496603488922,-0.00493979174643755
1751620585949693700,15.079693603515626,9.802796363830566,0.2747909128665924,-0.008390920236706734
1751620585968517000,15.09851708984375,9.8027982711792,0.2745716869831085,-0.011772612109780312
1751620585987340500,15.117340576171875,9.802794456481934,0.27460578083992004,-0.014245892874896526
1751620586006164200,15.136164306640625,9.802802085876465,0.2744249403476715,-0.01204241719096899
1751620586024987600,15.154987548828124,9.802779197692871,0.2753305733203888,-0.010524705983698368
1751620586043811000,15.17381103515625,9.802720069885254,0.2774810492992401,-0.00918773002922535
1751620586062634500,15.192634521484376,9.802665710449219,0.27935948967933655,-0.009761312045156956
1751620586081458200,15.211458251953125,9.802647590637207,0.2799023985862732,-0.011893963441252708
1751620586100281600,15.230281494140625,9.80268669128418,0.2783328890800476,-0.015971878543496132
1751620586119105000,15.24910498046875,9.802665710449219,0.27858251333236694,-0.022842489182949066
1751620586137928700,15.2679287109375,9.802643775939941,0.27916818857192993,-0.024705521762371063
1751620586156752100,15.286752197265624,9.80270767211914,0.27720075845718384,-0.02159087359905243
1751620586175575800,15.305575927734376,9.80280590057373,0.27407917380332947,-0.016773918643593788
1751620586194399200,15.324399169921875,9.802895545959473,0.27100229263305664,-0.013994329608976841
1751620586213222700,15.34322265625,9.802908897399902,0.2704484164714813,-0.014432229101657867
1751620586232046300,15.36204638671875,9.802916526794434,0.27010977268218994,-0.015977386385202408
1751620586250869800,15.380869873046874,9.803007125854492,0.2669929563999176,-0.012572777457535267
1751620586269693200,15.399693115234374,9.803109169006348,0.2633639872074127,-0.008994460105895996
1751620586288516900,15.418516845703126,9.803169250488281,0.2612394094467163,-0.004595148377120495
1751620586307340300,15.43734033203125,9.80315113067627,0.26184940338134766,-0.007404317148029804
1751620586326163700,15.456163818359375,9.803110122680664,0.26333147287368774,-0.009860795922577381
1751620586344987400,15.4749873046875,9.80288314819336,0.2702907621860504,-0.028446143493056297
1751620586363810800,15.493810791015624,9.802738189697266,0.2736213505268097,-0.04274730011820793
1751620586382634200,15.51263427734375,9.802639961242676,0.2746570110321045,-0.056650158017873764
1751620586401458000,15.5314580078125,9.802582740783691,0.275747686624527,-0.06099061667919159
1751620586420281300,15.55028125,9.802529335021973,0.27726995944976807,-0.06270716339349747
1751620586439104800,15.569104736328125,9.802472114562988,0.2789904475212097,-0.06409019976854324
1751620586457928400,15.587928466796875,9.802425384521484,0.2804427146911621,-0.06474190950393677
1751620586476752000,15.606751953125,9.802410125732422,0.2804386019706726,-0.06711503118276596
1751620586504987100,15.634987060546875,9.802441596984863,0.27907365560531616,-0.0682193711400032
1751620586523810600,15.653810546875,9.80247974395752,0.2778690755367279,-0.06758636981248856
1751620586542634000,15.672634033203124,9.802531242370605,0.27605995535850525,-0.06758604943752289
1751620586561457700,15.691457763671876,9.802587509155273,0.27362099289894104,-0.0692751407623291
1751620586580281000,15.710281005859375,9.80270767211914,0.2701241672039032,-0.06600236892700195
1751620586599104500,15.7291044921875,9.802885055541992,0.2649945914745331,-0.06006699055433273
1751620586617928200,15.74792822265625,9.803047180175781,0.2607056498527527,-0.051808565855026245
1751620586636751600,15.766751708984375,9.803107261657715,0.2592587172985077,-0.04746919125318527
1751620586655575000,15.785574951171874,9.80305004119873,0.2611953914165497,-0.04866394028067589
1751620586674398700,15.804398681640626,9.80282974243164,0.2674247920513153,-0.05823361501097679
1751620586693222100,15.82322216796875,9.802571296691895,0.2752092182636261,-0.0651259496808052
1751620586712045600,15.842045654296875,9.802470207214355,0.27859771251678467,-0.06595786660909653
1751620586730869200,15.860869140625,9.802461624145508,0.27905359864234924,-0.06539518386125565
1751620586749692700,15.879692626953124,9.802511215209961,0.2774023711681366,-0.06491974741220474
1751620586768516000,15.89851611328125,9.802569389343262,0.2755424976348877,-0.06389547139406204
1751620586787339800,15.91733984375,9.802602767944336,0.27382421493530273,-0.06623879075050354
1751620586806163200,15.9361630859375,9.802566528320312,0.2734381854534149,-0.07278934866189957
1751620586824986600,15.954986572265625,9.802535057067871,0.27340638637542725,-0.07705305516719818
1751620586843810300,15.973810302734375,9.802594184875488,0.2720876932144165,-0.07412902265787125
1751620586862633700,15.9926337890625,9.80298900604248,0.2628933787345886,-0.05181218311190605
1751620586881457200,16.01145703125,9.803235054016113,0.25568637251853943,-0.03978683799505234
1751620586900280800,16.03028076171875,9.803239822387695,0.2552375793457031,-0.041593801230192184
1751620586919104300,16.049104248046874,9.803197860717773,0.25600874423980713,-0.04665267840027809
1751620586937927700,16.067927734375,9.803192138671875,0.25518539547920227,-0.05189239978790283
1751620586956751400,16.08675146484375,9.803191184997559,0.2551519572734833,-0.05236479640007019
1751620586975574800,16.10557470703125,9.803093910217285,0.2569151520729065,-0.061003539711236954
1751620586994398200,16.124398193359376,9.80306339263916,0.25686076283454895,-0.06601718813180923
1751620587013222000,16.143221923828126,9.80306339263916,0.2559678554534912,-0.06940014660358429
1751620587032045300,16.16204541015625,9.803069114685059,0.25426894426345825,-0.07460392266511917
1751620587050868700,16.18086865234375,9.803125381469727,0.25194302201271057,-0.07511362433433533
1751620587069692400,16.1996923828125,9.803162574768066,0.25114205479621887,-0.07296072691679001
1751620587088515800,16.218515869140624,9.80324935913086,0.24964582920074463,-0.06614411622285843
1751620587107339300,16.23733935546875,9.803336143493652,0.24756497144699097,-0.060773495584726334
1751620587126163000,16.256162841796876,9.803349494934082,0.2472512573003769,-0.05986512824892998
1751620587144986400,16.274986328125,9.80332088470459,0.24866832792758942,-0.05879070609807968
1751620587163809800,16.293809814453127,9.803263664245605,0.25089067220687866,-0.0588596872985363
1751620587182633500,16.312633544921876,9.803248405456543,0.2504726052284241,-0.06317120790481567
1751620587201457000,16.331456787109374,9.803296089172363,0.24755266308784485,-0.06712324172258377
1751620587220280300,16.3502802734375,9.803268432617188,0.24723461270332336,-0.07201223820447922
1751620587239104000,16.36910400390625,9.803193092346191,0.2504051923751831,-0.07128633558750153
1751620587257927400,16.387927490234375,9.803123474121094,0.2536658048629761,-0.06939636915922165
1751620587276750800,16.406750732421877,9.803120613098145,0.25519484281539917,-0.06404262781143188
1751620587295574500,16.425574462890626,9.803102493286133,0.25559496879577637,-0.06510771065950394
1751620587314398000,16.44439794921875,9.803070068359375,0.25578203797340393,-0.06911739706993103
1751620587333221400,16.463221435546874,9.802945137023926,0.25634801387786865,-0.08323214948177338
1751620587352045000,16.482045166015624,9.802909851074219,0.2545762062072754,-0.09241952002048492
1751620587370868500,16.500868408203125,9.802908897399902,0.2522461414337158,-0.09860613942146301
1751620587389692000,16.51969189453125,9.802993774414062,0.24941083788871765,-0.09751556068658829
1751620587408515600,16.538515625,9.803068161010742,0.24703241884708405,-0.09598107635974884
1751620587427339000,16.557339111328126,9.803149223327637,0.24382951855659485,-0.09591254591941833
1751620587446162400,16.576162353515624,9.803091049194336,0.24356934428215027,-0.10224847495555878
1751620587464985900,16.59498583984375,9.8031005859375,0.2430247962474823,-0.10269249975681305
1751620587483809500,16.6138095703125,9.80311107635498,0.24219626188278198,-0.10359267890453339
1751620587502633000,16.632633056640625,9.803034782409668,0.24350552260875702,-0.1076885238289833
1751620587521456400,16.651456298828126,9.802982330322266,0.24499595165252686,-0.10920877754688263
1751620587540280000,16.670280029296876,9.803023338317871,0.24334116280078888,-0.10912774503231049
1751620587559103500,16.689103515625,9.802994728088379,0.2427157312631607,-0.1129617840051651
1751620587577927000,16.707927001953124,9.802946090698242,0.24241556227207184,-0.11774614453315735
1751620587596750600,16.72675048828125,9.802897453308105,0.24245493113994598,-0.12168364226818085
1751620587615574000,16.745573974609375,9.802813529968262,0.24360577762126923,-0.12605518102645874
1751620587634397400,16.7643974609375,9.802770614624023,0.244120791554451,-0.12833943963050842
1751620587653221000,16.78322119140625,9.802821159362793,0.2438981831073761,-0.1248556599020958
1751620587672044500,16.80204443359375,9.802937507629395,0.24231554567813873,-0.11872177571058273
1751620587690868000,16.820867919921874,9.802996635437012,0.2414838969707489,-0.11549992114305496
1751620587709691600,16.839691650390623,9.803016662597656,0.24051770567893982,-0.11577048897743225
1751620587728515000,16.85851513671875,9.803025245666504,0.23921136558055878,-0.11772450059652328
1751620587747338500,16.87733837890625,9.803004264831543,0.23852384090423584,-0.12084947526454926
1751620587766162200,16.896162109375,9.803074836730957,0.23644696176052094,-0.11920033395290375
1751620587784985600,16.914985595703126,9.803147315979004,0.23491856455802917,-0.11626927554607391
1751620587803809000,16.93380908203125,9.80319595336914,0.23274919390678406,-0.11645069718360901
1751620587822632700,16.9526328125,9.80319595336914,0.23193934559822083,-0.11805199086666107
1751620587841456000,16.9714560546875,9.803152084350586,0.23340490460395813,-0.11883163452148438
1751620587860279600,16.990279541015624,9.803140640258789,0.23495280742645264,-0.11667144298553467
1751620587879103200,17.009103271484374,9.803208351135254,0.2335825264453888,-0.11368701606988907
1751620587897926700,17.0279267578125,9.80327033996582,0.2313781976699829,-0.11293313652276993
1751620587916750000,17.04675,9.803263664245605,0.23072272539138794,-0.11478734016418457
1751620587935573800,17.06557373046875,9.803326606750488,0.22915151715278625,-0.11251381784677505
1751620587954397200,17.084397216796877,9.80338191986084,0.22758416831493378,-0.11094214022159576
1751620587973220600,17.103220703125,9.8034029006958,0.2274453490972519,-0.10930908471345901
1751620587992044000,17.1220439453125,9.803384780883789,0.2282487004995346,-0.10923604667186737
1751620588010867700,17.14086767578125,9.803354263305664,0.2294095903635025,-0.10953924804925919
1751620588029691100,17.159691162109375,9.803323745727539,0.23031100630760193,-0.11043526232242584
1751620588048514600,17.1785146484375,9.803322792053223,0.23047588765621185,-0.11010884493589401
1751620588067338200,17.197338134765626,9.803323745727539,0.23077420890331268,-0.10938751697540283
1751620588086161700,17.21616162109375,9.803269386291504,0.23277610540390015,-0.11005514860153198
1751620588104985000,17.234985107421874,9.803187370300293,0.23515644669532776,-0.1122405007481575
1751620588123808800,17.253808837890624,9.803116798400879,0.23650455474853516,-0.11549334228038788
1751620588142632200,17.272632080078125,9.803071022033691,0.2366311103105545,-0.11907069385051727
1751620588161455600,17.29145556640625,9.803054809570312,0.23640458285808563,-0.12096918374300003
1751620588180279300,17.310279296875,9.802977561950684,0.23774072527885437,-0.12454042583703995
1751620588199102700,17.329102783203126,9.802865028381348,0.2402578592300415,-0.1284625381231308
1751620588217926100,17.347926025390624,9.802785873413086,0.242227703332901,-0.13071812689304352
1751620588236749600,17.36674951171875,9.802824020385742,0.24141685664653778,-0.12932188808918
1751620588264984800,17.39498486328125,9.802908897399902,0.23856690526008606,-0.12825988233089447
1751620588283808500,17.41380859375,9.802935600280762,0.2375640720129013,-0.1280900090932846
1751620588302632000,17.4326318359375,9.802855491638184,0.23942814767360687,-0.13067477941513062
1751620588321455400,17.451455322265623,9.802740097045898,0.24155375361442566,-0.13538914918899536
1751620588340279000,17.470279052734377,9.80263900756836,0.24388380348682404,-0.13848507404327393
1751620588359102500,17.4891025390625,9.80256175994873,0.24561583995819092,-0.14092926681041718
1751620588377926000,17.50792578125,9.802595138549805,0.2456117570400238,-0.13856294751167297
1751620588396749600,17.52674951171875,9.802693367004395,0.24401788413524628,-0.13435840606689453
1751620588415573000,17.545572998046875,9.80272388458252,0.24324263632297516,-0.13345760107040405
1751620588434396400,17.564396484375,9.80272102355957,0.24253599345684052,-0.13500937819480896
1751620588453220000,17.58322021484375,9.802793502807617,0.24039094150066376,-0.1335292011499405
1751620588472043500,17.60204345703125,9.802997589111328,0.23587293922901154,-0.12649458646774292
1751620588490867000,17.620866943359374,9.803194999694824,0.22992898523807526,-0.12199407815933228
1751620588509690600,17.639690673828124,9.803255081176758,0.2258591204881668,-0.12472563982009888
1751620588528514000,17.65851416015625,9.803242683410645,0.22407259047031403,-0.12890851497650146
1751620588547337500,17.67733740234375,9.803227424621582,0.2231401950120926,-0.13159984350204468
1751620588566161200,17.6961611328125,9.803167343139648,0.22369173169136047,-0.13509739935398102
1751620588584984600,17.714984619140626,9.803109169006348,0.22436818480491638,-0.13814350962638855
1751620588603808000,17.73380810546875,9.80309009552002,0.22464318573474884,-0.13911448419094086
1751620588622631400,17.75263134765625,9.803154945373535,0.22342605888843536,-0.13648250699043274
1751620588641455000,17.771455078125,9.8032865524292,0.22058720886707306,-0.13160832226276398
1751620588660278500,17.790278564453125,9.803489685058594,0.21410831809043884,-0.1270066499710083
1751620588679102000,17.80910205078125,9.803735733032227,0.20535869896411896,-0.12239587306976318
1751620588697925600,17.827925537109376,9.80384635925293,0.1999121457338333,-0.12255030125379562
1751620588716749000,17.8467490234375,9.803898811340332,0.19689196348190308,-0.12326082587242126
1751620588735572500,17.865572509765624,9.80401611328125,0.19412663578987122,-0.11814959347248077
1751620588754396000,17.88439599609375,9.804238319396973,0.18929660320281982,-0.1070815920829773
1751620588773219600,17.903219482421875,9.804380416870117,0.18541283905506134,-0.100675567984581
1751620588792043000,17.92204296875,9.8042631149292,0.1885446161031723,-0.1060979962348938
1751620588810866400,17.940866455078126,9.804115295410156,0.1921806037425995,-0.11301623284816742
1751620588829690000,17.959690185546876,9.80408000946045,0.19166754186153412,-0.11681444942951202
1751620588848513500,17.978513427734374,9.804182052612305,0.1876945048570633,-0.11477788537740707
1751620588867337000,17.9973369140625,9.804259300231934,0.18438099324703217,-0.11356112360954285
1751620588886160600,18.01616064453125,9.804298400878906,0.18270763754844666,-0.1129145473241806
1751620588904984000,18.034984130859375,9.80422306060791,0.18469654023647308,-0.1161402240395546
1751620588923807500,18.053807373046876,9.804055213928223,0.18985356390476227,-0.12187715619802475
1751620588942631200,18.072631103515626,9.803864479064941,0.19688363373279572,-0.1259092390537262
1751620588961454600,18.09145458984375,9.803690910339355,0.2032240331172943,-0.12933999300003052
1751620588980278000,18.110278076171873,9.80350112915039,0.2091103196144104,-0.1342826783657074
1751620588999101700,18.129101806640627,9.803357124328613,0.21312354505062103,-0.13843098282814026
1751620589017925000,18.147925048828125,9.803232192993164,0.2161000370979309,-0.14262527227401733
1751620589036748500,18.16674853515625,9.803218841552734,0.21546514332294464,-0.14444607496261597
1751620589055572000,18.185572021484376,9.803230285644531,0.21370144188404083,-0.1463167816400528
1751620589074395600,18.204395751953125,9.803207397460938,0.21238814294338226,-0.14972415566444397
1751620589093219000,18.223218994140623,9.803183555603027,0.21212780475616455,-0.15158261358737946
1751620589112042500,18.24204248046875,9.803261756896973,0.21017128229141235,-0.14924761652946472
1751620589130866200,18.2608662109375,9.803436279296875,0.2064030021429062,-0.14282643795013428
1751620589149689600,18.279689697265624,9.803620338439941,0.2015368640422821,-0.1370779424905777
1751620589168513000,18.298512939453126,9.803742408752441,0.19775716960430145,-0.13387246429920197
1751620589187336700,18.317336669921875,9.803876876831055,0.19310227036476135,-0.1307460218667984
1751620589206160100,18.33616015625,9.804071426391602,0.18596278131008148,-0.12640972435474396
1751620589224983600,18.354983642578127,9.804281234741211,0.17778387665748596,-0.12189941853284836
1751620589243807200,18.37380712890625,9.804410934448242,0.17249247431755066,-0.11896196007728577
1751620589262630700,18.392630615234374,9.804408073425293,0.17183415591716766,-0.12021365761756897
1751620589281454000,18.4114541015625,9.804372787475586,0.17323167622089386,-0.12105055898427963
1751620589300277800,18.43027783203125,9.804347038269043,0.17440174520015717,-0.12142051011323929
1751620589319101200,18.44910107421875,9.804482460021973,0.17145228385925293,-0.11454874277114868
1751620589337924600,18.467924560546876,9.804401397705078,0.171906515955925,-0.1205892264842987
1751620589356748000,18.486748046875,9.804234504699707,0.17596085369586945,-0.12812069058418274
1751620589375571700,18.50557177734375,9.80423355102539,0.17584772408008575,-0.128323495388031
1751620589394395100,18.52439501953125,9.804143905639648,0.17811329662799835,-0.13199487328529358
1751620589413218600,18.543218505859375,9.804035186767578,0.18257808685302734,-0.1339619755744934
1751620589432042200,18.562042236328125,9.803837776184082,0.18845701217651367,-0.1401229351758957
1751620589450865700,18.58086572265625,9.80361557006836,0.194926455616951,-0.14662213623523712
1751620589469689000,18.599689208984376,9.803482055664062,0.19839096069335938,-0.1509341597557068
1751620589488512800,18.6185126953125,9.80343246459961,0.19924023747444153,-0.15297801792621613
1751620589507336200,18.637336181640624,9.803434371948242,0.19948430359363556,-0.15253141522407532
1751620589526159600,18.65615966796875,9.803437232971191,0.20001348853111267,-0.15169192850589752
1751620589544983000,18.674983154296875,9.803437232971191,0.1999765783548355,-0.151694655418396
1751620589563806700,18.693806640625,9.803442001342773,0.19926734268665314,-0.15232183039188385
1751620589582630100,18.712630126953126,9.80345344543457,0.19869276881217957,-0.15236659348011017
1751620589601453600,18.73145361328125,9.803458213806152,0.19863219559192657,-0.15206539630889893
1751620589620277200,18.75027734375,9.80346965789795,0.19839616119861603,-0.15167728066444397
1751620589639100700,18.7691005859375,9.803476333618164,0.19820064306259155,-0.15150609612464905
1751620589657924000,18.787924072265625,9.803481101989746,0.1983581930398941,-0.1509668231010437
1751620589676747500,18.80674755859375,9.803483009338379,0.19849872589111328,-0.15067952871322632
1751620589695571200,18.8255712890625,9.80348014831543,0.19842873513698578,-0.15096159279346466
1751620589714394600,18.84439453125,9.803484916687012,0.1979471892118454,-0.15126536786556244
1751620589733218000,18.863218017578124,9.803500175476074,0.19751255214214325,-0.15083244442939758
1751620589752041700,18.882041748046873,9.803533554077148,0.19709165394306183,-0.14922630786895752
1751620589770865200,18.900865234375,9.803557395935059,0.19707301259040833,-0.14770439267158508
1751620589789688600,18.9196884765625,9.803569793701172,0.1966688632965088,-0.14736030995845795
1751620589808512000,18.938511962890626,9.803576469421387,0.19591939449310303,-0.14793162047863007
1751620589827335700,18.957335693359376,9.803592681884766,0.19567814469337463,-0.14721539616584778
1751620589846159000,18.9761591796875,9.803749084472656,0.19333516061306,-0.1397065967321396
1751620589864982500,18.994982421875,9.80398941040039,0.18796306848526,-0.1297798901796341
1751620589883806200,19.01380615234375,9.804240226745605,0.18221354484558105,-0.1185627356171608
1751620589902629600,19.032629638671875,9.804457664489746,0.17624390125274658,-0.10924841463565826
1751620589921453000,19.051453125,9.804805755615234,0.16555672883987427,-0.09356782585382462
1751620589940276700,19.07027685546875,9.805195808410645,0.1500873863697052,-0.0773940458893776
1751620589959100200,19.08910009765625,9.805486679077148,0.13517583906650543,-0.06741554290056229
1751620589977923600,19.107923583984373,9.80567741394043,0.12551987171173096,-0.05765972658991814
1751620589996747000,19.1267470703125,9.805770874023438,0.12169031798839569,-0.04952814429998398
1751620590015570700,19.14557080078125,9.805825233459473,0.11794684827327728,-0.04773608222603798
1751620590034394000,19.16439404296875,9.8058443069458,0.11604700237512589,-0.04843292012810707
1751620590053217500,19.183217529296876,9.805868148803711,0.11414580047130585,-0.04799562692642212
1751620590072041200,19.202041259765625,9.80564022064209,0.12314964830875397,-0.06823991239070892
1751620590090864600,19.22086474609375,9.805220603942871,0.13947880268096924,-0.0927085280418396
1751620590109688000,19.23968798828125,9.804760932922363,0.15654727816581726,-0.11197435855865479
1751620590128511700,19.25851171875,9.804511070251465,0.16712810099124908,-0.1183542013168335
1751620590147335200,19.277335205078124,9.804491996765137,0.16909591853618622,-0.11705689132213593
1751620590166158600,19.29615869140625,9.80457878112793,0.16648373007774353,-0.11358241736888885
1751620590184982000,19.31498193359375,9.804625511169434,0.16377851366996765,-0.11347740888595581
1751620590203805700,19.3338056640625,9.804630279541016,0.1636192947626114,-0.11332548409700394
1751620590222629000,19.352629150390626,9.804624557495117,0.16212815046310425,-0.11591022461652756
1751620590241452500,19.37145263671875,9.80463695526123,0.15886321663856506,-0.11934011429548264
1751620590260276200,19.390276123046874,9.80465316772461,0.15527968108654022,-0.12271972745656967
1751620590279099600,19.409099609375,9.804582595825195,0.1565234214067459,-0.12667620182037354
1751620590297923000,19.427923095703125,9.804476737976074,0.16095279157161713,-0.12925337255001068
1751620590316746500,19.44674658203125,9.804496765136719,0.16162388026714325,-0.126874640583992
1751620590335570200,19.465570068359376,9.80457592010498,0.15961496531963348,-0.12324323505163193
1751620590354393600,19.4843935546875,9.804612159729004,0.1574205905199051,-0.12321688234806061
1751620590373217000,19.503217041015624,9.804577827453613,0.15621140599250793,-0.1274498999118805
1751620590392040700,19.522040771484374,9.804540634155273,0.1561489999294281,-0.1303364783525467
1751620590410864000,19.540864013671875,9.804605484008789,0.15350420773029327,-0.12856866419315338
1751620590429687600,19.5596875,9.80470085144043,0.15003342926502228,-0.12532323598861694
1751620590448511000,19.578510986328126,9.804753303527832,0.14789579808712006,-0.12384127080440521
1751620590467334700,19.597334716796876,9.804725646972656,0.14841708540916443,-0.12537384033203125
1751620590486158000,19.616157958984374,9.804717063903809,0.15105456113815308,-0.12286437302827835
1751620590504981500,19.6349814453125,9.804794311523438,0.15156115591526031,-0.11585534363985062
1751620590523805200,19.65380517578125,9.804915428161621,0.14883047342300415,-0.10895294696092606
1751620590542628600,19.672628662109375,9.80496597290039,0.14639800786972046,-0.10770900547504425
1751620590561452000,19.6914521484375,9.804973602294922,0.14393942058086395,-0.1103474348783493
1751620590580275700,19.710275634765626,9.804952621459961,0.14175617694854736,-0.11486231535673141
1751620590599099100,19.72909912109375,9.804919242858887,0.14103274047374725,-0.11854100227355957
1751620590617922600,19.747922607421874,9.804923057556152,0.14166352152824402,-0.11748967319726944
1751620590636746000,19.76674609375,9.804932594299316,0.14480437338352203,-0.1127476617693901
1751620590655569700,19.785569580078125,9.805054664611816,0.1470772922039032,-0.09826669096946716
1751620590674393000,19.80439306640625,9.805235862731934,0.1452595293521881,-0.08151820302009583
1751620590693216500,19.823216552734376,9.8053560256958,0.1404115855693817,-0.0751907154917717
1751620590712040200,19.842040283203126,9.805353164672852,0.13738329708576202,-0.08103283494710922
1751620590730863600,19.860863525390624,9.805230140686035,0.13670723140239716,-0.09566257894039154
1751620590749687000,19.87968701171875,9.80505084991455,0.13857804238796234,-0.11024709790945053
1751620590768510500,19.898510498046875,9.804936408996582,0.14065977931022644,-0.11759105324745178
1751620590787334100,19.917334228515625,9.80489444732666,0.1415746957063675,-0.11988559365272522
1751620590806157600,19.936157470703126,9.804847717285156,0.1429833024740219,-0.12206049263477325
1751620590824981000,19.95498095703125,9.804803848266602,0.14437156915664673,-0.12398920953273773
1751620590843804700,19.9738046875,9.80474853515625,0.1446439027786255,-0.12792177498340607
1751620590862628000,19.992628173828123,9.804670333862305,0.1453711986541748,-0.13302788138389587
1751620590881451500,20.011451416015625,9.804532051086426,0.14939460158348083,-0.13862256705760956
1751620590900275000,20.03027490234375,9.804427146911621,0.15170888602733612,-0.14349967241287231
1751620590919098600,20.0490986328125,9.804412841796875,0.15313325822353363,-0.142953559756279
1751620590937922000,20.067922119140626,9.804518699645996,0.15204793214797974,-0.13664144277572632
1751620590956745500,20.086745361328123,9.804637908935547,0.1506446897983551,-0.12948347628116608
1751620590975569200,20.105569091796873,9.804728507995605,0.14779110252857208,-0.125875785946846
1751620590994392600,20.124392578125,9.80475902557373,0.14643871784210205,-0.12502583861351013
1751620591013216000,20.143216064453124,9.804804801940918,0.14645668864250183,-0.12141066044569016
1751620591032039400,20.162039306640626,9.804886817932129,0.1457975059747696,-0.11549501121044159
1751620591050863000,20.180863037109376,9.804976463317871,0.14454708993434906,-0.10924223065376282
1751620591069686500,20.1996865234375,9.805039405822754,0.1432468146085739,-0.10525710880756378
1751620591088510000,20.218510009765627,9.805006980895996,0.14370448887348175,-0.10758674144744873
1751620591107333600,20.237333740234376,9.804984092712402,0.14361925423145294,-0.10982779413461685
1751620591126157000,20.256156982421874,9.805001258850098,0.14238406717777252,-0.10983771830797195
1751620591144980500,20.27498046875,9.804967880249023,0.14139185845851898,-0.11396283656358719
1751620591163804000,20.293803955078126,9.804861068725586,0.1425083428621292,-0.12153341621160507
1751620591182627600,20.312627685546875,9.804672241210938,0.14650943875312805,-0.13161610066890717
1751620591210862800,20.34086279296875,9.804482460021973,0.15033237636089325,-0.141139417886734
1751620591229686300,20.359686279296874,9.804519653320312,0.1514391154050827,-0.13731184601783752
1751620591248509700,20.378509765625,9.80463981628418,0.1515684276819229,-0.12823200225830078
1751620591267333000,20.3973330078125,9.80471134185791,0.1497766673564911,-0.12479226291179657
1751620591286156800,20.41615673828125,9.804725646972656,0.14824755489826202,-0.12549708783626556
1751620591304980200,20.434980224609376,9.804750442504883,0.14800360798835754,-0.12389321625232697
1751620591323803600,20.4538037109375,9.80480670928955,0.14795267581939697,-0.11938173323869705
1751620591342627300,20.47262744140625,9.804885864257812,0.1458195596933365,-0.11546437442302704
1751620591361450800,20.49145068359375,9.80495834350586,0.1433519423007965,-0.11229982227087021
1751620591380274200,20.510274169921875,9.805106163024902,0.1393497735261917,-0.1042059138417244
1751620591399097600,20.52909765625,9.805248260498047,0.13734237849712372,-0.09291972219944
1751620591417921300,20.54792138671875,9.805075645446777,0.14067108929157257,-0.10537286102771759
1751620591436744700,20.56674462890625,9.804862022399902,0.14473898708820343,-0.11881840229034424
1751620591455568100,20.585568115234373,9.804906845092773,0.14477860927581787,-0.11505039036273956
1751620591474391800,20.604391845703127,9.804743766784668,0.14811207354068756,-0.12431853264570236
1751620591493215200,20.62321533203125,9.804795265197754,0.14678961038589478,-0.12174896895885468
1751620591512038700,20.64203857421875,9.804855346679688,0.14572672545909882,-0.1181529313325882
1751620591530862000,20.660862060546876,9.804875373840332,0.1463940292596817,-0.11566440761089325
1751620591559097300,20.689097412109376,9.804919242858887,0.1461930125951767,-0.11209628731012344
1751620591577921000,20.707921142578126,9.805013656616211,0.1446981430053711,-0.10561970621347427
1751620591596744400,20.726744384765624,9.805065155029297,0.14404883980751038,-0.10165400803089142
1751620591615568000,20.74556787109375,9.805062294006348,0.14455895125865936,-0.10117534548044205
1751620591634391300,20.764391357421875,9.805106163024902,0.14443053305149078,-0.09710056334733963
1751620591653215000,20.783215087890625,9.805127143859863,0.14454060792922974,-0.09474045783281326
1751620591672038400,20.802038330078126,9.805123329162598,0.1448231190443039,-0.09464719891548157
1751620591690861800,20.82086181640625,9.805094718933105,0.14587360620498657,-0.0960315465927124
1751620591709685200,20.839685302734374,9.805127143859863,0.1452963799238205,-0.09358856081962585
1751620591728509000,20.858509033203124,9.805129051208496,0.1448890119791031,-0.09397009760141373
1751620591747332400,20.877332275390625,9.805140495300293,0.1452336311340332,-0.09226386994123459
1751620591766155800,20.89615576171875,9.805094718933105,0.14716623723506927,-0.09402009099721909
1751620591784979500,20.9149794921875,9.805032730102539,0.14884458482265472,-0.09787800908088684
1751620591803803000,20.933802978515626,9.804993629455566,0.14938189089298248,-0.10087665915489197
1751620591822626300,20.952626220703124,9.804993629455566,0.15000683069229126,-0.09994631260633469
1751620591841449700,20.97144970703125,9.805024147033691,0.1502879559993744,-0.09650345891714096
1751620591860273400,20.9902734375,9.804930686950684,0.15273702144622803,-0.10200672596693039
1751620591879096800,21.009096923828125,9.804839134216309,0.15389765799045563,-0.10879917442798615
1751620591897920300,21.027920166015626,9.804972648620605,0.1511104553937912,-0.10024087131023407
1751620591916743700,21.04674365234375,9.804938316345215,0.1520422399044037,-0.10223673284053802
1751620591935567400,21.0655673828125,9.804862976074219,0.15418493747711182,-0.10610450059175491
1751620591954390800,21.084390869140623,9.804945945739746,0.15261642634868622,-0.10065960884094238
1751620591973214200,21.103214111328125,9.804922103881836,0.15319524705410004,-0.10208988189697266
1751620591992038000,21.122037841796875,9.804877281188965,0.15451698005199432,-0.10433121025562286
1751620592010861300,21.140861328125,9.804919242858887,0.15437842905521393,-0.1005200669169426
1751620592029684700,21.159684814453126,9.80490493774414,0.15459878742694855,-0.10155938565731049
1751620592048508200,21.178508056640624,9.80489444732666,0.15447597205638885,-0.10287227481603622
1751620592067331800,21.197331787109373,9.804926872253418,0.15389037132263184,-0.10055944323539734
1751620592086155300,21.2161552734375,9.80490779876709,0.1548289954662323,-0.10099444538354874
1751620592104978700,21.234978759765625,9.804888725280762,0.15560559928417206,-0.10159533470869064
1751620592123802000,21.253802001953126,9.804913520812988,0.1550082117319107,-0.10019303858280182
1751620592142625800,21.272625732421876,9.804906845092773,0.15517041087150574,-0.10054391622543335
1751620592161449200,21.29144921875,9.804898262023926,0.1558815836906433,-0.10033071786165237
1751620592180272600,21.310272705078123,9.804868698120117,0.1570667028427124,-0.1013743057847023
1751620592199096000,21.329095947265625,9.804588317871094,0.1601911336183548,-0.12154410779476166
1751620592217919700,21.347919677734374,9.804576873779297,0.16031858325004578,-0.12223198264837265
1751620592236743200,21.3667431640625,9.804610252380371,0.16176070272922516,-0.11764649301767349
1751620592255566600,21.385566650390626,9.804625511169434,0.16233234107494354,-0.11549511551856995
1751620592274390300,21.404390380859375,9.805001258850098,0.15429355204105377,-0.0924905315041542
