time,seconds_elapsed,z,y,x
1751620571013256000,0.143255859375,-0.0030543238390237093,-0.00045814859913662076,-0.00045814859913662076
1751620571032079600,0.16207958984375,0.0054977829568088055,0.004428769461810589,0.0019853105768561363
1751620571069726500,0.1997265625,-0.009162971749901772,-0.002901607658714056,-0.00045814859913662076
1751620571107373300,0.237373291015625,0.004276053514331579,0.0007635809597559273,0.0007635809597559273
1751620571135608600,0.265608642578125,0.004276053514331579,0.0007635809597559273,-0.00045814859913662076
1751620571154432000,0.284431884765625,-0.0030543238390237093,-0.005345067009329796,-0.001679878099821508
1751620571173255400,0.30325537109375,-0.001832594396546483,-0.001679878099821508,-0.00045814859913662076
1751620571192079000,0.3220791015625,0.004276053514331579,0.0007635809597559273,-0.00045814859913662076
1751620571210902500,0.340902587890625,0.0030543238390237093,0.0019853105768561363,0.0007635809597559273
1751620571229726000,0.359725830078125,-0.0054977829568088055,-0.00045814859913662076,-0.00045814859913662076
1751620571248549400,0.37854931640625,-0.006719512399286032,-0.001679878099821508,-0.00045814859913662076
1751620571267372800,0.397372802734375,-0.000610864779446274,-0.00045814859913662076,0.0007635809597559273
1751620571286196200,0.4161962890625,0.0030543238390237093,0.0019853105768561363,0.0019853105768561363
1751620571305020000,0.43502001953125,-0.000610864779446274,-0.00045814859913662076,-0.00045814859913662076
1751620571323843300,0.45384326171875,-0.004276053514331579,-0.002901607658714056,-0.00045814859913662076
1751620571342666800,0.472666748046875,-0.000610864779446274,-0.001679878099821508,-0.00045814859913662076
1751620571361490200,0.491490234375,0.0054977829568088055,0.0019853105768561363,0.0007635809597559273
1751620571380313900,0.51031396484375,0.001832594396546483,0.0007635809597559273,-0.00045814859913662076
1751620571399137300,0.52913720703125,-0.0030543238390237093,-0.001679878099821508,-0.00045814859913662076
1751620571417960700,0.547960693359375,-0.004276053514331579,-0.00045814859913662076,-0.00045814859913662076
1751620571436784000,0.5667841796875,0.000610864779446274,0.0007635809597559273,-0.00045814859913662076
1751620571455607600,0.585607666015625,0.001832594396546483,0.0019853105768561363,0.0007635809597559273
1751620571474431200,0.60443115234375,-0.001832594396546483,-0.00045814859913662076,-0.00045814859913662076
1751620571493254700,0.623254638671875,-0.004276053514331579,-0.001679878099821508,-0.00045814859913662076
1751620571512078000,0.642078125,-0.000610864779446274,-0.00045814859913662076,-0.00045814859913662076
1751620571530901500,0.660901611328125,0.0030543238390237093,0.0007635809597559273,0.0007635809597559273
1751620571549725000,0.679724853515625,0.000610864779446274,-0.00045814859913662076,0.0007635809597559273
1751620571568548600,0.698548583984375,-0.001832594396546483,-0.001679878099821508,-0.00045814859913662076
1751620571587372000,0.7173720703125,-0.000610864779446274,-0.00045814859913662076,-0.00045814859913662076
1751620571606195500,0.736195556640625,0.001832594396546483,0.0007635809597559273,0.0007635809597559273
1751620571625019000,0.755018798828125,0.000610864779446274,0.0007635809597559273,-0.00045814859913662076
1751620571643842600,0.773842529296875,-0.0030543238390237093,-0.00045814859913662076,-0.00045814859913662076
1751620571662666000,0.792666015625,-0.0030543238390237093,-0.00045814859913662076,-0.00045814859913662076
1751620571681489400,0.811489501953125,0.000610864779446274,-0.00045814859913662076,0.0007635809597559273
1751620571700312800,0.830312744140625,0.001832594396546483,0.0007635809597559273,-0.00045814859913662076
1751620571719136300,0.84913623046875,-0.000610864779446274,-0.00045814859913662076,-0.00045814859913662076
1751620571737960000,0.8679599609375,-0.001832594396546483,-0.001679878099821508,-0.00045814859913662076
1751620571756783400,0.886783447265625,-0.000610864779446274,-0.00045814859913662076,-0.00045814859913662076
1751620571775606800,0.905606689453125,0.001832594396546483,-0.00045814859913662076,0.0007635809597559273
1751620571794430200,0.92443017578125,-0.000610864779446274,-0.001679878099821508,-0.00045814859913662076
1751620571813253600,0.943253662109375,-0.0030543238390237093,-0.00045814859913662076,-0.00045814859913662076
1751620571832077300,0.962077392578125,-0.001832594396546483,-0.00045814859913662076,-0.00045814859913662076
1751620571850900700,0.980900634765625,0.000610864779446274,0.0007635809597559273,0.0007635809597559273
1751620571869724200,0.99972412109375,-0.000610864779446274,0.0007635809597559273,-0.00045814859913662076
1751620571888547600,1.018547607421875,-0.001832594396546483,-0.00045814859913662076,-0.00045814859913662076
1751620571907371300,1.037371337890625,-0.000610864779446274,-0.00045814859913662076,-0.00045814859913662076
1751620571926194700,1.056194580078125,0.000610864779446274,-0.00045814859913662076,-0.00045814859913662076
1751620571945018000,1.07501806640625,0.001832594396546483,-0.00045814859913662076,-0.00045814859913662076
1751620571963841500,1.093841552734375,-0.000610864779446274,-0.00045814859913662076,-0.00045814859913662076
1751620571982665200,1.112665283203125,-0.001832594396546483,-0.001679878099821508,-0.00045814859913662076
1751620572001488600,1.131488525390625,0.000610864779446274,-0.00045814859913662076,-0.00045814859913662076
1751620572020312000,1.15031201171875,0.000610864779446274,-0.00045814859913662076,0.0007635809597559273
1751620572039135500,1.169135498046875,-0.000610864779446274,-0.00045814859913662076,0.0007635809597559273
1751620572057959000,1.187958984375,-0.001832594396546483,-0.00045814859913662076,-0.00045814859913662076
1751620572076782600,1.206782470703125,-0.000610864779446274,-0.00045814859913662076,0.0007635809597559273
1751620572095606000,1.22560595703125,0.000610864779446274,0.0007635809597559273,0.0007635809597559273
1751620572114429400,1.244429443359375,-0.000610864779446274,0.0007635809597559273,-0.00045814859913662076
1751620572133252900,1.2632529296875,-0.000610864779446274,-0.00045814859913662076,-0.001679878099821508
1751620572152076500,1.28207666015625,-0.000610864779446274,-0.00045814859913662076,-0.00045814859913662076
1751620572170900000,1.30089990234375,0.000610864779446274,-0.00045814859913662076,0.0007635809597559273
1751620572189723400,1.319723388671875,0.000610864779446274,-0.00045814859913662076,-0.00045814859913662076
1751620572208546800,1.338546875,-0.000610864779446274,-0.00045814859913662076,0.0007635809597559273
1751620572227370200,1.357370361328125,-0.001832594396546483,-0.001679878099821508,0.0007635809597559273
1751620572246194000,1.37619384765625,-0.000610864779446274,-0.00045814859913662076,-0.00045814859913662076
1751620572265017300,1.395017333984375,0.000610864779446274,-0.00045814859913662076,0.0007635809597559273
1751620572283840800,1.4138408203125,-0.000610864779446274,-0.00045814859913662076,-0.00045814859913662076
1751620572302664200,1.432664306640625,-0.000610864779446274,-0.00045814859913662076,0.0007635809597559273
1751620572321488000,1.45148779296875,-0.000610864779446274,-0.00045814859913662076,-0.00045814859913662076
1751620572340311300,1.470311279296875,0.000610864779446274,0.0007635809597559273,-0.00045814859913662076
1751620572359134700,1.489134765625,-0.000610864779446274,-0.00045814859913662076,-0.00045814859913662076
1751620572377958100,1.507958251953125,-0.001832594396546483,-0.00045814859913662076,-0.00045814859913662076
1751620572396781800,1.52678173828125,-0.000610864779446274,-0.00045814859913662076,-0.00045814859913662076
1751620572415605200,1.545605224609375,-0.000610864779446274,-0.00045814859913662076,0.0007635809597559273
1751620572434428700,1.5644287109375,-0.000610864779446274,-0.00045814859913662076,0.0007635809597559273
1751620572453252000,1.583252197265625,-0.001832594396546483,-0.00045814859913662076,-0.00045814859913662076
1751620572472075500,1.602075439453125,-0.000610864779446274,-0.001679878099821508,-0.00045814859913662076
1751620572490899200,1.620899169921875,0.000610864779446274,-0.00045814859913662076,-0.00045814859913662076
1751620572509722600,1.63972265625,0.000610864779446274,-0.00045814859913662076,-0.00045814859913662076
1751620572528546000,1.658546142578125,-0.000610864779446274,-0.00045814859913662076,-0.00045814859913662076
1751620572547369500,1.677369384765625,-0.000610864779446274,-0.00045814859913662076,-0.00045814859913662076
1751620572566193000,1.69619287109375,-0.000610864779446274,-0.00045814859913662076,-0.00045814859913662076
1751620572585016600,1.7150166015625,-0.000610864779446274,0.0007635809597559273,0.0007635809597559273
1751620572603840000,1.733840087890625,-0.000610864779446274,-0.00045814859913662076,-0.00045814859913662076
1751620572622663400,1.752663330078125,-0.001832594396546483,0.0007635809597559273,-0.00045814859913662076
1751620572641486800,1.77148681640625,-0.000610864779446274,-0.00045814859913662076,-0.00045814859913662076
1751620572660310500,1.790310546875,-0.000610864779446274,-0.00045814859913662076,0.0007635809597559273
1751620572679134000,1.809134033203125,-0.000610864779446274,-0.00045814859913662076,-0.00045814859913662076
1751620572697957400,1.827957275390625,-0.000610864779446274,-0.00045814859913662076,-0.00045814859913662076
1751620572716780800,1.84678076171875,-0.000610864779446274,-0.00045814859913662076,-0.00045814859913662076
1751620572735604500,1.8656044921875,-0.000610864779446274,-0.00045814859913662076,0.0007635809597559273
1751620572754428000,1.884427978515625,-0.000610864779446274,-0.00045814859913662076,-0.00045814859913662076
1751620572773251300,1.903251220703125,-0.000610864779446274,-0.00045814859913662076,0.0007635809597559273
1751620572792074800,1.92207470703125,-0.001832594396546483,-0.00045814859913662076,-0.00045814859913662076
1751620572810898200,1.940898193359375,-0.001832594396546483,0.0007635809597559273,-0.00045814859913662076
1751620572829721900,1.959721923828125,-0.000610864779446274,-0.00045814859913662076,-0.00045814859913662076
1751620572848545300,1.978545166015625,-0.001832594396546483,-0.00045814859913662076,-0.00045814859913662076
1751620572867368700,1.99736865234375,-0.000610864779446274,-0.00045814859913662076,-0.00045814859913662076
1751620572886192000,2.016192138671875,0.000610864779446274,-0.00045814859913662076,-0.00045814859913662076
1751620572905015600,2.035015625,-0.000610864779446274,-0.00045814859913662076,-0.00045814859913662076
1751620572923839200,2.053839111328125,-0.000610864779446274,-0.00045814859913662076,0.0007635809597559273
1751620572942662700,2.07266259765625,-0.000610864779446274,-0.001679878099821508,-0.00045814859913662076
1751620572961486000,2.091486083984375,-0.000610864779446274,-0.001679878099821508,0.0007635809597559273
1751620572980309500,2.1103095703125,-0.000610864779446274,-0.00045814859913662076,0.0007635809597559273
1751620572999133200,2.12913330078125,-0.000610864779446274,-0.00045814859913662076,-0.00045814859913662076
1751620573017956600,2.14795654296875,-0.000610864779446274,-0.00045814859913662076,0.0007635809597559273
1751620573036780000,2.166780029296875,-0.000610864779446274,-0.00045814859913662076,-0.00045814859913662076
1751620573055603500,2.185603515625,-0.000610864779446274,0.0007635809597559273,-0.00045814859913662076
1751620573074427100,2.20442724609375,-0.000610864779446274,-0.00045814859913662076,-0.00045814859913662076
1751620573093250600,2.22325048828125,-0.000610864779446274,-0.00045814859913662076,-0.00045814859913662076
1751620573112074000,2.242073974609375,-0.000610864779446274,-0.00045814859913662076,-0.00045814859913662076
1751620573130897400,2.2608974609375,-0.000610864779446274,-0.00045814859913662076,-0.00045814859913662076
1751620573149720800,2.279720947265625,-0.000610864779446274,-0.00045814859913662076,-0.00045814859913662076
1751620573168544500,2.29854443359375,-0.000610864779446274,-0.00045814859913662076,-0.00045814859913662076
1751620573187368000,2.317367919921875,-0.000610864779446274,-0.00045814859913662076,0.0007635809597559273
1751620573206191400,2.33619140625,-0.000610864779446274,-0.00045814859913662076,0.0007635809597559273
1751620573225014800,2.355014892578125,-0.000610864779446274,-0.00045814859913662076,-0.00045814859913662076
1751620573243838200,2.373838134765625,-0.000610864779446274,-0.00045814859913662076,0.0007635809597559273
1751620573262662000,2.392661865234375,-0.000610864779446274,-0.00045814859913662076,-0.00045814859913662076
1751620573281485300,2.4114853515625,-0.000610864779446274,-0.00045814859913662076,-0.00045814859913662076
1751620573300308700,2.430308837890625,-0.000610864779446274,-0.00045814859913662076,-0.00045814859913662076
1751620573319132200,2.449132080078125,-0.000610864779446274,-0.00045814859913662076,-0.00045814859913662076
1751620573337955800,2.467955810546875,-0.000610864779446274,-0.00045814859913662076,-0.00045814859913662076
1751620573356779300,2.486779296875,-0.000610864779446274,-0.00045814859913662076,-0.00045814859913662076
1751620573375602700,2.505602783203125,-0.000610864779446274,-0.00045814859913662076,0.0007635809597559273
1751620573394426000,2.524426025390625,-0.000610864779446274,-0.00045814859913662076,-0.00045814859913662076
1751620573413249500,2.54324951171875,0.000610864779446274,-0.00045814859913662076,-0.00045814859913662076
1751620573432073200,2.5620732421875,-0.000610864779446274,-0.00045814859913662076,0.0007635809597559273
1751620573450896600,2.580896728515625,-0.000610864779446274,-0.00045814859913662076,0.0007635809597559273
1751620573469720000,2.599719970703125,-0.000610864779446274,-0.00045814859913662076,-0.00045814859913662076
1751620573488543500,2.61854345703125,-0.0030543238390237093,-0.00045814859913662076,-0.00045814859913662076
1751620573507367000,2.637366943359375,-0.001832594396546483,-0.00045814859913662076,-0.00045814859913662076
1751620573526190600,2.656190673828125,0.000610864779446274,-0.00045814859913662076,-0.00045814859913662076
1751620573545014000,2.675013916015625,0.000610864779446274,0.0007635809597559273,-0.00045814859913662076
1751620573563837400,2.69383740234375,-0.001832594396546483,-0.00045814859913662076,-0.001679878099821508
1751620573582660900,2.712660888671875,-0.001832594396546483,-0.00045814859913662076,-0.00045814859913662076
1751620573601484300,2.731484375,0.000610864779446274,0.0007635809597559273,0.0007635809597559273
1751620573620308000,2.750307861328125,-0.000610864779446274,-0.00045814859913662076,-0.00045814859913662076
1751620573639131400,2.76913134765625,-0.000610864779446274,-0.00045814859913662076,-0.00045814859913662076
1751620573657954800,2.787954833984375,-0.000610864779446274,-0.00045814859913662076,0.0007635809597559273
1751620573676778200,2.8067783203125,-0.000610864779446274,-0.00045814859913662076,-0.00045814859913662076
1751620573695602000,2.825601806640625,-0.000610864779446274,-0.00045814859913662076,-0.00045814859913662076
1751620573714425300,2.84442529296875,0.000610864779446274,-0.00045814859913662076,0.0007635809597559273
1751620573733248800,2.863248779296875,-0.000610864779446274,-0.00045814859913662076,-0.00045814859913662076
1751620573752072200,2.882072265625,-0.000610864779446274,-0.00045814859913662076,-0.00045814859913662076
1751620573770895600,2.9008955078125,-0.000610864779446274,0.0007635809597559273,-0.00045814859913662076
1751620573789719300,2.91971923828125,-0.000610864779446274,-0.00045814859913662076,-0.00045814859913662076
1751620573808542700,2.938542724609375,-0.001832594396546483,-0.00045814859913662076,-0.00045814859913662076
1751620573827366100,2.9573662109375,-0.001832594396546483,0.0007635809597559273,-0.00045814859913662076
1751620573846189600,2.976189453125,-0.000610864779446274,-0.00045814859913662076,0.0007635809597559273
1751620573865013000,2.995012939453125,-0.000610864779446274,-0.00045814859913662076,-0.00045814859913662076
1751620573883836700,3.013836669921875,-0.001832594396546483,-0.00045814859913662076,-0.00045814859913662076
1751620573902660000,3.03266015625,-0.000610864779446274,-0.001679878099821508,-0.00045814859913662076
1751620573921483500,3.0514833984375,0.000610864779446274,-0.001679878099821508,0.0007635809597559273
1751620573940307000,3.070306884765625,0.000610864779446274,-0.001679878099821508,-0.00045814859913662076
1751620573959130600,3.089130615234375,-0.000610864779446274,-0.00045814859913662076,-0.00045814859913662076
1751620573977954000,3.1079541015625,-0.000610864779446274,-0.00045814859913662076,0.0007635809597559273
1751620573996777500,3.126777587890625,-0.000610864779446274,-0.00045814859913662076,0.0007635809597559273
1751620574015601000,3.145600830078125,-0.000610864779446274,0.0007635809597559273,-0.00045814859913662076
1751620574034424300,3.16442431640625,-0.000610864779446274,0.0007635809597559273,-0.00045814859913662076
1751620574053248000,3.183248046875,-0.001832594396546483,-0.00045814859913662076,-0.00045814859913662076
1751620574072071400,3.202071533203125,-0.001832594396546483,-0.00045814859913662076,0.0007635809597559273
1751620574090894800,3.220894775390625,-0.000610864779446274,-0.00045814859913662076,-0.00045814859913662076
1751620574109718300,3.23971826171875,-0.000610864779446274,-0.00045814859913662076,-0.00045814859913662076
1751620574128541700,3.258541748046875,-0.000610864779446274,-0.00045814859913662076,-0.00045814859913662076
1751620574147365400,3.277365478515625,-0.000610864779446274,-0.00045814859913662076,-0.00045814859913662076
1751620574166188800,3.296188720703125,0.000610864779446274,-0.00045814859913662076,-0.00045814859913662076
1751620574185012200,3.31501220703125,-0.000610864779446274,-0.00045814859913662076,-0.00045814859913662076
1751620574203835600,3.333835693359375,-0.000610864779446274,-0.00045814859913662076,-0.00045814859913662076
1751620574222659300,3.352659423828125,-0.000610864779446274,-0.00045814859913662076,0.0007635809597559273
1751620574241482800,3.371482666015625,-0.000610864779446274,-0.00045814859913662076,-0.00045814859913662076
1751620574260306200,3.39030615234375,-0.000610864779446274,-0.00045814859913662076,-0.00045814859913662076
1751620574279129600,3.409129638671875,-0.000610864779446274,-0.00045814859913662076,-0.00045814859913662076
1751620574297953000,3.427953125,-0.000610864779446274,-0.00045814859913662076,0.0007635809597559273
1751620574316776400,3.4467763671875,-0.000610864779446274,-0.00045814859913662076,-0.00045814859913662076
1751620574335600000,3.46560009765625,0.000610864779446274,-0.001679878099821508,-0.00045814859913662076
1751620574354423600,3.484423583984375,-0.000610864779446274,-0.00045814859913662076,-0.00045814859913662076
1751620574373247000,3.5032470703125,-0.000610864779446274,-0.001679878099821508,-0.00045814859913662076
1751620574392070400,3.5220703125,-0.000610864779446274,-0.00045814859913662076,0.0007635809597559273
1751620574410893800,3.540893798828125,-0.000610864779446274,-0.00045814859913662076,0.0007635809597559273
1751620574429717500,3.559717529296875,-0.001832594396546483,-0.00045814859913662076,-0.00045814859913662076
1751620574448541000,3.578541015625,-0.000610864779446274,-0.001679878099821508,0.0007635809597559273
1751620574467364400,3.5973642578125,-0.000610864779446274,-0.00045814859913662076,-0.00045814859913662076
1751620574486187800,3.616187744140625,0.000610864779446274,0.0007635809597559273,-0.00045814859913662076
1751620574505011500,3.635011474609375,-0.000610864779446274,-0.00045814859913662076,-0.00045814859913662076
1751620574523835000,3.6538349609375,0.000610864779446274,-0.00045814859913662076,-0.00045814859913662076
1751620574542658300,3.672658203125,-0.000610864779446274,0.0007635809597559273,-0.00045814859913662076
1751620574561481700,3.691481689453125,-0.001832594396546483,-0.00045814859913662076,0.0007635809597559273
1751620574580305200,3.71030517578125,-0.000610864779446274,0.0007635809597559273,-0.00045814859913662076
1751620574599128600,3.729128662109375,-0.000610864779446274,-0.00045814859913662076,-0.00045814859913662076
1751620574617952300,3.7479521484375,-0.001832594396546483,-0.00045814859913662076,0.0007635809597559273
1751620574636775700,3.766775634765625,-0.000610864779446274,-0.00045814859913662076,0.0007635809597559273
1751620574655599000,3.78559912109375,-0.000610864779446274,-0.00045814859913662076,-0.00045814859913662076
1751620574674422500,3.804422607421875,-0.000610864779446274,-0.00045814859913662076,-0.00045814859913662076
1751620574702657800,3.83265771484375,0.000610864779446274,-0.00045814859913662076,-0.00045814859913662076
1751620574721481200,3.851481201171875,-0.000610864779446274,-0.00045814859913662076,0.0007635809597559273
1751620574740305000,3.870304931640625,-0.000610864779446274,-0.00045814859913662076,0.0007635809597559273
1751620574759128300,3.88912841796875,-0.000610864779446274,-0.00045814859913662076,0.0007635809597559273
1751620574777951700,3.90795166015625,-0.000610864779446274,-0.00045814859913662076,0.0007635809597559273
1751620574796775200,3.926775146484375,0.000610864779446274,-0.00045814859913662076,0.0007635809597559273
1751620574815598600,3.9455986328125,-0.000610864779446274,-0.00045814859913662076,0.0007635809597559273
1751620574834422000,3.964422119140625,-0.001832594396546483,-0.00045814859913662076,-0.00045814859913662076
1751620574853245700,3.98324560546875,-0.000610864779446274,0.0007635809597559273,0.0007635809597559273
1751620574872069000,4.002069091796875,-0.000610864779446274,-0.00045814859913662076,-0.00045814859913662076
1751620574890892500,4.020892578125,0.000610864779446274,-0.00045814859913662076,-0.00045814859913662076
1751620574909716000,4.039716064453125,0.000610864779446274,-0.00045814859913662076,-0.00045814859913662076
1751620574928539600,4.05853955078125,-0.000610864779446274,-0.00045814859913662076,-0.00045814859913662076
1751620574947363000,4.077363037109375,-0.000610864779446274,-0.00045814859913662076,0.0007635809597559273
1751620574966186500,4.0961865234375,-0.000610864779446274,-0.00045814859913662076,0.0007635809597559273
1751620574985010000,4.115010009765625,-0.000610864779446274,-0.00045814859913662076,-0.00045814859913662076
1751620575003833300,4.133833251953125,-0.000610864779446274,-0.00045814859913662076,0.0007635809597559273
1751620575022656800,4.15265673828125,-0.000610864779446274,-0.00045814859913662076,-0.00045814859913662076
1751620575041480400,4.17148046875,-0.001832594396546483,-0.00045814859913662076,-0.00045814859913662076
1751620575060304000,4.190303955078125,0.000610864779446274,-0.00045814859913662076,-0.00045814859913662076
1751620575079127300,4.209127197265625,-0.000610864779446274,-0.00045814859913662076,-0.00045814859913662076
1751620575097950700,4.22795068359375,-0.000610864779446274,-0.00045814859913662076,0.0007635809597559273
1751620575116774100,4.246774169921875,-0.001832594396546483,0.0007635809597559273,-0.00045814859913662076
1751620575135597800,4.265597900390625,-0.000610864779446274,0.0007635809597559273,0.0007635809597559273
1751620575154421200,4.284421142578125,-0.000610864779446274,-0.00045814859913662076,-0.00045814859913662076
1751620575173244700,4.30324462890625,-0.001832594396546483,-0.001679878099821508,-0.00045814859913662076
1751620575192068000,4.322068115234375,-0.000610864779446274,-0.001679878099821508,-0.00045814859913662076
1751620575210891500,4.3408916015625,-0.000610864779446274,-0.00045814859913662076,-0.00045814859913662076
1751620575229715200,4.359715087890625,0.000610864779446274,-0.00045814859913662076,0.0007635809597559273
1751620575248538600,4.37853857421875,-0.000610864779446274,-0.001679878099821508,-0.00045814859913662076
1751620575267362000,4.397362060546875,0.000610864779446274,-0.00045814859913662076,0.0007635809597559273
1751620575286185500,4.416185546875,-0.000610864779446274,0.0007635809597559273,0.0007635809597559273
1751620575305009000,4.4350087890625,-0.000610864779446274,0.0007635809597559273,-0.00045814859913662076
1751620575323832300,4.453832275390625,-0.000610864779446274,-0.00045814859913662076,-0.00045814859913662076
1751620575342656000,4.472656005859375,-0.001832594396546483,0.0007635809597559273,-0.00045814859913662076
1751620575361479400,4.4914794921875,-0.000610864779446274,-0.00045814859913662076,-0.00045814859913662076
1751620575380302800,4.510302734375,-0.000610864779446274,0.0007635809597559273,-0.00045814859913662076
1751620575399126300,4.529126220703125,0.000610864779446274,-0.00045814859913662076,-0.00045814859913662076
1751620575417950000,4.547949951171875,-0.000610864779446274,-0.001679878099821508,-0.00045814859913662076
1751620575436773400,4.5667734375,-0.000610864779446274,-0.001679878099821508,-0.00045814859913662076
1751620575455596800,4.5855966796875,-0.000610864779446274,-0.00045814859913662076,-0.00045814859913662076
1751620575474420200,4.604420166015625,-0.000610864779446274,-0.00045814859913662076,0.0007635809597559273
1751620575493243600,4.62324365234375,-0.0030543238390237093,-0.00045814859913662076,-0.00045814859913662076
1751620575512067000,4.642067138671875,-0.000610864779446274,-0.00045814859913662076,-0.00045814859913662076
1751620575530890800,4.660890869140625,-0.000610864779446274,0.0007635809597559273,-0.00045814859913662076
1751620575549714200,4.679714111328125,-0.000610864779446274,0.0007635809597559273,-0.00045814859913662076
1751620575568537600,4.69853759765625,-0.001832594396546483,-0.00045814859913662076,-0.00045814859913662076
1751620575587361000,4.717361083984375,-0.000610864779446274,-0.00045814859913662076,-0.00045814859913662076
1751620575606184400,4.736184326171875,0.000610864779446274,-0.00045814859913662076,-0.00045814859913662076
1751620575625008000,4.755008056640625,-0.000610864779446274,-0.00045814859913662076,-0.00045814859913662076
1751620575643831600,4.77383154296875,0.000610864779446274,-0.00045814859913662076,-0.00045814859913662076
1751620575662655000,4.792655029296875,-0.001832594396546483,-0.00045814859913662076,-0.00045814859913662076
1751620575681478400,4.811478515625,0.000610864779446274,-0.00045814859913662076,-0.00045814859913662076
1751620575700301800,4.8303017578125,-0.000610864779446274,-0.00045814859913662076,0.0007635809597559273
1751620575719125500,4.84912548828125,-0.001832594396546483,-0.00045814859913662076,0.0007635809597559273
1751620575737949000,4.867948974609375,-0.000610864779446274,-0.00045814859913662076,-0.00045814859913662076
1751620575756772400,4.8867724609375,-0.000610864779446274,-0.00045814859913662076,0.0007635809597559273
1751620575775595800,4.905595703125,-0.000610864779446274,-0.00045814859913662076,-0.00045814859913662076
1751620575794419200,4.924419189453125,-0.000610864779446274,0.0007635809597559273,-0.00045814859913662076
1751620575813242600,4.94324267578125,-0.000610864779446274,0.0007635809597559273,-0.00045814859913662076
1751620575832066300,4.96206640625,-0.000610864779446274,-0.00045814859913662076,-0.00045814859913662076
1751620575850889700,4.9808896484375,-0.000610864779446274,0.0007635809597559273,0.0007635809597559273
1751620575869713200,4.999713134765625,0.000610864779446274,-0.00045814859913662076,0.0007635809597559273
1751620575888536600,5.01853662109375,-0.001832594396546483,-0.00045814859913662076,0.0007635809597559273
1751620575907360300,5.0373603515625,-0.000610864779446274,-0.00045814859913662076,0.0007635809597559273
1751620575926183700,5.05618359375,-0.000610864779446274,-0.00045814859913662076,0.0007635809597559273
1751620575945007000,5.075007080078125,0.000610864779446274,-0.001679878099821508,-0.00045814859913662076
1751620575963830500,5.09383056640625,-0.000610864779446274,-0.00045814859913662076,0.0007635809597559273
1751620575982654000,5.112654052734375,-0.000610864779446274,-0.00045814859913662076,-0.00045814859913662076
1751620576001477400,5.131477294921875,-0.000610864779446274,-0.00045814859913662076,-0.00045814859913662076
1751620576020301000,5.150301025390625,0.000610864779446274,0.0007635809597559273,0.0007635809597559273
1751620576039124500,5.16912451171875,-0.000610864779446274,-0.00045814859913662076,-0.00045814859913662076
1751620576067359700,5.19735986328125,-0.001832594396546483,-0.00045814859913662076,-0.00045814859913662076
1751620576086183200,5.21618310546875,-0.000610864779446274,-0.00045814859913662076,-0.00045814859913662076
1751620576105006600,5.235006591796875,-0.000610864779446274,-0.00045814859913662076,-0.00045814859913662076
1751620576123830000,5.253830078125,-0.000610864779446274,-0.00045814859913662076,0.0007635809597559273
1751620576142653400,5.2726533203125,-0.000610864779446274,-0.00045814859913662076,-0.00045814859913662076
1751620576161477000,5.29147705078125,-0.000610864779446274,-0.00045814859913662076,-0.00045814859913662076
1751620576180300500,5.310300537109375,0.000610864779446274,0.0007635809597559273,-0.00045814859913662076
1751620576199124000,5.3291240234375,-0.000610864779446274,-0.00045814859913662076,-0.00045814859913662076
1751620576217947400,5.347947509765625,-0.000610864779446274,-0.00045814859913662076,-0.00045814859913662076
1751620576236770800,5.366770751953125,-0.000610864779446274,-0.00045814859913662076,-0.00045814859913662076
1751620576255594200,5.38559423828125,-0.001832594396546483,-0.00045814859913662076,0.0007635809597559273
1751620576274418000,5.40441796875,-0.000610864779446274,-0.00045814859913662076,0.0007635809597559273
1751620576293241300,5.423241455078125,-0.000610864779446274,-0.00045814859913662076,0.0007635809597559273
1751620576312064800,5.442064697265625,-0.000610864779446274,-0.001679878099821508,0.0007635809597559273
1751620576330888200,5.46088818359375,-0.000610864779446274,-0.00045814859913662076,-0.00045814859913662076
1751620576349712000,5.4797119140625,0.000610864779446274,-0.00045814859913662076,-0.00045814859913662076
1751620576368535300,5.498535400390625,-0.000610864779446274,-0.00045814859913662076,0.0007635809597559273
1751620576387358700,5.517358642578125,-0.000610864779446274,-0.00045814859913662076,0.0007635809597559273
1751620576406182100,5.53618212890625,-0.000610864779446274,-0.00045814859913662076,-0.00045814859913662076
1751620576425005600,5.555005615234375,-0.000610864779446274,-0.00045814859913662076,-0.00045814859913662076
1751620576443829000,5.5738291015625,-0.000610864779446274,-0.00045814859913662076,-0.00045814859913662076
1751620576462652700,5.592652587890625,0.000610864779446274,-0.00045814859913662076,-0.00045814859913662076
1751620576481476000,5.61147607421875,-0.000610864779446274,-0.00045814859913662076,-0.00045814859913662076
1751620576500299500,5.630299560546875,-0.000610864779446274,-0.00045814859913662076,0.0007635809597559273
1751620576519123000,5.649123046875,0.000610864779446274,-0.00045814859913662076,-0.00045814859913662076
1751620576537946400,5.6679462890625,-0.000610864779446274,-0.00045814859913662076,0.0007635809597559273
1751620576556770000,5.68677001953125,-0.000610864779446274,-0.00045814859913662076,-0.00045814859913662076
1751620576575593500,5.705593505859375,-0.000610864779446274,-0.00045814859913662076,-0.00045814859913662076
1751620576594417000,5.7244169921875,-0.000610864779446274,-0.00045814859913662076,-0.00045814859913662076
1751620576613240300,5.743240234375,-0.000610864779446274,-0.00045814859913662076,0.0007635809597559273
1751620576632063700,5.762063720703125,-0.000610864779446274,-0.00045814859913662076,-0.00045814859913662076
1751620576650887200,5.78088720703125,-0.000610864779446274,-0.00045814859913662076,-0.00045814859913662076
1751620576669710800,5.7997109375,-0.000610864779446274,-0.00045814859913662076,-0.00045814859913662076
1751620576688534300,5.8185341796875,-0.000610864779446274,-0.00045814859913662076,-0.00045814859913662076
1751620576707357700,5.837357666015625,0.000610864779446274,-0.00045814859913662076,-0.00045814859913662076
1751620576726181000,5.85618115234375,-0.000610864779446274,-0.00045814859913662076,0.0007635809597559273
1751620576745004800,5.8750048828125,-0.000610864779446274,-0.00045814859913662076,-0.00045814859913662076
1751620576763828200,5.893828125,-0.000610864779446274,-0.00045814859913662076,0.0007635809597559273
1751620576782651600,5.912651611328125,-0.001832594396546483,-0.00045814859913662076,0.0007635809597559273
1751620576801475000,5.93147509765625,-0.000610864779446274,-0.00045814859913662076,0.0007635809597559273
1751620576820298500,5.950298583984375,-0.000610864779446274,-0.00045814859913662076,0.0007635809597559273
1751620576839122000,5.969121826171875,-0.001832594396546483,-0.00045814859913662076,-0.00045814859913662076
1751620576857945600,5.987945556640625,-0.000610864779446274,-0.00045814859913662076,-0.00045814859913662076
1751620576876769000,6.00676904296875,-0.000610864779446274,-0.00045814859913662076,-0.00045814859913662076
1751620576895592400,6.025592529296875,0.000610864779446274,-0.00045814859913662076,-0.00045814859913662076
1751620576914415900,6.044415771484375,-0.000610864779446274,-0.00045814859913662076,0.0007635809597559273
1751620576933239300,6.0632392578125,-0.000610864779446274,0.0007635809597559273,-0.00045814859913662076
1751620576952063000,6.08206298828125,-0.000610864779446274,-0.00045814859913662076,-0.00045814859913662076
1751620576970886400,6.100886474609375,-0.000610864779446274,-0.00045814859913662076,0.0007635809597559273
1751620576989709800,6.119709716796875,-0.000610864779446274,-0.00045814859913662076,0.0007635809597559273
1751620577008533200,6.138533203125,-0.000610864779446274,-0.00045814859913662076,0.0007635809597559273
1751620577027356700,6.157356689453125,-0.000610864779446274,-0.00045814859913662076,0.0007635809597559273
1751620577046180000,6.17618017578125,-0.000610864779446274,-0.00045814859913662076,-0.00045814859913662076
1751620577074415400,6.204415283203125,0.000610864779446274,-0.00045814859913662076,-0.00045814859913662076
1751620577093238800,6.22323876953125,0.000610864779446274,-0.001679878099821508,-0.00045814859913662076
1751620577112062500,6.2420625,0.000610864779446274,-0.00045814859913662076,0.0007635809597559273
1751620577130886000,6.260885986328125,-0.000610864779446274,-0.00045814859913662076,0.0007635809597559273
1751620577149709300,6.279709228515625,-0.000610864779446274,-0.00045814859913662076,-0.00045814859913662076
1751620577168532700,6.29853271484375,-0.000610864779446274,-0.00045814859913662076,-0.00045814859913662076
1751620577187356200,6.317356201171875,-0.000610864779446274,-0.00045814859913662076,-0.00045814859913662076
1751620577206179800,6.336179931640625,-0.000610864779446274,-0.00045814859913662076,-0.00045814859913662076
1751620577225003300,6.355003173828125,-0.000610864779446274,-0.00045814859913662076,-0.00045814859913662076
1751620577243826700,6.37382666015625,-0.000610864779446274,-0.00045814859913662076,0.0007635809597559273
1751620577262650000,6.392650146484375,-0.000610864779446274,-0.00045814859913662076,-0.00045814859913662076
1751620577281473500,6.4114736328125,0.000610864779446274,0.0007635809597559273,-0.00045814859913662076
1751620577300297000,6.430296875,-0.000610864779446274,-0.00045814859913662076,-0.00045814859913662076
1751620577319120600,6.44912060546875,-0.000610864779446274,-0.00045814859913662076,-0.00045814859913662076
1751620577337944000,6.467944091796875,-0.001832594396546483,-0.00045814859913662076,0.0007635809597559273
1751620577356767500,6.486767578125,-0.000610864779446274,-0.00045814859913662076,0.0007635809597559273
1751620577375591000,6.5055908203125,-0.001832594396546483,-0.00045814859913662076,-0.00045814859913662076
1751620577394414300,6.524414306640625,-0.001832594396546483,-0.00045814859913662076,0.0007635809597559273
1751620577413238000,6.543238037109375,-0.001832594396546483,-0.00045814859913662076,-0.00045814859913662076
1751620577432061400,6.5620615234375,-0.000610864779446274,-0.00045814859913662076,-0.00045814859913662076
1751620577450884900,6.580884765625,-0.000610864779446274,-0.00045814859913662076,0.0007635809597559273
1751620577469708300,6.599708251953125,-0.000610864779446274,-0.00045814859913662076,-0.00045814859913662076
1751620577488531700,6.61853173828125,-0.000610864779446274,-0.00045814859913662076,-0.00045814859913662076
1751620577507355100,6.637355224609375,-0.000610864779446274,-0.00045814859913662076,-0.00045814859913662076
1751620577526178800,6.6561787109375,-0.000610864779446274,-0.00045814859913662076,-0.00045814859913662076
1751620577545002200,6.675002197265625,-0.000610864779446274,-0.00045814859913662076,-0.00045814859913662076
1751620577563825700,6.69382568359375,-0.000610864779446274,-0.00045814859913662076,0.0007635809597559273
1751620577582649000,6.712649169921875,-0.000610864779446274,-0.00045814859913662076,0.0007635809597559273
1751620577601472800,6.73147265625,-0.000610864779446274,-0.00045814859913662076,-0.00045814859913662076
1751620577620296200,6.750296142578125,-0.000610864779446274,-0.00045814859913662076,0.0007635809597559273
1751620577639119600,6.76911962890625,-0.000610864779446274,-0.00045814859913662076,0.0007635809597559273
1751620577657943000,6.787943115234375,-0.000610864779446274,-0.00045814859913662076,-0.00045814859913662076
1751620577676766500,6.806766357421875,-0.000610864779446274,0.0007635809597559273,0.0007635809597559273
1751620577695590000,6.82558984375,-0.000610864779446274,-0.00045814859913662076,-0.00045814859913662076
1751620577714413600,6.84441357421875,-0.000610864779446274,0.0007635809597559273,-0.00045814859913662076
1751620577733237000,6.863237060546875,-0.000610864779446274,-0.00045814859913662076,-0.00045814859913662076
1751620577752060400,6.882060302734375,-0.000610864779446274,-0.00045814859913662076,-0.00045814859913662076
1751620577770883800,6.9008837890625,-0.000610864779446274,-0.00045814859913662076,-0.00045814859913662076
1751620577789707300,6.919707275390625,-0.001832594396546483,-0.00045814859913662076,0.0007635809597559273
1751620577808531000,6.938531005859375,-0.000610864779446274,-0.001679878099821508,0.0007635809597559273
1751620577827354400,6.957354248046875,-0.000610864779446274,-0.00045814859913662076,-0.00045814859913662076
1751620577846177800,6.976177734375,-0.000610864779446274,-0.001679878099821508,0.0007635809597559273
1751620577865001200,6.995001220703125,-0.000610864779446274,-0.00045814859913662076,-0.00045814859913662076
1751620577883824600,7.01382470703125,-0.000610864779446274,-0.00045814859913662076,0.0007635809597559273
1751620577902648000,7.03264794921875,-0.000610864779446274,-0.00045814859913662076,-0.00045814859913662076
1751620577921471700,7.0514716796875,-0.000610864779446274,-0.00045814859913662076,-0.00045814859913662076
1751620577940295200,7.070295166015625,-0.000610864779446274,-0.00045814859913662076,-0.00045814859913662076
1751620577959118600,7.08911865234375,-0.000610864779446274,0.0007635809597559273,-0.00045814859913662076
1751620577977942000,7.10794189453125,-0.000610864779446274,0.0007635809597559273,-0.00045814859913662076
1751620577996765400,7.126765380859375,-0.000610864779446274,-0.00045814859913662076,-0.00045814859913662076
1751620578015589000,7.145589111328125,-0.000610864779446274,-0.00045814859913662076,0.0007635809597559273
1751620578034412500,7.16441259765625,-0.000610864779446274,-0.001679878099821508,-0.00045814859913662076
1751620578053236000,7.183236083984375,-0.000610864779446274,-0.001679878099821508,0.0007635809597559273
1751620578072059400,7.202059326171875,-0.001832594396546483,-0.00045814859913662076,0.0007635809597559273
1751620578090882800,7.2208828125,-0.000610864779446274,-0.00045814859913662076,0.0007635809597559273
1751620578109706500,7.23970654296875,-0.000610864779446274,-0.00045814859913662076,-0.00045814859913662076
1751620578128530000,7.258530029296875,-0.000610864779446274,-0.00045814859913662076,-0.00045814859913662076
1751620578147353300,7.277353271484375,-0.000610864779446274,-0.00045814859913662076,-0.00045814859913662076
1751620578166176800,7.2961767578125,-0.000610864779446274,-0.00045814859913662076,-0.00045814859913662076
1751620578185000200,7.315000244140625,-0.000610864779446274,0.0007635809597559273,-0.00045814859913662076
1751620578203823600,7.33382373046875,-0.000610864779446274,0.0007635809597559273,-0.00045814859913662076
1751620578222647300,7.352647216796875,-0.000610864779446274,-0.00045814859913662076,-0.00045814859913662076
1751620578241470700,7.371470703125,-0.000610864779446274,-0.00045814859913662076,-0.00045814859913662076
1751620578260294100,7.390294189453125,-0.001832594396546483,-0.00045814859913662076,-0.00045814859913662076
1751620578279117600,7.40911767578125,-0.000610864779446274,-0.00045814859913662076,0.0007635809597559273
1751620578297941200,7.427941162109375,-0.001832594396546483,-0.00045814859913662076,-0.00045814859913662076
1751620578316764700,7.4467646484375,-0.000610864779446274,-0.001679878099821508,0.0007635809597559273
1751620578335588000,7.465588134765625,-0.000610864779446274,-0.00045814859913662076,-0.00045814859913662076
1751620578354411500,7.48441162109375,-0.000610864779446274,-0.00045814859913662076,-0.00045814859913662076
1751620578373235000,7.50323486328125,-0.000610864779446274,-0.00045814859913662076,-0.00045814859913662076
1751620578392058600,7.52205859375,-0.000610864779446274,-0.00045814859913662076,-0.00045814859913662076
1751620578410882000,7.540882080078125,-0.000610864779446274,-0.00045814859913662076,-0.00045814859913662076
1751620578429705500,7.55970556640625,-0.000610864779446274,0.0007635809597559273,-0.00045814859913662076
1751620578448529000,7.57852880859375,-0.000610864779446274,-0.00045814859913662076,-0.00045814859913662076
1751620578467352300,7.597352294921875,-0.001832594396546483,0.0007635809597559273,-0.00045814859913662076
1751620578486176000,7.616176025390625,0.000610864779446274,-0.00045814859913662076,-0.00045814859913662076
1751620578504999400,7.63499951171875,-0.000610864779446274,-0.00045814859913662076,0.0007635809597559273
1751620578523822800,7.65382275390625,-0.000610864779446274,-0.00045814859913662076,0.0007635809597559273
1751620578542646300,7.672646240234375,-0.001832594396546483,0.03497200831770897,0.011759147047996521
1751620578561469700,7.6914697265625,0.001832594396546483,-0.0591011680662632,-0.014966187067329884
1751620578580293400,7.71029345703125,0.000610864779446274,0.006872228812426329,0.0019853105768561363
1751620578599116800,7.72911669921875,-0.000610864779446274,0.014202605932950974,0.004428769461810589
1751620578617940200,7.747940185546875,0.000610864779446274,-0.07620538026094437,-0.022296564653515816
1751620578636763600,7.766763671875,-0.001832594396546483,-0.00045814859913662076,-0.00045814859913662076
1751620578655587000,7.785587158203125,-0.000610864779446274,0.0032070400193333626,0.0007635809597559273
1751620578674410800,7.80441064453125,-0.001832594396546483,-0.016340631991624832,-0.005345067009329796
1751620578693234200,7.823234130859375,-0.006719512399286032,-0.056657709181308746,-0.018631376326084137
1751620578712057600,7.8420576171875,-0.02871064469218254,-0.12263110280036926,-0.03940077871084213
1751620578730881000,7.860881103515625,-0.05925388261675835,0.0007635809597559273,0.0007635809597559273
1751620578749704400,7.879704345703125,-0.05436696484684944,0.07773254066705704,0.026419902220368385
1751620578768528100,7.898528076171875,-0.01893680728971958,0.017867794260382652,0.006872228812426329
1751620578787351600,7.9173515625,0.000610864779446274,-0.017562363296747208,-0.005345067009329796
1751620578806175000,7.936175048828125,0.000610864779446274,-0.02367101050913334,-0.007635809946805239
1751620578824998400,7.954998291015625,-0.000610864779446274,-0.012675444595515728,-0.004123337101191282
1751620578843822000,7.973822021484375,-0.001832594396546483,0.006872228812426329,0.0019853105768561363
1751620578862645500,7.9926455078125,-0.0030543238390237093,0.030085090547800064,0.009315688163042068
1751620578881469000,8.011468994140625,-0.001832594396546483,0.03130681812763214,0.010537417605519295
1751620578900292400,8.030292236328124,-0.000610864779446274,-0.00045814859913662076,-0.00045814859913662076
1751620578919116000,8.049115966796874,-0.0030543238390237093,0.02519817277789116,0.008093958720564842
1751620578937939500,8.067939453125,-0.004276053514331579,0.02153298258781433,0.006872228812426329
1751620578956763000,8.086762939453125,-0.04459312930703163,0.011759147047996521,0.004428769461810589
1751620578975586300,8.10558642578125,-0.10445787757635117,0.02764163166284561,0.008093958720564842
1751620578994409700,8.12440966796875,-0.12767073512077332,0.004428769461810589,0.0007635809597559273
1751620579013233400,8.1432333984375,-0.12400554865598679,-0.006566796451807022,-0.002901607658714056
1751620579032056800,8.162056884765626,-0.12156209349632263,-0.005345067009329796,-0.001679878099821508
1751620579050880300,8.18088037109375,-0.13744457066059113,-0.005345067009329796,-0.001679878099821508
1751620579069703700,8.19970361328125,-0.2767217457294464,0.006872228812426329,0.0007635809597559273
1751620579088527000,8.218527099609375,-0.41355544328689575,0.008093958720564842,-0.00045814859913662076
1751620579107350800,8.237350830078125,-0.4477638900279999,0.0032070400193333626,-0.00045814859913662076
1751620579135586000,8.2655859375,-0.3426951467990875,-0.002901607658714056,-0.001679878099821508
1751620579154409500,8.284409423828125,-0.23518294095993042,-0.0102319847792387,-0.004123337101191282
1751620579173233000,8.30323291015625,-0.17165300250053406,-0.02367101050913334,-0.006414080038666725
1751620579192056300,8.322056396484374,-0.22296564280986786,-0.024892739951610565,-0.008857538923621178
1751620579210880000,8.3408798828125,-0.4159989058971405,-0.024892739951610565,-0.008857538923621178
1751620579229703400,8.359703369140625,-0.6322450637817383,-0.001679878099821508,-0.002901607658714056
1751620579248526800,8.37852685546875,-0.7226530313491821,0.014202605932950974,0.0019853105768561363
1751620579267350300,8.397350341796875,-0.6713404059410095,-0.001679878099821508,-0.004123337101191282
1751620579286173700,8.416173583984374,-0.5430588126182556,-0.007788525894284248,-0.005345067009329796
1751620579304997400,8.434997314453126,-0.4013381600379944,-0.012675444595515728,-0.004123337101191282
1751620579323820800,8.45382080078125,-0.32559093832969666,-0.013897174037992954,-0.004123337101191282
1751620579342644200,8.472644287109375,-0.3451386094093323,-0.031001387163996696,-0.010079269297420979
1751620579361467600,8.491467529296875,-0.42821621894836426,-0.04810560122132301,-0.01740964688360691
1751620579380291300,8.510291259765625,-0.5381718873977661,-0.027336198836565018,-0.010079269297420979
1751620579399114800,8.52911474609375,-0.6126973628997803,-0.02000582218170166,-0.007635809946805239
1751620579417938200,8.547938232421876,-0.6114756464958191,-0.028557928279042244,-0.010079269297420979
1751620579436761600,8.56676171875,-0.5516108870506287,-0.017562363296747208,-0.007635809946805239
1751620579455585000,8.5855849609375,-0.4612029194831848,-0.013897174037992954,-0.006414080038666725
1751620579474408700,8.60440869140625,-0.3964512348175049,-0.034666575491428375,-0.013744457624852657
1751620579493232000,8.623232177734375,-0.42332929372787476,-0.02611446939408779,-0.010079269297420979
1751620579512055600,8.6420556640625,-0.5137372612953186,0.010537417605519295,0.0007635809597559273
1751620579530879000,8.66087890625,-0.5894845128059387,0.05696314200758934,0.016646064817905426
1751620579549702700,8.67970263671875,-0.6065887212753296,-0.016340631991624832,-0.007635809946805239
1751620579568526000,8.698526123046875,-0.5564978122711182,-0.007788525894284248,-0.005345067009329796
1751620579587349500,8.717349609375,-0.4819723069667816,-0.004123337101191282,-0.002901607658714056
1751620579606173200,8.736173095703125,-0.4416552484035492,0.011759147047996521,0.0019853105768561363
1751620579624996600,8.75499658203125,-0.4355465769767761,0.009315688163042068,0.0007635809597559273
1751620579643820000,8.773820068359376,-0.4575377106666565,0.03252854943275452,0.006872228812426329
1751620579662643500,8.7926435546875,-0.48563748598098755,-0.005345067009329796,-0.002901607658714056
1751620579681467100,8.811467041015625,-0.5564978122711182,-0.012675444595515728,-0.005345067009329796
1751620579700290600,8.83029052734375,-0.6542361974716187,-0.03588830679655075,-0.011300998739898205
1751620579719114000,8.849114013671874,-0.7617483735084534,-0.024892739951610565,-0.010079269297420979
1751620579737937400,8.8679375,-0.8155044913291931,-0.022449281066656113,-0.010079269297420979
1751620579756760800,8.8867607421875,-0.7849612236022949,-0.02977965772151947,-0.010079269297420979
1751620579775584500,8.90558447265625,-0.7287616729736328,-0.031001387163996696,-0.011300998739898205
1751620579794408000,8.924407958984375,-0.7018836140632629,-0.02611446939408779,-0.008857538923621178
1751620579813231400,8.9432314453125,-0.6701186895370483,-0.011453714221715927,-0.005345067009329796
1751620579832054800,8.9620546875,-0.6957749724388123,-0.004123337101191282,-0.005345067009329796
1751620579850878500,8.98087841796875,-0.8118392825126648,-0.009010255336761475,-0.006414080038666725
1751620579869702000,8.999701904296876,-0.9767727851867676,-0.02367101050913334,-0.010079269297420979
1751620579888525300,9.018525390625,-1.1038326025009155,-0.016340631991624832,-0.007635809946805239
1751620579907348700,9.0373486328125,-1.229670763015747,-0.02611446939408779,-0.010079269297420979
1751620579926172400,9.05617236328125,-1.3261874914169312,-0.02611446939408779,-0.011300998739898205
1751620579944995800,9.074995849609374,-1.3164136409759521,-0.022449281066656113,-0.010079269297420979
1751620579963819300,9.0938193359375,-1.2382229566574097,-0.021227551624178886,-0.008857538923621178
1751620579982642700,9.112642578125,-1.1588104963302612,-0.016340631991624832,-0.008857538923621178
1751620580001466400,9.13146630859375,-1.0952805280685425,-0.018784092739224434,-0.008857538923621178
1751620580020289800,9.150289794921875,-1.064737319946289,-0.02000582218170166,-0.008857538923621178
1751620580039113200,9.16911328125,-1.0378592014312744,-0.021227551624178886,-0.008857538923621178
1751620580057936600,9.1879365234375,-0.9975422024726868,-0.040775224566459656,-0.012522728182375431
1751620580076760300,9.20676025390625,-0.925460159778595,-0.024892739951610565,-0.008857538923621178
1751620580095583700,9.225583740234375,-0.8142827749252319,-0.027336198836565018,-0.010079269297420979
1751620580114407200,9.2444072265625,-0.7141009569168091,-0.004123337101191282,-0.004123337101191282
1751620580133230600,9.263230712890625,-0.7141009569168091,-0.009010255336761475,-0.005345067009329796
1751620580152054300,9.28205419921875,-0.7898481488227844,-0.012675444595515728,-0.005345067009329796
1751620580170877700,9.300877685546874,-0.8900299668312073,-0.034666575491428375,-0.011300998739898205
1751620580189701000,9.319701171875,-0.9266818761825562,-0.018784092739224434,-0.007635809946805239
1751620580208524800,9.33852490234375,-0.8826996088027954,-0.0102319847792387,-0.006414080038666725
1751620580227348200,9.35734814453125,-0.8252783417701721,-0.012675444595515728,-0.006414080038666725
1751620580246171600,9.376171630859375,-0.7739656567573547,-0.013897174037992954,-0.005345067009329796
1751620580264995000,9.3949951171875,-0.7654135823249817,-0.002901607658714056,-0.002901607658714056
1751620580283818800,9.41381884765625,-0.7776308655738831,-0.0102319847792387,-0.006414080038666725
1751620580302642200,9.43264208984375,-0.8179479241371155,-0.016340631991624832,-0.006414080038666725
1751620580321465600,9.451465576171875,-0.8741474747657776,-0.017562363296747208,-0.007635809946805239
1751620580340289300,9.470289306640625,-0.9572250843048096,-0.016340631991624832,-0.008857538923621178
1751620580359112700,9.48911279296875,-1.0317505598068237,-0.018784092739224434,-0.010079269297420979
1751620580377936100,9.50793603515625,-1.1013891696929932,-0.10186170041561127,-0.0308486707508564
1751620580396759600,9.526759521484376,-1.074511170387268,-0.0334448479115963,-0.014966187067329884
1751620580415583200,9.545583251953126,-0.9596685767173767,-0.02367101050913334,-0.011300998739898205
1751620580434406700,9.56440673828125,-0.8387173414230347,-0.02000582218170166,-0.010079269297420979
1751620580453230000,9.58322998046875,-0.7483093738555908,-0.01511890348047018,-0.007635809946805239
1751620580472053500,9.602053466796875,-0.6701186895370483,-0.013897174037992954,-0.007635809946805239
1751620580490877200,9.620877197265624,-0.6139190793037415,-0.01511890348047018,-0.006414080038666725
1751620580509700600,9.63970068359375,-0.5589412450790405,-0.011453714221715927,-0.005345067009329796
1751620580528524000,9.65852392578125,-0.4929678738117218,-0.007788525894284248,-0.005345067009329796
1751620580547347500,9.677347412109375,-0.4770853817462921,-0.007788525894284248,-0.004123337101191282
1751620580566171100,9.696171142578125,-0.5381718873977661,-0.011453714221715927,-0.005345067009329796
1751620580584994600,9.71499462890625,-0.6212494969367981,-0.016340631991624832,-0.007635809946805239
1751620580603818000,9.73381787109375,-0.6688969135284424,-0.021227551624178886,-0.008857538923621178
1751620580622641700,9.7526416015625,-0.6725621223449707,-0.024892739951610565,-0.008857538923621178
1751620580641465000,9.771465087890626,-0.6603448390960693,-0.04321868345141411,-0.013744457624852657
1751620580660288500,9.79028857421875,-0.6701186895370483,-0.009010255336761475,-0.004123337101191282
1751620580679112000,9.80911181640625,-0.7641918659210205,-0.046883873641490936,-0.014966187067329884
1751620580697935600,9.827935546875,-0.8619301915168762,-0.012675444595515728,-0.005345067009329796
1751620580716759000,9.846759033203124,-0.9022472500801086,-0.016340631991624832,-0.006414080038666725
1751620580735582500,9.86558251953125,-0.8741474747657776,-0.03711003437638283,-0.012522728182375431
1751620580754406100,9.88440625,-0.850934624671936,-0.02367101050913334,-0.007635809946805239
1751620580773229600,9.9032294921875,-0.8545998334884644,-0.046883873641490936,-0.016187917441129684
1751620580792053000,9.922052978515625,-0.9193515181541443,0.011759147047996521,-0.00045814859913662076
1751620580810876400,9.94087646484375,-1.025641918182373,0.014202605932950974,-0.00045814859913662076
1751620580829700000,9.9597001953125,-1.1343759298324585,-0.022449281066656113,-0.010079269297420979
1751620580848523500,9.9785234375,-1.1771364212036133,-0.028557928279042244,-0.012522728182375431
1751620580867347000,9.997346923828125,-1.1062761545181274,-0.018784092739224434,-0.010079269297420979
1751620580886170600,10.016170654296875,-0.9669989347457886,-0.02000582218170166,-0.008857538923621178
1751620580904994000,10.034994140625,-0.8778126835823059,-0.016340631991624832,-0.007635809946805239
1751620580923817500,10.0538173828125,-0.9034690260887146,-0.021227551624178886,-0.008857538923621178
1751620580942641000,10.072640869140624,-1.0598503351211548,-0.017562363296747208,-0.008857538923621178
1751620580961464600,10.091464599609376,-1.3139700889587402,-0.027336198836565018,-0.012522728182375431
1751620580980288000,10.1102880859375,-1.4361430406570435,-0.060322895646095276,-0.023518294095993042
1751620580999111400,10.129111328125,-1.4019346237182617,0.02519817277789116,0.0007635809597559273
1751620581017935000,10.14793505859375,-1.2699878215789795,-0.02367101050913334,-0.012522728182375431
1751620581036758500,10.166758544921874,-1.1026109457015991,-0.05543597787618637,-0.02000582218170166
1751620581055582000,10.18558203125,-0.9120211005210876,-0.02367101050913334,-0.008857538923621178
1751620581074405400,10.2044052734375,-0.7861829996109009,-0.02367101050913334,-0.010079269297420979
1751620581093229000,10.22322900390625,-0.7837395071983337,-0.02367101050913334,-0.010079269297420979
1751620581112052500,10.242052490234375,-0.8863648176193237,-0.011453714221715927,-0.006414080038666725
1751620581130876000,10.2608759765625,-1.0231984853744507,-0.031001387163996696,-0.012522728182375431
1751620581149699600,10.279699462890624,-1.0903936624526978,-0.027336198836565018,-0.012522728182375431
1751620581168523000,10.29852294921875,-1.026863694190979,-0.02977965772151947,-0.012522728182375431
1751620581187346400,10.317346435546876,-0.9095776677131653,-0.044440411031246185,-0.016187917441129684
1751620581206169900,10.336169921875,-0.8350521326065063,-0.034666575491428375,-0.013744457624852657
1751620581224993500,10.35499365234375,-0.7739656567573547,-0.004123337101191282,-0.004123337101191282
1751620581243817000,10.37381689453125,-0.8093958497047424,0.016646064817905426,0.0019853105768561363
1751620581262640400,10.392640380859374,-0.9804379940032959,-0.017562363296747208,-0.008857538923621178
1751620581281464000,10.411464111328126,-1.0036507844924927,-0.013897174037992954,-0.008857538923621178
1751620581300287500,10.43028759765625,-0.8045089244842529,-0.02367101050913334,-0.008857538923621178
1751620581319111000,10.44911083984375,-0.6090322136878967,-0.016340631991624832,-0.006414080038666725
1751620581337934300,10.467934326171875,-0.5296197533607483,-0.007788525894284248,-0.004123337101191282
1751620581356758000,10.486758056640625,-0.5870410799980164,-0.0102319847792387,-0.005345067009329796
1751620581375581400,10.50558154296875,-0.7116574645042419,-0.016340631991624832,-0.007635809946805239
1751620581394404900,10.52440478515625,-0.7422007322311401,-0.02611446939408779,-0.008857538923621178
1751620581413228500,10.543228515625,-0.6420188546180725,-0.02000582218170166,-0.006414080038666725
1751620581432052000,10.562052001953125,-0.47464191913604736,-0.009010255336761475,-0.004123337101191282
1751620581450875400,10.58087548828125,-0.38301220536231995,-0.005345067009329796,-0.002901607658714056
1751620581469699000,10.599698974609375,-0.45387253165245056,-0.012675444595515728,-0.004123337101191282
1751620581488522500,10.6185224609375,-0.6359102129936218,-0.0102319847792387,-0.005345067009329796
1751620581507346000,10.637345947265626,-0.7959567904472351,-0.018784092739224434,-0.008857538923621178
1751620581526169300,10.65616943359375,-0.7483093738555908,-0.024892739951610565,-0.008857538923621178
1751620581544993000,10.674992919921875,-0.5662716627120972,-0.016340631991624832,-0.006414080038666725
1751620581563816400,10.69381640625,-0.4221075773239136,-0.007788525894284248,-0.002901607658714056
1751620581582639900,10.712639892578125,-0.430659681558609,-0.005345067009329796,-0.004123337101191282
1751620581601463600,10.731463623046874,-0.5161807537078857,-0.006566796451807022,-0.004123337101191282
1751620581620287000,10.750286865234376,-0.5198459029197693,-0.007788525894284248,-0.004123337101191282
1751620581639110400,10.7691103515625,-0.4685332775115967,-0.007788525894284248,-0.002901607658714056
1751620581657933800,10.787933837890625,-0.37323838472366333,-0.006566796451807022,-0.002901607658714056
1751620581676757500,10.806757568359375,-0.36835145950317383,-0.006566796451807022,-0.002901607658714056
1751620581695581000,10.825580810546874,-0.4269944727420807,-0.007788525894284248,-0.004123337101191282
1751620581714404400,10.844404296875,-0.49663305282592773,-0.009010255336761475,-0.004123337101191282
1751620581733228000,10.86322802734375,-0.5369501113891602,-0.0102319847792387,-0.004123337101191282
1751620581752051500,10.882051513671875,-0.5577195286750793,-0.0102319847792387,-0.005345067009329796
1751620581770875000,10.900875,-0.5882627964019775,-0.013897174037992954,-0.005345067009329796
1751620581789698600,10.919698486328125,-0.5662716627120972,-0.012675444595515728,-0.005345067009329796
1751620581808522000,10.93852197265625,-0.5039634704589844,-0.011453714221715927,-0.005345067009329796
1751620581827345400,10.957345458984374,-0.430659681558609,-0.0102319847792387,-0.004123337101191282
1751620581846168800,10.9761689453125,-0.3964512348175049,-0.007788525894284248,-0.002901607658714056
1751620581864992500,10.994992431640625,-0.4526508152484894,-0.004123337101191282,-0.002901607658714056
1751620581883816000,11.01381591796875,-0.5442805290222168,-0.009010255336761475,-0.004123337101191282
1751620581902639400,11.032639404296875,-0.5381718873977661,-0.013897174037992954,-0.005345067009329796
1751620581921463000,11.051463134765624,-0.4379900395870209,-0.02611446939408779,-0.007635809946805239
1751620581940286500,11.070286376953124,-0.389120876789093,0.0019853105768561363,-0.00045814859913662076
1751620581959110000,11.08910986328125,-0.472198486328125,-0.018784092739224434,-0.006414080038666725
1751620581977933600,11.10793359375,-0.535728394985199,-0.044440411031246185,-0.013744457624852657
1751620581996757000,11.126757080078125,-0.6579013466835022,-0.12140937149524689,-0.034666575491428375
1751620582015580400,11.145580322265625,-0.7226530313491821,-0.018784092739224434,-0.005345067009329796
1751620582034404000,11.164404052734374,-0.5406153202056885,-0.022449281066656113,-0.005345067009329796
1751620582053227500,11.1832275390625,-0.34636032581329346,-0.007788525894284248,-0.00045814859913662076
1751620582072051000,11.202051025390626,-0.3744601011276245,0.0007635809597559273,0.0007635809597559273
1751620582090874600,11.22087451171875,-0.4673115611076355,-0.012675444595515728,-0.004123337101191282
1751620582109698000,11.239697998046875,-0.43432486057281494,-0.012675444595515728,-0.005345067009329796
1751620582128521500,11.258521484375,-0.3707949221134186,-0.012675444595515728,-0.004123337101191282
1751620582147345000,11.277344970703124,-0.36835145950317383,-0.00045814859913662076,-0.00045814859913662076
1751620582166168600,11.29616845703125,-0.4318813979625702,-0.013897174037992954,-0.006414080038666725
1751620582184992000,11.314991943359376,-0.5112938284873962,-0.011453714221715927,-0.005345067009329796
1751620582203815400,11.3338154296875,-0.5882627964019775,-0.02000582218170166,-0.008857538923621178
1751620582222639000,11.35263916015625,-0.6444623470306396,-0.01511890348047018,-0.007635809946805239
1751620582241462500,11.371462646484375,-0.6273581385612488,-0.011453714221715927,-0.006414080038666725
1751620582260286000,11.390285888671874,-0.5687150955200195,-0.001679878099821508,-0.004123337101191282
1751620582279109600,11.409109619140626,-0.5369501113891602,-0.005345067009329796,-0.004123337101191282
1751620582297933000,11.42793310546875,-0.6126973628997803,-0.005345067009329796,-0.004123337101191282
1751620582316756500,11.446756591796875,-0.6579013466835022,-0.03955349326133728,-0.016187917441129684
1751620582335580200,11.465580078125,-0.6420188546180725,-0.02000582218170166,-0.010079269297420979
1751620582354403600,11.484403564453125,-0.6542361974716187,-0.012675444595515728,-0.006414080038666725
1751620582373227000,11.50322705078125,-0.7434224486351013,-0.07620538026094437,-0.028405211865901947
1751620582392050700,11.52205078125,-0.7067705392837524,-0.027336198836565018,-0.013744457624852657
1751620582410874000,11.5408740234375,-0.5943714380264282,0.07895427197217941,0.023976443335413933
1751620582429697500,11.559697509765625,-0.6139190793037415,0.03497200831770897,0.010537417605519295
1751620582448521000,11.57852099609375,-0.5894845128059387,0.0007635809597559273,-0.002901607658714056
1751620582467344600,11.5973447265625,-0.49418962001800537,-0.005345067009329796,-0.004123337101191282
1751620582486168000,11.61616796875,-0.39889469742774963,-0.002901607658714056,-0.002901607658714056
1751620582504991500,11.634991455078126,-0.4159989058971405,-0.009010255336761475,-0.005345067009329796
1751620582523815200,11.653815185546875,-0.4453204274177551,-0.011453714221715927,-0.005345067009329796
1751620582542638600,11.672638671875,-0.45387253165245056,-0.016340631991624832,-0.005345067009329796
1751620582561462000,11.6914619140625,-0.36224281787872314,-0.021227551624178886,-0.006414080038666725
1751620582580285700,11.71028564453125,-0.268169641494751,-0.02611446939408779,-0.007635809946805239
1751620582599109000,11.729109130859374,-0.2828303873538971,-0.021227551624178886,-0.007635809946805239
1751620582617932500,11.7479326171875,-0.24740023910999298,0.0154243353754282,0.004428769461810589
1751620582636756200,11.766756103515625,-0.24862197041511536,-0.024892739951610565,-0.008857538923621178
1751620582655579600,11.78557958984375,-0.2987128794193268,0.011759147047996521,0.0007635809597559273
1751620582674403000,11.804403076171875,-0.33536475896835327,-0.03955349326133728,-0.014966187067329884
1751620582693226800,11.823226806640625,-0.20830489695072174,-0.0639880821108818,-0.023518294095993042
1751620582712050200,11.84205029296875,-0.1386663019657135,-0.050549060106277466,-0.02000582218170166
1751620582730873600,11.86087353515625,-0.18875721096992493,-0.09453132748603821,-0.034666575491428375
1751620582749697300,11.879697265625,-0.19608759880065918,-0.06154462695121765,-0.023518294095993042
1751620582768520700,11.898520751953125,-0.1496618688106537,0.04718930274248123,0.014202605932950974
1751620582787344100,11.91734423828125,-0.13622283935546875,0.0435241162776947,0.012980876490473747
1751620582806167800,11.936167724609374,-0.143553227186203,0.07040216773748398,0.022754713892936707
1751620582824991200,11.9549912109375,-0.14233149588108063,0.006872228812426329,0.0019853105768561363
1751620582843814700,11.973814697265626,-0.18631376326084137,0.012980876490473747,0.0032070400193333626
1751620582862638300,11.992638427734375,-0.24373504519462585,0.0154243353754282,0.004428769461810589
1751620582881461800,12.011461669921875,-0.35613417625427246,0.016646064817905426,0.004428769461810589
1751620582900285200,12.03028515625,-0.46364638209342957,0.008093958720564842,-0.00045814859913662076
1751620582919108900,12.04910888671875,-0.47952884435653687,0.0007635809597559273,-0.002901607658714056
1751620582937932300,12.067932373046874,-0.472198486328125,-0.002901607658714056,-0.004123337101191282
1751620582956755700,12.086755615234376,-0.46608981490135193,-0.00045814859913662076,-0.002901607658714056
1751620582975579100,12.1055791015625,-0.48075059056282043,-0.004123337101191282,-0.004123337101191282
1751620582994402800,12.12440283203125,-0.5125155448913574,0.005650499369949102,-0.00045814859913662076
1751620583013226200,12.143226318359375,-0.5564978122711182,0.0007635809597559273,-0.002901607658714056
1751620583032049700,12.162049560546874,-0.5809323787689209,0.0007635809597559273,-0.002901607658714056
1751620583050873300,12.180873291015626,-0.4612029194831848,-0.007788525894284248,-0.002901607658714056
1751620583069696800,12.19969677734375,-0.3280344009399414,-0.004123337101191282,-0.001679878099821508
1751620583088520200,12.218520263671875,-0.25473061203956604,-0.006566796451807022,-0.002901607658714056
1751620583107344000,12.23734375,-0.31093016266822815,-0.007788525894284248,-0.004123337101191282
1751620583126167300,12.256167236328125,-0.5064069032669067,-0.009010255336761475,-0.006414080038666725
1751620583144990700,12.27499072265625,-0.7605266571044922,-0.0102319847792387,-0.007635809946805239
1751620583163814400,12.293814453125,-0.8717040419578552,-0.011453714221715927,-0.008857538923621178
1751620583182637800,12.312637939453126,-0.7373138070106506,-0.013897174037992954,-0.007635809946805239
1751620583201461200,12.331461181640625,-0.47586366534233093,-0.011453714221715927,-0.004123337101191282
1751620583220285000,12.350284912109375,-0.2571740746498108,-0.007788525894284248,-0.002901607658714056
1751620583239108400,12.3691083984375,-0.19608759880065918,-0.006566796451807022,-0.002901607658714056
1751620583257931800,12.387931884765624,-0.30970844626426697,-0.006566796451807022,-0.002901607658714056
1751620583276755500,12.40675537109375,-0.5015199780464172,-0.006566796451807022,-0.004123337101191282
1751620583304990700,12.43499072265625,-0.6640099883079529,-0.0102319847792387,-0.005345067009329796
1751620583323814100,12.453814208984374,-0.6261364221572876,-0.011453714221715927,-0.005345067009329796
1751620583342637600,12.472637451171876,-0.5186241865158081,-0.0102319847792387,-0.004123337101191282
1751620583361461200,12.491461181640625,-0.4355465769767761,-0.0102319847792387,-0.004123337101191282
1751620583380284700,12.51028466796875,-0.42332929372787476,-0.011453714221715927,-0.002901607658714056
1751620583399108000,12.529108154296875,-0.4917461574077606,-0.011453714221715927,-0.004123337101191282
1751620583417931800,12.547931884765624,-0.6261364221572876,-0.012675444595515728,-0.005345067009329796
1751620583436755200,12.566755126953124,-0.721431314945221,-0.012675444595515728,-0.006414080038666725
1751620583455578600,12.58557861328125,-0.7128791809082031,-0.016340631991624832,-0.005345067009329796
1751620583474402300,12.60440234375,-0.6065887212753296,-0.018784092739224434,-0.006414080038666725
1751620583493225700,12.623225830078125,-0.5161807537078857,-0.024892739951610565,-0.007635809946805239
1751620583512049200,12.642049072265625,-0.5015199780464172,-0.022449281066656113,-0.007635809946805239
1751620583530872600,12.66087255859375,-0.5296197533607483,-0.018784092739224434,-0.006414080038666725
1751620583549696300,12.6796962890625,-0.5760455131530762,-0.016340631991624832,-0.006414080038666725
1751620583568519700,12.698519775390626,-0.6126973628997803,-0.00045814859913662076,-0.001679878099821508
1751620583587343000,12.717343017578125,-0.583375871181488,-0.0102319847792387,-0.004123337101191282
1751620583606166800,12.736166748046875,-0.5039634704589844,-0.0102319847792387,-0.004123337101191282
1751620583624990200,12.754990234375,-0.43310311436653137,-0.0102319847792387,-0.004123337101191282
1751620583643813600,12.773813720703124,-0.4269944727420807,-0.021227551624178886,-0.006414080038666725
1751620583662637300,12.79263720703125,-0.49052441120147705,-0.018784092739224434,-0.006414080038666725
1751620583681460700,12.811460693359376,-0.5577195286750793,-0.009010255336761475,-0.004123337101191282
1751620583700284200,12.8302841796875,-0.5601630210876465,-0.009010255336761475,-0.004123337101191282
1751620583719107800,12.84910791015625,-0.49663305282592773,-0.011453714221715927,-0.005345067009329796
1751620583737931300,12.86793115234375,-0.4416552484035492,-0.007788525894284248,-0.004123337101191282
1751620583756754700,12.886754638671874,-0.3903425931930542,-0.006566796451807022,-0.004123337101191282
1751620583775578400,12.905578369140626,-0.3536907136440277,-0.005345067009329796,-0.002901607658714056
1751620583794401800,12.92440185546875,-0.3231474757194519,-0.006566796451807022,-0.002901607658714056
1751620583813225200,12.94322509765625,-0.3182605504989624,-0.005345067009329796,-0.002901607658714056
1751620583832049000,12.962048828125,-0.29138249158859253,-0.005345067009329796,-0.002901607658714056
1751620583850872300,12.980872314453125,-0.2510654330253601,-0.004123337101191282,-0.002901607658714056
1751620583869695700,12.99969580078125,-0.20952661335468292,-0.005345067009329796,-0.001679878099821508
1751620583888519400,13.01851953125,-0.19608759880065918,-0.004123337101191282,-0.001679878099821508
1751620583907342800,13.0373427734375,-0.23518294095993042,-0.004123337101191282,-0.001679878099821508
1751620583926166300,13.056166259765625,-0.2938259541988373,-0.005345067009329796,-0.002901607658714056
1751620583944990000,13.074989990234375,-0.3280344009399414,-0.007788525894284248,-0.002901607658714056
1751620583963813400,13.0938134765625,-0.3402516841888428,-0.009010255336761475,-0.004123337101191282
1751620583982636800,13.11263671875,-0.3536907136440277,-0.009010255336761475,-0.004123337101191282
1751620584001460500,13.13146044921875,-0.3536907136440277,-0.009010255336761475,-0.004123337101191282
1751620584020284000,13.150283935546875,-0.32192572951316833,-0.009010255336761475,-0.004123337101191282
1751620584039107300,13.169107421875,-0.31093016266822815,-0.009010255336761475,-0.004123337101191282
1751620584057931000,13.187930908203125,-0.33047783374786377,-0.0102319847792387,-0.004123337101191282
1751620584076754400,13.20675439453125,-0.35246896743774414,-0.007788525894284248,-0.002901607658714056
1751620584095577900,13.225577880859374,-0.33169957995414734,-0.009010255336761475,-0.002901607658714056
1751620584114401500,13.244401611328126,-0.29138249158859253,-0.006566796451807022,-0.002901607658714056
1751620584133225000,13.263224853515625,-0.2767217457294464,-0.005345067009329796,-0.001679878099821508
1751620584152048400,13.28204833984375,-0.268169641494751,-0.005345067009329796,-0.001679878099821508
1751620584170872000,13.3008720703125,-0.258395791053772,-0.006566796451807022,-0.002901607658714056
1751620584189695500,13.319695556640625,-0.258395791053772,-0.005345067009329796,-0.002901607658714056
1751620584208519000,13.338518798828124,-0.258395791053772,-0.004123337101191282,-0.002901607658714056
1751620584227342600,13.357342529296876,-0.24862197041511536,-0.006566796451807022,-0.004123337101191282
1751620584246166000,13.376166015625,-0.26939135789871216,-0.0102319847792387,-0.004123337101191282
1751620584264989400,13.394989501953125,-0.3243691921234131,-0.012675444595515728,-0.005345067009329796
1751620584283813000,13.413813232421875,-0.3903425931930542,-0.02611446939408779,-0.007635809946805239
1751620584302636500,13.432636474609374,-0.44409868121147156,-0.01511890348047018,-0.005345067009329796
1751620584321460000,13.4514599609375,-0.5149590373039246,-0.0102319847792387,-0.004123337101191282
1751620584340283600,13.47028369140625,-0.5332849621772766,0.02764163166284561,0.005650499369949102
1751620584359107000,13.489107177734375,-0.4685332775115967,-0.007788525894284248,-0.002901607658714056
1751620584377930500,13.507930419921875,-0.42943793535232544,-0.013897174037992954,-0.004123337101191282
1751620584396754200,13.526754150390625,-0.48563748598098755,-0.02977965772151947,-0.008857538923621178
1751620584415577600,13.54557763671875,-0.5699368119239807,-0.01511890348047018,-0.006414080038666725
1751620584434401000,13.564401123046874,-0.6078104376792908,-0.004123337101191282,-0.004123337101191282
1751620584453224700,13.583224609375,-0.545502245426178,-0.01511890348047018,-0.006414080038666725
1751620584472048000,13.602048095703125,-0.4221075773239136,-0.024892739951610565,-0.007635809946805239
1751620584490871600,13.62087158203125,-0.33047783374786377,-0.012675444595515728,-0.004123337101191282
1751620584509695200,13.6396953125,-0.3133736252784729,-0.011453714221715927,-0.004123337101191282
1751620584528518700,13.6585185546875,-0.3756818473339081,-0.013897174037992954,-0.005345067009329796
1751620584547342000,13.677342041015624,-0.430659681558609,-0.012675444595515728,-0.004123337101191282
1751620584566165800,13.696165771484376,-0.44409868121147156,-0.012675444595515728,-0.005345067009329796
1751620584584989200,13.7149892578125,-0.4172206521034241,-0.013897174037992954,-0.004123337101191282
1751620584603812600,13.7338125,-0.4062250852584839,-0.022449281066656113,-0.006414080038666725
1751620584622636300,13.75263623046875,-0.42332929372787476,-0.046883873641490936,-0.013744457624852657
1751620584641459700,13.771459716796874,-0.4477638900279999,-0.028557928279042244,-0.008857538923621178
1751620584660283100,13.790283203125,-0.42088583111763,-0.0334448479115963,-0.010079269297420979
1751620584679106800,13.80910693359375,-0.3744601011276245,-0.021227551624178886,-0.006414080038666725
1751620584697930200,13.82793017578125,-0.3756818473339081,-0.00045814859913662076,-0.001679878099821508
1751620584716753700,13.846753662109375,-0.3634645342826843,-0.013897174037992954,-0.005345067009329796
1751620584735577300,13.865577392578125,-0.4514290690422058,-0.009010255336761475,-0.004123337101191282
1751620584754400800,13.88440087890625,-0.4978547990322113,-0.005345067009329796,-0.002901607658714056
1751620584773224200,13.90322412109375,-0.44898560643196106,-0.0102319847792387,-0.004123337101191282
1751620584792047900,13.9220478515625,-0.3805687427520752,-0.0102319847792387,-0.004123337101191282
1751620584810871300,13.940871337890625,-0.3597993552684784,-0.007788525894284248,-0.004123337101191282
1751620584829694700,13.95969482421875,-0.3756818473339081,-0.005345067009329796,-0.002901607658714056
1751620584848518400,13.978518310546875,-0.3634645342826843,-0.009010255336761475,-0.004123337101191282
1751620584867341800,13.997341796875,-0.3182605504989624,-0.009010255336761475,-0.004123337101191282
1751620584886165200,14.016165283203126,-0.2974911332130432,-0.004123337101191282,-0.002901607658714056
1751620584904989000,14.034989013671876,-0.2816086709499359,-0.004123337101191282,-0.002901607658714056
1751620584923812400,14.053812255859375,-0.2559523284435272,-0.004123337101191282,-0.002901607658714056
1751620584942635800,14.0726357421875,-0.19364413619041443,-0.004123337101191282,-0.001679878099821508
1751620584961459500,14.09145947265625,-0.11423171311616898,-0.00045814859913662076,-0.001679878099821508
1751620584980283000,14.110282958984374,-0.07269290834665298,0.0019853105768561363,0.0007635809597559273
1751620584999106300,14.129106201171876,-0.06291907280683517,0.0007635809597559273,-0.00045814859913662076
1751620585017930000,14.147929931640626,-0.09101885557174683,0.0032070400193333626,0.0007635809597559273
1751620585036753400,14.16675341796875,-0.1130099818110466,0.0007635809597559273,-0.00045814859913662076
1751620585055576800,14.185576904296875,-0.12278381735086441,-0.00045814859913662076,-0.00045814859913662076
1751620585074400500,14.204400390625,-0.1130099818110466,0.0007635809597559273,-0.00045814859913662076
1751620585093224000,14.223223876953124,-0.08491020649671555,0.0007635809597559273,-0.00045814859913662076
1751620585112047400,14.24204736328125,-0.3597993552684784,-0.018784092739224434,-0.005345067009329796
1751620585130871000,14.26087109375,-0.7641918659210205,-0.021227551624178886,-0.008857538923621178
1751620585149694500,14.279694580078125,-0.9376774430274963,-0.017562363296747208,-0.008857538923621178
1751620585168518000,14.298517822265625,-0.8729257583618164,-0.0102319847792387,-0.007635809946805239
1751620585187341600,14.317341552734375,-0.6444623470306396,-0.0102319847792387,-0.006414080038666725
1751620585206165000,14.3361650390625,-0.4685332775115967,0.004428769461810589,-0.004123337101191282
1751620585224988400,14.354988525390626,-0.35246896743774414,-0.007788525894284248,-0.004123337101191282
1751620585243811800,14.373811767578125,-0.31459537148475647,-0.013897174037992954,-0.004123337101191282
1751620585262635500,14.392635498046875,-0.2889390289783478,-0.009010255336761475,-0.004123337101191282
1751620585281459000,14.411458984375,-0.3182605504989624,-0.005345067009329796,-0.002901607658714056
1751620585300282600,14.43028271484375,-0.3842339515686035,-0.007788525894284248,-0.004123337101191282
1751620585319106000,14.44910595703125,-0.4612029194831848,-0.004123337101191282,-0.002901607658714056
1751620585337929500,14.467929443359376,-0.5369501113891602,-0.007788525894284248,-0.004123337101191282
1751620585356753200,14.486753173828125,-0.5845975875854492,-0.011453714221715927,-0.005345067009329796
1751620585375576600,14.50557666015625,-0.5723803043365479,-0.0102319847792387,-0.004123337101191282
1751620585394400000,14.52439990234375,-0.5418370366096497,-0.007788525894284248,-0.004123337101191282
1751620585413223700,14.5432236328125,-0.5516108870506287,-0.0102319847792387,-0.005345067009329796
1751620585432047000,14.562047119140624,-0.5943714380264282,-0.012675444595515728,-0.005345067009329796
1751620585450870500,14.58087060546875,-0.6236929297447205,-0.012675444595515728,-0.006414080038666725
1751620585469694200,14.599694091796875,-0.6298015713691711,-0.013897174037992954,-0.006414080038666725
1751620585488517600,14.618517578125,-0.593149721622467,-0.018784092739224434,-0.007635809946805239
1751620585507341000,14.637341064453125,-0.5320632457733154,-0.013897174037992954,-0.005345067009329796
1751620585526164700,14.656164794921875,-0.500298261642456,-0.001679878099821508,-0.002901607658714056
1751620585544988200,14.67498828125,-0.49663305282592773,-0.02611446939408779,-0.008857538923621178
1751620585563811600,14.6938115234375,-0.5064069032669067,-0.04810560122132301,-0.016187917441129684
1751620585582635300,14.71263525390625,-0.5442805290222168,-0.022449281066656113,-0.010079269297420979
1751620585601458700,14.731458740234375,-0.6065887212753296,-0.009010255336761475,-0.005345067009329796
1751620585629694000,14.75969384765625,-0.6737838387489319,-0.017562363296747208,-0.007635809946805239
1751620585648517400,14.778517333984375,-0.7446441650390625,0.010537417605519295,0.0007635809597559273
1751620585667340800,14.7973408203125,-0.841160774230957,0.017867794260382652,0.0032070400193333626
1751620585686164500,14.81616455078125,-0.8888082504272461,-0.02000582218170166,-0.007635809946805239
1751620585704988000,14.83498779296875,-0.8888082504272461,-0.04321868345141411,-0.014966187067329884
1751620585723811600,14.8538115234375,-0.8545998334884644,-0.05177079141139984,-0.01740964688360691
1751620585742635000,14.872635009765625,-0.8155044913291931,-0.06154462695121765,-0.02107483521103859
1751620585761458400,14.89145849609375,-0.8374956250190735,-0.018784092739224434,-0.007635809946805239
1751620585780282000,14.9102822265625,-0.8729257583618164,0.011759147047996521,0.0019853105768561363
1751620585799105500,14.92910546875,-0.8741474747657776,-0.0102319847792387,-0.006414080038666725
1751620585817929000,14.947928955078124,-0.8643736839294434,-0.009010255336761475,-0.005345067009329796
1751620585836752600,14.966752685546876,-0.822834849357605,-0.001679878099821508,-0.004123337101191282
1751620585855576000,14.985576171875,-0.7703005075454712,-0.006566796451807022,-0.005345067009329796
1751620585874399500,15.0043994140625,-0.7226530313491821,-0.007788525894284248,-0.005345067009329796
1751620585893223200,15.02322314453125,-0.6872228980064392,-0.0102319847792387,-0.005345067009329796
1751620585912046600,15.042046630859375,-0.6322450637817383,-0.024892739951610565,-0.007635809946805239
1751620585930870000,15.0608701171875,-0.6224712133407593,-0.05787943676114082,-0.014966187067329884
1751620585949693700,15.079693603515626,-0.5797106623649597,-0.012675444595515728,-0.006414080038666725
1751620585968517000,15.09851708984375,-0.5283980369567871,-0.006566796451807022,-0.004123337101191282
1751620585987340500,15.117340576171875,-0.5039634704589844,-0.007788525894284248,-0.004123337101191282
1751620586006164200,15.136164306640625,-0.5222893953323364,-0.012675444595515728,-0.005345067009329796
1751620586024987600,15.154987548828124,-0.5418370366096497,-0.011453714221715927,-0.005345067009329796
1751620586043811000,15.17381103515625,-0.5723803043365479,-0.0102319847792387,-0.005345067009329796
1751620586062634500,15.192634521484376,-0.6212494969367981,-0.002901607658714056,-0.002901607658714056
1751620586081458200,15.211458251953125,-0.6517927050590515,-0.006566796451807022,-0.002901607658714056
1751620586100281600,15.230281494140625,-0.6884446144104004,-0.0102319847792387,-0.005345067009329796
1751620586119105000,15.24910498046875,-0.6505709886550903,-0.0102319847792387,-0.005345067009329796
1751620586137928700,15.2679287109375,-0.638353705406189,-0.011453714221715927,-0.006414080038666725
1751620586156752100,15.286752197265624,-0.6811142563819885,-0.024892739951610565,-0.011300998739898205
1751620586175575800,15.305575927734376,-0.7422007322311401,-0.024892739951610565,-0.011300998739898205
1751620586194399200,15.324399169921875,-0.7373138070106506,-0.02367101050913334,-0.011300998739898205
1751620586213222700,15.34322265625,-0.6933315396308899,-0.028557928279042244,-0.011300998739898205
1751620586232046300,15.36204638671875,-0.6603448390960693,-0.027336198836565018,-0.011300998739898205
1751620586250869800,15.380869873046874,-0.676227331161499,-0.027336198836565018,-0.011300998739898205
1751620586269693200,15.399693115234374,-0.6969966888427734,-0.034666575491428375,-0.012522728182375431
1751620586288516900,15.418516845703126,-0.7422007322311401,-0.018784092739224434,-0.007635809946805239
1751620586307340300,15.43734033203125,-0.7312051653862,-0.022449281066656113,-0.008857538923621178
1751620586326163700,15.456163818359375,-0.6969966888427734,-0.04810560122132301,-0.016187917441129684
1751620586344987400,15.4749873046875,-0.6627882719039917,0.10094540566205978,0.02519817277789116
1751620586363810800,15.493810791015624,-0.5760455131530762,0.020311253145337105,0.0019853105768561363
1751620586382634200,15.51263427734375,-0.4673115611076355,-0.00045814859913662076,-0.002901607658714056
1751620586401458000,15.5314580078125,-0.3964512348175049,-0.004123337101191282,-0.002901607658714056
1751620586420281300,15.55028125,-0.3634645342826843,-0.00045814859913662076,-0.001679878099821508
1751620586439104800,15.569104736328125,-0.35735589265823364,0.0007635809597559273,-0.001679878099821508
1751620586457928400,15.587928466796875,-0.3695732057094574,-0.001679878099821508,-0.002901607658714056
1751620586476752000,15.606751953125,-0.379347026348114,-0.004123337101191282,-0.004123337101191282
1751620586504987100,15.634987060546875,-0.39889469742774963,-0.004123337101191282,-0.002901607658714056
1751620586523810600,15.653810546875,-0.4221075773239136,-0.006566796451807022,-0.004123337101191282
1751620586542634000,15.672634033203124,-0.43310311436653137,-0.011453714221715927,-0.004123337101191282
1751620586561457700,15.691457763671876,-0.4159989058971405,-0.027336198836565018,-0.010079269297420979
1751620586580281000,15.710281005859375,-0.4159989058971405,-0.034666575491428375,-0.011300998739898205
1751620586599104500,15.7291044921875,-0.45020735263824463,-0.021227551624178886,-0.007635809946805239
1751620586617928200,15.74792822265625,-0.5198459029197693,0.0032070400193333626,-0.00045814859913662076
1751620586636751600,15.766751708984375,-0.5919279456138611,0.028863361105322838,0.006872228812426329
1751620586655575000,15.785574951171874,-0.5699368119239807,-0.013897174037992954,-0.005345067009329796
1751620586674398700,15.804398681640626,-0.47952884435653687,-0.017562363296747208,-0.005345067009329796
1751620586693222100,15.82322216796875,-0.39278605580329895,-0.01511890348047018,-0.004123337101191282
1751620586712045600,15.842045654296875,-0.35735589265823364,-0.007788525894284248,-0.004123337101191282
1751620586730869200,15.860869140625,-0.36224281787872314,-0.006566796451807022,-0.002901607658714056
1751620586749692700,15.879692626953124,-0.3952295184135437,-0.007788525894284248,-0.004123337101191282
1751620586768516000,15.89851611328125,-0.41844236850738525,-0.0102319847792387,-0.004123337101191282
1751620586787339800,15.91733984375,-0.42455101013183594,-0.009010255336761475,-0.004123337101191282
1751620586806163200,15.9361630859375,-0.4196641147136688,-0.012675444595515728,-0.005345067009329796
1751620586824986600,15.954986572265625,-0.4196641147136688,-0.01511890348047018,-0.005345067009329796
1751620586843810300,15.973810302734375,-0.4379900395870209,-0.04566214233636856,-0.013744457624852657
1751620586862633700,15.9926337890625,-0.4831940531730652,-0.11407899856567383,-0.03329212963581085
1751620586881457200,16.01145703125,-0.5051851868629456,-0.07254019379615784,-0.02107483521103859
1751620586900280800,16.03028076171875,-0.5076286196708679,-0.017562363296747208,-0.007635809946805239
1751620586919104300,16.049104248046874,-0.5503891706466675,-0.006566796451807022,-0.004123337101191282
1751620586937927700,16.067927734375,-0.6004800796508789,-0.0102319847792387,-0.005345067009329796
1751620586956751400,16.08675146484375,-0.6615665555000305,-0.002901607658714056,-0.002901607658714056
1751620586975574800,16.10557470703125,-0.6945532560348511,0.0154243353754282,0.0019853105768561363
1751620586994398200,16.124398193359376,-0.7250964641571045,-0.012675444595515728,-0.006414080038666725
1751620587013222000,16.143221923828126,-0.7531962990760803,-0.006566796451807022,-0.005345067009329796
1751620587032045300,16.16204541015625,-0.7910698652267456,-0.002901607658714056,-0.004123337101191282
1751620587050868700,16.18086865234375,-0.8436042666435242,-0.006566796451807022,-0.005345067009329796
1751620587069692400,16.1996923828125,-0.8814778923988342,-0.011453714221715927,-0.006414080038666725
1751620587088515800,16.218515869140624,-0.9388991594314575,-0.02000582218170166,-0.010079269297420979
1751620587107339300,16.23733935546875,-0.9963204264640808,-0.024892739951610565,-0.010079269297420979
1751620587126163000,16.256162841796876,-1.0427461862564087,-0.013897174037992954,-0.008857538923621178
1751620587144986400,16.274986328125,-1.0867284536361694,-0.021227551624178886,-0.010079269297420979
1751620587163809800,16.293809814453127,-1.0891718864440918,-0.021227551624178886,-0.010079269297420979
1751620587182633500,16.312633544921876,-1.0293071269989014,-0.022449281066656113,-0.010079269297420979
1751620587201457000,16.331456787109374,-0.9474512934684753,-0.017562363296747208,-0.008857538923621178
1751620587220280300,16.3502802734375,-0.8362739086151123,-0.0102319847792387,-0.007635809946805239
1751620587239104000,16.36910400390625,-0.7617483735084534,-0.011453714221715927,-0.006414080038666725
1751620587257927400,16.387927490234375,-0.7348703145980835,-0.018784092739224434,-0.007635809946805239
1751620587276750800,16.406750732421877,-0.7544180154800415,-0.05543597787618637,-0.018631376326084137
1751620587295574500,16.425574462890626,-0.7874047160148621,-0.016340631991624832,-0.007635809946805239
1751620587314398000,16.44439794921875,-0.7739656567573547,-0.0383317656815052,-0.014966187067329884
1751620587333221400,16.463221435546874,-0.7348703145980835,-0.012675444595515728,-0.006414080038666725
1751620587352045000,16.482045166015624,-0.6835576891899109,-0.007788525894284248,-0.005345067009329796
1751620587370868500,16.500868408203125,-0.6627882719039917,-0.013897174037992954,-0.006414080038666725
1751620587389692000,16.51969189453125,-0.6811142563819885,-0.006566796451807022,-0.004123337101191282
1751620587408515600,16.538515625,-0.6603448390960693,-0.022449281066656113,-0.010079269297420979
1751620587427339000,16.557339111328126,-0.6200277805328369,-0.001679878099821508,-0.004123337101191282
1751620587446162400,16.576162353515624,-0.5088503360748291,-0.00045814859913662076,-0.002901607658714056
1751620587464985900,16.59498583984375,-0.4221075773239136,-0.007788525894284248,-0.004123337101191282
1751620587483809500,16.6138095703125,-0.3500255048274994,-0.009010255336761475,-0.004123337101191282
1751620587502633000,16.632633056640625,-0.2974911332130432,-0.007788525894284248,-0.002901607658714056
1751620587521456400,16.651456298828126,-0.3035998046398163,-0.007788525894284248,-0.002901607658714056
1751620587540280000,16.670280029296876,-0.33658650517463684,-0.009010255336761475,-0.004123337101191282
1751620587559103500,16.689103515625,-0.3439168632030487,-0.009010255336761475,-0.002901607658714056
1751620587577927000,16.707927001953124,-0.30970844626426697,-0.0102319847792387,-0.002901607658714056
1751620587596750600,16.72675048828125,-0.25961753726005554,-0.0102319847792387,-0.002901607658714056
1751620587615574000,16.745573974609375,-0.21807873249053955,-0.006566796451807022,-0.001679878099821508
1751620587634397400,16.7643974609375,-0.19120067358016968,-0.005345067009329796,-0.001679878099821508
1751620587653221000,16.78322119140625,-0.2107483446598053,-0.005345067009329796,-0.001679878099821508
1751620587672044500,16.80204443359375,-0.2608392536640167,-0.005345067009329796,-0.002901607658714056
1751620587690868000,16.820867919921874,-0.2974911332130432,-0.006566796451807022,-0.002901607658714056
1751620587709691600,16.839691650390623,-0.31581708788871765,-0.007788525894284248,-0.004123337101191282
1751620587728515000,16.85851513671875,-0.3280344009399414,-0.0102319847792387,-0.004123337101191282
1751620587747338500,16.87733837890625,-0.3341430425643921,-0.007788525894284248,-0.002901607658714056
1751620587766162200,16.896162109375,-0.3634645342826843,-0.006566796451807022,-0.002901607658714056
1751620587784985600,16.914985595703126,-0.39889469742774963,-0.009010255336761475,-0.002901607658714056
1751620587803809000,16.93380908203125,-0.4172206521034241,-0.011453714221715927,-0.004123337101191282
1751620587822632700,16.9526328125,-0.42332929372787476,-0.012675444595515728,-0.004123337101191282
1751620587841456000,16.9714560546875,-0.43432486057281494,-0.016340631991624832,-0.006414080038666725
1751620587860279600,16.990279541015624,-0.4575377106666565,-0.034666575491428375,-0.012522728182375431
1751620587879103200,17.009103271484374,-0.4783071279525757,-0.03222311660647392,-0.011300998739898205
1751620587897926700,17.0279267578125,-0.4917461574077606,-0.016340631991624832,-0.006414080038666725
1751620587916750000,17.04675,-0.4734202027320862,0.0019853105768561363,-0.001679878099821508
1751620587935573800,17.06557373046875,-0.4453204274177551,-0.011453714221715927,-0.006414080038666725
1751620587954397200,17.084397216796877,-0.4147771894931793,-0.011453714221715927,-0.005345067009329796
1751620587973220600,17.103220703125,-0.37690356373786926,-0.011453714221715927,-0.004123337101191282
1751620587992044000,17.1220439453125,-0.34636032581329346,-0.0102319847792387,-0.004123337101191282
1751620588010867700,17.14086767578125,-0.3329212963581085,-0.0102319847792387,-0.005345067009329796
1751620588029691100,17.159691162109375,-0.33169957995414734,-0.002901607658714056,-0.001679878099821508
1751620588048514600,17.1785146484375,-0.3292561173439026,-0.00045814859913662076,-0.001679878099821508
1751620588067338200,17.197338134765626,-0.32070401310920715,-0.002901607658714056,-0.001679878099821508
1751620588086161700,17.21616162109375,-0.3084867000579834,-0.004123337101191282,-0.001679878099821508
1751620588104985000,17.234985107421874,-0.2987128794193268,-0.005345067009329796,-0.002901607658714056
1751620588123808800,17.253808837890624,-0.2987128794193268,-0.005345067009329796,-0.002901607658714056
1751620588142632200,17.272632080078125,-0.3072649836540222,-0.004123337101191282,-0.002901607658714056
1751620588161455600,17.29145556640625,-0.32192572951316833,-0.005345067009329796,-0.002901607658714056
1751620588180279300,17.310279296875,-0.31459537148475647,-0.001679878099821508,-0.002901607658714056
1751620588199102700,17.329102783203126,-0.29016077518463135,-0.002901607658714056,-0.001679878099821508
1751620588217926100,17.347926025390624,-0.28405213356018066,-0.004123337101191282,-0.002901607658714056
1751620588236749600,17.36674951171875,-0.32192572951316833,-0.005345067009329796,-0.002901607658714056
1751620588264984800,17.39498486328125,-0.347582072019577,-0.009010255336761475,-0.004123337101191282
1751620588283808500,17.41380859375,-0.3402516841888428,-0.004123337101191282,-0.002901607658714056
1751620588302632000,17.4326318359375,-0.29016077518463135,-0.00045814859913662076,-0.001679878099821508
1751620588321455400,17.451455322265623,-0.22296564280986786,0.0007635809597559273,-0.001679878099821508
1751620588340279000,17.470279052734377,-0.1740964651107788,0.0007635809597559273,-0.001679878099821508
1751620588359102500,17.4891025390625,-0.15210533142089844,-0.001679878099821508,-0.001679878099821508
1751620588377926000,17.50792578125,-0.18142683804035187,-0.004123337101191282,-0.001679878099821508
1751620588396749600,17.52674951171875,-0.23396120965480804,-0.00045814859913662076,-0.001679878099821508
1751620588415573000,17.545572998046875,-0.268169641494751,-0.002901607658714056,-0.001679878099821508
1751620588434396400,17.564396484375,-0.2864955961704254,-0.004123337101191282,-0.002901607658714056
1751620588453220000,17.58322021484375,-0.33169957995414734,-0.005345067009329796,-0.002901607658714056
1751620588472043500,17.60204345703125,-0.40866854786872864,-0.007788525894284248,-0.004123337101191282
1751620588490867000,17.620866943359374,-0.47464191913604736,-0.0102319847792387,-0.005345067009329796
1751620588509690600,17.639690673828124,-0.48930269479751587,-0.011453714221715927,-0.005345067009329796
1751620588528514000,17.65851416015625,-0.49418962001800537,-0.007788525894284248,-0.005345067009329796
1751620588547337500,17.67733740234375,-0.49418962001800537,-0.006566796451807022,-0.004123337101191282
1751620588566161200,17.6961611328125,-0.4734202027320862,-0.005345067009329796,-0.004123337101191282
1751620588584984600,17.714984619140626,-0.45020735263824463,-0.005345067009329796,-0.004123337101191282
1751620588603808000,17.73380810546875,-0.44898560643196106,-0.006566796451807022,-0.004123337101191282
1751620588622631400,17.75263134765625,-0.48563748598098755,-0.009010255336761475,-0.004123337101191282
1751620588641455000,17.771455078125,-0.5210676789283752,-0.011453714221715927,-0.005345067009329796
1751620588660278500,17.790278564453125,-0.5540543794631958,-0.012675444595515728,-0.005345067009329796
1751620588679102000,17.80910205078125,-0.5870410799980164,-0.011453714221715927,-0.005345067009329796
1751620588697925600,17.827925537109376,-0.5894845128059387,-0.012675444595515728,-0.005345067009329796
1751620588716749000,17.8467490234375,-0.5845975875854492,-0.017562363296747208,-0.006414080038666725
1751620588735572500,17.865572509765624,-0.6029235124588013,-0.03955349326133728,-0.013744457624852657
1751620588754396000,17.88439599609375,-0.6359102129936218,-0.08720094710588455,-0.02977965772151947
1751620588773219600,17.903219482421875,-0.6798924803733826,-0.018784092739224434,-0.008857538923621178
1751620588792043000,17.92204296875,-0.6982184648513794,0.0032070400193333626,-0.001679878099821508
1751620588810866400,17.940866455078126,-0.676227331161499,0.006872228812426329,-0.00045814859913662076
1751620588829690000,17.959690185546876,-0.6505709886550903,0.0019853105768561363,-0.001679878099821508
1751620588848513500,17.978513427734374,-0.6542361974716187,-0.004123337101191282,-0.002901607658714056
1751620588867337000,17.9973369140625,-0.6688969135284424,-0.006566796451807022,-0.004123337101191282
1751620588886160600,18.01616064453125,-0.6798924803733826,-0.0102319847792387,-0.004123337101191282
1751620588904984000,18.034984130859375,-0.6432406306266785,-0.01511890348047018,-0.005345067009329796
1751620588923807500,18.053807373046876,-0.5626064538955688,-0.013897174037992954,-0.005345067009329796
1751620588942631200,18.072631103515626,-0.47586366534233093,-0.012675444595515728,-0.004123337101191282
1751620588961454600,18.09145458984375,-0.39889469742774963,-0.009010255336761475,-0.004123337101191282
1751620588980278000,18.110278076171873,-0.3182605504989624,-0.017562363296747208,-0.006414080038666725
1751620588999101700,18.129101806640627,-0.24984370172023773,-0.018784092739224434,-0.006414080038666725
1751620589017925000,18.147925048828125,-0.21197007596492767,-0.012675444595515728,-0.005345067009329796
1751620589036748500,18.16674853515625,-0.2107483446598053,-0.0102319847792387,-0.004123337101191282
1751620589055572000,18.185572021484376,-0.21197007596492767,-0.004123337101191282,-0.002901607658714056
1751620589074395600,18.204395751953125,-0.20463970303535461,-0.005345067009329796,-0.002901607658714056
1751620589093219000,18.223218994140623,-0.2009745091199875,-0.004123337101191282,-0.001679878099821508
1751620589112042500,18.24204248046875,-0.21685700118541718,-0.006566796451807022,-0.002901607658714056
1751620589130866200,18.2608662109375,-0.25961753726005554,-0.005345067009329796,-0.001679878099821508
1751620589149689600,18.279689697265624,-0.30482152104377747,-0.006566796451807022,-0.002901607658714056
1751620589168513000,18.298512939453126,-0.35735589265823364,-0.006566796451807022,-0.002901607658714056
1751620589187336700,18.317336669921875,-0.4269944727420807,-0.0102319847792387,-0.004123337101191282
1751620589206160100,18.33616015625,-0.500298261642456,-0.013897174037992954,-0.005345067009329796
1751620589224983600,18.354983642578127,-0.5516108870506287,-0.017562363296747208,-0.007635809946805239
1751620589243807200,18.37380712890625,-0.573602020740509,-0.02611446939408779,-0.010079269297420979
1751620589262630700,18.392630615234374,-0.5797106623649597,-0.001679878099821508,-0.002901607658714056
1751620589281454000,18.4114541015625,-0.573602020740509,-0.012675444595515728,-0.005345067009329796
1751620589300277800,18.43027783203125,-0.5601630210876465,-0.02000582218170166,-0.007635809946805239
1751620589319101200,18.44910107421875,-0.56382817029953,-0.054214250296354294,-0.01740964688360691
1751620589337924600,18.467924560546876,-0.5687150955200195,0.0154243353754282,0.0032070400193333626
1751620589356748000,18.486748046875,-0.555276095867157,-0.017562363296747208,-0.006414080038666725
1751620589375571700,18.50557177734375,-0.5345066785812378,-0.02367101050913334,-0.007635809946805239
1751620589394395100,18.52439501953125,-0.47952884435653687,-0.009010255336761475,-0.004123337101191282
1751620589413218600,18.543218505859375,-0.39278605580329895,-0.018784092739224434,-0.006414080038666725
1751620589432042200,18.562042236328125,-0.3133736252784729,-0.004123337101191282,-0.002901607658714056
1751620589450865700,18.58086572265625,-0.2461785078048706,-0.009010255336761475,-0.004123337101191282
1751620589469689000,18.599689208984376,-0.2009745091199875,0.0019853105768561363,-0.001679878099821508
1751620589488512800,18.6185126953125,-0.1740964651107788,0.0019853105768561363,-0.00045814859913662076
1751620589507336200,18.637336181640624,-0.1484401375055313,-0.00045814859913662076,-0.001679878099821508
1751620589526159600,18.65615966796875,-0.13133592903614044,-0.00045814859913662076,-0.001679878099821508
1751620589544983000,18.674983154296875,-0.15088360011577606,-0.00045814859913662076,-0.00045814859913662076
1751620589563806700,18.693806640625,-0.17776164412498474,-0.001679878099821508,-0.001679878099821508
1751620589582630100,18.712630126953126,-0.18753549456596375,-0.001679878099821508,-0.001679878099821508
1751620589601453600,18.73145361328125,-0.19120067358016968,-0.001679878099821508,-0.00045814859913662076
1751620589620277200,18.75027734375,-0.2009745091199875,-0.00045814859913662076,-0.00045814859913662076
1751620589639100700,18.7691005859375,-0.19853104650974274,-0.001679878099821508,-0.001679878099821508
1751620589657924000,18.787924072265625,-0.18875721096992493,-0.002901607658714056,-0.001679878099821508
1751620589676747500,18.80674755859375,-0.19730933010578156,-0.00045814859913662076,-0.001679878099821508
1751620589695571200,18.8255712890625,-0.21197007596492767,-0.001679878099821508,-0.001679878099821508
1751620589714394600,18.84439453125,-0.21930044889450073,-0.001679878099821508,-0.001679878099821508
1751620589733218000,18.863218017578124,-0.19853104650974274,-0.001679878099821508,-0.001679878099821508
1751620589752041700,18.882041748046873,-0.17287473380565643,-0.004123337101191282,-0.001679878099821508
1751620589770865200,18.900865234375,-0.1496618688106537,-0.002901607658714056,-0.001679878099821508
1751620589789688600,18.9196884765625,-0.15577052533626556,-0.004123337101191282,-0.001679878099821508
1751620589808512000,18.938511962890626,-0.17531819641590118,-0.002901607658714056,-0.001679878099821508
1751620589827335700,18.957335693359376,-0.1802051067352295,-0.002901607658714056,-0.00045814859913662076
1751620589846159000,18.9761591796875,-0.21930044889450073,-0.004123337101191282,-0.00045814859913662076
1751620589864982500,18.994982421875,-0.2864955961704254,-0.002901607658714056,-0.002901607658714056
1751620589883806200,19.01380615234375,-0.347582072019577,-0.002901607658714056,-0.002901607658714056
1751620589902629600,19.032629638671875,-0.45020735263824463,0.0007635809597559273,-0.002901607658714056
1751620589921453000,19.051453125,-0.6212494969367981,-0.004123337101191282,-0.004123337101191282
1751620589940276700,19.07027685546875,-0.7812960743904114,-0.011453714221715927,-0.006414080038666725
1751620589959100200,19.08910009765625,-0.8717040419578552,-0.02000582218170166,-0.008857538923621178
1751620589977923600,19.107923583984373,-0.905912458896637,-0.02611446939408779,-0.010079269297420979
1751620589996747000,19.1267470703125,-0.9645555019378662,-0.027336198836565018,-0.008857538923621178
1751620590015570700,19.14557080078125,-0.998763918876648,-0.027336198836565018,-0.010079269297420979
1751620590034394000,19.16439404296875,-0.9865466356277466,-0.050549060106277466,-0.016187917441129684
1751620590053217500,19.183217529296876,-0.8692606091499329,-0.08842267841100693,-0.02718348242342472
1751620590072041200,19.202041259765625,-0.6774490475654602,-0.02367101050913334,-0.008857538923621178
1751620590090864600,19.22086474609375,-0.5283980369567871,-0.007788525894284248,-0.004123337101191282
1751620590109688000,19.23968798828125,-0.40378162264823914,0.0019853105768561363,-0.001679878099821508
1751620590128511700,19.25851171875,-0.3695732057094574,-0.00045814859913662076,-0.00045814859913662076
1751620590147335200,19.277335205078124,-0.38179048895835876,0.005650499369949102,0.0019853105768561363
1751620590166158600,19.29615869140625,-0.3854556679725647,-0.007788525894284248,-0.004123337101191282
1751620590184982000,19.31498193359375,-0.3854556679725647,-0.012675444595515728,-0.004123337101191282
1751620590203805700,19.3338056640625,-0.389120876789093,-0.011453714221715927,-0.005345067009329796
1751620590222629000,19.352629150390626,-0.3952295184135437,-0.005345067009329796,-0.002901607658714056
1751620590241452500,19.37145263671875,-0.3903425931930542,-0.005345067009329796,-0.002901607658714056
1751620590260276200,19.390276123046874,-0.36835145950317383,-0.009010255336761475,-0.004123337101191282
1751620590279099600,19.409099609375,-0.32681265473365784,-0.006566796451807022,-0.002901607658714056
1751620590297923000,19.427923095703125,-0.3084867000579834,-0.00045814859913662076,-0.001679878099821508
1751620590316746500,19.44674658203125,-0.3439168632030487,-0.006566796451807022,-0.002901607658714056
1751620590335570200,19.465570068359376,-0.38789913058280945,-0.0102319847792387,-0.004123337101191282
1751620590354393600,19.4843935546875,-0.40255987644195557,-0.013897174037992954,-0.004123337101191282
1751620590373217000,19.503217041015624,-0.3659079968929291,-0.012675444595515728,-0.005345067009329796
1751620590392040700,19.522040771484374,-0.3231474757194519,-0.011453714221715927,-0.004123337101191282
1751620590410864000,19.540864013671875,-0.31581708788871765,-0.011453714221715927,-0.004123337101191282
1751620590429687600,19.5596875,-0.3329212963581085,-0.012675444595515728,-0.004123337101191282
1751620590448511000,19.578510986328126,-0.33658650517463684,-0.011453714221715927,-0.004123337101191282
1751620590467334700,19.597334716796876,-0.3084867000579834,-0.006566796451807022,-0.002901607658714056
1751620590486158000,19.616157958984374,-0.3194822669029236,-0.009010255336761475,-0.002901607658714056
1751620590504981500,19.6349814453125,-0.3634645342826843,-0.007788525894284248,-0.002901607658714056
1751620590523805200,19.65380517578125,-0.40744680166244507,-0.005345067009329796,-0.001679878099821508
1751620590542628600,19.672628662109375,-0.4062250852584839,-0.005345067009329796,-0.001679878099821508
1751620590561452000,19.6914521484375,-0.38179048895835876,-0.007788525894284248,-0.002901607658714056
1751620590580275700,19.710275634765626,-0.35246896743774414,-0.0102319847792387,-0.002901607658714056
1751620590599099100,19.72909912109375,-0.3280344009399414,-0.009010255336761475,-0.002901607658714056
1751620590617922600,19.747922607421874,-0.3292561173439026,-0.007788525894284248,-0.002901607658714056
1751620590636746000,19.76674609375,-0.3707949221134186,-0.004123337101191282,-0.002901607658714056
1751620590655569700,19.785569580078125,-0.4783071279525757,-0.011453714221715927,-0.005345067009329796
1751620590674393000,19.80439306640625,-0.5968148708343506,-0.01511890348047018,-0.005345067009329796
1751620590693216500,19.823216552734376,-0.6322450637817383,-0.012675444595515728,-0.005345067009329796
1751620590712040200,19.842040283203126,-0.5711585879325867,-0.012675444595515728,-0.005345067009329796
1751620590730863600,19.860863525390624,-0.44898560643196106,-0.009010255336761475,-0.004123337101191282
1751620590749687000,19.87968701171875,-0.3500255048274994,-0.005345067009329796,-0.002901607658714056
1751620590768510500,19.898510498046875,-0.3121519088745117,-0.006566796451807022,-0.002901607658714056
1751620590787334100,19.917334228515625,-0.30604326725006104,-0.006566796451807022,-0.002901607658714056
1751620590806157600,19.936157470703126,-0.2877173125743866,-0.005345067009329796,-0.001679878099821508
1751620590824981000,19.95498095703125,-0.2730565667152405,-0.007788525894284248,-0.002901607658714056
1751620590843804700,19.9738046875,-0.23029601573944092,-0.006566796451807022,-0.002901607658714056
1751620590862628000,19.992628173828123,-0.16554436087608337,-0.007788525894284248,-0.002901607658714056
1751620590881451500,20.011451416015625,-0.09712749719619751,0.0019853105768561363,-0.00045814859913662076
1751620590900275000,20.03027490234375,-0.08857539296150208,-0.002901607658714056,-0.001679878099821508
1751620590919098600,20.0490986328125,-0.07391463965177536,-0.001679878099821508,-0.001679878099821508
1751620590937922000,20.067922119140626,-0.12767073512077332,-0.002901607658714056,-0.001679878099821508
1751620590956745500,20.086745361328123,-0.1899789422750473,-0.002901607658714056,-0.001679878099821508
1751620590975569200,20.105569091796873,-0.21319180727005005,-0.004123337101191282,-0.001679878099821508
1751620590994392600,20.124392578125,-0.19120067358016968,-0.002901607658714056,-0.00045814859913662076
1751620591013216000,20.143216064453124,-0.20219624042510986,-0.004123337101191282,-0.00045814859913662076
1751620591032039400,20.162039306640626,-0.2522871494293213,-0.006566796451807022,-0.001679878099821508
1751620591050863000,20.180863037109376,-0.3194822669029236,-0.007788525894284248,-0.002901607658714056
1751620591069686500,20.1996865234375,-0.35613417625427246,-0.007788525894284248,-0.002901607658714056
1751620591088510000,20.218510009765627,-0.32681265473365784,-0.007788525894284248,-0.002901607658714056
1751620591107333600,20.237333740234376,-0.3121519088745117,-0.006566796451807022,-0.002901607658714056
1751620591126157000,20.256156982421874,-0.3243691921234131,-0.006566796451807022,-0.004123337101191282
1751620591144980500,20.27498046875,-0.3072649836540222,-0.006566796451807022,-0.002901607658714056
1751620591163804000,20.293803955078126,-0.2412915825843811,-0.006566796451807022,-0.002901607658714056
1751620591182627600,20.312627685546875,-0.15210533142089844,-0.004123337101191282,-0.001679878099821508
1751620591210862800,20.34086279296875,-0.0873536616563797,-0.004123337101191282,-0.001679878099821508
1751620591229686300,20.359686279296874,-0.1130099818110466,0.0019853105768561363,0.0007635809597559273
1751620591248509700,20.378509765625,-0.20219624042510986,-0.006566796451807022,-0.002901607658714056
1751620591267333000,20.3973330078125,-0.22785256803035736,-0.002901607658714056,-0.001679878099821508
1751620591286156800,20.41615673828125,-0.20463970303535461,-0.00045814859913662076,-0.00045814859913662076
1751620591304980200,20.434980224609376,-0.20830489695072174,-0.007788525894284248,-0.002901607658714056
1751620591323803600,20.4538037109375,-0.22174391150474548,-0.00045814859913662076,-0.00045814859913662076
1751620591342627300,20.47262744140625,-0.22296564280986786,-0.004123337101191282,-0.001679878099821508
1751620591361450800,20.49145068359375,-0.2156352698802948,-0.012675444595515728,-0.004123337101191282
1751620591380274200,20.510274169921875,-0.22907429933547974,-0.03955349326133728,-0.011300998739898205
1751620591399097600,20.52909765625,-0.19120067358016968,-0.07864884287118912,-0.023518294095993042
1751620591417921300,20.54792138671875,-0.13255766034126282,0.05818486958742142,0.017867794260382652
1751620591436744700,20.56674462890625,-0.0922405794262886,-0.05177079141139984,-0.016187917441129684
1751620591455568100,20.585568115234373,-0.03848448023200035,-0.012675444595515728,-0.004123337101191282
1751620591474391800,20.604391845703127,-0.07391463965177536,0.06795870512723923,0.01908952370285988
1751620591493215200,20.62321533203125,-0.09346231073141098,-0.0334448479115963,-0.010079269297420979
1751620591512038700,20.64203857421875,-0.056810423731803894,-0.006566796451807022,-0.002901607658714056
1751620591530862000,20.660862060546876,-0.0360410213470459,0.011759147047996521,0.0032070400193333626
1751620591549685800,20.679685791015626,-0.0360410213470459,-0.021227551624178886,-0.006414080038666725
1751620591568509200,20.69850927734375,-0.025045456364750862,-0.02000582218170166,-0.006414080038666725
1751620591587332600,20.71733251953125,-0.011606430634856224,-0.0334448479115963,-0.010079269297420979
1751620591606156000,20.736156005859375,-0.039706211537122726,0.005650499369949102,0.0007635809597559273
1751620591624979700,20.754979736328124,-0.037262752652168274,-0.02367101050913334,-0.006414080038666725
1751620591643803100,20.77380322265625,-0.001832594396546483,-0.006566796451807022,-0.001679878099821508
1751620591662626600,20.79262646484375,-0.000610864779446274,-0.012675444595515728,-0.004123337101191282
1751620591681450200,20.8114501953125,-0.000610864779446274,0.01908952370285988,0.005650499369949102
1751620591700273700,20.830273681640627,0.000610864779446274,-0.013897174037992954,-0.004123337101191282
1751620591719097000,20.84909716796875,-0.000610864779446274,0.0019853105768561363,-0.00045814859913662076
1751620591737920500,20.86792041015625,-0.000610864779446274,-0.007788525894284248,-0.001679878099821508
1751620591756744200,20.886744140625,-0.000610864779446274,0.012980876490473747,0.0032070400193333626
1751620591775567600,20.905567626953125,-0.000610864779446274,0.02153298258781433,0.005650499369949102
1751620591794391000,20.92439111328125,-0.001832594396546483,0.02153298258781433,0.006872228812426329
1751620591813214500,20.94321435546875,-0.001832594396546483,0.0007635809597559273,0.0007635809597559273
1751620591832038100,20.9620380859375,-0.000610864779446274,-0.02000582218170166,-0.005345067009329796
1751620591850861600,20.980861572265624,0.000610864779446274,0.011759147047996521,0.004428769461810589
1751620591869685000,20.99968505859375,-0.001832594396546483,0.06673697382211685,0.01908952370285988
1751620591888508700,21.0185087890625,0.000610864779446274,-0.05543597787618637,-0.016187917441129684
1751620591907332000,21.03733203125,-0.000610864779446274,-0.00045814859913662076,-0.00045814859913662076
1751620591926155500,21.056155517578127,-0.000610864779446274,0.04230238497257233,0.011759147047996521
1751620591944979000,21.07497900390625,0.001832594396546483,-0.034666575491428375,-0.010079269297420979
1751620591963802600,21.093802734375,-0.000610864779446274,0.0007635809597559273,0.0007635809597559273
1751620591982626000,21.1126259765625,-0.001832594396546483,0.02519817277789116,0.006872228812426329
1751620592010861300,21.140861328125,0.000610864779446274,-0.018784092739224434,-0.005345067009329796
1751620592029684700,21.159684814453126,-0.000610864779446274,0.016646064817905426,0.004428769461810589
1751620592048508200,21.178508056640624,-0.000610864779446274,-0.001679878099821508,-0.00045814859913662076
1751620592067331800,21.197331787109373,-0.000610864779446274,-0.011453714221715927,-0.004123337101191282
1751620592086155300,21.2161552734375,-0.000610864779446274,0.011759147047996521,0.0032070400193333626
1751620592104978700,21.234978759765625,-0.000610864779446274,-0.002901607658714056,-0.00045814859913662076
1751620592123802000,21.253802001953126,-0.000610864779446274,-0.005345067009329796,-0.001679878099821508
1751620592142625800,21.272625732421876,-0.001832594396546483,0.006872228812426329,0.0019853105768561363
1751620592161449200,21.29144921875,-0.000610864779446274,-0.002901607658714056,-0.00045814859913662076
1751620592180272600,21.310272705078123,-0.000610864779446274,0.016646064817905426,0.005650499369949102
1751620592199096000,21.329095947265625,-0.053145237267017365,-0.024892739951610565,-0.004123337101191282
1751620592217919700,21.347919677734374,-0.1288924664258957,-0.004123337101191282,-0.001679878099821508
1751620592236743200,21.3667431640625,-0.009162971749901772,-0.001679878099821508,-0.00045814859913662076
1751620592255566600,21.385566650390626,0.001832594396546483,-0.013897174037992954,-0.004123337101191282
1751620592274390300,21.404390380859375,0.0030543238390237093,-0.18127411603927612,-0.05283980444073677
