time,seconds_elapsed,z,y,x
1751620571068849000,0.198848876953125,30.712501525878906,26.400001525878906,27.243751525878906
1751620571118848800,0.248848876953125,30.656251907348633,26.92500114440918,27.656251907348633
1751620571148849000,0.278848876953125,30.618751525878906,26.73750114440918,27.975000381469727
1751620571158848800,0.288848876953125,30.693750381469727,26.64375114440918,27.900001525878906
1751620571168849000,0.298848876953125,30.712501525878906,26.568750381469727,27.712501525878906
1751620571178848800,0.308848876953125,30.48750114440918,26.325000762939453,27.787500381469727
1751620571188849000,0.318848876953125,30.375001907348633,26.45625114440918,27.918750762939453
1751620571198848800,0.328848876953125,30.225000381469727,26.36250114440918,27.918750762939453
1751620571208849000,0.338848876953125,30.243751525878906,26.512500762939453,27.843751907348633
1751620571218848800,0.348848876953125,30.075000762939453,26.531251907348633,27.656251907348633
1751620571228849000,0.358848876953125,29.962501525878906,26.45625114440918,27.693750381469727
1751620571238848800,0.368848876953125,29.92500114440918,26.418750762939453,27.693750381469727
1751620571248849000,0.378848876953125,29.756250381469727,26.55000114440918,27.806251525878906
1751620571258848800,0.388848876953125,29.83125114440918,26.625001907348633,27.881250381469727
1751620571268849000,0.398848876953125,30.000001907348633,26.531251907348633,28.012500762939453
1751620571278848800,0.408848876953125,30.075000762939453,26.718751907348633,28.031251907348633
1751620571288849000,0.418848876953125,30.318750381469727,26.83125114440918,28.087501525878906
1751620571298848800,0.428848876953125,30.243751525878906,26.83125114440918,28.05000114440918
1751620571308849000,0.438848876953125,30.281251907348633,26.73750114440918,28.181251525878906
1751620571318848800,0.448848876953125,30.318750381469727,26.568750381469727,28.162500381469727
1751620571328849000,0.458848876953125,30.337501525878906,26.531251907348633,28.087501525878906
1751620571338848800,0.468848876953125,30.20625114440918,26.606250762939453,28.200000762939453
1751620571348849000,0.478848876953125,29.962501525878906,26.475000381469727,28.106250762939453
1751620571358848800,0.488848876953125,30.000001907348633,26.493751525878906,28.068750381469727
1751620571368849000,0.498848876953125,29.83125114440918,26.418750762939453,27.86250114440918
1751620571378848800,0.508848876953125,30.000001907348633,26.55000114440918,27.86250114440918
1751620571388849000,0.518848876953125,30.037500381469727,26.700000762939453,27.900001525878906
1751620571398848800,0.528848876953125,30.000001907348633,26.943750381469727,27.900001525878906
1751620571408849000,0.538848876953125,30.131250381469727,26.887500762939453,27.993751525878906
1751620571418848800,0.548848876953125,30.412500381469727,26.756250381469727,28.031251907348633
1751620571428849000,0.558848876953125,30.543750762939453,26.962501525878906,27.86250114440918
1751620571438848800,0.568848876953125,30.637500762939453,26.662500381469727,27.918750762939453
1751620571448849000,0.578848876953125,30.58125114440918,26.531251907348633,28.181251525878906
1751620571458848800,0.588848876953125,30.431251525878906,26.381250381469727,28.23750114440918
1751620571468849000,0.598848876953125,30.20625114440918,26.36250114440918,28.068750381469727
1751620571478848800,0.608848876953125,30.168750762939453,26.306251525878906,28.125001907348633
1751620571488849000,0.618848876953125,30.037500381469727,26.306251525878906,28.200000762939453
1751620571498848800,0.628848876953125,29.868751525878906,26.400001525878906,28.200000762939453
1751620571508849000,0.638848876953125,29.756250381469727,26.156251907348633,28.350000381469727
1751620571518848800,0.648848876953125,29.83125114440918,26.381250381469727,28.200000762939453
1751620571528849000,0.658848876953125,29.962501525878906,26.381250381469727,28.181251525878906
1751620571538848800,0.668848876953125,30.168750762939453,26.306251525878906,28.293750762939453
1751620571548849000,0.678848876953125,30.281251907348633,26.306251525878906,28.293750762939453
1751620571558848800,0.688848876953125,30.281251907348633,26.36250114440918,28.218751907348633
1751620571568849000,0.698848876953125,30.562501907348633,26.381250381469727,27.993751525878906
1751620571578848800,0.708848876953125,30.450000762939453,26.418750762939453,27.881250381469727
1751620571588849000,0.718848876953125,30.543750762939453,26.437501907348633,27.618751525878906
1751620571598848800,0.728848876953125,30.30000114440918,26.343751907348633,27.637500762939453
1751620571608849000,0.738848876953125,30.187501907348633,26.493751525878906,27.618751525878906
1751620571618848800,0.748848876953125,30.000001907348633,26.568750381469727,27.39375114440918
1751620571628849000,0.758848876953125,29.943750381469727,26.606250762939453,27.506250381469727
1751620571638848800,0.768848876953125,29.962501525878906,26.418750762939453,27.525001525878906
1751620571648849000,0.778848876953125,29.625001907348633,26.325000762939453,27.825000762939453
1751620571658848800,0.788848876953125,29.64375114440918,26.36250114440918,27.975000381469727
1751620571668849000,0.798848876953125,29.73750114440918,26.437501907348633,28.256250381469727
1751620571678848800,0.808848876953125,30.093751907348633,26.400001525878906,28.33125114440918
1751620571688849000,0.818848876953125,30.000001907348633,26.381250381469727,28.23750114440918
1751620571708849000,0.838848876953125,30.150001525878906,26.400001525878906,28.293750762939453
1751620571718848800,0.848848876953125,30.150001525878906,26.325000762939453,28.23750114440918
1751620571728849000,0.858848876953125,30.468751907348633,26.493751525878906,28.106250762939453
1751620571738848800,0.868848876953125,30.450000762939453,26.343751907348633,28.031251907348633
1751620571748849000,0.878848876953125,30.093751907348633,26.381250381469727,28.05000114440918
1751620571758848800,0.888848876953125,29.718751907348633,26.493751525878906,27.993751525878906
1751620571768849000,0.898848876953125,29.83125114440918,26.587501525878906,27.95625114440918
1751620571778848800,0.908848876953125,29.625001907348633,26.400001525878906,27.806251525878906
1751620571788849000,0.918848876953125,29.625001907348633,26.306251525878906,27.975000381469727
1751620571798848800,0.928848876953125,29.606250762939453,26.418750762939453,28.012500762939453
1751620571808849000,0.938848876953125,29.681251525878906,26.400001525878906,28.14375114440918
1751620571818848800,0.948848876953125,29.83125114440918,26.36250114440918,28.05000114440918
1751620571828849000,0.958848876953125,30.075000762939453,26.250001907348633,27.881250381469727
1751620571838848800,0.968848876953125,30.337501525878906,26.062501907348633,27.975000381469727
1751620571848849000,0.978848876953125,30.262500762939453,26.025001525878906,28.05000114440918
1751620571858848800,0.988848876953125,30.39375114440918,26.231250762939453,28.275001525878906
1751620571868849000,0.998848876953125,30.637500762939453,26.306251525878906,28.218751907348633
1751620571878848800,1.008848876953125,30.543750762939453,26.55000114440918,28.312501907348633
1751620571888849000,1.018848876953125,30.318750381469727,26.512500762939453,28.087501525878906
1751620571898848800,1.028848876953125,30.093751907348633,26.606250762939453,27.95625114440918
1751620571908849000,1.038848876953125,30.000001907348633,26.625001907348633,28.012500762939453
1751620571918848800,1.048848876953125,29.662500381469727,26.587501525878906,27.712501525878906
1751620571928849000,1.058848876953125,29.700000762939453,26.493751525878906,27.918750762939453
1751620571938848800,1.068848876953125,29.868751525878906,26.475000381469727,27.900001525878906
1751620571948849000,1.078848876953125,29.681251525878906,26.418750762939453,27.825000762939453
1751620571958848800,1.088848876953125,29.625001907348633,26.137500762939453,27.825000762939453
1751620571968849000,1.098848876953125,29.512500762939453,26.231250762939453,27.937501907348633
1751620571978848800,1.108848876953125,29.718751907348633,26.381250381469727,28.275001525878906
1751620571988849000,1.118848876953125,29.606250762939453,26.325000762939453,28.42500114440918
1751620571998848800,1.128848876953125,29.868751525878906,26.662500381469727,28.743751525878906
1751620572008849000,1.138848876953125,29.868751525878906,26.625001907348633,28.481250762939453
1751620572018848800,1.148848876953125,29.64375114440918,26.55000114440918,28.387500762939453
1751620572028849000,1.158848876953125,29.475000381469727,26.625001907348633,28.368751525878906
1751620572038848800,1.168848876953125,29.606250762939453,26.681251525878906,28.200000762939453
1751620572048849000,1.178848876953125,29.850000381469727,26.606250762939453,28.181251525878906
1751620572058848800,1.188848876953125,29.662500381469727,26.606250762939453,27.825000762939453
1751620572068849000,1.198848876953125,29.793750762939453,26.887500762939453,27.637500762939453
1751620572078848800,1.208848876953125,29.73750114440918,26.812501907348633,27.600000381469727
1751620572088849000,1.218848876953125,29.73750114440918,26.962501525878906,27.750001907348633
1751620572098848800,1.228848876953125,29.73750114440918,26.943750381469727,27.843751907348633
1751620572108849000,1.238848876953125,29.981250762939453,26.793750762939453,27.806251525878906
1751620572118848800,1.248848876953125,29.83125114440918,26.718751907348633,27.95625114440918
1751620572128849000,1.258848876953125,29.718751907348633,26.775001525878906,27.843751907348633
1751620572138848800,1.268848876953125,29.92500114440918,26.812501907348633,27.95625114440918
1751620572148849000,1.278848876953125,29.812501907348633,26.587501525878906,28.33125114440918
1751620572158848800,1.288848876953125,29.906251907348633,26.475000381469727,28.293750762939453
1751620572168849000,1.298848876953125,29.962501525878906,26.250001907348633,28.256250381469727
1751620572178848800,1.308848876953125,29.812501907348633,26.36250114440918,28.162500381469727
1751620572188849000,1.318848876953125,29.850000381469727,26.36250114440918,28.218751907348633
1751620572198848800,1.328848876953125,29.73750114440918,26.45625114440918,28.33125114440918
1751620572208849000,1.338848876953125,29.662500381469727,26.343751907348633,28.593751907348633
1751620572218848800,1.348848876953125,29.606250762939453,26.250001907348633,28.631250381469727
1751620572228849000,1.358848876953125,29.775001525878906,26.137500762939453,28.368751525878906
1751620572238848800,1.368848876953125,29.55000114440918,26.250001907348633,28.556251525878906
1751620572248849000,1.378848876953125,29.531251907348633,26.381250381469727,28.387500762939453
1751620572258848800,1.388848876953125,29.775001525878906,26.45625114440918,28.406251907348633
1751620572268849000,1.398848876953125,29.625001907348633,26.568750381469727,28.631250381469727
1751620572278848800,1.408848876953125,29.83125114440918,26.568750381469727,28.61250114440918
1751620572288849000,1.418848876953125,30.01875114440918,26.55000114440918,28.350000381469727
1751620572298848800,1.428848876953125,29.906251907348633,26.512500762939453,28.275001525878906
1751620572308849000,1.438848876953125,30.037500381469727,26.55000114440918,28.218751907348633
1751620572318848800,1.448848876953125,30.037500381469727,26.400001525878906,27.95625114440918
1751620572328849000,1.458848876953125,29.943750381469727,26.531251907348633,28.256250381469727
1751620572338848800,1.468848876953125,30.075000762939453,26.343751907348633,28.162500381469727
1751620572348849000,1.478848876953125,30.262500762939453,26.36250114440918,27.918750762939453
1751620572358848800,1.488848876953125,30.225000381469727,26.400001525878906,27.731250762939453
1751620572368849000,1.498848876953125,30.093751907348633,26.437501907348633,27.806251525878906
1751620572378848800,1.508848876953125,30.281251907348633,26.325000762939453,27.825000762939453
1751620572388849000,1.518848876953125,30.075000762939453,26.418750762939453,27.750001907348633
1751620572398848800,1.528848876953125,30.281251907348633,26.493751525878906,27.937501907348633
1751620572408849000,1.538848876953125,30.187501907348633,26.306251525878906,27.76875114440918
1751620572418848800,1.548848876953125,30.150001525878906,26.325000762939453,27.76875114440918
1751620572428849000,1.558848876953125,29.887500762939453,26.118751525878906,27.806251525878906
1751620572438848800,1.568848876953125,30.037500381469727,26.062501907348633,28.012500762939453
1751620572448849000,1.578848876953125,30.225000381469727,26.043750762939453,28.23750114440918
1751620572458848800,1.588848876953125,30.056251525878906,26.08125114440918,28.312501907348633
1751620572468849000,1.598848876953125,30.225000381469727,26.100000381469727,28.42500114440918
1751620572478848800,1.608848876953125,29.981250762939453,26.043750762939453,28.350000381469727
1751620572488849000,1.618848876953125,30.262500762939453,26.043750762939453,28.387500762939453
1751620572498848800,1.628848876953125,30.037500381469727,26.062501907348633,28.33125114440918
1751620572508849000,1.638848876953125,30.337501525878906,26.156251907348633,28.42500114440918
1751620572518848800,1.648848876953125,30.01875114440918,26.17500114440918,28.537500381469727
1751620572528849000,1.658848876953125,29.625001907348633,26.325000762939453,28.368751525878906
1751620572538848800,1.668848876953125,29.756250381469727,26.400001525878906,28.387500762939453
1751620572548849000,1.678848876953125,29.512500762939453,26.45625114440918,28.556251525878906
1751620572558848800,1.688848876953125,29.850000381469727,26.475000381469727,28.481250762939453
1751620572568849000,1.698848876953125,29.981250762939453,26.493751525878906,28.500001907348633
1751620572578848800,1.708848876953125,29.962501525878906,26.625001907348633,28.556251525878906
1751620572588849000,1.718848876953125,29.83125114440918,26.756250381469727,28.406251907348633
1751620572598848800,1.728848876953125,30.11250114440918,26.793750762939453,28.293750762939453
1751620572608849000,1.738848876953125,30.262500762939453,26.793750762939453,28.106250762939453
1751620572618848800,1.748848876953125,30.187501907348633,26.718751907348633,27.993751525878906
1751620572628849000,1.758848876953125,30.39375114440918,26.64375114440918,27.76875114440918
1751620572638848800,1.768848876953125,30.318750381469727,26.73750114440918,27.806251525878906
1751620572648849000,1.778848876953125,30.187501907348633,26.887500762939453,27.806251525878906
1751620572658848800,1.788848876953125,30.356250762939453,26.718751907348633,27.843751907348633
1751620572668849000,1.798848876953125,30.39375114440918,26.531251907348633,27.750001907348633
1751620572678848800,1.808848876953125,30.093751907348633,26.381250381469727,27.48750114440918
1751620572688849000,1.818848876953125,30.20625114440918,26.475000381469727,27.76875114440918
1751620572698848800,1.828848876953125,29.981250762939453,26.64375114440918,27.975000381469727
1751620572708849000,1.838848876953125,29.73750114440918,26.775001525878906,27.975000381469727
1751620572718848800,1.848848876953125,29.681251525878906,26.812501907348633,28.012500762939453
1751620572728849000,1.858848876953125,29.568750381469727,26.718751907348633,28.012500762939453
1751620572738848800,1.868848876953125,29.531251907348633,26.887500762939453,28.125001907348633
1751620572748849000,1.878848876953125,29.475000381469727,27.11250114440918,28.537500381469727
1751620572758848800,1.888848876953125,29.606250762939453,27.225000381469727,28.687501907348633
1751620572768849000,1.898848876953125,29.531251907348633,27.037500381469727,28.556251525878906
1751620572778848800,1.908848876953125,30.075000762939453,26.943750381469727,28.537500381469727
1751620572788849000,1.918848876953125,30.262500762939453,26.700000762939453,28.462501525878906
1751620572798848800,1.928848876953125,30.168750762939453,26.531251907348633,28.42500114440918
1751620572808849000,1.938848876953125,30.150001525878906,26.587501525878906,28.500001907348633
1751620572818848800,1.948848876953125,30.281251907348633,26.36250114440918,28.462501525878906
1751620572828849000,1.958848876953125,30.431251525878906,26.17500114440918,28.256250381469727
1751620572838848800,1.968848876953125,30.39375114440918,26.118751525878906,28.312501907348633
1751620572848849000,1.978848876953125,30.281251907348633,26.212501525878906,28.462501525878906
1751620572858848800,1.988848876953125,30.056251525878906,26.231250762939453,28.575000762939453
1751620572868849000,1.998848876953125,29.868751525878906,26.418750762939453,28.631250381469727
1751620572878848800,2.008848876953125,30.01875114440918,26.531251907348633,28.51875114440918
1751620572888849000,2.018848876953125,30.281251907348633,26.512500762939453,28.51875114440918
1751620572898848800,2.028848876953125,30.131250381469727,26.662500381469727,28.481250762939453
1751620572908849000,2.038848876953125,29.981250762939453,26.756250381469727,28.481250762939453
1751620572918848800,2.048848876953125,30.093751907348633,26.868751525878906,28.556251525878906
1751620572928849000,2.058848876953125,30.39375114440918,26.73750114440918,28.312501907348633
1751620572938848800,2.068848876953125,30.225000381469727,26.83125114440918,28.162500381469727
1751620572948849000,2.078848876953125,30.20625114440918,26.73750114440918,28.012500762939453
1751620572958848800,2.088848876953125,30.150001525878906,26.718751907348633,28.14375114440918
1751620572968849000,2.098848876953125,30.20625114440918,26.568750381469727,27.843751907348633
1751620572978848800,2.108848876953125,30.243751525878906,26.55000114440918,27.731250762939453
1751620572988849000,2.118848876953125,30.262500762939453,26.437501907348633,27.656251907348633
1751620572998848800,2.128848876953125,30.318750381469727,26.212501525878906,27.525001525878906
1751620573008849000,2.138848876953125,30.11250114440918,26.287500381469727,27.806251525878906
1751620573018848800,2.148848876953125,30.30000114440918,26.306251525878906,27.76875114440918
1751620573028849000,2.158848876953125,30.506250381469727,26.250001907348633,28.031251907348633
1751620573038848800,2.168848876953125,30.637500762939453,26.250001907348633,27.937501907348633
1751620573048849000,2.178848876953125,30.11250114440918,26.512500762939453,28.218751907348633
1751620573058848800,2.188848876953125,29.981250762939453,26.493751525878906,28.23750114440918
1751620573068849000,2.198848876953125,30.01875114440918,26.45625114440918,28.106250762939453
1751620573078848800,2.208848876953125,29.850000381469727,26.568750381469727,28.181251525878906
1751620573088849000,2.218848876953125,29.73750114440918,26.587501525878906,27.993751525878906
1751620573098848800,2.228848876953125,29.55000114440918,26.587501525878906,28.256250381469727
1751620573108849000,2.238848876953125,29.36250114440918,26.662500381469727,28.293750762939453
1751620573118848800,2.248848876953125,29.006250381469727,26.700000762939453,28.443750381469727
1751620573128849000,2.258848876953125,29.568750381469727,26.493751525878906,28.462501525878906
1751620573138848800,2.268848876953125,29.662500381469727,26.55000114440918,28.443750381469727
1751620573148849000,2.278848876953125,29.64375114440918,26.793750762939453,28.593751907348633
1751620573158848800,2.288848876953125,29.73750114440918,26.73750114440918,28.650001525878906
1751620573168849000,2.298848876953125,30.056251525878906,26.662500381469727,28.725000381469727
1751620573178848800,2.308848876953125,30.243751525878906,26.700000762939453,28.42500114440918
1751620573188849000,2.318848876953125,30.48750114440918,26.73750114440918,28.368751525878906
1751620573198848800,2.328848876953125,30.618751525878906,26.83125114440918,28.61250114440918
1751620573208849000,2.338848876953125,30.450000762939453,26.962501525878906,28.500001907348633
1751620573218848800,2.348848876953125,30.243751525878906,26.943750381469727,28.406251907348633
1751620573228849000,2.358848876953125,30.281251907348633,26.981250762939453,28.631250381469727
1751620573238848800,2.368848876953125,30.243751525878906,27.11250114440918,28.537500381469727
1751620573248849000,2.378848876953125,29.92500114440918,27.187501907348633,28.443750381469727
1751620573258848800,2.388848876953125,29.981250762939453,27.11250114440918,28.443750381469727
1751620573268849000,2.398848876953125,29.887500762939453,27.037500381469727,28.500001907348633
1751620573278848800,2.408848876953125,30.000001907348633,27.037500381469727,28.368751525878906
1751620573288849000,2.418848876953125,29.943750381469727,26.981250762939453,28.387500762939453
1751620573298848800,2.428848876953125,30.20625114440918,27.000001907348633,28.743751525878906
1751620573308849000,2.438848876953125,30.281251907348633,26.981250762939453,28.61250114440918
1751620573318848800,2.448848876953125,30.337501525878906,26.887500762939453,28.593751907348633
1751620573328849000,2.458848876953125,30.787500381469727,26.775001525878906,28.70625114440918
1751620573338848800,2.468848876953125,30.525001525878906,26.625001907348633,28.593751907348633
1751620573348849000,2.478848876953125,30.525001525878906,26.718751907348633,28.500001907348633
1751620573358848800,2.488848876953125,30.525001525878906,26.512500762939453,28.256250381469727
1751620573368849000,2.498848876953125,30.58125114440918,26.606250762939453,28.256250381469727
1751620573378848800,2.508848876953125,30.431251525878906,26.64375114440918,27.993751525878906
1751620573388849000,2.518848876953125,30.468751907348633,26.568750381469727,28.012500762939453
1751620573398848800,2.528848876953125,30.600000381469727,26.587501525878906,28.031251907348633
1751620573408849000,2.538848876953125,30.431251525878906,26.587501525878906,27.993751525878906
1751620573418848800,2.548848876953125,30.48750114440918,26.718751907348633,28.33125114440918
1751620573428849000,2.558848876953125,30.525001525878906,26.662500381469727,28.368751525878906
1751620573438848800,2.568848876953125,30.48750114440918,26.756250381469727,28.481250762939453
1751620573448849000,2.578848876953125,30.356250762939453,26.587501525878906,28.631250381469727
1751620573458848800,2.588848876953125,30.412500381469727,26.625001907348633,28.762500762939453
1751620573468849000,2.598848876953125,29.981250762939453,26.793750762939453,28.687501907348633
1751620573478848800,2.608848876953125,29.962501525878906,26.681251525878906,28.70625114440918
1751620573488849000,2.618848876953125,30.000001907348633,26.568750381469727,28.350000381469727
1751620573498848800,2.628848876953125,29.962501525878906,26.64375114440918,28.125001907348633
1751620573508849000,2.638848876953125,29.793750762939453,26.64375114440918,28.162500381469727
1751620573518848800,2.648848876953125,29.868751525878906,26.568750381469727,28.05000114440918
1751620573528849000,2.658848876953125,30.093751907348633,26.681251525878906,27.787500381469727
1751620573538848800,2.668848876953125,30.150001525878906,26.568750381469727,27.712501525878906
1751620573548849000,2.678848876953125,30.356250762939453,26.512500762939453,27.58125114440918
1751620573558848800,2.688848876953125,30.262500762939453,26.606250762939453,27.450000762939453
1751620573568849000,2.698848876953125,30.187501907348633,26.812501907348633,27.712501525878906
1751620573578848800,2.708848876953125,30.412500381469727,26.64375114440918,27.86250114440918
1751620573588849000,2.718848876953125,30.600000381469727,26.625001907348633,27.806251525878906
1751620573598848800,2.728848876953125,30.375001907348633,26.587501525878906,27.975000381469727
1751620573608849000,2.738848876953125,30.20625114440918,26.606250762939453,28.068750381469727
1751620573618848800,2.748848876953125,30.131250381469727,26.64375114440918,28.14375114440918
1751620573628849000,2.758848876953125,30.281251907348633,26.512500762939453,28.275001525878906
1751620573638848800,2.768848876953125,30.281251907348633,26.55000114440918,28.481250762939453
1751620573648849000,2.778848876953125,30.20625114440918,26.531251907348633,28.537500381469727
1751620573658848800,2.788848876953125,30.262500762939453,26.568750381469727,28.33125114440918
1751620573668849000,2.798848876953125,30.150001525878906,26.587501525878906,28.42500114440918
1751620573678848800,2.808848876953125,30.243751525878906,26.64375114440918,28.406251907348633
1751620573688849000,2.818848876953125,30.262500762939453,26.45625114440918,28.312501907348633
1751620573698848800,2.828848876953125,30.243751525878906,26.343751907348633,28.218751907348633
1751620573708849000,2.838848876953125,30.337501525878906,26.36250114440918,28.368751525878906
1751620573718848800,2.848848876953125,30.450000762939453,26.475000381469727,28.350000381469727
1751620573728849000,2.858848876953125,30.39375114440918,26.55000114440918,28.33125114440918
1751620573738848800,2.868848876953125,30.337501525878906,26.418750762939453,28.406251907348633
1751620573748849000,2.878848876953125,30.58125114440918,26.287500381469727,28.312501907348633
1751620573758848800,2.888848876953125,30.731250762939453,26.287500381469727,28.406251907348633
1751620573768849000,2.898848876953125,30.525001525878906,26.343751907348633,28.51875114440918
1751620573778848800,2.908848876953125,30.67500114440918,26.287500381469727,28.61250114440918
1751620573788849000,2.918848876953125,30.30000114440918,26.343751907348633,28.42500114440918
1751620573798848800,2.928848876953125,30.431251525878906,26.043750762939453,28.42500114440918
1751620573808849000,2.938848876953125,30.243751525878906,26.062501907348633,28.593751907348633
1751620573818848800,2.948848876953125,30.000001907348633,26.231250762939453,28.668750762939453
1751620573828849000,2.958848876953125,29.887500762939453,26.437501907348633,28.575000762939453
1751620573838848800,2.968848876953125,29.625001907348633,26.512500762939453,28.443750381469727
1751620573848849000,2.978848876953125,29.662500381469727,26.73750114440918,28.406251907348633
1751620573858848800,2.988848876953125,29.55000114440918,26.83125114440918,28.575000762939453
1751620573868849000,2.998848876953125,29.775001525878906,26.850000381469727,28.687501907348633
1751620573878848800,3.008848876953125,29.587501525878906,27.075000762939453,28.70625114440918
1751620573888849000,3.018848876953125,29.700000762939453,26.981250762939453,28.593751907348633
1751620573898848800,3.028848876953125,30.000001907348633,26.887500762939453,28.462501525878906
1751620573908849000,3.038848876953125,29.793750762939453,26.868751525878906,28.631250381469727
1751620573918848800,3.048848876953125,29.981250762939453,26.850000381469727,28.70625114440918
1751620573928849000,3.058848876953125,30.01875114440918,26.850000381469727,28.80000114440918
1751620573938848800,3.068848876953125,29.83125114440918,26.83125114440918,28.687501907348633
1751620573948849000,3.078848876953125,29.793750762939453,26.887500762939453,28.575000762939453
1751620573958848800,3.088848876953125,29.400001525878906,26.793750762939453,28.443750381469727
1751620573968849000,3.098848876953125,29.493751525878906,26.793750762939453,28.593751907348633
1751620573978848800,3.108848876953125,29.08125114440918,26.887500762939453,28.725000381469727
1751620573988849000,3.118848876953125,29.343751907348633,26.775001525878906,28.575000762939453
1751620573998848800,3.128848876953125,29.287500381469727,26.700000762939453,28.293750762939453
1751620574008849000,3.138848876953125,29.587501525878906,26.681251525878906,28.293750762939453
1751620574018848800,3.148848876953125,30.01875114440918,26.793750762939453,28.312501907348633
1751620574028849000,3.158848876953125,29.73750114440918,26.568750381469727,28.23750114440918
1751620574038848800,3.168848876953125,30.056251525878906,26.568750381469727,28.443750381469727
1751620574048849000,3.178848876953125,30.075000762939453,26.400001525878906,28.200000762939453
1751620574058848800,3.188848876953125,30.20625114440918,26.531251907348633,28.200000762939453
1751620574068849000,3.198848876953125,30.262500762939453,26.531251907348633,28.293750762939453
1751620574078848800,3.208848876953125,30.262500762939453,26.662500381469727,28.575000762939453
1751620574088849000,3.218848876953125,30.150001525878906,26.64375114440918,28.42500114440918
1751620574098848800,3.228848876953125,29.887500762939453,26.493751525878906,28.406251907348633
1751620574108849000,3.238848876953125,30.412500381469727,26.568750381469727,28.406251907348633
1751620574118848800,3.248848876953125,30.450000762939453,26.64375114440918,28.33125114440918
1751620574128849000,3.258848876953125,30.39375114440918,26.793750762939453,28.275001525878906
1751620574138848800,3.268848876953125,30.543750762939453,26.55000114440918,28.068750381469727
1751620574148849000,3.278848876953125,30.337501525878906,26.568750381469727,28.106250762939453
1751620574158848800,3.288848876953125,30.48750114440918,26.587501525878906,27.95625114440918
1751620574168849000,3.298848876953125,30.20625114440918,26.400001525878906,28.162500381469727
1751620574178848800,3.308848876953125,30.337501525878906,26.418750762939453,28.031251907348633
1751620574188849000,3.318848876953125,29.793750762939453,26.400001525878906,27.975000381469727
1751620574198848800,3.328848876953125,29.681251525878906,26.343751907348633,27.975000381469727
1751620574208849000,3.338848876953125,29.887500762939453,26.437501907348633,28.068750381469727
1751620574218848800,3.348848876953125,29.812501907348633,26.437501907348633,28.181251525878906
1751620574228849000,3.358848876953125,29.775001525878906,26.568750381469727,28.012500762939453
1751620574238848800,3.368848876953125,29.756250381469727,26.475000381469727,28.125001907348633
1751620574248849000,3.378848876953125,29.981250762939453,26.45625114440918,27.900001525878906
1751620574258848800,3.388848876953125,29.868751525878906,26.306251525878906,28.087501525878906
1751620574268849000,3.398848876953125,30.337501525878906,26.512500762939453,28.368751525878906
1751620574278848800,3.408848876953125,30.468751907348633,26.512500762939453,28.14375114440918
1751620574288849000,3.418848876953125,30.39375114440918,26.512500762939453,28.218751907348633
1751620574298848800,3.428848876953125,30.48750114440918,26.700000762939453,28.23750114440918
1751620574308849000,3.438848876953125,30.356250762939453,26.606250762939453,28.275001525878906
1751620574318848800,3.448848876953125,30.11250114440918,26.55000114440918,28.23750114440918
1751620574328849000,3.458848876953125,29.775001525878906,26.531251907348633,28.500001907348633
1751620574338848800,3.468848876953125,29.73750114440918,26.756250381469727,28.218751907348633
1751620574348849000,3.478848876953125,29.568750381469727,26.775001525878906,28.05000114440918
1751620574358848800,3.488848876953125,29.55000114440918,26.793750762939453,27.975000381469727
1751620574368849000,3.498848876953125,29.606250762939453,26.793750762939453,27.975000381469727
1751620574378848800,3.508848876953125,29.606250762939453,26.700000762939453,27.881250381469727
1751620574388849000,3.518848876953125,29.83125114440918,26.512500762939453,27.900001525878906
1751620574398848800,3.528848876953125,29.92500114440918,26.681251525878906,27.900001525878906
1751620574408849000,3.538848876953125,30.262500762939453,26.812501907348633,27.562501907348633
1751620574418848800,3.548848876953125,30.412500381469727,26.83125114440918,27.918750762939453
1751620574428849000,3.558848876953125,30.525001525878906,26.662500381469727,27.975000381469727
1751620574438848800,3.568848876953125,30.562501907348633,26.606250762939453,28.012500762939453
1751620574448849000,3.578848876953125,30.525001525878906,26.681251525878906,27.95625114440918
1751620574458848800,3.588848876953125,30.468751907348633,26.625001907348633,28.14375114440918
1751620574468849000,3.598848876953125,30.39375114440918,26.718751907348633,27.975000381469727
1751620574478848800,3.608848876953125,30.506250381469727,26.512500762939453,27.918750762939453
1751620574488849000,3.618848876953125,30.356250762939453,26.437501907348633,27.975000381469727
1751620574498848800,3.628848876953125,30.450000762939453,26.418750762939453,27.787500381469727
1751620574508849000,3.638848876953125,30.58125114440918,26.493751525878906,27.76875114440918
1751620574518848800,3.648848876953125,30.656251907348633,26.587501525878906,28.05000114440918
1751620574528849000,3.658848876953125,30.618751525878906,26.400001525878906,28.05000114440918
1751620574538848800,3.668848876953125,30.693750381469727,26.381250381469727,28.087501525878906
1751620574548849000,3.678848876953125,30.693750381469727,26.325000762939453,28.218751907348633
1751620574558848800,3.688848876953125,30.843751907348633,26.400001525878906,28.256250381469727
1751620574568849000,3.698848876953125,30.731250762939453,26.437501907348633,28.14375114440918
1751620574578848800,3.708848876953125,30.67500114440918,26.343751907348633,28.125001907348633
1751620574588849000,3.718848876953125,30.506250381469727,26.250001907348633,28.012500762939453
1751620574598848800,3.728848876953125,30.600000381469727,26.381250381469727,27.975000381469727
1751620574608849000,3.738848876953125,30.30000114440918,26.531251907348633,27.937501907348633
1751620574618848800,3.748848876953125,30.243751525878906,26.587501525878906,27.76875114440918
1751620574628849000,3.758848876953125,30.48750114440918,26.662500381469727,27.900001525878906
1751620574638848800,3.768848876953125,30.281251907348633,26.681251525878906,27.76875114440918
1751620574648849000,3.778848876953125,30.30000114440918,26.64375114440918,27.843751907348633
1751620574658848800,3.788848876953125,30.337501525878906,26.64375114440918,27.918750762939453
1751620574668849000,3.798848876953125,30.39375114440918,26.531251907348633,27.900001525878906
1751620574678848800,3.808848876953125,30.11250114440918,26.400001525878906,27.750001907348633
1751620574688849000,3.818848876953125,30.431251525878906,26.512500762939453,27.843751907348633
1751620574698848800,3.828848876953125,30.506250381469727,26.531251907348633,28.05000114440918
1751620574708849000,3.838848876953125,30.618751525878906,26.418750762939453,27.95625114440918
1751620574718848800,3.848848876953125,30.506250381469727,26.437501907348633,27.95625114440918
1751620574728849000,3.858848876953125,30.731250762939453,26.512500762939453,28.05000114440918
1751620574738848800,3.868848876953125,30.450000762939453,26.437501907348633,27.900001525878906
1751620574748849000,3.878848876953125,30.450000762939453,26.606250762939453,28.05000114440918
1751620574758848800,3.888848876953125,30.431251525878906,26.568750381469727,27.937501907348633
1751620574768849000,3.898848876953125,30.30000114440918,26.17500114440918,27.750001907348633
1751620574778848800,3.908848876953125,30.243751525878906,26.100000381469727,27.506250381469727
1751620574788849000,3.918848876953125,29.962501525878906,26.250001907348633,27.58125114440918
1751620574798848800,3.928848876953125,30.037500381469727,26.36250114440918,27.731250762939453
1751620574808849000,3.938848876953125,29.812501907348633,26.400001525878906,27.750001907348633
1751620574818848800,3.948848876953125,29.981250762939453,26.568750381469727,27.86250114440918
1751620574828849000,3.958848876953125,29.64375114440918,26.587501525878906,27.806251525878906
1751620574838848800,3.968848876953125,29.493751525878906,26.587501525878906,28.162500381469727
1751620574848849000,3.978848876953125,29.531251907348633,26.906251907348633,28.312501907348633
1751620574858848800,3.988848876953125,29.512500762939453,27.037500381469727,28.462501525878906
1751620574868849000,3.998848876953125,29.437501907348633,27.037500381469727,28.51875114440918
1751620574878848800,4.008848876953125,29.700000762939453,26.92500114440918,28.368751525878906
1751620574888849000,4.018848876953125,30.037500381469727,26.73750114440918,28.350000381469727
1751620574898848800,4.028848876953125,30.037500381469727,26.587501525878906,28.14375114440918
1751620574908849000,4.038848876953125,30.281251907348633,26.381250381469727,28.125001907348633
1751620574918848800,4.048848876953125,30.412500381469727,26.343751907348633,27.881250381469727
1751620574928849000,4.058848876953125,30.67500114440918,26.118751525878906,27.825000762939453
1751620574938848800,4.068848876953125,30.656251907348633,26.118751525878906,28.068750381469727
1751620574948849000,4.078848876953125,30.76875114440918,26.17500114440918,28.181251525878906
1751620574958848800,4.088848876953125,30.506250381469727,26.343751907348633,28.275001525878906
1751620574968849000,4.098848876953125,30.337501525878906,26.606250762939453,28.387500762939453
1751620574978848800,4.108848876953125,30.262500762939453,26.606250762939453,28.443750381469727
1751620574988849000,4.118848876953125,30.131250381469727,26.756250381469727,28.556251525878906
1751620574998848800,4.128848876953125,30.20625114440918,26.73750114440918,28.856250762939453
1751620575008849000,4.138848876953125,30.056251525878906,26.662500381469727,28.837501525878906
1751620575018848800,4.148848876953125,30.131250381469727,26.475000381469727,28.762500762939453
1751620575028849000,4.158848876953125,30.037500381469727,26.400001525878906,28.537500381469727
1751620575038848800,4.168848876953125,30.356250762939453,26.212501525878906,28.462501525878906
1751620575048849000,4.178848876953125,30.431251525878906,26.17500114440918,28.481250762939453
1751620575058848800,4.188848876953125,30.412500381469727,26.231250762939453,28.687501907348633
1751620575068849000,4.198848876953125,30.168750762939453,26.212501525878906,28.61250114440918
1751620575078848800,4.208848876953125,30.20625114440918,26.287500381469727,28.42500114440918
1751620575088849000,4.218848876953125,30.056251525878906,26.343751907348633,28.33125114440918
1751620575098848800,4.228848876953125,29.775001525878906,26.400001525878906,28.218751907348633
1751620575108849000,4.238848876953125,29.64375114440918,26.437501907348633,28.33125114440918
1751620575118848800,4.248848876953125,29.418750762939453,26.36250114440918,28.312501907348633
1751620575128849000,4.258848876953125,29.45625114440918,26.418750762939453,27.881250381469727
1751620575138848800,4.268848876953125,29.681251525878906,26.493751525878906,27.993751525878906
1751620575148849000,4.278848876953125,30.093751907348633,26.437501907348633,27.975000381469727
1751620575158848800,4.288848876953125,29.868751525878906,26.475000381469727,27.95625114440918
1751620575168849000,4.298848876953125,30.093751907348633,26.250001907348633,28.068750381469727
1751620575178848800,4.308848876953125,30.187501907348633,26.381250381469727,27.975000381469727
1751620575188849000,4.318848876953125,30.262500762939453,26.36250114440918,27.918750762939453
1751620575198848800,4.328848876953125,30.187501907348633,26.587501525878906,27.993751525878906
1751620575208849000,4.338848876953125,30.187501907348633,26.587501525878906,28.42500114440918
1751620575218848800,4.348848876953125,30.11250114440918,26.568750381469727,28.443750381469727
1751620575228849000,4.358848876953125,30.01875114440918,26.45625114440918,28.42500114440918
1751620575238848800,4.368848876953125,29.981250762939453,26.531251907348633,28.406251907348633
1751620575248849000,4.378848876953125,29.662500381469727,26.943750381469727,28.387500762939453
1751620575258848800,4.388848876953125,29.531251907348633,26.92500114440918,28.556251525878906
1751620575268849000,4.398848876953125,29.475000381469727,26.943750381469727,28.61250114440918
1751620575278848800,4.408848876953125,29.531251907348633,26.73750114440918,28.631250381469727
1751620575288849000,4.418848876953125,29.36250114440918,26.587501525878906,28.481250762939453
1751620575298848800,4.428848876953125,29.100000381469727,26.700000762939453,28.462501525878906
1751620575308849000,4.438848876953125,29.118751525878906,26.681251525878906,28.387500762939453
1751620575318848800,4.448848876953125,29.437501907348633,26.606250762939453,28.500001907348633
1751620575328849000,4.458848876953125,29.606250762939453,26.512500762939453,28.593751907348633
1751620575338848800,4.468848876953125,30.168750762939453,26.475000381469727,28.443750381469727
1751620575348849000,4.478848876953125,30.150001525878906,26.512500762939453,28.33125114440918
1751620575358848800,4.488848876953125,30.20625114440918,26.64375114440918,28.312501907348633
1751620575368849000,4.498848876953125,30.243751525878906,26.812501907348633,28.481250762939453
1751620575378848800,4.508848876953125,30.67500114440918,26.587501525878906,28.368751525878906
1751620575388849000,4.518848876953125,30.637500762939453,26.92500114440918,28.725000381469727
1751620575398848800,4.528848876953125,30.375001907348633,26.887500762939453,28.725000381469727
1751620575408849000,4.538848876953125,30.337501525878906,26.962501525878906,28.61250114440918
1751620575418848800,4.548848876953125,29.812501907348633,27.01875114440918,28.650001525878906
1751620575428849000,4.558848876953125,29.962501525878906,27.01875114440918,28.687501907348633
1751620575438848800,4.568848876953125,29.83125114440918,27.037500381469727,28.537500381469727
1751620575448849000,4.578848876953125,29.92500114440918,26.906251907348633,28.462501525878906
1751620575458848800,4.588848876953125,29.681251525878906,26.92500114440918,28.200000762939453
1751620575468849000,4.598848876953125,29.83125114440918,26.568750381469727,27.787500381469727
1751620575478848800,4.608848876953125,29.981250762939453,26.36250114440918,27.67500114440918
1751620575488849000,4.618848876953125,30.131250381469727,26.287500381469727,27.76875114440918
1751620575498848800,4.628848876953125,30.30000114440918,26.26875114440918,27.67500114440918
1751620575508849000,4.638848876953125,30.431251525878906,26.17500114440918,27.562501907348633
1751620575518848800,4.648848876953125,30.318750381469727,26.118751525878906,27.637500762939453
1751620575528849000,4.658848876953125,30.468751907348633,26.08125114440918,27.450000762939453
1751620575538848800,4.668848876953125,30.468751907348633,26.212501525878906,27.86250114440918
1751620575548849000,4.678848876953125,30.431251525878906,26.36250114440918,28.012500762939453
1751620575558848800,4.688848876953125,30.525001525878906,26.625001907348633,28.218751907348633
1751620575568849000,4.698848876953125,30.468751907348633,26.64375114440918,28.162500381469727
1751620575578848800,4.708848876953125,30.48750114440918,26.606250762939453,28.200000762939453
1751620575588849000,4.718848876953125,30.318750381469727,26.606250762939453,28.275001525878906
1751620575598848800,4.728848876953125,30.543750762939453,26.625001907348633,28.293750762939453
1751620575608849000,4.738848876953125,30.431251525878906,26.887500762939453,28.575000762939453
1751620575618848800,4.748848876953125,30.337501525878906,26.962501525878906,28.631250381469727
1751620575628849000,4.758848876953125,30.262500762939453,26.887500762939453,28.668750762939453
1751620575638848800,4.768848876953125,30.356250762939453,26.606250762939453,28.293750762939453
1751620575648849000,4.778848876953125,30.20625114440918,26.64375114440918,28.500001907348633
1751620575658848800,4.788848876953125,30.20625114440918,26.55000114440918,28.556251525878906
1751620575668849000,4.798848876953125,30.187501907348633,26.662500381469727,28.687501907348633
1751620575678848800,4.808848876953125,30.318750381469727,26.83125114440918,28.912500381469727
1751620575688849000,4.818848876953125,30.168750762939453,26.625001907348633,28.80000114440918
1751620575698848800,4.828848876953125,30.412500381469727,26.512500762939453,28.631250381469727
1751620575708849000,4.838848876953125,30.150001525878906,26.45625114440918,28.61250114440918
1751620575718848800,4.848848876953125,29.83125114440918,26.587501525878906,28.80000114440918
1751620575728849000,4.858848876953125,29.943750381469727,26.437501907348633,28.593751907348633
1751620575738848800,4.868848876953125,29.887500762939453,26.36250114440918,28.51875114440918
1751620575748849000,4.878848876953125,30.11250114440918,26.250001907348633,28.575000762939453
1751620575758848800,4.888848876953125,29.943750381469727,26.100000381469727,28.650001525878906
1751620575768849000,4.898848876953125,29.92500114440918,26.025001525878906,28.575000762939453
1751620575778848800,4.908848876953125,29.868751525878906,25.950000762939453,28.556251525878906
1751620575788849000,4.918848876953125,30.056251525878906,26.043750762939453,28.593751907348633
1751620575798848800,4.928848876953125,30.056251525878906,26.043750762939453,28.593751907348633
1751620575808849000,4.938848876953125,30.037500381469727,26.062501907348633,28.42500114440918
1751620575818848800,4.948848876953125,30.01875114440918,26.306251525878906,28.500001907348633
1751620575828849000,4.958848876953125,29.887500762939453,26.512500762939453,28.537500381469727
1751620575838848800,4.968848876953125,29.83125114440918,26.400001525878906,28.256250381469727
1751620575848849000,4.978848876953125,29.868751525878906,26.325000762939453,28.293750762939453
1751620575858848800,4.988848876953125,29.887500762939453,26.36250114440918,28.068750381469727
1751620575868849000,4.998848876953125,29.906251907348633,26.381250381469727,27.993751525878906
1751620575878848800,5.008848876953125,29.887500762939453,26.381250381469727,27.918750762939453
1751620575888849000,5.018848876953125,30.01875114440918,26.587501525878906,28.106250762939453
1751620575898848800,5.028848876953125,30.20625114440918,26.64375114440918,28.162500381469727
1751620575908849000,5.038848876953125,30.225000381469727,26.343751907348633,27.975000381469727
1751620575918848800,5.048848876953125,30.243751525878906,26.531251907348633,27.900001525878906
1751620575928849000,5.058848876953125,30.356250762939453,26.812501907348633,27.843751907348633
1751620575938848800,5.068848876953125,30.150001525878906,26.681251525878906,28.068750381469727
1751620575948849000,5.078848876953125,30.056251525878906,26.64375114440918,28.162500381469727
1751620575958848800,5.088848876953125,30.30000114440918,26.775001525878906,28.218751907348633
1751620575968849000,5.098848876953125,30.431251525878906,26.73750114440918,28.23750114440918
1751620575978848800,5.108848876953125,30.356250762939453,26.55000114440918,28.312501907348633
1751620575988849000,5.118848876953125,30.337501525878906,26.73750114440918,28.312501907348633
1751620575998848800,5.128848876953125,30.225000381469727,26.681251525878906,28.42500114440918
1751620576008849000,5.138848876953125,30.131250381469727,26.512500762939453,28.42500114440918
1751620576018848800,5.148848876953125,30.337501525878906,26.681251525878906,28.350000381469727
1751620576028849000,5.158848876953125,30.318750381469727,26.906251907348633,28.162500381469727
1751620576038848800,5.168848876953125,30.281251907348633,26.83125114440918,28.293750762939453
1751620576048849000,5.178848876953125,29.887500762939453,26.73750114440918,28.406251907348633
1751620576058848800,5.188848876953125,29.850000381469727,26.662500381469727,28.125001907348633
1751620576068849000,5.198848876953125,29.568750381469727,26.64375114440918,28.218751907348633
1751620576078848800,5.208848876953125,29.568750381469727,26.568750381469727,28.181251525878906
1751620576088849000,5.218848876953125,29.55000114440918,26.606250762939453,28.275001525878906
1751620576098848800,5.228848876953125,29.493751525878906,26.437501907348633,28.23750114440918
1751620576108849000,5.238848876953125,29.325000762939453,26.306251525878906,28.23750114440918
1751620576118848800,5.248848876953125,29.418750762939453,26.118751525878906,28.068750381469727
1751620576128849000,5.258848876953125,29.681251525878906,26.212501525878906,28.125001907348633
1751620576138848800,5.268848876953125,29.662500381469727,26.400001525878906,28.181251525878906
1751620576148849000,5.278848876953125,29.681251525878906,26.212501525878906,28.14375114440918
1751620576158848800,5.288848876953125,29.625001907348633,26.231250762939453,28.218751907348633
1751620576168849000,5.298848876953125,29.718751907348633,26.325000762939453,28.406251907348633
1751620576178848800,5.308848876953125,29.662500381469727,26.45625114440918,28.275001525878906
1751620576188849000,5.318848876953125,29.83125114440918,26.418750762939453,28.350000381469727
1751620576198848800,5.328848876953125,29.850000381469727,26.64375114440918,28.23750114440918
1751620576208849000,5.338848876953125,29.625001907348633,26.493751525878906,27.993751525878906
1751620576218848800,5.348848876953125,29.55000114440918,26.493751525878906,28.125001907348633
1751620576228849000,5.358848876953125,29.868751525878906,26.700000762939453,28.125001907348633
1751620576238848800,5.368848876953125,29.850000381469727,26.700000762939453,28.05000114440918
1751620576248849000,5.378848876953125,29.83125114440918,26.625001907348633,27.95625114440918
1751620576258848800,5.388848876953125,29.887500762939453,26.64375114440918,28.106250762939453
1751620576268849000,5.398848876953125,29.981250762939453,26.775001525878906,28.05000114440918
1751620576278848800,5.408848876953125,29.775001525878906,26.681251525878906,28.14375114440918
1751620576288849000,5.418848876953125,29.887500762939453,26.812501907348633,28.293750762939453
1751620576298848800,5.428848876953125,30.11250114440918,26.718751907348633,28.256250381469727
1751620576308849000,5.438848876953125,29.981250762939453,26.55000114440918,28.087501525878906
1751620576318848800,5.448848876953125,30.20625114440918,26.55000114440918,28.200000762939453
1751620576328849000,5.458848876953125,30.262500762939453,26.625001907348633,28.312501907348633
1751620576338848800,5.468848876953125,30.187501907348633,26.493751525878906,28.162500381469727
1751620576348849000,5.478848876953125,30.20625114440918,26.531251907348633,28.293750762939453
1751620576358848800,5.488848876953125,30.187501907348633,26.568750381469727,28.387500762939453
1751620576368849000,5.498848876953125,30.318750381469727,26.475000381469727,28.200000762939453
1751620576378848800,5.508848876953125,30.056251525878906,26.681251525878906,28.181251525878906
1751620576388849000,5.518848876953125,30.20625114440918,26.681251525878906,28.293750762939453
1751620576398848800,5.528848876953125,30.39375114440918,26.681251525878906,28.05000114440918
1751620576408849000,5.538848876953125,30.506250381469727,26.531251907348633,27.806251525878906
1751620576418848800,5.548848876953125,30.48750114440918,26.381250381469727,27.881250381469727
1751620576428849000,5.558848876953125,30.412500381469727,26.26875114440918,27.806251525878906
1751620576438848800,5.568848876953125,30.450000762939453,26.26875114440918,27.76875114440918
1751620576448849000,5.578848876953125,30.412500381469727,26.287500381469727,27.86250114440918
1751620576458848800,5.588848876953125,30.431251525878906,26.306251525878906,28.106250762939453
1751620576468849000,5.598848876953125,30.225000381469727,26.36250114440918,28.012500762939453
1751620576478848800,5.608848876953125,30.075000762939453,26.26875114440918,28.05000114440918
1751620576488849000,5.618848876953125,29.962501525878906,26.137500762939453,27.95625114440918
1751620576498848800,5.628848876953125,29.981250762939453,26.36250114440918,27.843751907348633
1751620576518848800,5.648848876953125,30.412500381469727,26.418750762939453,27.750001907348633
1751620576528849000,5.658848876953125,30.431251525878906,26.26875114440918,27.712501525878906
1751620576538848800,5.668848876953125,30.39375114440918,26.006250381469727,27.506250381469727
1751620576548849000,5.678848876953125,30.450000762939453,26.025001525878906,27.562501907348633
1751620576558848800,5.688848876953125,30.356250762939453,26.17500114440918,27.693750381469727
1751620576568849000,5.698848876953125,30.11250114440918,26.287500381469727,27.731250762939453
1751620576578848800,5.708848876953125,29.906251907348633,26.287500381469727,27.750001907348633
1751620576588849000,5.718848876953125,29.681251525878906,26.062501907348633,27.86250114440918
1751620576598848800,5.728848876953125,29.681251525878906,26.212501525878906,28.068750381469727
1751620576608849000,5.738848876953125,29.418750762939453,26.475000381469727,28.14375114440918
1751620576618848800,5.748848876953125,29.531251907348633,26.700000762939453,28.181251525878906
1751620576628849000,5.758848876953125,29.531251907348633,26.625001907348633,28.200000762939453
1751620576638848800,5.768848876953125,29.531251907348633,26.55000114440918,28.23750114440918
1751620576648849000,5.778848876953125,29.887500762939453,26.64375114440918,28.33125114440918
1751620576658848800,5.788848876953125,30.187501907348633,26.73750114440918,28.42500114440918
1751620576668849000,5.798848876953125,30.11250114440918,27.000001907348633,28.406251907348633
1751620576678848800,5.808848876953125,30.056251525878906,26.793750762939453,28.293750762939453
1751620576688849000,5.818848876953125,30.375001907348633,26.493751525878906,28.293750762939453
1751620576698848800,5.828848876953125,30.600000381469727,26.306251525878906,28.256250381469727
1751620576708849000,5.838848876953125,30.618751525878906,26.287500381469727,28.275001525878906
1751620576718848800,5.848848876953125,30.48750114440918,26.36250114440918,28.387500762939453
1751620576728849000,5.858848876953125,30.543750762939453,26.212501525878906,28.51875114440918
1751620576738848800,5.868848876953125,30.562501907348633,26.193750381469727,28.725000381469727
1751620576748849000,5.878848876953125,30.67500114440918,26.043750762939453,28.61250114440918
1751620576758848800,5.888848876953125,30.712501525878906,26.156251907348633,28.593751907348633
1751620576768849000,5.898848876953125,30.525001525878906,26.36250114440918,28.350000381469727
1751620576778848800,5.908848876953125,30.225000381469727,26.325000762939453,28.368751525878906
1751620576788849000,5.918848876953125,30.093751907348633,26.418750762939453,28.575000762939453
1751620576798848800,5.928848876953125,30.375001907348633,26.45625114440918,28.443750381469727
1751620576808849000,5.938848876953125,30.037500381469727,26.700000762939453,28.256250381469727
1751620576818848800,5.948848876953125,29.812501907348633,26.587501525878906,28.200000762939453
1751620576828849000,5.958848876953125,29.587501525878906,26.700000762939453,28.087501525878906
1751620576838848800,5.968848876953125,29.531251907348633,26.718751907348633,28.087501525878906
1751620576848849000,5.978848876953125,29.73750114440918,26.73750114440918,28.275001525878906
1751620576858848800,5.988848876953125,29.73750114440918,27.037500381469727,28.275001525878906
1751620576868849000,5.998848876953125,29.812501907348633,26.962501525878906,27.731250762939453
1751620576878848800,6.008848876953125,29.73750114440918,27.000001907348633,27.806251525878906
1751620576888849000,6.018848876953125,29.906251907348633,26.850000381469727,27.95625114440918
1751620576898848800,6.028848876953125,30.01875114440918,26.718751907348633,27.843751907348633
1751620576908849000,6.038848876953125,30.20625114440918,26.73750114440918,28.012500762939453
1751620576918848800,6.048848876953125,30.168750762939453,26.64375114440918,28.14375114440918
1751620576928849000,6.058848876953125,30.000001907348633,26.662500381469727,28.106250762939453
1751620576938848800,6.068848876953125,30.075000762939453,26.64375114440918,28.068750381469727
1751620576948849000,6.078848876953125,30.187501907348633,26.906251907348633,28.406251907348633
1751620576958848800,6.088848876953125,30.20625114440918,26.943750381469727,28.51875114440918
1751620576968849000,6.098848876953125,30.150001525878906,27.037500381469727,28.537500381469727
1751620576978848800,6.108848876953125,30.168750762939453,27.318750381469727,28.575000762939453
1751620576988849000,6.118848876953125,30.243751525878906,27.337501525878906,28.61250114440918
1751620576998848800,6.128848876953125,30.150001525878906,27.450000762939453,28.406251907348633
1751620577008849000,6.138848876953125,30.318750381469727,27.337501525878906,28.51875114440918
1751620577018848800,6.148848876953125,30.375001907348633,27.187501907348633,28.725000381469727
1751620577028849000,6.158848876953125,30.30000114440918,27.01875114440918,28.743751525878906
1751620577038848800,6.168848876953125,30.375001907348633,26.812501907348633,28.575000762939453
1751620577048849000,6.178848876953125,30.412500381469727,26.850000381469727,28.42500114440918
1751620577058848800,6.188848876953125,30.543750762939453,26.812501907348633,28.350000381469727
1751620577068849000,6.198848876953125,30.375001907348633,26.662500381469727,28.293750762939453
1751620577078848800,6.208848876953125,30.375001907348633,26.587501525878906,28.33125114440918
1751620577088849000,6.218848876953125,30.262500762939453,26.437501907348633,28.125001907348633
1751620577098848800,6.228848876953125,30.131250381469727,26.437501907348633,28.031251907348633
1751620577108849000,6.238848876953125,30.056251525878906,26.45625114440918,27.881250381469727
1751620577118848800,6.248848876953125,29.793750762939453,26.512500762939453,27.881250381469727
1751620577128849000,6.258848876953125,29.700000762939453,26.512500762939453,27.993751525878906
1751620577138848800,6.268848876953125,29.606250762939453,26.306251525878906,27.95625114440918
1751620577148849000,6.278848876953125,29.512500762939453,26.418750762939453,27.900001525878906
1751620577158848800,6.288848876953125,29.512500762939453,26.55000114440918,28.106250762939453
1751620577168849000,6.298848876953125,29.17500114440918,26.83125114440918,28.200000762939453
1751620577178848800,6.308848876953125,29.193750381469727,26.812501907348633,28.05000114440918
1751620577188849000,6.318848876953125,29.287500381469727,26.83125114440918,28.23750114440918
1751620577198848800,6.328848876953125,29.64375114440918,26.850000381469727,28.031251907348633
1751620577208849000,6.338848876953125,29.793750762939453,26.775001525878906,27.918750762939453
1751620577218848800,6.348848876953125,29.83125114440918,26.83125114440918,27.825000762939453
1751620577228849000,6.358848876953125,30.037500381469727,26.868751525878906,27.918750762939453
1751620577238848800,6.368848876953125,30.11250114440918,26.868751525878906,27.76875114440918
1751620577248849000,6.378848876953125,30.468751907348633,26.756250381469727,27.86250114440918
1751620577258848800,6.388848876953125,30.787500381469727,26.531251907348633,27.900001525878906
1751620577268849000,6.398848876953125,30.600000381469727,26.475000381469727,27.937501907348633
1751620577278848800,6.408848876953125,30.543750762939453,26.212501525878906,28.14375114440918
1751620577288849000,6.418848876953125,30.525001525878906,26.250001907348633,28.068750381469727
1751620577298848800,6.428848876953125,30.693750381469727,26.381250381469727,28.481250762939453
1751620577308849000,6.438848876953125,30.76875114440918,26.306251525878906,28.350000381469727
1751620577318848800,6.448848876953125,30.67500114440918,26.156251907348633,28.200000762939453
1751620577328849000,6.458848876953125,30.637500762939453,26.156251907348633,27.95625114440918
1751620577338848800,6.468848876953125,30.337501525878906,26.400001525878906,27.937501907348633
1751620577348849000,6.478848876953125,30.562501907348633,26.475000381469727,27.76875114440918
1751620577358848800,6.488848876953125,30.281251907348633,26.662500381469727,27.637500762939453
1751620577368849000,6.498848876953125,30.506250381469727,26.587501525878906,27.48750114440918
1751620577378848800,6.508848876953125,30.562501907348633,26.700000762939453,27.450000762939453
1751620577388849000,6.518848876953125,30.48750114440918,26.775001525878906,27.39375114440918
1751620577398848800,6.528848876953125,30.86250114440918,26.73750114440918,27.525001525878906
1751620577408849000,6.538848876953125,31.068750381469727,26.681251525878906,27.48750114440918
1751620577418848800,6.548848876953125,31.218751907348633,26.681251525878906,27.450000762939453
1751620577428849000,6.558848876953125,31.200000762939453,26.64375114440918,27.375001907348633
1751620577438848800,6.568848876953125,31.387500762939453,26.662500381469727,27.39375114440918
1751620577448849000,6.578848876953125,31.05000114440918,26.887500762939453,27.618751525878906
1751620577458848800,6.588848876953125,30.975000381469727,26.812501907348633,27.48750114440918
1751620577468849000,6.598848876953125,31.05000114440918,26.83125114440918,27.67500114440918
1751620577478848800,6.608848876953125,30.825000762939453,26.906251907348633,27.86250114440918
1751620577488849000,6.618848876953125,30.375001907348633,27.187501907348633,28.087501525878906
1751620577498848800,6.628848876953125,30.356250762939453,27.11250114440918,28.106250762939453
1751620577508849000,6.638848876953125,30.243751525878906,27.262500762939453,28.23750114440918
1751620577518848800,6.648848876953125,30.150001525878906,27.318750381469727,28.14375114440918
1751620577528849000,6.658848876953125,30.075000762939453,27.30000114440918,28.05000114440918
1751620577538848800,6.668848876953125,29.793750762939453,27.075000762939453,28.068750381469727
1751620577548849000,6.678848876953125,29.756250381469727,26.92500114440918,28.068750381469727
1751620577558848800,6.688848876953125,29.887500762939453,26.812501907348633,27.937501907348633
1751620577568849000,6.698848876953125,30.262500762939453,26.606250762939453,27.787500381469727
1751620577578848800,6.708848876953125,30.243751525878906,26.55000114440918,28.031251907348633
1751620577588849000,6.718848876953125,30.375001907348633,26.45625114440918,28.200000762939453
1751620577598848800,6.728848876953125,30.375001907348633,26.475000381469727,28.350000381469727
1751620577608849000,6.738848876953125,30.58125114440918,26.26875114440918,28.33125114440918
1751620577618848800,6.748848876953125,30.731250762939453,26.475000381469727,28.218751907348633
1751620577628849000,6.758848876953125,30.58125114440918,26.55000114440918,28.443750381469727
1751620577638848800,6.768848876953125,30.525001525878906,26.568750381469727,28.406251907348633
1751620577648849000,6.778848876953125,30.281251907348633,26.568750381469727,28.500001907348633
1751620577658848800,6.788848876953125,30.412500381469727,26.606250762939453,28.031251907348633
1751620577668849000,6.798848876953125,30.431251525878906,26.475000381469727,27.76875114440918
1751620577678848800,6.808848876953125,30.468751907348633,26.418750762939453,27.787500381469727
1751620577688849000,6.818848876953125,30.58125114440918,26.512500762939453,28.031251907348633
1751620577698848800,6.828848876953125,30.468751907348633,26.55000114440918,28.218751907348633
1751620577708849000,6.838848876953125,30.412500381469727,26.73750114440918,28.106250762939453
1751620577718848800,6.848848876953125,30.412500381469727,26.73750114440918,28.05000114440918
1751620577728849000,6.858848876953125,30.656251907348633,26.587501525878906,28.031251907348633
1751620577738848800,6.868848876953125,30.281251907348633,26.793750762939453,28.350000381469727
1751620577748849000,6.878848876953125,30.281251907348633,26.793750762939453,28.387500762939453
1751620577758848800,6.888848876953125,30.30000114440918,26.962501525878906,28.575000762939453
1751620577768849000,6.898848876953125,29.981250762939453,26.83125114440918,28.406251907348633
1751620577778848800,6.908848876953125,29.906251907348633,26.756250381469727,28.368751525878906
1751620577788849000,6.918848876953125,30.093751907348633,26.625001907348633,28.256250381469727
1751620577798848800,6.928848876953125,30.150001525878906,26.606250762939453,28.23750114440918
1751620577808849000,6.938848876953125,29.83125114440918,26.906251907348633,28.387500762939453
1751620577818848800,6.948848876953125,30.037500381469727,26.775001525878906,28.387500762939453
1751620577828849000,6.958848876953125,30.093751907348633,26.73750114440918,28.462501525878906
1751620577838848800,6.968848876953125,30.20625114440918,26.55000114440918,28.387500762939453
1751620577848849000,6.978848876953125,30.187501907348633,26.662500381469727,28.481250762939453
1751620577858848800,6.988848876953125,30.243751525878906,26.531251907348633,28.500001907348633
1751620577868849000,6.998848876953125,30.168750762939453,26.381250381469727,28.556251525878906
1751620577878848800,7.008848876953125,29.92500114440918,26.381250381469727,28.631250381469727
1751620577888849000,7.018848876953125,29.906251907348633,26.025001525878906,28.593751907348633
1751620577898848800,7.028848876953125,29.812501907348633,26.156251907348633,28.80000114440918
1751620577908849000,7.038848876953125,29.606250762939453,26.212501525878906,28.762500762939453
1751620577918848800,7.048848876953125,29.55000114440918,26.287500381469727,28.500001907348633
1751620577928849000,7.058848876953125,29.775001525878906,26.137500762939453,28.312501907348633
1751620577938848800,7.068848876953125,29.812501907348633,26.17500114440918,28.275001525878906
1751620577948849000,7.078848876953125,29.981250762939453,26.250001907348633,27.975000381469727
1751620577958848800,7.088848876953125,30.168750762939453,26.325000762939453,28.012500762939453
1751620577968849000,7.098848876953125,30.281251907348633,26.493751525878906,27.900001525878906
1751620577978848800,7.108848876953125,30.281251907348633,26.343751907348633,27.525001525878906
1751620577988849000,7.118848876953125,30.39375114440918,26.36250114440918,27.525001525878906
1751620577998848800,7.128848876953125,30.281251907348633,26.306251525878906,27.693750381469727
1751620578008849000,7.138848876953125,30.39375114440918,26.493751525878906,27.712501525878906
1751620578018848800,7.148848876953125,30.543750762939453,26.625001907348633,27.67500114440918
1751620578028849000,7.158848876953125,30.525001525878906,26.793750762939453,27.975000381469727
1751620578038848800,7.168848876953125,30.468751907348633,26.943750381469727,27.918750762939453
1751620578048849000,7.178848876953125,30.637500762939453,27.037500381469727,27.843751907348633
1751620578058848800,7.188848876953125,30.693750381469727,27.056251525878906,28.031251907348633
1751620578068849000,7.198848876953125,30.618751525878906,27.131250381469727,28.162500381469727
1751620578078848800,7.208848876953125,30.48750114440918,27.262500762939453,28.125001907348633
1751620578088849000,7.218848876953125,30.225000381469727,27.20625114440918,28.33125114440918
1751620578098848800,7.228848876953125,29.981250762939453,27.131250381469727,28.368751525878906
1751620578108849000,7.238848876953125,29.73750114440918,27.131250381469727,28.481250762939453
1751620578118848800,7.248848876953125,29.775001525878906,27.01875114440918,28.61250114440918
1751620578128849000,7.258848876953125,29.906251907348633,26.962501525878906,28.70625114440918
1751620578138848800,7.268848876953125,29.943750381469727,27.000001907348633,28.70625114440918
1751620578148849000,7.278848876953125,30.075000762939453,26.906251907348633,28.537500381469727
1751620578158848800,7.288848876953125,30.318750381469727,26.700000762939453,28.61250114440918
1751620578168849000,7.298848876953125,30.600000381469727,26.681251525878906,28.350000381469727
1751620578178848800,7.308848876953125,30.637500762939453,26.681251525878906,28.350000381469727
1751620578188849000,7.318848876953125,30.600000381469727,26.512500762939453,28.23750114440918
1751620578198848800,7.328848876953125,30.48750114440918,26.55000114440918,28.14375114440918
1751620578208849000,7.338848876953125,30.150001525878906,26.55000114440918,28.125001907348633
1751620578218848800,7.348848876953125,30.01875114440918,26.568750381469727,27.881250381469727
1751620578228849000,7.358848876953125,29.962501525878906,26.512500762939453,27.67500114440918
1751620578238848800,7.368848876953125,29.906251907348633,26.568750381469727,27.562501907348633
1751620578248849000,7.378848876953125,29.92500114440918,26.606250762939453,27.76875114440918
1751620578258848800,7.388848876953125,29.868751525878906,26.568750381469727,27.806251525878906
1751620578268849000,7.398848876953125,29.793750762939453,26.625001907348633,27.712501525878906
1751620578278848800,7.408848876953125,29.962501525878906,26.587501525878906,27.525001525878906
1751620578288849000,7.418848876953125,30.01875114440918,26.475000381469727,27.600000381469727
1751620578298848800,7.428848876953125,30.131250381469727,26.55000114440918,27.843751907348633
1751620578308849000,7.438848876953125,30.000001907348633,26.681251525878906,28.068750381469727
1751620578318848800,7.448848876953125,30.037500381469727,26.73750114440918,28.256250381469727
1751620578328849000,7.458848876953125,29.793750762939453,26.850000381469727,28.162500381469727
1751620578338848800,7.468848876953125,29.906251907348633,26.887500762939453,28.218751907348633
1751620578348849000,7.478848876953125,30.150001525878906,26.962501525878906,28.406251907348633
1751620578358848800,7.488848876953125,30.056251525878906,26.906251907348633,28.51875114440918
1751620578368849000,7.498848876953125,30.11250114440918,26.83125114440918,28.33125114440918
1751620578378848800,7.508848876953125,30.093751907348633,26.793750762939453,28.275001525878906
1751620578388849000,7.518848876953125,30.11250114440918,26.681251525878906,28.200000762939453
1751620578398848800,7.528848876953125,30.131250381469727,26.625001907348633,27.975000381469727
1751620578408849000,7.538848876953125,29.887500762939453,26.493751525878906,28.162500381469727
1751620578418848800,7.548848876953125,29.906251907348633,26.55000114440918,28.068750381469727
1751620578428849000,7.558848876953125,30.01875114440918,26.531251907348633,27.975000381469727
1751620578438848800,7.568848876953125,30.150001525878906,26.587501525878906,28.012500762939453
1751620578448849000,7.578848876953125,30.000001907348633,26.625001907348633,28.406251907348633
1751620578458848800,7.588848876953125,30.075000762939453,26.512500762939453,28.443750381469727
1751620578468849000,7.598848876953125,30.056251525878906,26.681251525878906,28.42500114440918
1751620578478848800,7.608848876953125,30.01875114440918,26.718751907348633,28.368751525878906
1751620578488849000,7.618848876953125,30.337501525878906,26.812501907348633,28.14375114440918
1751620578498848800,7.628848876953125,30.337501525878906,26.775001525878906,28.23750114440918
1751620578508849000,7.638848876953125,30.20625114440918,26.756250381469727,28.350000381469727
1751620578518848800,7.648848876953125,29.962501525878906,26.718751907348633,28.387500762939453
1751620578528849000,7.658848876953125,30.037500381469727,26.812501907348633,28.162500381469727
1751620578538848800,7.668848876953125,30.075000762939453,26.587501525878906,28.125001907348633
1751620578548849000,7.678848876953125,30.356250762939453,26.418750762939453,28.275001525878906
1751620578558848800,7.688848876953125,30.150001525878906,26.343751907348633,28.368751525878906
1751620578568849000,7.698848876953125,30.281251907348633,26.156251907348633,28.575000762939453
1751620578578848800,7.708848876953125,30.243751525878906,26.156251907348633,28.387500762939453
1751620578588849000,7.718848876953125,30.281251907348633,26.325000762939453,28.200000762939453
1751620578598848800,7.728848876953125,30.30000114440918,26.231250762939453,27.825000762939453
1751620578608849000,7.738848876953125,30.356250762939453,26.193750381469727,27.712501525878906
1751620578618848800,7.748848876953125,30.375001907348633,26.400001525878906,27.843751907348633
1751620578628849000,7.758848876953125,30.093751907348633,26.381250381469727,27.806251525878906
1751620578638848800,7.768848876953125,30.20625114440918,26.306251525878906,27.618751525878906
1751620578648849000,7.778848876953125,30.187501907348633,26.36250114440918,27.525001525878906
1751620578658848800,7.788848876953125,30.187501907348633,26.437501907348633,27.525001525878906
1751620578668849000,7.798848876953125,30.20625114440918,26.343751907348633,27.656251907348633
1751620578678848800,7.808848876953125,30.48750114440918,26.400001525878906,28.181251525878906
1751620578688849000,7.818848876953125,30.431251525878906,26.343751907348633,28.275001525878906
1751620578698848800,7.828848876953125,30.262500762939453,26.418750762939453,28.14375114440918
1751620578708849000,7.838848876953125,30.20625114440918,26.493751525878906,28.181251525878906
1751620578718848800,7.848848876953125,30.281251907348633,26.625001907348633,28.462501525878906
1751620578728849000,7.858848876953125,30.150001525878906,26.531251907348633,28.42500114440918
1751620578738848800,7.868848876953125,30.000001907348633,26.381250381469727,28.537500381469727
1751620578748849000,7.878848876953125,29.756250381469727,26.287500381469727,28.462501525878906
1751620578758848800,7.888848876953125,29.531251907348633,26.400001525878906,28.200000762939453
1751620578768849000,7.898848876953125,29.681251525878906,26.568750381469727,28.218751907348633
1751620578778848800,7.908848876953125,29.981250762939453,26.64375114440918,28.05000114440918
1751620578788849000,7.918848876953125,30.225000381469727,26.606250762939453,27.937501907348633
1751620578798848800,7.928848876953125,30.281251907348633,26.718751907348633,27.806251525878906
1751620578808849000,7.938848876953125,30.337501525878906,26.793750762939453,27.712501525878906
1751620578818848800,7.948848876953125,30.656251907348633,26.906251907348633,27.600000381469727
1751620578828849000,7.958848876953125,30.843751907348633,26.83125114440918,27.412500381469727
1751620578838848800,7.968848876953125,30.693750381469727,26.887500762939453,27.356250762939453
1751620578848849000,7.978848876953125,30.337501525878906,26.92500114440918,27.468751907348633
1751620578858848800,7.988848876953125,30.01875114440918,26.83125114440918,27.656251907348633
1751620578868849000,7.998848876953125,30.11250114440918,26.850000381469727,27.67500114440918
1751620578878848800,8.008848876953126,29.887500762939453,26.83125114440918,27.806251525878906
1751620578888849000,8.018848876953125,30.000001907348633,26.887500762939453,27.731250762939453
1751620578898848800,8.028848876953125,29.73750114440918,26.73750114440918,27.750001907348633
1751620578908849000,8.038848876953125,29.606250762939453,26.793750762939453,27.900001525878906
1751620578918848800,8.048848876953125,29.793750762939453,26.700000762939453,28.256250381469727
1751620578928849000,8.058848876953125,30.000001907348633,26.625001907348633,28.200000762939453
1751620578938848800,8.068848876953124,30.243751525878906,26.662500381469727,28.14375114440918
1751620578948849000,8.078848876953124,30.243751525878906,26.775001525878906,28.012500762939453
1751620578958848800,8.088848876953126,30.450000762939453,26.568750381469727,27.95625114440918
1751620578968849000,8.098848876953125,30.225000381469727,26.493751525878906,28.162500381469727
1751620578978848800,8.108848876953125,30.375001907348633,26.568750381469727,28.181251525878906
1751620578988849000,8.118848876953125,30.506250381469727,26.55000114440918,28.162500381469727
1751620578998848800,8.128848876953125,30.656251907348633,26.55000114440918,27.825000762939453
1751620579008849000,8.138848876953125,30.67500114440918,26.64375114440918,27.843751907348633
1751620579018848800,8.148848876953124,30.431251525878906,26.756250381469727,27.918750762939453
1751620579028849000,8.158848876953124,30.318750381469727,26.64375114440918,28.368751525878906
1751620579038848800,8.168848876953126,30.075000762939453,26.756250381469727,28.443750381469727
1751620579048849000,8.178848876953126,30.187501907348633,26.756250381469727,28.443750381469727
1751620579058848800,8.188848876953125,30.075000762939453,26.700000762939453,28.368751525878906
1751620579068849000,8.198848876953125,30.01875114440918,26.775001525878906,28.293750762939453
1751620579078848800,8.208848876953125,29.887500762939453,26.906251907348633,28.462501525878906
1751620579088849000,8.218848876953125,29.887500762939453,27.01875114440918,28.42500114440918
1751620579098848800,8.228848876953125,30.056251525878906,26.962501525878906,28.481250762939453
1751620579108849000,8.238848876953124,30.093751907348633,27.000001907348633,28.106250762939453
1751620579118848800,8.248848876953126,30.131250381469727,27.037500381469727,27.900001525878906
1751620579128849000,8.258848876953126,30.243751525878906,26.962501525878906,27.86250114440918
1751620579138848800,8.268848876953125,30.281251907348633,27.187501907348633,27.825000762939453
1751620579148849000,8.278848876953125,30.168750762939453,27.318750381469727,27.993751525878906
1751620579158848800,8.288848876953125,30.20625114440918,27.318750381469727,27.95625114440918
1751620579168849000,8.298848876953125,30.187501907348633,27.318750381469727,27.900001525878906
1751620579178848800,8.308848876953125,29.850000381469727,27.412500381469727,27.67500114440918
1751620579188849000,8.318848876953124,29.681251525878906,27.600000381469727,27.937501907348633
1751620579198848800,8.328848876953124,29.83125114440918,27.693750381469727,27.975000381469727
1751620579208849000,8.338848876953126,29.850000381469727,27.787500381469727,27.806251525878906
1751620579218848800,8.348848876953125,29.981250762939453,27.712501525878906,27.750001907348633
1751620579228849000,8.358848876953125,30.01875114440918,27.693750381469727,27.506250381469727
1751620579238848800,8.368848876953125,30.000001907348633,27.618751525878906,27.450000762939453
1751620579248849000,8.378848876953125,30.000001907348633,27.525001525878906,27.356250762939453
1751620579258848800,8.388848876953125,30.281251907348633,27.656251907348633,27.412500381469727
1751620579268849000,8.398848876953124,30.431251525878906,27.731250762939453,27.39375114440918
1751620579278848800,8.408848876953124,30.375001907348633,27.825000762939453,27.375001907348633
1751620579288849000,8.418848876953126,30.150001525878906,28.012500762939453,27.412500381469727
1751620579298848800,8.428848876953126,30.150001525878906,28.068750381469727,27.375001907348633
1751620579308849000,8.438848876953125,30.168750762939453,28.200000762939453,27.431251525878906
1751620579318848800,8.448848876953125,30.168750762939453,28.200000762939453,27.168750762939453
1751620579328849000,8.458848876953125,30.168750762939453,28.500001907348633,26.981250762939453
1751620579338848800,8.468848876953125,30.243751525878906,28.51875114440918,26.962501525878906
1751620579348849000,8.478848876953125,30.168750762939453,28.575000762939453,26.64375114440918
1751620579358848800,8.488848876953124,30.168750762939453,28.650001525878906,26.64375114440918
1751620579368849000,8.498848876953126,30.262500762939453,28.70625114440918,26.64375114440918
1751620579378848800,8.508848876953126,30.187501907348633,28.950000762939453,26.700000762939453
1751620579388849000,8.518848876953125,30.093751907348633,29.156251907348633,26.793750762939453
1751620579398848800,8.528848876953125,30.11250114440918,29.531251907348633,27.01875114440918
1751620579408849000,8.538848876953125,30.243751525878906,29.343751907348633,27.150001525878906
1751620579418848800,8.548848876953125,30.093751907348633,29.325000762939453,26.906251907348633
1751620579428849000,8.558848876953125,29.962501525878906,29.212501525878906,26.812501907348633
1751620579438848800,8.568848876953124,30.093751907348633,29.325000762939453,26.73750114440918
1751620579448849000,8.578848876953124,29.962501525878906,29.512500762939453,26.681251525878906
1751620579458848800,8.588848876953126,29.943750381469727,29.606250762939453,26.400001525878906
1751620579468849000,8.598848876953125,30.20625114440918,29.55000114440918,26.043750762939453
1751620579478848800,8.608848876953125,30.01875114440918,29.64375114440918,25.931251525878906
1751620579488849000,8.618848876953125,29.887500762939453,29.83125114440918,25.781251907348633
1751620579498848800,8.628848876953125,30.225000381469727,30.000001907348633,25.80000114440918
1751620579508849000,8.638848876953125,30.600000381469727,30.131250381469727,25.762500762939453
1751620579518848800,8.648848876953124,30.39375114440918,30.318750381469727,25.687501907348633
1751620579528849000,8.658848876953124,30.506250381469727,30.506250381469727,25.650001525878906
1751620579538848800,8.668848876953126,30.543750762939453,30.543750762939453,25.856250762939453
1751620579548849000,8.678848876953126,30.48750114440918,30.618751525878906,25.89375114440918
1751620579558848800,8.688848876953125,30.67500114440918,30.468751907348633,25.70625114440918
1751620579568849000,8.698848876953125,31.05000114440918,30.562501907348633,25.631250381469727
1751620579578848800,8.708848876953125,31.031251907348633,30.750001907348633,25.687501907348633
1751620579588849000,8.718848876953125,30.806251525878906,30.825000762939453,25.650001525878906
1751620579598848800,8.728848876953125,30.95625114440918,30.637500762939453,25.556251525878906
1751620579608849000,8.738848876953124,30.993751525878906,30.58125114440918,25.462501525878906
1751620579618848800,8.748848876953126,30.843751907348633,30.712501525878906,25.200000762939453
1751620579628849000,8.758848876953126,30.843751907348633,30.881250381469727,25.218751907348633
1751620579638848800,8.768848876953125,30.86250114440918,31.256250381469727,25.312501907348633
1751620579648849000,8.778848876953125,30.39375114440918,31.368751525878906,25.481250762939453
1751620579658848800,8.788848876953125,29.981250762939453,31.312501907348633,25.33125114440918
1751620579668849000,8.798848876953125,29.868751525878906,31.42500114440918,25.275001525878906
1751620579678848800,8.808848876953125,29.887500762939453,31.61250114440918,25.275001525878906
1751620579688849000,8.818848876953124,29.793750762939453,31.668750762939453,25.218751907348633
1751620579698848800,8.828848876953124,30.056251525878906,31.687501907348633,25.406251907348633
1751620579708849000,8.838848876953126,29.83125114440918,31.856250762939453,25.481250762939453
1751620579718848800,8.848848876953125,29.64375114440918,31.837501525878906,25.275001525878906
1751620579728849000,8.858848876953125,29.662500381469727,31.837501525878906,25.125001907348633
1751620579738848800,8.868848876953125,29.92500114440918,31.912500381469727,25.200000762939453
1751620579748849000,8.878848876953125,29.906251907348633,32.08125305175781,25.14375114440918
1751620579758848800,8.888848876953125,29.83125114440918,32.15625,24.900001525878906
1751620579768849000,8.898848876953124,29.906251907348633,32.41875076293945,24.76875114440918
1751620579778848800,8.908848876953124,29.73750114440918,32.587501525878906,24.58125114440918
1751620579788849000,8.918848876953126,29.793750762939453,32.53125,24.30000114440918
1751620579798848800,8.928848876953126,29.887500762939453,32.56875228881836,24.168750762939453
1751620579808849000,8.938848876953125,30.037500381469727,32.90625,23.92500114440918
1751620579818848800,8.948848876953125,29.943750381469727,33.20625305175781,23.8125
1751620579828849000,8.958848876953125,30.187501907348633,33.26250076293945,23.587501525878906
1751620579838848800,8.968848876953125,30.337501525878906,33.60000228881836,23.64375114440918
1751620579848849000,8.978848876953125,30.375001907348633,33.65625,23.64375114440918
1751620579858848800,8.988848876953124,30.506250381469727,33.69375228881836,23.587501525878906
1751620579868849000,8.998848876953126,30.712501525878906,33.78750228881836,23.606250762939453
1751620579878848800,9.008848876953126,30.67500114440918,33.900001525878906,23.587501525878906
1751620579888849000,9.018848876953125,30.637500762939453,33.82500076293945,23.568750381469727
1751620579898848800,9.028848876953125,30.600000381469727,33.806251525878906,23.45625114440918
1751620579908849000,9.038848876953125,30.262500762939453,33.95625305175781,23.381250381469727
1751620579918848800,9.048848876953125,30.01875114440918,34.05000305175781,23.34375
1751620579928849000,9.058848876953125,29.906251907348633,34.10625076293945,23.0625
1751620579938848800,9.068848876953124,29.793750762939453,34.25625228881836,22.78125
1751620579948849000,9.078848876953124,29.756250381469727,34.42500305175781,22.350000381469727
1751620579958848800,9.088848876953126,30.01875114440918,34.6875,22.087501525878906
1751620579968849000,9.098848876953125,30.037500381469727,34.89375305175781,21.86250114440918
1751620579978848800,9.108848876953125,30.056251525878906,35.04375076293945,21.5625
1751620579988849000,9.118848876953125,30.243751525878906,35.36250305175781,21.356250762939453
1751620579998848800,9.128848876953125,30.375001907348633,35.4375,21.037500381469727
1751620580008849000,9.138848876953125,30.58125114440918,35.71875,20.962501525878906
1751620580018848800,9.148848876953124,30.525001525878906,35.92500305175781,20.756250381469727
1751620580028849000,9.158848876953124,30.468751907348633,36.11250305175781,20.756250381469727
1751620580038848800,9.168848876953126,30.375001907348633,36.07500076293945,20.475000381469727
1751620580048849000,9.178848876953126,30.618751525878906,36.22500228881836,20.36250114440918
1751620580058848800,9.188848876953125,30.806251525878906,36.48750305175781,20.118751525878906
1751620580068849000,9.198848876953125,30.76875114440918,36.48750305175781,20.006250381469727
1751620580078848800,9.208848876953125,30.86250114440918,36.50625228881836,19.70625114440918
1751620580088849000,9.218848876953125,30.750001907348633,36.5625,19.5
1751620580098848800,9.228848876953125,30.918750762939453,36.618751525878906,19.33125114440918
1751620580108849000,9.238848876953124,30.900001525878906,36.82500076293945,18.975000381469727
1751620580118848800,9.248848876953126,30.787500381469727,36.993751525878906,18.86250114440918
1751620580128849000,9.258848876953126,30.412500381469727,37.05000305175781,18.600000381469727
1751620580138848800,9.268848876953125,30.150001525878906,37.05000305175781,18.46875
1751620580148849000,9.278848876953125,30.225000381469727,36.91875076293945,18.131250381469727
1751620580158848800,9.288848876953125,30.150001525878906,37.20000076293945,18.150001525878906
1751620580168849000,9.298848876953125,29.887500762939453,37.181251525878906,17.868751525878906
1751620580178848800,9.308848876953125,29.850000381469727,37.33125305175781,17.681251525878906
1751620580188849000,9.318848876953124,30.000001907348633,37.29375076293945,17.64375114440918
1751620580198848800,9.328848876953124,30.11250114440918,37.38750076293945,17.568750381469727
1751620580208849000,9.338848876953126,30.431251525878906,37.25625228881836,17.25
1751620580218848800,9.348848876953125,30.243751525878906,37.21875,17.08125114440918
1751620580228849000,9.358848876953125,30.262500762939453,37.650001525878906,16.98750114440918
1751620580238848800,9.368848876953125,30.01875114440918,37.72500228881836,16.837501525878906
1751620580248849000,9.378848876953125,30.262500762939453,37.76250076293945,16.743751525878906
1751620580258848800,9.388848876953125,29.962501525878906,37.81875228881836,16.51875114440918
1751620580268849000,9.398848876953124,29.887500762939453,37.875,16.387500762939453
1751620580278848800,9.408848876953124,29.962501525878906,38.025001525878906,16.200000762939453
1751620580288849000,9.418848876953126,29.73750114440918,38.28750228881836,16.03125
1751620580298848800,9.428848876953126,30.037500381469727,38.34375,16.05000114440918
1751620580308849000,9.438848876953125,29.962501525878906,38.32500076293945,15.918750762939453
1751620580318848800,9.448848876953125,30.318750381469727,38.28750228881836,15.562500953674316
1751620580328849000,9.458848876953125,30.281251907348633,38.38125228881836,15.318750381469727
1751620580338848800,9.468848876953125,30.58125114440918,38.41875076293945,15.187500953674316
1751620580348849000,9.478848876953125,30.48750114440918,38.38125228881836,14.906250953674316
1751620580358848800,9.488848876953124,30.075000762939453,38.15625,14.606250762939453
1751620580368849000,9.498848876953126,30.20625114440918,38.17500305175781,14.625000953674316
1751620580378848800,9.508848876953126,30.375001907348633,38.41875076293945,14.418750762939453
1751620580388849000,9.518848876953125,30.39375114440918,38.41875076293945,14.231250762939453
1751620580398848800,9.528848876953125,30.243751525878906,38.47500228881836,14.137500762939453
1751620580408849000,9.538848876953125,30.187501907348633,38.53125,13.950000762939453
1751620580418848800,9.548848876953125,30.075000762939453,38.45625305175781,13.725000381469727
1751620580428849000,9.558848876953125,30.11250114440918,38.775001525878906,13.818750381469727
1751620580438848800,9.568848876953124,30.20625114440918,39.01875305175781,13.83750057220459
1751620580448849000,9.578848876953124,30.225000381469727,39.01875305175781,13.350000381469727
1751620580458848800,9.588848876953126,30.000001907348633,38.98125076293945,13.106250762939453
1751620580468849000,9.598848876953125,30.168750762939453,38.75625228881836,12.600000381469727
1751620580478848800,9.608848876953125,30.131250381469727,38.92500305175781,12.581250190734863
1751620580488849000,9.618848876953125,30.468751907348633,39.07500076293945,12.43125057220459
1751620580498848800,9.628848876953125,30.468751907348633,39.09375,12.15000057220459
1751620580508849000,9.638848876953125,30.750001907348633,38.88750076293945,11.737500190734863
1751620580518848800,9.648848876953124,30.918750762939453,39.01875305175781,11.49375057220459
1751620580528849000,9.658848876953124,30.881250381469727,39.09375,11.456250190734863
1751620580538848800,9.668848876953126,30.86250114440918,39.150001525878906,11.475000381469727
1751620580548849000,9.678848876953126,30.562501907348633,39.45000076293945,11.625
1751620580558848800,9.688848876953125,30.600000381469727,39.28125,11.34375
1751620580568849000,9.698848876953125,30.356250762939453,39.22500228881836,11.15625
1751620580578848800,9.708848876953125,30.30000114440918,39.31875228881836,11.11875057220459
1751620580588849000,9.718848876953125,29.92500114440918,39.375,10.96875
1751620580598848800,9.728848876953125,30.037500381469727,39.16875076293945,10.6875
1751620580608849000,9.738848876953124,29.962501525878906,39.03750228881836,10.668750762939453
1751620580618848800,9.748848876953126,30.281251907348633,39.07500076293945,10.443750381469727
1751620580628849000,9.758848876953126,30.637500762939453,39.056251525878906,10.18125057220459
1751620580638848800,9.768848876953125,30.618751525878906,39.01875305175781,10.050000190734863
1751620580648849000,9.778848876953125,30.58125114440918,39.03750228881836,9.918750762939453
1751620580658848800,9.788848876953125,30.825000762939453,39.01875305175781,9.90000057220459
1751620580668849000,9.798848876953125,31.05000114440918,39.07500076293945,9.90000057220459
1751620580678848800,9.808848876953125,30.975000381469727,39.20625305175781,9.918750762939453
1751620580688849000,9.818848876953124,30.900001525878906,39.337501525878906,9.65625
1751620580698848800,9.828848876953124,30.637500762939453,39.39375305175781,9.450000762939453
1751620580708849000,9.838848876953126,30.450000762939453,39.243751525878906,9.225000381469727
1751620580718848800,9.848848876953125,30.356250762939453,39.46875,9.075000762939453
1751620580728849000,9.858848876953125,30.337501525878906,39.63750076293945,8.90625
1751620580738848800,9.868848876953125,30.412500381469727,39.63750076293945,8.568750381469727
1751620580748849000,9.878848876953125,30.543750762939453,39.58125305175781,8.175000190734863
1751620580758848800,9.888848876953125,30.562501907348633,39.73125076293945,7.875000476837158
1751620580768849000,9.898848876953124,30.656251907348633,39.78750228881836,7.875000476837158
1751620580778848800,9.908848876953124,30.562501907348633,39.50625228881836,7.631250381469727
1751620580788849000,9.918848876953126,30.543750762939453,39.65625,7.556250095367432
1751620580798848800,9.928848876953126,30.712501525878906,39.375,7.087500095367432
1751620580808849000,9.938848876953125,30.562501907348633,39.16875076293945,6.881250381469727
1751620580818848800,9.948848876953125,30.450000762939453,39.26250076293945,6.731250286102295
1751620580828849000,9.958848876953125,30.225000381469727,39.22500228881836,6.506250381469727
1751620580838848800,9.968848876953125,30.131250381469727,39.09375,6.450000286102295
1751620580848849000,9.978848876953125,30.056251525878906,39.07500076293945,6.262500286102295
1751620580858848800,9.988848876953124,29.981250762939453,39.20625305175781,6.187500476837158
1751620580868849000,9.998848876953126,29.962501525878906,39.11250305175781,6
1751620580878848800,10.008848876953126,30.131250381469727,39.375,5.925000190734863
1751620580888849000,10.018848876953125,30.281251907348633,39.46875,5.700000286102295
1751620580898848800,10.028848876953125,29.981250762939453,39.39375305175781,5.606250286102295
1751620580908849000,10.038848876953125,30.131250381469727,39.337501525878906,5.493750095367432
1751620580918848800,10.048848876953125,30.225000381469727,39.20625305175781,5.268750190734863
1751620580928849000,10.058848876953125,30.11250114440918,39.31875228881836,4.837500095367432
1751620580938848800,10.068848876953124,30.506250381469727,39.431251525878906,4.387500286102295
1751620580948849000,10.078848876953124,30.637500762939453,39.39375305175781,4.106250286102295
1751620580958848800,10.088848876953126,30.48750114440918,39.31875228881836,3.8625001907348633
1751620580968849000,10.098848876953125,30.506250381469727,39.30000305175781,3.8812501430511475
1751620580978848800,10.108848876953125,30.731250762939453,39.431251525878906,3.5250000953674316
1751620580988849000,10.118848876953125,30.637500762939453,39.431251525878906,3.168750047683716
1751620580998848800,10.128848876953125,30.656251907348633,39.26250076293945,2.8687500953674316
1751620581008849000,10.138848876953125,30.656251907348633,39.16875076293945,2.8125
1751620581018848800,10.148848876953124,30.543750762939453,39.03750228881836,2.6625001430511475
1751620581028849000,10.158848876953124,30.450000762939453,39.03750228881836,2.5687501430511475
1751620581038848800,10.168848876953126,30.281251907348633,39.056251525878906,2.4000000953674316
1751620581048849000,10.178848876953126,30.58125114440918,38.92500305175781,1.912500023841858
1751620581058848800,10.188848876953125,30.525001525878906,38.71875,1.7625000476837158
1751620581068849000,10.198848876953125,30.48750114440918,38.53125,1.443750023841858
1751620581078848800,10.208848876953125,30.281251907348633,38.70000076293945,1.2750000953674316
1751620581088849000,10.218848876953125,30.468751907348633,38.587501525878906,1.0875000953674316
1751620581098848800,10.228848876953125,30.450000762939453,38.493751525878906,0.8250000476837158
1751620581108849000,10.238848876953124,30.450000762939453,38.4375,0.6375000476837158
1751620581118848800,10.248848876953126,30.375001907348633,38.26875305175781,0.7312500476837158
1751620581128849000,10.258848876953126,30.11250114440918,38.34375,0.6000000238418579
1751620581138848800,10.268848876953125,30.11250114440918,38.28750228881836,0.22500000894069672
1751620581148849000,10.278848876953125,30.168750762939453,38.36250305175781,0.13125000894069672
1751620581158848800,10.288848876953125,30.468751907348633,38.306251525878906,-0.03750000149011612
1751620581168849000,10.298848876953125,30.48750114440918,38.15625,-0.3187500238418579
1751620581178848800,10.308848876953125,30.337501525878906,38.13750076293945,-0.39375001192092896
1751620581188849000,10.318848876953124,30.375001907348633,38.10000228881836,-0.7875000238418579
1751620581198848800,10.328848876953124,30.787500381469727,38.04375076293945,-1.1812500953674316
1751620581208849000,10.338848876953126,30.787500381469727,37.85625076293945,-1.4812500476837158
1751620581218848800,10.348848876953125,30.825000762939453,37.6875,-1.5
1751620581228849000,10.358848876953125,30.656251907348633,37.650001525878906,-1.6500000953674316
1751620581238848800,10.368848876953125,30.356250762939453,37.38750076293945,-2.0250000953674316
1751620581248849000,10.378848876953125,30.375001907348633,37.38750076293945,-2.25
1751620581258848800,10.388848876953125,30.356250762939453,37.3125,-2.3625001907348633
1751620581268849000,10.398848876953124,30.412500381469727,37.38750076293945,-2.3812501430511475
1751620581278848800,10.408848876953124,30.150001525878906,37.275001525878906,-2.4562501907348633
1751620581288849000,10.418848876953126,30.000001907348633,37.21875,-2.3812501430511475
1751620581298848800,10.428848876953126,29.943750381469727,37.125,-2.5875000953674316
1751620581308849000,10.438848876953125,30.11250114440918,36.95625305175781,-2.8125
1751620581318848800,10.448848876953125,30.39375114440918,36.82500076293945,-3.0562500953674316
1751620581328849000,10.458848876953125,30.281251907348633,36.73125076293945,-2.9625000953674316
1751620581338848800,10.468848876953125,30.412500381469727,36.50625228881836,-3.281250238418579
1751620581348849000,10.478848876953125,30.356250762939453,36.31875228881836,-3.543750047683716
1751620581358848800,10.488848876953124,30.225000381469727,36.22500228881836,-3.7875001430511475
1751620581368849000,10.498848876953126,30.48750114440918,36,-4.03125
1751620581378848800,10.508848876953126,30.731250762939453,36.20625305175781,-4.087500095367432
1751620581388849000,10.518848876953125,30.787500381469727,36.16875076293945,-4.087500095367432
1751620581398848800,10.528848876953125,30.600000381469727,36.375,-3.7875001430511475
1751620581408849000,10.538848876953125,30.58125114440918,36.35625076293945,-3.9562501907348633
1751620581418848800,10.548848876953125,30.431251525878906,36.39375305175781,-4.143750190734863
1751620581428849000,10.558848876953125,30.39375114440918,36.243751525878906,-4.237500190734863
1751620581438848800,10.568848876953124,30.450000762939453,36.13125228881836,-4.5
1751620581448849000,10.578848876953124,30.543750762939453,36.243751525878906,-4.462500095367432
1751620581458848800,10.588848876953126,30.187501907348633,35.98125076293945,-4.59375
1751620581468849000,10.598848876953125,30.150001525878906,36.09375,-4.650000095367432
1751620581478848800,10.608848876953125,30.11250114440918,35.98125076293945,-4.893750190734863
1751620581488849000,10.618848876953125,30.20625114440918,35.85000228881836,-5.137500286102295
1751620581498848800,10.628848876953125,30.543750762939453,35.79375076293945,-5.118750095367432
1751620581508849000,10.638848876953125,30.600000381469727,35.92500305175781,-5.118750095367432
1751620581518848800,10.648848876953124,30.993751525878906,35.775001525878906,-4.96875
1751620581528849000,10.658848876953124,30.806251525878906,35.83125305175781,-5.118750095367432
1751620581538848800,10.668848876953126,30.843751907348633,36,-5.175000190734863
1751620581548849000,10.678848876953126,30.86250114440918,35.88750076293945,-5.34375
1751620581558848800,10.688848876953125,30.993751525878906,35.775001525878906,-5.475000381469727
1751620581568849000,10.698848876953125,31.068750381469727,35.625,-5.456250190734863
1751620581578848800,10.708848876953125,30.618751525878906,35.587501525878906,-5.4375
1751620581588849000,10.718848876953125,30.58125114440918,35.400001525878906,-5.418750286102295
1751620581598848800,10.728848876953125,30.30000114440918,35.47500228881836,-5.700000286102295
1751620581608849000,10.738848876953124,30.412500381469727,35.38125228881836,-5.8125
1751620581618848800,10.748848876953126,30.431251525878906,35.15625,-5.887500286102295
1751620581628849000,10.758848876953126,30.450000762939453,35.00625228881836,-5.737500190734863
1751620581638848800,10.768848876953125,30.262500762939453,34.98750305175781,-5.8125
1751620581648849000,10.778848876953125,30.262500762939453,35.04375076293945,-5.8125
1751620581658848800,10.788848876953125,30.39375114440918,35.00625228881836,-6.075000286102295
1751620581668849000,10.798848876953125,30.468751907348633,34.875,-6.225000381469727
1751620581678848800,10.808848876953125,30.431251525878906,34.81875228881836,-6.262500286102295
1751620581688849000,10.818848876953124,30.11250114440918,34.80000305175781,-6.375000476837158
1751620581698848800,10.828848876953124,30.225000381469727,34.743751525878906,-6.468750476837158
1751620581708849000,10.838848876953126,30.093751907348633,34.80000305175781,-6.637500286102295
1751620581718848800,10.848848876953125,30.262500762939453,34.72500228881836,-6.768750190734863
1751620581728849000,10.858848876953125,30.187501907348633,34.63125228881836,-6.993750095367432
1751620581738848800,10.868848876953125,30.20625114440918,34.57500076293945,-6.937500476837158
1751620581748849000,10.878848876953125,30.187501907348633,34.63125228881836,-6.843750476837158
1751620581758848800,10.888848876953125,30.225000381469727,34.59375,-6.693750381469727
1751620581768849000,10.898848876953124,30.48750114440918,34.275001525878906,-6.862500190734863
1751620581778848800,10.908848876953124,30.48750114440918,34.10625076293945,-6.975000381469727
1751620581788849000,10.918848876953126,30.468751907348633,34.01250076293945,-7.012500286102295
1751620581798848800,10.928848876953126,30.281251907348633,33.95625305175781,-7.181250095367432
1751620581808849000,10.938848876953125,30.375001907348633,33.88125228881836,-7.256250381469727
1751620581818848800,10.948848876953125,30.600000381469727,33.82500076293945,-7.237500190734863
1751620581828849000,10.958848876953125,30.656251907348633,33.60000228881836,-7.443750381469727
1751620581838848800,10.968848876953125,30.656251907348633,33.39375305175781,-7.818750381469727
1751620581848849000,10.978848876953125,30.712501525878906,33.22500228881836,-7.837500095367432
1751620581858848800,10.988848876953124,30.562501907348633,33.31875228881836,-7.837500095367432
1751620581868849000,10.998848876953126,30.806251525878906,33.09375,-8.175000190734863
1751620581878848800,11.008848876953126,30.993751525878906,32.94375228881836,-8.287500381469727
1751620581888849000,11.018848876953125,30.975000381469727,32.85000228881836,-8.381250381469727
1751620581898848800,11.028848876953125,30.637500762939453,32.681251525878906,-8.625
1751620581908849000,11.038848876953125,30.543750762939453,32.587501525878906,-8.850000381469727
1751620581918848800,11.048848876953125,30.39375114440918,32.493751525878906,-8.850000381469727
1751620581928849000,11.058848876953125,30.187501907348633,32.775001525878906,-8.887500762939453
1751620581938848800,11.068848876953124,30.168750762939453,32.45625305175781,-9.05625057220459
1751620581948849000,11.078848876953124,30.037500381469727,32.55000305175781,-8.831250190734863
1751620581958848800,11.088848876953126,29.981250762939453,32.587501525878906,-8.77500057220459
1751620581968849000,11.098848876953125,29.962501525878906,32.51250076293945,-8.887500762939453
1751620581978848800,11.108848876953125,30.037500381469727,32.47500228881836,-9.037500381469727
1751620581988849000,11.118848876953125,29.812501907348633,32.55000305175781,-9.15000057220459
1751620581998848800,11.128848876953125,30.037500381469727,32.587501525878906,-9.112500190734863
1751620582008849000,11.138848876953125,30.187501907348633,32.26875305175781,-9.28125
1751620582018848800,11.148848876953124,30.450000762939453,32.32500076293945,-9.262500762939453
1751620582028849000,11.158848876953124,30.412500381469727,32.13750076293945,-9.450000762939453
1751620582038848800,11.168848876953126,30.337501525878906,31.950000762939453,-9.52500057220459
1751620582048849000,11.178848876953126,30.262500762939453,31.875001907348633,-9.450000762939453
1751620582058848800,11.188848876953125,30.618751525878906,31.818750381469727,-9.61875057220459
1751620582068849000,11.198848876953125,30.900001525878906,31.762500762939453,-9.61875057220459
1751620582078848800,11.208848876953125,30.843751907348633,31.725000381469727,-9.65625
1751620582088849000,11.218848876953125,30.731250762939453,31.61250114440918,-9.637500762939453
1751620582098848800,11.228848876953125,30.693750381469727,31.556251525878906,-9.731250762939453
1751620582108849000,11.238848876953124,30.67500114440918,31.575000762939453,-9.75
1751620582118848800,11.248848876953126,30.618751525878906,31.481250762939453,-9.90000057220459
1751620582128849000,11.258848876953126,31.031251907348633,31.33125114440918,-10.143750190734863
1751620582138848800,11.268848876953125,30.562501907348633,31.23750114440918,-9.9375
1751620582148849000,11.278848876953125,30.48750114440918,31.068750381469727,-10.106250762939453
1751620582158848800,11.288848876953125,30.30000114440918,30.900001525878906,-10.162500381469727
1751620582168849000,11.298848876953125,30.39375114440918,30.993751525878906,-10.350000381469727
1751620582178848800,11.308848876953125,30.187501907348633,30.95625114440918,-10.331250190734863
1751620582188849000,11.318848876953124,30.150001525878906,30.937501907348633,-10.481250762939453
1751620582198848800,11.328848876953124,30.318750381469727,30.806251525878906,-10.59375
1751620582208849000,11.338848876953126,30.037500381469727,30.787500381469727,-10.59375
1751620582218848800,11.348848876953125,30.281251907348633,30.637500762939453,-10.818750381469727
1751620582228849000,11.358848876953125,30.412500381469727,30.76875114440918,-10.706250190734863
1751620582238848800,11.368848876953125,30.656251907348633,30.712501525878906,-10.818750381469727
1751620582258848800,11.388848876953125,30.975000381469727,30.48750114440918,-10.893750190734863
1751620582268849000,11.398848876953124,31.087501525878906,30.356250762939453,-10.93125057220459
1751620582278848800,11.408848876953124,30.975000381469727,30.243751525878906,-10.83750057220459
1751620582288849000,11.418848876953126,30.806251525878906,30.225000381469727,-10.800000190734863
1751620582298848800,11.428848876953126,30.881250381469727,30.000001907348633,-10.800000190734863
1751620582308849000,11.438848876953125,30.618751525878906,29.625001907348633,-10.96875
1751620582318848800,11.448848876953125,30.618751525878906,29.55000114440918,-11.006250381469727
1751620582328849000,11.458848876953125,30.731250762939453,29.437501907348633,-11.006250381469727
1751620582338848800,11.468848876953125,30.67500114440918,29.193750381469727,-11.11875057220459
1751620582348849000,11.478848876953125,30.712501525878906,28.968751907348633,-11.231250762939453
1751620582358848800,11.488848876953124,30.95625114440918,29.118751525878906,-11.268750190734863
1751620582368849000,11.498848876953126,30.918750762939453,29.025001525878906,-11.325000762939453
1751620582378848800,11.508848876953126,30.881250381469727,29.26875114440918,-11.34375
1751620582388849000,11.518848876953125,31.312501907348633,29.193750381469727,-11.4375
1751620582398848800,11.528848876953125,31.068750381469727,29.156251907348633,-11.53125
1751620582408849000,11.538848876953125,30.806251525878906,28.931251525878906,-11.737500190734863
1751620582418848800,11.548848876953125,30.787500381469727,29.043750762939453,-11.86875057220459
1751620582428849000,11.558848876953125,30.656251907348633,29.100000381469727,-11.86875057220459
1751620582438848800,11.568848876953124,30.318750381469727,28.89375114440918,-12.037500381469727
1751620582448849000,11.578848876953124,30.562501907348633,28.818750381469727,-12.05625057220459
1751620582458848800,11.588848876953126,30.525001525878906,28.743751525878906,-11.96250057220459
1751620582468849000,11.598848876953125,30.412500381469727,28.70625114440918,-11.86875057220459
1751620582478848800,11.608848876953125,30.562501907348633,28.593751907348633,-11.756250381469727
1751620582488849000,11.618848876953125,30.806251525878906,28.631250381469727,-11.850000381469727
1751620582498848800,11.628848876953125,30.656251907348633,28.387500762939453,-11.77500057220459
1751620582508849000,11.638848876953125,30.787500381469727,28.031251907348633,-11.71875
1751620582518848800,11.648848876953124,30.86250114440918,27.937501907348633,-11.831250190734863
1751620582528849000,11.658848876953124,30.918750762939453,27.693750381469727,-12.018750190734863
1751620582538848800,11.668848876953126,30.993751525878906,27.243751525878906,-12.262500762939453
1751620582548849000,11.678848876953126,31.012500762939453,27.093751907348633,-12.300000190734863
1751620582558848800,11.688848876953125,31.106250762939453,27.056251525878906,-12.543750762939453
1751620582568849000,11.698848876953125,30.993751525878906,26.92500114440918,-12.468750953674316
1751620582578848800,11.708848876953125,31.031251907348633,27.000001907348633,-12.450000762939453
1751620582588849000,11.718848876953125,31.068750381469727,27.093751907348633,-12.562500953674316
1751620582598848800,11.728848876953125,31.162500381469727,26.850000381469727,-12.600000381469727
1751620582608849000,11.738848876953124,30.86250114440918,26.812501907348633,-12.600000381469727
1751620582618848800,11.748848876953126,30.67500114440918,26.775001525878906,-12.468750953674316
1751620582628849000,11.758848876953126,30.48750114440918,26.793750762939453,-12.637500762939453
1751620582638848800,11.768848876953125,30.375001907348633,26.775001525878906,-12.506250381469727
1751620582648849000,11.778848876953125,30.450000762939453,26.681251525878906,-12.52500057220459
1751620582658848800,11.788848876953125,30.506250381469727,26.437501907348633,-12.52500057220459
1751620582668849000,11.798848876953125,30.618751525878906,26.212501525878906,-12.637500762939453
1751620582678848800,11.808848876953125,30.843751907348633,26.36250114440918,-12.450000762939453
1751620582688849000,11.818848876953124,31.05000114440918,26.400001525878906,-12.656250953674316
1751620582698848800,11.828848876953124,31.23750114440918,26.493751525878906,-12.843750953674316
1751620582708849000,11.838848876953126,31.293750762939453,26.512500762939453,-12.843750953674316
1751620582718848800,11.848848876953125,31.293750762939453,26.36250114440918,-12.843750953674316
1751620582728849000,11.858848876953125,31.162500381469727,26.306251525878906,-12.881250381469727
1751620582738848800,11.868848876953125,31.33125114440918,26.287500381469727,-12.80625057220459
1751620582748849000,11.878848876953125,31.23750114440918,26.55000114440918,-12.71250057220459
1751620582758848800,11.888848876953125,31.05000114440918,26.512500762939453,-12.843750953674316
1751620582768849000,11.898848876953124,31.031251907348633,26.287500381469727,-12.768750190734863
1751620582778848800,11.908848876953124,31.106250762939453,26.381250381469727,-12.750000953674316
1751620582788849000,11.918848876953126,31.106250762939453,26.062501907348633,-12.750000953674316
1751620582798848800,11.928848876953126,31.106250762939453,25.968751907348633,-12.956250190734863
1751620582808849000,11.938848876953125,31.481250762939453,26.006250381469727,-13.08750057220459
1751620582818848800,11.948848876953125,31.087501525878906,26.118751525878906,-13.200000762939453
1751620582828849000,11.958848876953125,31.087501525878906,26.100000381469727,-13.162500381469727
1751620582838848800,11.968848876953125,30.86250114440918,25.931251525878906,-13.237500190734863
1751620582848849000,11.978848876953125,31.012500762939453,25.98750114440918,-13.218750953674316
1751620582858848800,11.988848876953124,30.975000381469727,25.89375114440918,-13.143750190734863
1751620582868849000,11.998848876953126,30.900001525878906,26.025001525878906,-13.125000953674316
1751620582878848800,12.008848876953126,31.181251525878906,25.950000762939453,-13.08750057220459
1751620582888849000,12.018848876953125,30.86250114440918,25.912500381469727,-13.031250953674316
1751620582898848800,12.028848876953125,30.712501525878906,25.743751525878906,-13.08750057220459
1751620582908849000,12.038848876953125,30.48750114440918,25.61250114440918,-13.350000381469727
1751620582918848800,12.048848876953125,30.825000762939453,25.668750762939453,-13.218750953674316
1751620582928849000,12.058848876953125,30.712501525878906,25.631250381469727,-13.218750953674316
1751620582938848800,12.068848876953124,30.881250381469727,25.387500762939453,-13.36875057220459
1751620582948849000,12.078848876953124,30.731250762939453,25.387500762939453,-13.331250190734863
1751620582958848800,12.088848876953126,30.431251525878906,25.256250381469727,-13.425000190734863
1751620582968849000,12.098848876953125,30.375001907348633,25.031251907348633,-13.312500953674316
1751620582978848800,12.108848876953125,30.67500114440918,24.993751525878906,-13.350000381469727
1751620582988849000,12.118848876953125,30.67500114440918,24.750001907348633,-13.27500057220459
1751620582998848800,12.128848876953125,30.356250762939453,24.562501907348633,-13.518750190734863
1751620583008849000,12.138848876953125,30.431251525878906,24.67500114440918,-13.481250762939453
1751620583018848800,12.148848876953124,30.30000114440918,24.731250762939453,-13.237500190734863
1751620583028849000,12.158848876953124,30.243751525878906,24.562501907348633,-13.443750381469727
1751620583038848800,12.168848876953126,29.981250762939453,24.562501907348633,-13.443750381469727
1751620583048849000,12.178848876953126,30.20625114440918,24.450000762939453,-13.575000762939453
1751620583058848800,12.188848876953125,30.187501907348633,24.39375114440918,-13.83750057220459
1751620583068849000,12.198848876953125,30.39375114440918,24.431251525878906,-13.518750190734863
1751620583078848800,12.208848876953125,30.600000381469727,24.243751525878906,-13.331250190734863
1751620583088849000,12.218848876953125,30.67500114440918,23.8125,-13.387500762939453
1751620583098848800,12.228848876953125,30.600000381469727,23.55000114440918,-13.706250190734863
1751620583108849000,12.238848876953124,31.068750381469727,23.381250381469727,-13.631250381469727
1751620583118848800,12.248848876953126,31.33125114440918,23.287500381469727,-13.687500953674316
1751620583128849000,12.258848876953126,31.012500762939453,23.26875114440918,-13.575000762939453
1751620583138848800,12.268848876953125,30.993751525878906,23.15625,-13.425000190734863
1751620583148849000,12.278848876953125,30.881250381469727,23.231250762939453,-13.537500381469727
1751620583158848800,12.288848876953125,30.600000381469727,23.287500381469727,-13.500000953674316
1751620583168849000,12.298848876953125,30.075000762939453,23.287500381469727,-13.518750190734863
1751620583178848800,12.308848876953125,30.056251525878906,23.287500381469727,-13.36875057220459
1751620583188849000,12.318848876953124,29.850000381469727,23.100000381469727,-13.406250953674316
1751620583198848800,12.328848876953124,29.850000381469727,23.0625,-13.143750190734863
1751620583208849000,12.338848876953126,30.187501907348633,23.043750762939453,-13.162500381469727
1751620583218848800,12.348848876953125,30.168750762939453,22.78125,-13.012500762939453
1751620583228849000,12.358848876953125,30.281251907348633,22.5,-13.08750057220459
1751620583238848800,12.368848876953125,30.525001525878906,22.21875,-13.125000953674316
1751620583248849000,12.378848876953125,30.843751907348633,22.068750381469727,-13.162500381469727
1751620583258848800,12.388848876953125,30.881250381469727,21.918750762939453,-13.331250190734863
1751620583268849000,12.398848876953124,30.787500381469727,21.975000381469727,-13.218750953674316
1751620583278848800,12.408848876953124,30.937501907348633,21.9375,-13.55625057220459
1751620583288849000,12.418848876953126,30.693750381469727,21.693750381469727,-13.668750762939453
1751620583298848800,12.428848876953126,30.750001907348633,21.67500114440918,-13.818750381469727
1751620583308849000,12.438848876953125,30.58125114440918,21.431251525878906,-13.83750057220459
1751620583318848800,12.448848876953125,30.787500381469727,21.46875,-14.006250381469727
1751620583328849000,12.458848876953125,31.031251907348633,21.67500114440918,-13.950000762939453
1751620583338848800,12.468848876953125,30.993751525878906,21.67500114440918,-14.043750762939453
1751620583348849000,12.478848876953125,31.05000114440918,21.525001525878906,-14.193750381469727
1751620583358848800,12.488848876953124,30.881250381469727,21.243751525878906,-14.006250381469727
1751620583368849000,12.498848876953126,30.95625114440918,21.09375,-13.950000762939453
1751620583378848800,12.508848876953126,30.95625114440918,21.037500381469727,-13.893750190734863
1751620583388849000,12.518848876953125,31.068750381469727,20.887500762939453,-13.83750057220459
1751620583398848800,12.528848876953125,30.881250381469727,20.793750762939453,-13.781250953674316
1751620583408849000,12.538848876953125,30.731250762939453,20.475000381469727,-13.74375057220459
1751620583418848800,12.548848876953125,30.525001525878906,20.325000762939453,-13.518750190734863
1751620583428849000,12.558848876953125,30.506250381469727,20.34375,-13.387500762939453
1751620583438848800,12.568848876953124,30.881250381469727,20.25,-13.518750190734863
1751620583448849000,12.578848876953124,31.256250381469727,20.043750762939453,-13.668750762939453
1751620583458848800,12.588848876953126,31.14375114440918,19.856250762939453,-13.762500762939453
1751620583468849000,12.598848876953125,31.087501525878906,19.98750114440918,-13.593750953674316
1751620583478848800,12.608848876953125,30.993751525878906,19.96875,-13.481250762939453
1751620583488849000,12.618848876953125,30.712501525878906,19.762500762939453,-13.500000953674316
1751620583498848800,12.628848876953125,30.86250114440918,19.650001525878906,-13.65000057220459
1751620583508849000,12.638848876953125,30.731250762939453,19.650001525878906,-13.612500190734863
1751620583518848800,12.648848876953124,30.67500114440918,19.5,-13.500000953674316
1751620583528849000,12.658848876953124,30.225000381469727,19.6875,-13.425000190734863
1751620583538848800,12.668848876953126,30.318750381469727,19.743751525878906,-13.256250381469727
1751620583548849000,12.678848876953126,30.262500762939453,19.537500381469727,-13.481250762939453
1751620583558848800,12.688848876953125,30.337501525878906,19.368751525878906,-13.65000057220459
1751620583568849000,12.698848876953125,30.525001525878906,19.256250381469727,-13.818750381469727
1751620583578848800,12.708848876953125,30.637500762939453,19.162500381469727,-13.856250762939453
1751620583588849000,12.718848876953125,30.750001907348633,18.806251525878906,-13.968750953674316
1751620583598848800,12.728848876953125,30.543750762939453,18.76875114440918,-14.100000381469727
1751620583608849000,12.738848876953124,30.600000381469727,18.375,-14.156250953674316
1751620583618848800,12.748848876953126,30.618751525878906,18.150001525878906,-14.250000953674316
1751620583628849000,12.758848876953126,30.656251907348633,18.01875114440918,-14.231250762939453
1751620583638848800,12.768848876953125,30.693750381469727,17.92500114440918,-13.968750953674316
1751620583648849000,12.778848876953125,30.506250381469727,17.83125114440918,-13.668750762939453
1751620583658848800,12.788848876953125,30.337501525878906,17.756250381469727,-13.46250057220459
1751620583668849000,12.798848876953125,30.356250762939453,17.756250381469727,-13.481250762939453
1751620583678848800,12.808848876953125,30.39375114440918,17.700000762939453,-13.312500953674316
1751620583688849000,12.818848876953124,30.337501525878906,17.793750762939453,-13.256250381469727
1751620583698848800,12.828848876953124,30.30000114440918,17.587501525878906,-13.162500381469727
1751620583708849000,12.838848876953126,30.20625114440918,17.53125,-12.937500953674316
1751620583718848800,12.848848876953125,30.131250381469727,17.34375,-13.237500190734863
1751620583728849000,12.858848876953125,30.30000114440918,17.26875114440918,-13.518750190734863
1751620583738848800,12.868848876953125,30.39375114440918,17.08125114440918,-13.443750381469727
1751620583748849000,12.878848876953125,30.543750762939453,17.0625,-13.237500190734863
1751620583758848800,12.888848876953125,30.375001907348633,16.837501525878906,-13.162500381469727
1751620583768849000,12.898848876953124,30.337501525878906,16.70625114440918,-13.106250762939453
1751620583778848800,12.908848876953124,30.243751525878906,16.650001525878906,-13.068750381469727
1751620583788849000,12.918848876953126,30.131250381469727,16.5,-13.293750762939453
1751620583798848800,12.928848876953126,30.150001525878906,16.443750381469727,-13.106250762939453
1751620583808849000,12.938848876953125,30.337501525878906,16.256250381469727,-13.012500762939453
1751620583818848800,12.948848876953125,30.431251525878906,16.387500762939453,-12.956250190734863
1751620583828849000,12.958848876953125,30.30000114440918,16.181251525878906,-13.012500762939453
1751620583838848800,12.968848876953125,30.243751525878906,16.350000381469727,-13.050000190734863
1751620583848849000,12.978848876953125,30.450000762939453,16.21875,-13.012500762939453
1751620583858848800,12.988848876953124,30.543750762939453,16.21875,-13.125000953674316
1751620583868849000,12.998848876953126,30.58125114440918,16.350000381469727,-13.050000190734863
1751620583878848800,13.008848876953126,30.637500762939453,16.293750762939453,-12.975000381469727
1751620583888849000,13.018848876953125,30.431251525878906,16.293750762939453,-12.975000381469727
1751620583898848800,13.028848876953125,30.375001907348633,16.068750381469727,-13.162500381469727
1751620583908849000,13.038848876953125,30.168750762939453,16.03125,-13.218750953674316
1751620583918848800,13.048848876953125,30.30000114440918,15.825000762939453,-13.218750953674316
1751620583928849000,13.058848876953125,30.20625114440918,15.731250762939453,-13.406250953674316
1751620583938848800,13.068848876953124,30.187501907348633,15.656250953674316,-13.312500953674316
