time,seconds_elapsed,z,y,x
1750927189554664200,0.144664306640625,0.3471708297729492,-0.4280523657798767,0.2679916024208069
1750927189573488600,0.163488525390625,0.3216867446899414,-0.18583554029464722,-0.05089479684829712
1750927189601725000,0.191724853515625,0.5327587127685547,0.41286343336105347,-0.09410996735095978
1750927189629961500,0.21996142578125,0.4948081970214844,0.884779155254364,-0.5513190031051636
1750927189648785700,0.23878564453125,0.5633640289306641,0.3256893455982208,-0.5791959762573242
1750927189667609900,0.25760986328125,0.669407844543457,0.05367650091648102,-0.17594844102859497
1750927189686434300,0.276434326171875,0.5624198913574219,0.1235775500535965,-0.2699171304702759
1750927189705258500,0.295258544921875,0.4956932067871094,0.2836659848690033,-0.6326380372047424
1750927189724083000,0.3140830078125,0.20820140838623047,-0.24869892001152039,0.45599034428596497
1750927189742907100,0.3329072265625,0.6514949798583984,-0.1170230507850647,0.812256932258606
1750927189761731600,0.351731689453125,0.9311437606811523,0.4632149338722229,0.21577082574367523
1750927189780555800,0.3705556640625,1.2703781127929688,0.5248298048973083,-0.6958118677139282
1750927189799380200,0.389380126953125,0.8209981918334961,0.00023711472749710083,-0.6539753079414368
1750927189818204400,0.408204345703125,0.43298912048339844,-0.19216644763946533,-0.317067950963974
1750927189837028600,0.427028564453125,0.5240373611450195,-0.025684073567390442,-0.06996572017669678
1750927189855853000,0.44585302734375,-0.6039571762084961,0.1632002890110016,-0.09384039044380188
1750927189874677200,0.46467724609375,-0.9698495864868164,-0.4587889015674591,0.08413340151309967
1750927189893501700,0.483501708984375,-0.8536043167114258,-0.5756826400756836,0.3637399673461914
1750927189912326000,0.502325927734375,-0.5634346008300781,-0.06139582395553589,0.401435524225235
1750927189931150300,0.521150390625,-0.1197967529296875,0.13067787885665894,-0.050255000591278076
1750927189949974500,0.539974609375,0.4159374237060547,0.08068808913230896,0.10869190096855164
1750927189968798700,0.558798828125,-0.23488521575927734,0.18009981513023376,-0.4214296340942383
1750927189987623200,0.577623046875,-0.10832977294921875,0.09706145524978638,-0.19772182404994965
1750927190006447400,0.596447265625,-0.42827796936035156,-0.028815269470214844,0.0143260657787323
1750927190025271800,0.615271728515625,-0.3238554000854492,-0.04827594757080078,0.1333029568195343
1750927190044096000,0.634095947265625,-0.20062828063964844,-0.045744359493255615,0.34981662034988403
1750927190062920400,0.65292041015625,0.24117088317871094,-0.0004342496395111084,0.40970203280448914
1750927190081744600,0.67174462890625,0.27696800231933594,0.0920785665512085,-0.10254141688346863
1750927190100569000,0.690569091796875,-0.016149520874023438,0.13699829578399658,-0.30708280205726624
1750927190119393300,0.709393310546875,-0.3430013656616211,0.003332585096359253,-0.0020863115787506104
1750927190138217700,0.7282177734375,-0.25699710845947266,0.023386985063552856,0.0978206992149353
1750927190157042000,0.7470419921875,-0.11578655242919922,-0.29667094349861145,0.37198710441589355
1750927190175866000,0.7658662109375,-0.08007144927978516,-0.09290283918380737,0.23831674456596375
1750927190194690600,0.784690673828125,0.33889007568359375,-0.020352810621261597,0.05450570583343506
1750927190213514800,0.8035146484375,0.08374881744384766,0.027592629194259644,-0.04620853066444397
1750927190232339200,0.822339111328125,-0.17093849182128906,0.005052387714385986,-0.0022014379501342773
1750927190251163400,0.841163330078125,-0.020788192749023438,0.03388059139251709,0.0006723701953887939
1750927190269987800,0.85998779296875,0.24541187286376953,0.08111712336540222,-0.0815616250038147
1750927190288812000,0.87881201171875,0.08718395233154297,0.04160839319229126,-0.1684882938861847
1750927190307636500,0.897636474609375,-0.07892322540283203,-0.06870758533477783,0.20411252975463867
1750927190326460700,0.916460693359375,-0.2675952911376953,0.006764531135559082,0.14350056648254395
1750927190345285000,0.93528515625,0.03446006774902344,0.15806984901428223,0.006285190582275391
1750927190364109300,0.954109375,0.07419109344482422,0.10531279444694519,-0.05573168396949768
1750927190382933500,0.97293359375,0.18842315673828125,-0.008549809455871582,-0.06188690662384033
1750927190401758000,0.991758056640625,0.07433891296386719,-0.034019142389297485,-0.03421732783317566
1750927190420582100,1.01058203125,-0.0023164749145507812,0.037741899490356445,0.07872346043586731
1750927190439406600,1.029406494140625,-0.11887550354003906,-0.003726959228515625,0.11500731110572815
1750927190458230800,1.048230712890625,-0.15282917022705078,0.025499403476715088,0.09997335076332092
1750927190477055200,1.06705517578125,-0.04034233093261719,0.0077658891677856445,0.09788429737091064
1750927190495879400,1.08587939453125,0.039580345153808594,0.020412594079971313,0.06970331072807312
1750927190514704000,1.104703857421875,0.0749349594116211,0.023834824562072754,-0.0076028406620025635
1750927190533528000,1.123528076171875,-0.06306838989257812,0.0024756193161010742,-0.04363834857940674
1750927190552352500,1.1423525390625,-0.1587963104248047,-0.09888707101345062,-0.044873714447021484
1750927190571176700,1.1611767578125,0.032672882080078125,-0.02836930751800537,-0.05344691872596741
1750927190590001200,1.180001220703125,0.04082965850830078,-0.052172333002090454,0.17866230010986328
1750927190608825300,1.198825439453125,-0.1340656280517578,-0.0052602291107177734,0.0905819833278656
1750927190627649800,1.21764990234375,-0.0735616683959961,-0.052639663219451904,-0.00838354229927063
1750927190646474000,1.236473876953125,-0.025251388549804688,-0.027734726667404175,-0.11006942391395569
1750927190665298400,1.25529833984375,0.1890583038330078,-0.04159916937351227,-0.027505695819854736
1750927190684122600,1.27412255859375,0.21013450622558594,-0.06717784702777863,-0.02610340714454651
1750927190702947000,1.292947021484375,0.07718181610107422,-0.03683766722679138,0.027899324893951416
1750927190721771300,1.311771240234375,-0.06960487365722656,-0.044050976634025574,0.12904515862464905
1750927190740595500,1.330595458984375,-0.20254039764404297,0.045545607805252075,0.1100035011768341
1750927190759420000,1.349419921875,0.004811286926269531,0.0861717164516449,-0.03164350986480713
1750927190778244000,1.368244140625,0.03746223449707031,0.06763926148414612,-0.011011660099029541
1750927190797068500,1.387068603515625,-0.030361175537109375,0.046458080410957336,-0.049746185541152954
1750927190815892700,1.405892822265625,0.05019187927246094,0.007578745484352112,-0.04958689212799072
1750927190834717200,1.42471728515625,-0.1106729507446289,-0.029266968369483948,0.022532016038894653
1750927190853541400,1.443541259765625,-0.09259986877441406,-0.06700068712234497,0.050613224506378174
1750927190872365800,1.46236572265625,0.007510185241699219,-0.08332736790180206,0.09749191999435425
1750927190891190000,1.48118994140625,0.2508363723754883,0.09013272821903229,-0.03046208620071411
1750927190910014500,1.500014404296875,0.17595195770263672,0.045520782470703125,-0.09707972407341003
1750927190928838700,1.518838623046875,0.09080982208251953,0.09298664331436157,-0.03992491960525513
1750927190947663000,1.5376630859375,0.017647743225097656,-0.029861390590667725,0.0811457633972168
1750927190966487300,1.5564873046875,0.0869598388671875,-0.05728093534708023,0.07469457387924194
1750927190985311700,1.575311767578125,0.17226314544677734,0.062312252819538116,-0.11158449947834015
1750927191004136000,1.594135986328125,0.054024696350097656,-0.00652313232421875,-0.14223112165927887
1750927191022960000,1.612960205078125,-0.031650543212890625,-0.012500353157520294,0.08323466777801514
1750927191041784600,1.63178466796875,-0.14314651489257812,-0.08744055032730103,0.13548320531845093
1750927191060608800,1.65060888671875,-0.025705337524414062,0.016891058534383774,-0.001680821180343628
1750927191079433200,1.66943310546875,0.05798912048339844,0.05824519693851471,-0.03432139754295349
1750927191098257400,1.68825732421875,0.009912490844726562,0.0702720582485199,0.07034516334533691
1750927191117081900,1.707081787109375,-0.056199073791503906,-0.010585946962237358,0.11247262358665466
1750927191135906000,1.725906005859375,-0.040325164794921875,-0.07291031628847122,-0.020223528146743774
1750927191154730500,1.74473046875,-0.0626373291015625,-0.01648259535431862,-0.042080044746398926
1750927191173554700,1.7635546875,0.15459251403808594,0.048337116837501526,-0.03774324059486389
1750927191192379100,1.782379150390625,0.32668018341064453,0.04354002699255943,-0.09733282029628754
1750927191211203300,1.801203369140625,0.0963602066040039,0.007081029005348682,-0.11542005836963654
1750927191230027800,1.82002783203125,-0.046647071838378906,-0.03814012557268143,0.04482853412628174
1750927191248852000,1.83885205078125,-0.08688735961914062,-0.06541271507740021,0.2270149290561676
1750927191267676400,1.857676513671875,0.0042858123779296875,0.016117291525006294,0.05358123779296875
1750927191286500600,1.87650048828125,-0.04218101501464844,0.02945021353662014,-0.0922728180885315
1750927191305324800,1.89532470703125,-0.18575286865234375,-0.04752668738365173,-0.0015821456909179688
1750927191324149200,1.914149169921875,-0.07199382781982422,-0.04249915853142738,-0.11130408942699432
1750927191342973400,1.932973388671875,0.009167671203613281,-0.03851131349802017,0.04905039072036743
1750927191361798000,1.9517978515625,0.04110431671142578,-0.015218093059957027,0.027566522359848022
1750927191380622300,1.970622314453125,0.058307647705078125,0.017022794112563133,0.005030900239944458
1750927191399446500,1.989446533203125,-0.014172554016113281,0.05452323704957962,0.09178784489631653
1750927191418270700,2.008270751953125,0.02018451690673828,0.04474090412259102,-0.07267501950263977
1750927191437095200,2.02709521484375,0.08407783508300781,-0.04439164325594902,-0.09362156689167023
1750927191455919400,2.04591943359375,0.020677566528320312,0.026177644729614258,0.05119532346725464
1750927191474743800,2.064743896484375,0.061903953552246094,-0.026121698319911957,0.07773369550704956
1750927191493568000,2.083568115234375,-0.033127784729003906,0.0007722554728388786,-0.022030383348464966
1750927191512392400,2.102392333984375,0.09387397766113281,0.058187659829854965,-0.19866366684436798
1750927191531216600,2.121216552734375,0.029107093811035156,-0.07006576657295227,-0.022854924201965332
1750927191550041000,2.140041015625,-0.10681724548339844,-0.060300737619400024,0.11512881517410278
1750927191568865300,2.158865234375,-0.01410675048828125,-0.055494699627161026,0.02925524115562439
1750927191587689700,2.177689697265625,0.028516769409179688,-0.053624287247657776,-0.07224969565868378
1750927191606514000,2.196513916015625,0.04586219787597656,-0.001404166454449296,0.03703060746192932
1750927191625338400,2.21533837890625,-0.02048015594482422,0.05685945227742195,-0.0008962154388427734
1750927191644162600,2.23416259765625,0.04955005645751953,0.01613692007958889,0.07670706510543823
1750927191662987000,2.252987060546875,-0.129241943359375,-0.0558304637670517,0.1533668339252472
1750927191681811200,2.271811279296875,-0.17607498168945312,-0.028631022199988365,0.15774866938591003
1750927191700635400,2.290635498046875,-0.11490535736083984,-0.006996685639023781,0.04253339767456055
1750927191719459800,2.3094599609375,-0.02748584747314453,0.06289850175380707,-0.19382916390895844
1750927191738284000,2.328283935546875,0.019012451171875,0.02800852432847023,-0.12534624338150024
1750927191757108500,2.3471083984375,0.019125938415527344,-0.0054006511345505714,0.07750537991523743
1750927191775932700,2.3659326171875,0.10178470611572266,0.024514200165867805,0.04251992702484131
1750927191794757000,2.384757080078125,0.09405994415283203,-0.02562517113983631,0.003609299659729004
1750927191813581300,2.403581298828125,0.048691749572753906,-0.015146804973483086,-0.06969307363033295
1750927191832405800,2.42240576171875,0.15987396240234375,0.09256327152252197,-0.1938253790140152
1750927191851230000,2.44122998046875,0.13961410522460938,0.022175610065460205,-0.1449938863515854
1750927191870054400,2.460054443359375,0.03704833984375,0.04221460223197937,-0.02445252239704132
1750927191888878600,2.478878662109375,0.18034839630126953,0.0031522903591394424,0.026352599263191223
1750927191907703000,2.497703125,0.011112213134765625,-0.035783737897872925,0.12677516043186188
1750927191926527200,2.51652734375,-0.06869220733642578,-0.008150363340973854,0.12477932870388031
1750927191945351400,2.535351318359375,-0.056954383850097656,-0.04574102163314819,0.004767373204231262
1750927191964176000,2.55417578125,-0.14405155181884766,-0.08845298737287521,0.136579692363739
1750927191983000000,2.573,-0.11965560913085938,0.11985231935977936,-0.039418816566467285
1750927192001824500,2.591824462890625,0.14025402069091797,0.07760675251483917,-0.29143595695495605
1750927192020648700,2.610648681640625,-0.04217243194580078,-0.10897787660360336,-0.07234609127044678
1750927192039473200,2.62947314453125,-0.08235931396484375,-0.050965555012226105,0.05595986545085907
1750927192058297300,2.64829736328125,-0.10251903533935547,-0.07261699438095093,0.20642735064029694
1750927192077121800,2.667121826171875,-0.0660085678100586,-0.020165298134088516,0.08053115010261536
1750927192095946000,2.685946044921875,0.10465431213378906,0.04158182442188263,-0.09887470304965973
1750927192114770400,2.7047705078125,0.09556293487548828,0.05813983455300331,-0.10476565361022949
1750927192133594600,2.7235947265625,0.10652828216552734,0.03765638545155525,-0.08731809258460999
1750927192152419000,2.742419189453125,0.07994651794433594,0.000008843839168548584,-0.005549490451812744
1750927192171243300,2.7612431640625,0.0028181076049804688,-0.0061295293271541595,0.10784058272838593
1750927192190067500,2.7800673828125,0.05402946472167969,0.06646682322025299,-0.05191051959991455
1750927192208892000,2.798891845703125,0.046894073486328125,-0.08940660953521729,-0.016406580805778503
1750927192227716000,2.817716064453125,-0.09364604949951172,-0.032037459313869476,0.05004429817199707
1750927192246540500,2.83654052734375,0.017136573791503906,0.0354759506881237,-0.03477656841278076
1750927192265364700,2.85536474609375,0.17936325073242188,0.017593950033187866,-0.13871628046035767
1750927192284189200,2.874189208984375,0.005166053771972656,0.007729146629571915,-0.12632454931735992
1750927192303013400,2.893013427734375,-0.05527496337890625,-0.022044017910957336,0.02114313840866089
1750927192321837800,2.911837890625,-0.020908355712890625,0.008346311748027802,0.24588069319725037
1750927192340662000,2.930662109375,-0.0854024887084961,0.06305548548698425,0.09735055267810822
1750927192359486500,2.949486572265625,-0.05401897430419922,0.07124818861484528,-0.07386015355587006
1750927192378310700,2.968310546875,-0.05730724334716797,-0.050292350351810455,-0.024515733122825623
1750927192397135000,2.987135009765625,-0.1528940200805664,-0.02578989788889885,0.11258050799369812
1750927192415959300,3.005959228515625,-0.016546249389648438,0.007912099361419678,0.04922378063201904
1750927192434783700,3.02478369140625,-0.007267951965332031,0.03352932631969452,-0.047030672430992126
1750927192453608000,3.04360791015625,0.09639453887939453,0.03891708329319954,-0.13217827677726746
1750927192472432400,3.062432373046875,0.1296672821044922,0.032793644815683365,-0.09094110131263733
1750927192491256600,3.081256591796875,0.0035734176635742188,-0.06658317893743515,0.0973951667547226
1750927192510080800,3.100080810546875,-0.17302703857421875,-0.08115604519844055,0.17787368595600128
1750927192528905200,3.1189052734375,-0.07340717315673828,-0.04517523571848869,0.09595385193824768
1750927192547729400,3.1377294921875,0.11985111236572266,0.04384518787264824,-0.09890635311603546
1750927192566553900,3.156553955078125,0.255401611328125,0.03085295483469963,-0.20195335149765015
1750927192585378000,3.1753779296875,0.03726005554199219,0.016865260899066925,-0.06623448431491852
1750927192604202500,3.194202392578125,-0.038605690002441406,-0.07958988100290298,0.08281005918979645
1750927192623026700,3.213026611328125,-0.07433605194091797,-0.014729641377925873,0.13073810935020447
1750927192641851100,3.23185107421875,-0.024990081787109375,0.029024966061115265,0.07156893610954285
1750927192660675300,3.25067529296875,-0.02875995635986328,0.010860849171876907,0.03966420888900757
1750927192679499800,3.269499755859375,-0.02762889862060547,0.0547107458114624,-0.06143489480018616
1750927192698324000,3.288323974609375,0.02830791473388672,-0.0029025115072727203,-0.19112807512283325
1750927192717148200,3.307148193359375,0.027774810791015625,-0.05279097333550453,-0.21568334102630615
1750927192735972600,3.32597265625,-0.034056663513183594,-0.040036220103502274,0.039978623390197754
1750927192754796800,3.344796875,0.009222030639648438,-0.06410917639732361,0.1817820966243744
1750927192773621200,3.363621337890625,-0.07525825500488281,0.015480559319257736,0.12063531577587128
1750927192792445400,3.382445556640625,0.03458404541015625,0.07829529047012329,-0.08668605983257294
1750927192811270000,3.401269775390625,-0.004679679870605469,-0.02263008803129196,-0.14675350487232208
1750927192830094000,3.420093994140625,0.024057388305664062,0.04049639031291008,-0.0046456605195999146
1750927192848918500,3.43891845703125,0.07872486114501953,-0.01022685319185257,0.10225933790206909
1750927192867742700,3.45774267578125,0.09479618072509766,0.04606371745467186,-0.07211989164352417
1750927192886567200,3.476567138671875,0.02560901641845703,-0.011623561382293701,-0.05124978721141815
1750927192905391400,3.495391357421875,-0.10566902160644531,-0.03702251613140106,0.07498951256275177
1750927192924215600,3.514215576171875,-0.12514495849609375,0.03013526275753975,0.006250843405723572
1750927192943040000,3.5330400390625,0.00466156005859375,0.031122799962759018,-0.11087045073509216
1750927192961864200,3.5518642578125,0.03717327117919922,0.0013233497738838196,-0.01982814073562622
1750927192980688600,3.570688720703125,-0.08501815795898438,-0.038274526596069336,0.08579303324222565
1750927192999512800,3.589512939453125,-0.044701576232910156,-0.004102721810340881,0.144175723195076
1750927193018337300,3.608337158203125,0.045464515686035156,0.04558302089571953,0.019630491733551025
1750927193037161500,3.627161376953125,-0.0027408599853515625,-0.04764389991760254,-0.038679540157318115
1750927193065398000,3.65539794921875,0.04068946838378906,-0.03189980238676071,-0.017079874873161316
1750927193084222200,3.67422216796875,0.048958778381347656,0.0029734671115875244,-0.030203819274902344
1750927193103046700,3.693046630859375,0.05263710021972656,0.0024979934096336365,-0.05708186328411102
1750927193121870800,3.711870849609375,0.0034618377685546875,-0.0004192069172859192,0.10335050523281097
1750927193140695300,3.7306953125,0.004504203796386719,0.06157388165593147,-0.06258203089237213
1750927193159519500,3.74951953125,0.03674030303955078,-0.029658541083335876,-0.10642047226428986
1750927193178344000,3.768343994140625,-0.006336212158203125,0.019376203417778015,-0.0008689314126968384
1750927193197168000,3.787168212890625,-0.05284309387207031,-0.029628463089466095,0.04979081451892853
1750927193215992600,3.80599267578125,0.0100250244140625,-0.02491404116153717,0.03081876039505005
1750927193244228900,3.834228759765625,0.055660247802734375,0.04068627953529358,-0.08711135387420654
1750927193263053300,3.85305322265625,0.044327735900878906,0.0251171812415123,0.08806724846363068
1750927193281877500,3.87187744140625,0.00140380859375,0.059825997799634933,0.015979930758476257
1750927193300702000,3.890701904296875,0.06575679779052734,-0.06095696985721588,-0.046322062611579895
1750927193319526100,3.909526123046875,-0.08527183532714844,-0.07289932668209076,0.11361753940582275
1750927193338350300,3.928350341796875,-0.08205986022949219,0.07642930746078491,0.031012311577796936
1750927193357174800,3.9471748046875,0.027252197265625,0.011848561465740204,-0.0445239394903183
1750927193375999000,3.9659990234375,-0.2112264633178711,-0.012981422245502472,0.05662199854850769
1750927193394823400,3.984823486328125,0.03841686248779297,0.0018015801906585693,0.01652681827545166
1750927193413647600,4.003647705078125,0.032855987548828125,0.003804147243499756,-0.07503524422645569
1750927193432472000,4.02247216796875,0.12456893920898438,-0.07671865820884705,-0.07002337276935577
1750927193451296300,4.041296142578125,-0.047374725341796875,-0.06667496263980865,-0.006091877818107605
1750927193470120700,4.06012060546875,-0.03607368469238281,-0.0028197914361953735,0.017189115285873413
1750927193488945000,4.07894482421875,0.08671855926513672,-0.008666232228279114,0.07771757245063782
1750927193507769300,4.097769287109375,0.0415496826171875,0.0976085215806961,-0.06427337229251862
1750927193526593500,4.116593505859375,0.11900997161865234,-0.024085357785224915,-0.12858766317367554
1750927193545417700,4.135417724609375,-0.02041339874267578,-0.032423168420791626,0.04142692685127258
1750927193564242200,4.1542421875,-0.08985519409179688,-0.02906961739063263,0.13290071487426758
1750927193583066400,4.17306640625,-0.1519632339477539,-0.020608827471733093,0.08338397741317749
1750927193601890800,4.191890869140625,0.01675128936767578,0.040685489773750305,-0.08837224543094635
1750927193620715000,4.210715087890625,-0.008022308349609375,-0.01772633194923401,-0.04498891532421112
1750927193639539500,4.22953955078125,-0.10583019256591797,-0.034001171588897705,0.006126046180725098
1750927193658363600,4.24836376953125,0.04298973083496094,0.03929680585861206,-0.02068166434764862
1750927193677188000,4.26718798828125,0.0656118392944336,0.02628485858440399,0.028517231345176697
1750927193696012300,4.28601220703125,-0.019806861877441406,-0.020714759826660156,0.04439547657966614
1750927193714836500,4.30483642578125,0.03680419921875,0.005584686994552612,-0.004429072141647339
1750927193733661000,4.323660888671875,0.0960397720336914,0.014791712164878845,-0.10054060816764832
1750927193752485000,4.342485107421875,0.027734756469726562,-0.0005478709936141968,0.05778573453426361
1750927193771309600,4.3613095703125,-0.03871345520019531,-0.01003032922744751,0.04864250123500824
1750927193790133800,4.3801337890625,0.09327411651611328,0.032779887318611145,-0.11341318488121033
1750927193808958200,4.398958251953125,0.024542808532714844,-0.0009642988443374634,-0.14706915616989136
1750927193827782400,4.417782470703125,-0.02778148651123047,-0.015261977910995483,-0.10677088797092438
1750927193846606800,4.43660693359375,0.09026813507080078,0.012175917625427246,0.04133763909339905
1750927193865431000,4.45543115234375,0.01745319366455078,0.025469139218330383,0.11083197593688965
1750927193884255500,4.47425537109375,-0.0020551681518554688,-0.006876081228256226,0.05054502189159393
1750927193903079700,4.49307958984375,-0.048325538635253906,-0.00014890730381011963,0.036391496658325195
1750927193921903900,4.51190380859375,-0.033400535583496094,-0.028359919786453247,-0.04390740394592285
1750927193940728300,4.530728271484375,0.0010890960693359375,-0.010104820132255554,0.022305786609649658
1750927193959552500,4.549552490234375,-0.008785247802734375,-0.00351029634475708,0.08053691685199738
1750927193978377000,4.568376953125,-0.008478164672851562,0.0992099791765213,-0.053552016615867615
1750927193997201200,4.587201171875,0.042476654052734375,0.02504272758960724,-0.10876572132110596
1750927194016025600,4.606025634765625,-0.0052661895751953125,-0.036576882004737854,0.00178469717502594
1750927194034849800,4.624849853515625,-0.037421226501464844,-0.0632033497095108,0.17966307699680328
1750927194053674200,4.64367431640625,-0.040828704833984375,-0.04183296859264374,-0.002470165491104126
1750927194072498400,4.66249853515625,-0.034526824951171875,0.031756043434143066,-0.1463836133480072
1750927194091322600,4.681322509765625,0.054576873779296875,0.007780402898788452,-0.0910491943359375
1750927194110147000,4.70014697265625,0.07214927673339844,0.014984190464019775,0.02175937592983246
1750927194128971300,4.71897119140625,-0.024320602416992188,-0.07871294021606445,0.1038130670785904
1750927194147795700,4.737795654296875,-0.16351604461669922,-0.07553817331790924,0.05364468693733215
1750927194166620000,4.756619873046875,0.07117748260498047,-0.046963393688201904,-0.09654781222343445
1750927194185444400,4.7754443359375,-0.025115013122558594,0.048523977398872375,-0.11344790458679199
1750927194204268500,4.7942685546875,0.06930160522460938,-0.0038432031869888306,-0.06194978952407837
1750927194223093000,4.813093017578125,-0.0023508071899414062,-0.025977909564971924,0.15639668703079224
1750927194241917200,4.831917236328125,-0.05377388000488281,0.1215447187423706,0.06690391898155212
1750927194260741400,4.850741455078125,0.02645587921142578,0.019572898745536804,-0.14047396183013916
1750927194279565800,4.86956591796875,-0.03980827331542969,0.0012275278568267822,0.04186226427555084
1750927194298390000,4.88839013671875,-0.02442646026611328,0.03961294889450073,0.0027375370264053345
1750927194317214500,4.90721435546875,-0.005046844482421875,-0.07469703257083893,-0.06268873810768127
1750927194336038700,4.92603857421875,-0.00472259521484375,-0.029921218752861023,0.009797289967536926
1750927194354863000,4.944863037109375,0.051535606384277344,-0.02856527268886566,-0.08483673632144928
1750927194373687300,4.963687255859375,0.04968833923339844,0.019789651036262512,-0.09163986146450043
1750927194392511700,4.98251171875,-0.04973125457763672,0.007160946726799011,0.07051993906497955
1750927194411336000,5.0013359375,0.0031833648681640625,0.021759510040283203,0.16878420114517212
1750927194430160100,5.02016015625,0.022177696228027344,-0.00010482966899871826,0.06124520301818848
1750927194448984600,5.038984619140625,-0.06704998016357422,-0.005427822470664978,-0.010167628526687622
1750927194467808800,5.057808837890625,-0.022928237915039062,-0.0492764413356781,-0.06956727802753448
1750927194486633200,5.07663330078125,-0.0033025741577148438,0.001727953553199768,-0.06337916851043701
1750927194505457400,5.09545751953125,0.034488677978515625,0.012067869305610657,-0.052949026226997375
1750927194524281900,5.11428173828125,-0.03210735321044922,0.006995037198066711,0.05433684587478638
1750927194543106000,5.13310595703125,-0.03105640411376953,0.03318752348423004,0.08831542730331421
1750927194561930500,5.151930419921875,-0.0768890380859375,-0.00272485613822937,0.0018552541732788086
1750927194580754700,5.170754638671875,-0.01312255859375,-0.030294299125671387,-0.07600440084934235
1750927194599579000,5.189578857421875,-0.03132152557373047,-0.02516387403011322,-0.08589254319667816
1750927194618403300,5.2084033203125,0.07227134704589844,0.03526216745376587,-0.013092294335365295
1750927194637227500,5.2272275390625,0.004248619079589844,0.0059119462966918945,0.0796050876379013
1750927194656052000,5.246052001953125,-0.08847618103027344,0.02754838764667511,0.030371427536010742
1750927194674876200,5.264876220703125,0.030920982360839844,0.028183147311210632,-0.0032776296138763428
1750927194693700600,5.28370068359375,0.104034423828125,0.03308834135532379,-0.025148138403892517
1750927194712524800,5.30252490234375,0.021104812622070312,-0.029933243989944458,0.04633496701717377
1750927194731349200,5.321349365234375,-0.007025718688964844,-0.018336042761802673,-0.052783653140068054
1750927194750173400,5.34017333984375,-0.01629352569580078,0.03221355378627777,-0.06200379133224487
1750927194768997600,5.35899755859375,-0.1085672378540039,0.028529822826385498,-0.0010304152965545654
1750927194787822000,5.377822021484375,-0.0676279067993164,0.037521928548812866,-0.015868887305259705
1750927194806646300,5.396646240234375,0.037296295166015625,-0.013940230011940002,0.01268380880355835
1750927194825470700,5.415470703125,0.04563617706298828,-0.03597627580165863,-0.0009852051734924316
1750927194844295000,5.434294921875,-0.012034416198730469,-0.04056695103645325,-0.009330689907073975
1750927194863119400,5.453119384765625,-0.06714630126953125,0.024035871028900146,-0.026907488703727722
1750927194881943600,5.471943603515625,0.0054340362548828125,0.04033416509628296,-0.03543400764465332
1750927194900768000,5.49076806640625,0.0009899139404296875,0.054438501596450806,0.005319669842720032
1750927194919592200,5.50959228515625,0.0809011459350586,0.036441147327423096,-0.018701747059822083
1750927194938416400,5.52841650390625,0.25694751739501953,0.0844898670911789,-0.06817148625850677
1750927194957240800,5.54724072265625,0.4857664108276367,0.05543050169944763,-0.1836208999156952
1750927194976065000,5.56606494140625,0.5247764587402344,-0.008227735757827759,-0.11409533023834229
1750927194994889500,5.584889404296875,0.6747579574584961,0.0022097527980804443,0.06421703100204468
1750927195013713700,5.603713623046875,0.9127483367919922,0.054257795214653015,0.03881561756134033
1750927195032538000,5.6225380859375,0.8735160827636719,0.007098568603396416,-0.07061484456062317
1750927195051362300,5.6413623046875,0.6845626831054688,-0.18953905999660492,-0.010744035243988037
1750927195070186800,5.660186767578125,0.30510997772216797,-0.2999056279659271,0.05428925156593323
1750927195089011000,5.679010986328125,0.26537132263183594,-0.3552496135234833,-0.005841583013534546
1750927195107835100,5.697835205078125,0.004666328430175781,-0.4513449966907501,-0.12112927436828613
1750927195126659600,5.71665966796875,-0.4705991744995117,-0.4336692690849304,-0.15284037590026855
1750927195145483800,5.73548388671875,-0.41655635833740234,-0.38331568241119385,-0.05343502759933472
1750927195164308200,5.75430810546875,-0.3667011260986328,-0.18386220932006836,0.08748263120651245
1750927195183132400,5.77313232421875,-0.38202381134033203,-0.051249146461486816,0.17017042636871338
1750927195201956900,5.791956787109375,-0.4624147415161133,-0.18219506740570068,0.14244890213012695
1750927195220781000,5.810781005859375,-0.5151205062866211,-0.15510928630828857,0.04108625650405884
1750927195239605500,5.82960546875,-0.022170066833496094,-0.05553483963012695,0.005457401275634766
1750927195258429700,5.8484296875,0.2732276916503906,-0.13408446311950684,-0.049649953842163086
1750927195277254000,5.86725390625,0.27666759490966797,-0.2702960968017578,-0.011745333671569824
1750927195296078300,5.886078369140625,0.051151275634765625,-0.33077430725097656,-0.07746225595474243
1750927195314902500,5.904902587890625,-0.010194778442382812,-0.30516552925109863,-0.14071542024612427
1750927195333727000,5.92372705078125,-0.1902618408203125,-0.46428346633911133,-0.03512418270111084
1750927195352551200,5.94255126953125,-0.7482852935791016,-0.4469923973083496,-0.04673975706100464
1750927195371375600,5.961375732421875,-0.9801993370056152,-0.19231271743774414,0.1342451572418213
1750927195390199800,5.98019970703125,-0.7486772537231445,-0.25387048721313477,0.3491566777229309
1750927195409024000,5.99902392578125,-0.6241321563720703,-0.17668628692626953,0.3304680585861206
1750927195427848400,6.017848388671875,-0.4849071502685547,-0.12952041625976562,0.27617746591567993
1750927195446672600,6.036672607421875,-0.4981708526611328,-0.08557891845703125,-0.14561223983764648
1750927195465497000,6.0554970703125,-1.029109001159668,0.03617429733276367,-0.21385705471038818
1750927195484321300,6.0743212890625,-1.3728771209716797,0.24141216278076172,-0.04355043172836304
1750927195503145700,6.093145751953125,-1.658581256866455,0.4239311218261719,0.34820908308029175
1750927195521970000,6.111969970703125,-1.3789892196655273,0.1586155891418457,0.5096885561943054
1750927195540794400,6.13079443359375,-0.8890576362609863,0.15528154373168945,0.06395900249481201
1750927195559618600,6.14961865234375,-0.6016864776611328,0.0016884803771972656,-0.04474419355392456
1750927195578442800,6.16844287109375,-0.7773170471191406,0.07929372787475586,-0.21243387460708618
1750927195597267200,6.18726708984375,-0.7274932861328125,0.4544401168823242,-0.3782484531402588
1750927195616091400,6.20609130859375,0.02964305877685547,0.14987587928771973,-0.2568436861038208
1750927195634915800,6.224915771484375,0.5727701187133789,-0.2279191017150879,-0.3623494505882263
1750927195653740000,6.243739990234375,0.8436212539672852,-0.23350024223327637,-0.2765512466430664
1750927195672564200,6.262564208984375,0.09354496002197266,-0.0693674087524414,-0.2856904864311218
1750927195691388700,6.281388671875,-0.3751049041748047,0.08942461013793945,0.05300629138946533
1750927195710213000,6.300213134765625,-0.23924732208251953,-0.027438640594482422,0.27824509143829346
1750927195729037300,6.319037353515625,0.4218740463256836,0.013211965560913086,0.08204317092895508
1750927195747861500,6.337861572265625,0.07561779022216797,0.030146241188049316,-0.33725976943969727
1750927195766686000,6.35668603515625,-0.1505260467529297,-0.08626973628997803,-0.07422733306884766
1750927195785510100,6.37551025390625,0.17144489288330078,-0.10550358891487122,0.472501277923584
1750927195804334600,6.39433447265625,-0.17586708068847656,0.023724421858787537,0.5616382360458374
1750927195823158800,6.41315869140625,-0.45670223236083984,0.130522221326828,0.15823781490325928
1750927195841983000,6.43198291015625,-0.027767181396484375,0.04218941926956177,-0.0596347451210022
1750927195860807400,6.450807373046875,-0.01747417449951172,0.14581620693206787,-0.2515448331832886
1750927195879631600,6.469631591796875,-0.08709430694580078,0.10943448543548584,-0.06348788738250732
1750927195898456000,6.4884560546875,0.020728111267089844,0.08254885673522949,-0.02539801597595215
1750927195917280300,6.5072802734375,0.3254833221435547,0.03656125068664551,0.41800326108932495
1750927195936104700,6.526104736328125,0.44061946868896484,0.1997697353363037,0.0852324366569519
1750927195954929000,6.544928955078125,0.5440235137939453,0.2475113868713379,-0.29129886627197266
1750927195973753000,6.563753173828125,0.29112815856933594,0.17311525344848633,-0.3658279776573181
1750927195992577500,6.58257763671875,0.4799327850341797,0.21061253547668457,-0.3452944755554199
1750927196011401700,6.601401611328125,0.7061767578125,0.17093372344970703,0.013778865337371826
1750927196030226200,6.62022607421875,0.9244823455810547,0.22655153274536133,0.06629717350006104
1750927196049050400,6.63905029296875,0.8356132507324219,0.2538900375366211,0.09796321392059326
1750927196067874800,6.657874755859375,0.7409896850585938,0.2587876319885254,0.13019704818725586
1750927196086699000,6.676698974609375,0.8996686935424805,0.34310483932495117,0.014859437942504883
1750927196105523500,6.6955234375,0.8241910934448242,0.3199462890625,0.08962970972061157
1750927196124347600,6.71434765625,0.601679801940918,-0.01611042022705078,0.3030129671096802
1750927196143171800,6.733171875,0.6971406936645508,-0.24920082092285156,0.412807822227478
1750927196161996300,6.751996337890625,0.7480955123901367,-0.31186509132385254,0.07271796464920044
1750927196180820500,6.770820556640625,0.4569377899169922,-0.4694938659667969,-0.39489883184432983
1750927196199645000,6.78964501953125,0.22441387176513672,-0.6187744140625,-0.1743704080581665
1750927196218469000,6.80846923828125,0.01703166961669922,-0.8689301013946533,0.14949822425842285
1750927196237293600,6.82729345703125,-0.11258602142333984,-1.040008544921875,0.17082995176315308
1750927196256117800,6.84611767578125,-0.42291736602783203,-1.1060776710510254,-0.011692225933074951
1750927196274942200,6.864942138671875,-0.7000713348388672,-0.8490616083145142,-0.11160385608673096
1750927196293766400,6.883766357421875,-0.7391996383666992,-0.6722870469093323,-0.1598929762840271
1750927196312590600,6.902590576171875,-0.6644477844238281,-0.6250810623168945,-0.050150513648986816
1750927196331415000,6.9214150390625,-0.6704063415527344,-0.5612898468971252,-0.028527796268463135
1750927196350239200,6.9402392578125,-0.39557933807373047,-0.4010385274887085,0.04229527711868286
1750927196369063700,6.959063720703125,-0.2888660430908203,-0.4814438819885254,0.026034176349639893
1750927196387887900,6.977887939453125,-0.36449527740478516,-0.4011874198913574,0.05797278881072998
1750927196425536500,7.01553662109375,-0.16008663177490234,-0.1161184310913086,-0.010894536972045898
1750927196444360700,7.034360595703125,0.06172752380371094,-0.16917967796325684,0.07862520217895508
1750927196463185200,7.05318505859375,-0.18715572357177734,-0.18036365509033203,-0.03848063945770264
1750927196482009300,7.07200927734375,-0.09703922271728516,-0.19855856895446777,0.07362169027328491
1750927196500833800,7.090833740234375,-0.32357311248779297,-0.20959758758544922,-0.011338651180267334
1750927196519658000,7.109657958984375,-0.5812911987304688,-0.005119800567626953,0.053900718688964844
1750927196538482400,7.128482421875,-0.7468023300170898,0.17232656478881836,0.18093830347061157
1750927196557306600,7.147306640625,-0.5073661804199219,0.24861955642700195,0.16597098112106323
1750927196576131000,7.166131103515625,-0.4388418197631836,0.32819080352783203,-0.2094147801399231
1750927196594955300,7.184955322265625,-0.78802490234375,0.21673822402954102,-0.22441405057907104
1750927196613779500,7.203779541015625,-1.090372085571289,0.3786301612854004,0.026077091693878174
1750927196632604000,7.22260400390625,-1.0544052124023438,0.529900074005127,0.09612667560577393
1750927196651428000,7.241427978515625,-1.06300687789917,0.35552310943603516,0.06074821949005127
1750927196670252500,7.26025244140625,-0.8123559951782227,0.23136520385742188,0.13921600580215454
1750927196689076700,7.27907666015625,-0.8323659896850586,0.10817527770996094,0.1621876358985901
1750927196707901200,7.297901123046875,-0.7525796890258789,0.07252240180969238,0.13379016518592834
1750927196726725400,7.316725341796875,-0.7260589599609375,0.27455687522888184,-0.062297523021698
1750927196745549600,7.335549560546875,-0.3490009307861328,0.17036151885986328,-0.2510479688644409
1750927196764374000,7.3543740234375,0.07805061340332031,-0.08241438865661621,-0.13990765810012817
1750927196783198200,7.3731982421875,0.21454524993896484,-0.2097703218460083,-0.10535198450088501
1750927196802022700,7.392022705078125,0.6934652328491211,-0.16421473026275635,0.07412171363830566
1750927196820846800,7.410846923828125,0.31519031524658203,-0.09574770927429199,-0.007914960384368896
1750927196839671300,7.42967138671875,0.6087923049926758,-0.034204065799713135,0.03109830617904663
1750927196858495500,7.44849560546875,0.5379352569580078,0.08228838443756104,-0.23792313039302826
1750927196877319700,7.467319580078125,0.2396097183227539,0.06671188771724701,-0.349317729473114
1750927196896144100,7.48614404296875,0.04730415344238281,-0.0342792272567749,-0.23394599556922913
1750927196914968300,7.50496826171875,0.10256767272949219,-0.0219804048538208,-0.04695194959640503
1750927196933792800,7.523792724609375,0.22107219696044922,0.12191963195800781,0.01585090160369873
1750927196952617000,7.542616943359375,0.43218994140625,0.112937331199646,-0.1182294487953186
1750927196971441400,7.56144140625,0.35152721405029297,0.09835100173950195,-0.06131464242935181
1750927196990265600,7.580265625,0.04244518280029297,0.14606213569641113,0.08663350343704224
1750927197009090000,7.599090087890625,0.23336219787597656,0.17226123809814453,0.036478281021118164
1750927197027914200,7.617914306640625,0.46959400177001953,0.13078927993774414,-0.07869023084640503
1750927197046738400,7.636738525390625,0.07854747772216797,0.00865793228149414,-0.2639343738555908
1750927197065563000,7.65556298828125,0.14486980438232422,0.11423301696777344,-0.21164631843566895
1750927197084387000,7.674386962890625,0.3803977966308594,0.13128900527954102,0.06420058012008667
1750927197103211500,7.69321142578125,0.18577957153320312,0.10810375213623047,0.31785571575164795
1750927197122035700,7.71203564453125,0.2989654541015625,0.022681474685668945,0.3182224631309509
1750927197140860000,7.73085986328125,0.5339231491088867,0.21047663688659668,0.03728729486465454
1750927197159684400,7.749684326171875,0.8135137557983398,0.28015756607055664,-0.18933570384979248
1750927197178508500,7.768508544921875,0.6477680206298828,0.04181361198425293,-0.20578396320343018
1750927197197333000,7.7873330078125,0.20996665954589844,-0.21300864219665527,0.1510828733444214
1750927197216157200,7.8061572265625,0.12092971801757812,-0.27251124382019043,0.38351118564605713
1750927197234981600,7.824981689453125,0.33884620666503906,-0.3052811622619629,0.25233322381973267
1750927197253805800,7.843805908203125,0.3378772735595703,-0.278289794921875,0.06980592012405396
1750927197272630000,7.862630126953125,0.4190788269042969,-0.12882006168365479,-0.10097706317901611
1750927197291454500,7.881454345703125,0.3668642044067383,-0.2904658317565918,-0.10397970676422119
1750927197310278700,7.900278564453125,-0.17065811157226562,-0.4976513385772705,0.05243891477584839
1750927197329103000,7.91910302734375,-0.37609195709228516,-0.7739121913909912,0.1352008581161499
1750927197347927300,7.93792724609375,-0.5171442031860352,-0.6731745600700378,-0.1401461362838745
1750927197366751700,7.956751708984375,-0.19014358520507812,-0.6202158331871033,-0.15019619464874268
1750927197385576000,7.975575927734375,-0.18627071380615234,-0.5443060398101807,-0.14560896158218384
1750927197404400400,7.994400390625,-0.3625764846801758,-0.4619865119457245,0.01767677068710327
1750927197423224600,8.013224609375,-0.31359100341796875,-0.3786414861679077,0.12321299314498901
1750927197442048800,8.032048828125,-0.34668445587158203,-0.27894294261932373,-0.017314255237579346
1750927197460873200,8.050873291015625,-0.2557077407836914,-0.3188837766647339,0.09777158498764038
1750927197479697400,8.069697509765625,0.19133377075195312,-0.3628222942352295,0.3074633479118347
1750927197498521900,8.08852197265625,0.1952219009399414,-0.5767003297805786,0.08584189414978027
1750927197517346000,8.107345947265625,-0.06757068634033203,-0.554848313331604,0.049422621726989746
1750927197536170500,8.12617041015625,-0.2566261291503906,-0.27579474449157715,-0.15054965019226074
1750927197554994700,8.14499462890625,-0.34586334228515625,-0.25340819358825684,-0.3795132040977478
1750927197573819000,8.16381884765625,-0.2386455535888672,-0.308544397354126,-0.033907532691955566
1750927197592643300,8.182643310546876,-0.5630655288696289,-0.24353289604187012,-0.016888737678527832
1750927197611467500,8.201467529296876,-0.669734001159668,-0.06733226776123047,-0.009470164775848389
1750927197630292000,8.2202919921875,-0.4897756576538086,0.290252685546875,-0.12832731008529663
1750927197649116200,8.2391162109375,-0.26227855682373047,0.20146656036376953,-0.08505755662918091
1750927197667940600,8.257940673828125,-0.17838382720947266,-0.014698028564453125,0.0737488865852356
1750927197686764800,8.276764892578125,-0.4955596923828125,-0.024236202239990234,0.03476506471633911
1750927197705589000,8.295589111328125,-0.8041110038757324,0.27266836166381836,-0.19040894508361816
1750927197724413400,8.314413330078125,-1.1577978134155273,0.35335445404052734,0.08127349615097046
1750927197743237600,8.333237548828125,-1.336695671081543,0.6071739196777344,0.3031308054924011
1750927197762062000,8.35206201171875,-1.1572494506835938,0.3237881660461426,0.09031909704208374
1750927197780886300,8.37088623046875,-0.941070556640625,0.3299131393432617,-0.14393824338912964
1750927197799710700,8.389710693359374,-0.9910478591918945,0.30069541931152344,-0.07776659727096558
1750927197818535000,8.408534912109374,-0.788609504699707,0.046015262603759766,0.34734731912612915
1750927197837359400,8.427359375,-0.4740314483642578,-0.0065152645111083984,0.47703397274017334
1750927197856183600,8.44618359375,-0.38820648193359375,0.03062891960144043,0.09845477342605591
1750927197875007700,8.4650078125,-0.18984031677246094,-0.09501814842224121,-0.3481636047363281
1750927197893832200,8.483832275390625,0.7084217071533203,-0.24494338035583496,-0.23159188032150269
1750927197912656400,8.502656494140625,0.5674343109130859,-0.19566142559051514,-0.007872164249420166
1750927197931480800,8.521480712890625,0.07859420776367188,-0.12771284580230713,-0.014814019203186035
1750927197950305000,8.540304931640625,0.31171226501464844,-0.011340856552124023,0.028791487216949463
1750927197969129500,8.55912939453125,0.38904285430908203,0.20014068484306335,-0.02602064609527588
1750927197987953700,8.57795361328125,0.18138694763183594,0.19928127527236938,-0.002722501754760742
1750927198006777900,8.59677783203125,0.5148200988769531,0.013765662908554077,-0.5224680304527283
1750927198025602300,8.615602294921874,1.1212215423583984,0.1942414939403534,-0.5395200252532959
1750927198044426500,8.634426513671874,1.1368675231933594,0.07102108001708984,-0.13574457168579102
1750927198063251000,8.6532509765625,0.03979206085205078,0.05519843101501465,0.02330803871154785
1750927198082075100,8.6720751953125,-0.3028402328491211,-0.19227933883666992,0.26445960998535156
1750927198100899300,8.6908994140625,-0.2991485595703125,-0.06046271324157715,0.23918986320495605
1750927198119723800,8.709723876953126,0.15799903869628906,0.2863650321960449,-0.4072642922401428
1750927198138548000,8.7285478515625,0.30231380462646484,0.3474600315093994,-0.5737223625183105
1750927198157372400,8.747372314453125,-0.03824424743652344,0.36396336555480957,-0.21088355779647827
1750927198176196600,8.766196533203125,-0.1702117919921875,0.3390023708343506,0.31083524227142334
1750927198195021000,8.78502099609375,-0.17663097381591797,0.16348004341125488,0.3944355249404907
1750927198213845200,8.80384521484375,-0.20473003387451172,0.021058082580566406,0.08220678567886353
1750927198232669400,8.82266943359375,-0.14500999450683594,-0.04095268249511719,-0.03659933805465698
1750927198251494000,8.841493896484375,-0.043033599853515625,0.2083146572113037,-0.16500645875930786
1750927198270318000,8.860318115234374,0.48894214630126953,0.2938673496246338,0.03688532114028931
1750927198289142500,8.879142578125,0.732508659362793,0.262371301651001,0.10784012079238892
1750927198307966700,8.897966796875,0.6277713775634766,0.12775540351867676,0.40164393186569214
1750927198326791200,8.916791259765626,0.5221271514892578,-0.07170414924621582,0.38798558712005615
1750927198345615400,8.935615478515626,0.3404207229614258,-0.19532108306884766,0.2748212218284607
1750927198364439600,8.954439453125,0.538661003112793,-0.1426699161529541,-0.055065929889678955
1750927198383264000,8.973263916015625,0.5266923904418945,-0.20345830917358398,-0.07206928730010986
1750927198402088200,8.992088134765625,0.4383068084716797,-0.34770750999450684,0.11916470527648926
1750927198420912600,9.01091259765625,0.39417171478271484,-0.5078397989273071,0.15361827611923218
1750927198439736800,9.02973681640625,0.08465099334716797,-0.6880538463592529,-0.07448357343673706
1750927198458561300,9.048561279296875,-0.1842517852783203,-0.7112450003623962,-0.24788784980773926
1750927198477385500,9.067385498046875,-0.06949424743652344,-0.6120715141296387,-0.17467397451400757
1750927198496209700,9.086209716796875,0.05076122283935547,-0.5849335193634033,-0.20057249069213867
1750927198515034000,9.1050341796875,0.025011062622070312,-0.7320288419723511,-0.09732937812805176
1750927198533858300,9.1238583984375,-0.3761720657348633,-0.8184909820556641,-0.10657858848571777
1750927198552682800,9.142682861328124,-0.6127138137817383,-0.6393176317214966,-0.21374958753585815
1750927198571507000,9.1615068359375,-0.4649639129638672,-0.3257099390029907,-0.08667981624603271
1750927198590331400,9.180331298828126,-0.11018943786621094,-0.2222503423690796,-0.09452378749847412
1750927198609155600,9.199155517578125,-0.0479736328125,-0.2942997217178345,0.09710979461669922
1750927198627979800,9.217979736328125,-0.10556983947753906,-0.3598814010620117,0.18393218517303467
1750927198646804200,9.23680419921875,-0.1262989044189453,-0.2291090488433838,0.0992194414138794
1750927198665628400,9.25562841796875,-0.02998638153076172,-0.27731847763061523,-0.09847241640090942
1750927198684452900,9.274452880859375,0.04955768585205078,-0.17025160789489746,-0.26992422342300415
1750927198703277000,9.293277099609375,0.10240745544433594,-0.26578497886657715,-0.07091373205184937
1750927198722101500,9.3121015625,-0.09794235229492188,-0.30124974250793457,0.08030962944030762
1750927198740925700,9.33092578125,-0.24234485626220703,-0.11836814880371094,0.11982953548431396
1750927198759750000,9.34975,-0.2523775100708008,-0.11698198318481445,-0.0629931092262268
1750927198778574300,9.36857421875,-0.5193901062011719,-0.046454429626464844,-0.2278798222541809
1750927198797398500,9.3873984375,-0.7254533767700195,0.34157419204711914,-0.1595679521560669
1750927198816223000,9.406222900390626,-0.7880306243896484,0.39551448822021484,0.026630103588104248
1750927198835047200,9.425047119140626,-0.822425365447998,0.2266983985900879,0.2791110873222351
1750927198853871400,9.443871337890625,-0.8481597900390625,0.2526993751525879,0.17405486106872559
1750927198872695800,9.46269580078125,-0.9894580841064453,0.3909120559692383,-0.03356218338012695
1750927198891520000,9.48152001953125,-0.9689903259277344,0.5480899810791016,0.06860572099685669
1750927198910344400,9.500344482421875,-1.0644474029541016,0.4489293098449707,0.06662553548812866
1750927198929168600,9.519168701171875,-0.6858015060424805,0.39723968505859375,0.1113351583480835
1750927198947993000,9.5379931640625,-0.4357872009277344,0.15417957305908203,0.014940440654754639
1750927198966817300,9.5568173828125,-0.14615249633789062,0.079376220703125,-0.05105268955230713
1750927198985641500,9.575641357421874,-0.13570594787597656,0.21696019172668457,-0.07834208011627197
1750927199004466000,9.5944658203125,-0.18123626708984375,0.11622381210327148,0.16948062181472778
1750927199023290000,9.6132900390625,-0.10242557525634766,0.18891644477844238,-0.0918075442314148
1750927199042114600,9.632114501953126,-0.011734962463378906,-0.1981344223022461,0.21468126773834229
1750927199060938800,9.650938720703126,-0.1627521514892578,-0.10754203796386719,0.07299429178237915
1750927199079763200,9.66976318359375,0.09163570404052734,-0.0877985954284668,0.036869585514068604
1750927199098587400,9.68858740234375,0.019216537475585938,-0.2183222770690918,0.31475138664245605
1750927199117411600,9.70741162109375,-0.1458139419555664,-0.000053882598876953125,0.40520334243774414
1750927199136236000,9.726236083984375,-0.21043777465820312,-0.05493801832199097,-0.041918396949768066
1750927199155060200,9.745060302734375,0.27248382568359375,0.010391846299171448,-0.4347478747367859
1750927199173884700,9.763884765625,0.3414278030395508,0.11662817001342773,-0.4960973858833313
1750927199192708900,9.782708984375,0.2643470764160156,0.0473003089427948,-0.3199218511581421
1750927199211533300,9.801533203125,0.3730039596557617,0.021656811237335205,-0.1218215823173523
1750927199230357500,9.820357421875,0.16001319885253906,-0.06001615524291992,-0.12210053205490112
1750927199249181700,9.839181640625,0.15108489990234375,0.08120489120483398,-0.22793084383010864
1750927199268006100,9.858006103515624,-0.07067108154296875,0.1609746217727661,-0.3589709401130676
1750927199286830300,9.876830322265626,-0.04399681091308594,-0.026461362838745117,0.021519124507904053
1750927199305654800,9.89565478515625,-0.0037355422973632812,-0.19057846069335938,0.22298967838287354
1750927199324479000,9.91447900390625,-0.6392889022827148,-0.17973780632019043,0.21348321437835693
1750927199343303400,9.933303466796875,-0.2421417236328125,-0.16147375106811523,0.3244609236717224
1750927199362127600,9.952127685546875,-0.025691986083984375,-0.10579919815063477,0.24419069290161133
1750927199380951800,9.970951904296875,0.030083656311035156,-0.08789396286010742,-0.19124501943588257
1750927199399776300,9.9897763671875,0.015073776245117188,-0.16367840766906738,-0.3944661021232605
1750927199418600400,10.008600341796875,0.062384605407714844,-0.11100983619689941,-0.1824573278427124
1750927199437425000,10.0274248046875,0.555328369140625,0.08732843399047852,0.14797842502593994
1750927199456249000,10.0462490234375,0.7518301010131836,0.2666962146759033,0.08455115556716919
1750927199475073500,10.065073486328124,0.8054771423339844,0.24473905563354492,0.015832364559173584
1750927199493897700,10.083897705078124,0.8263864517211914,0.2256605625152588,-0.021831154823303223
1750927199512722000,10.102721923828126,0.8204355239868164,0.12273645401000977,-0.04239612817764282
1750927199531546400,10.12154638671875,0.7678108215332031,0.1360769271850586,-0.2048003077507019
1750927199550370600,10.14037060546875,0.9234018325805664,0.14826703071594238,-0.040323078632354736
1750927199569195000,10.159195068359375,0.9600734710693359,0.23525238037109375,0.11840814352035522
1750927199588019200,10.178019287109375,0.9096050262451172,0.20886731147766113,0.030563950538635254
1750927199606843400,10.196843505859375,0.7731180191040039,0.03196859359741211,0.10553395748138428
1750927199625667800,10.215667724609375,0.4415245056152344,-0.3470940589904785,0.09400123357772827
1750927199644492000,10.234491943359375,0.05339622497558594,-0.6636590957641602,0.03507733345031738
1750927199663316500,10.25331640625,-0.01734161376953125,-0.6773197650909424,-0.14368999004364014
1750927199682140700,10.272140625,-0.1139059066772461,-0.7374902963638306,-0.09537285566329956
1750927199700965000,10.290965087890624,-0.38858509063720703,-0.7898873090744019,-0.2320622205734253
1750927199719789300,10.309789306640624,-0.6345901489257812,-0.8544030785560608,-0.1330639123916626
1750927199738613500,10.328613525390624,-0.5288171768188477,-0.6552231907844543,-0.04981130361557007
1750927199757438000,10.34743798828125,-0.45462512969970703,-0.5307321548461914,0.06740230321884155
1750927199776262100,10.36626220703125,-0.23684978485107422,-0.5232498049736023,0.21511918306350708
1750927199795086600,10.385086669921876,-0.5440406799316406,-0.5793537497520447,0.11656850576400757
1750927199813910800,10.403910888671875,-0.3834724426269531,-0.6373560428619385,0.04392516613006592
1750927199832735200,10.4227353515625,-0.2688932418823242,-0.5661467909812927,0.09792828559875488
1750927199851559400,10.441559326171875,-0.20129776000976562,-0.4739428758621216,-0.020359694957733154
1750927199870383600,10.460383544921875,-0.08685016632080078,-0.19185054302215576,-0.18635809421539307
1750927199889208000,10.4792080078125,-0.14630699157714844,-0.2215437889099121,-0.04120737314224243
1750927199908032300,10.4980322265625,-0.1377391815185547,-0.17642664909362793,0.019198834896087646
1750927199926856700,10.516856689453125,-0.1641826629638672,-0.17352628707885742,0.042603373527526855
1750927199945681000,10.535680908203124,-0.15160369873046875,-0.08733081817626953,0.039741694927215576
1750927199964505300,10.55450537109375,0.034008026123046875,-0.024210453033447266,0.05027472972869873
1750927199983329500,10.57332958984375,0.1311807632446289,-0.07193589210510254,0.06987345218658447
1750927200002154000,10.592154052734376,-0.1670207977294922,0.017450809478759766,-0.02757251262664795
1750927200020978200,10.610978271484376,-0.4155588150024414,0.3577914237976074,-0.11148124933242798
1750927200039802400,10.62980224609375,-0.16066551208496094,0.5234804153442383,-0.23608344793319702
1750927200058626800,10.648626708984375,-0.033232688903808594,0.09129905700683594,-0.25679630041122437
1750927200077451000,10.667450927734375,0.05172538757324219,0.1192631721496582,-0.5157811045646667
1750927200096275500,10.686275390625,-0.3784141540527344,0.2949709892272949,-0.27610349655151367
1750927200115099600,10.705099609375,-0.8114690780639648,0.32880115509033203,-0.06726592779159546
1750927200133924000,10.723924072265625,-1.1662635803222656,0.5512471199035645,0.2182168960571289
1750927200152748300,10.742748291015625,-1.0512866973876953,0.526301383972168,0.21282744407653809
1750927200171572500,10.761572509765625,-0.816558837890625,0.35238218307495117,0.14016228914260864
1750927200190397000,10.78039697265625,-0.8530464172363281,0.3122258186340332,-0.10331279039382935
1750927200209221000,10.79922119140625,-0.7044296264648438,0.07760453224182129,-0.13740020990371704
1750927200228045600,10.818045654296874,-0.5608758926391602,0.0692591667175293,0.14334505796432495
1750927200246869800,10.836869873046876,-0.37796878814697266,0.11103034019470215,0.07965314388275146
1750927200265694200,10.855694091796876,-0.19393539428710938,-0.022548675537109375,0.15831583738327026
1750927200284518400,10.874518310546875,-0.24852848052978516,-0.17462873458862305,-0.14617347717285156
1750927200303342600,10.893342529296875,0.33460044860839844,-0.42791616916656494,0.15088939666748047
1750927200322167000,10.9121669921875,0.8750247955322266,-0.3237914443016052,0.09531837701797485
1750927200340991200,10.9309912109375,1.007613182067871,-0.18012189865112305,0.11324971914291382
1750927200359815700,10.949815673828125,0.6415548324584961,0.08066445589065552,-0.1438082456588745
1750927200378640000,10.968639892578125,0.03657341003417969,0.055843353271484375,-0.07134073972702026
1750927200397464300,10.98746435546875,-0.4963951110839844,-0.1216806173324585,0.14926636219024658
1750927200416288500,11.00628857421875,-0.08339786529541016,-0.10514098405838013,0.018625080585479736
1750927200435112700,11.02511279296875,-0.10843658447265625,0.1250060796737671,-0.15691208839416504
1750927200453937200,11.043937255859374,-0.060273170471191406,0.20076966285705566,-0.2801477313041687
1750927200472761300,11.06276123046875,-0.2691488265991211,0.11819076538085938,-0.42158061265945435
1750927200491585800,11.081585693359376,-0.18066024780273438,0.14979064464569092,-0.33669281005859375
1750927200510410000,11.100409912109376,-0.22643089294433594,0.03444528579711914,-0.16231626272201538
1750927200529234200,11.119234130859375,-0.3167848587036133,-0.010598421096801758,0.06153583526611328
1750927200548058600,11.13805859375,-0.1814279556274414,0.060161590576171875,0.13448721170425415
1750927200566882800,11.1568828125,-0.09479045867919922,0.07129836082458496,-0.15594249963760376
1750927200585707300,11.175707275390625,0.1927328109741211,0.170912504196167,-0.03823298215866089
1750927200604531500,11.194531494140625,0.1911163330078125,0.03285336494445801,0.29671263694763184
1750927200623356000,11.21335595703125,0.20171165466308594,-0.08276653289794922,0.5372081398963928
1750927200642180000,11.23218017578125,0.13707733154296875,-0.05052328109741211,0.23095780611038208
1750927200661004300,11.25100439453125,0.4234580993652344,0.0969247817993164,-0.11051040887832642
1750927200679828700,11.269828857421874,0.36736106872558594,0.08088397979736328,0.07277923822402954
1750927200698653000,11.28865283203125,0.5445594787597656,0.13269996643066406,0.048506975173950195
1750927200717477400,11.307477294921876,0.8692846298217773,0.26963376998901367,0.03311192989349365
1750927200736301600,11.326301513671876,1.1804447174072266,0.33667445182800293,0.002248406410217285
1750927200755126000,11.3451259765625,1.0364665985107422,0.18463134765625,0.14915025234222412
1750927200773950200,11.3639501953125,0.9218683242797852,-0.013866901397705078,0.019053399562835693
1750927200792774400,11.3827744140625,1.0509471893310547,-0.12483692169189453,-0.24495816230773926
1750927200811598800,11.401598876953125,1.0166616439819336,-0.29145073890686035,-0.32336562871932983
1750927200830423000,11.420423095703125,0.8948373794555664,-0.44515156745910645,-0.3043980002403259
1750927200849247500,11.43924755859375,0.5948705673217773,-0.7493090629577637,-0.03634244203567505
1750927200868071700,11.45807177734375,0.29042816162109375,-0.9176738262176514,-0.19605350494384766
1750927200886896000,11.476896240234375,-0.20034503936767578,-1.1015188694000244,-0.18886607885360718
1750927200905720300,11.49572021484375,-0.3050079345703125,-1.0659105777740479,-0.2656269669532776
1750927200924544500,11.51454443359375,-0.010381698608398438,-1.001220703125,-0.30912089347839355
1750927200943369000,11.533368896484374,0.04913902282714844,-1.0631955862045288,-0.22936755418777466
1750927200962193200,11.552193115234376,-0.4578075408935547,-1.226590633392334,-0.015815258026123047
1750927200981017600,11.571017578125,-0.8667964935302734,-1.1015498638153076,0.19791972637176514
1750927200999841800,11.589841796875,-0.8532333374023438,-0.8371900320053101,0.27748072147369385
1750927201018666200,11.608666259765625,-0.5663051605224609,-0.4710397720336914,0.13037216663360596
1750927201037490400,11.627490478515625,-0.27883338928222656,-0.4569389820098877,-0.11428678035736084
1750927201056314600,11.646314697265625,-0.3890047073364258,-0.3802804946899414,-0.014520645141601562
1750927201075139000,11.66513916015625,-0.4510660171508789,-0.4117598533630371,0.17479443550109863
1750927201093963300,11.68396337890625,-0.5416078567504883,-0.4615013599395752,0.05473935604095459
1750927201112787700,11.70278759765625,-0.6754493713378906,-0.08556175231933594,0.002902984619140625
1750927201131612000,11.72161181640625,-0.8038005828857422,0.0784461498260498,0.2125563621520996
1750927201150436400,11.740436279296874,-0.6151514053344727,0.5032391548156738,0.038973450660705566
1750927201169260500,11.759260498046874,-0.2668800354003906,0.046466827392578125,-0.015683531761169434
1750927201188084700,11.778084716796876,-0.16823768615722656,-0.06994056701660156,0.07485806941986084
1750927201206909200,11.7969091796875,-0.3093118667602539,0.023651599884033203,0.04497110843658447
1750927201225733400,11.8157333984375,-0.5353851318359375,0.24958324432373047,-0.10355210304260254
1750927201244557800,11.834557861328125,-0.8179454803466797,0.589881420135498,-0.030750393867492676
1750927201263382000,11.853382080078125,-0.7560043334960938,0.31055545806884766,0.005835890769958496
1750927201282206200,11.872206298828125,-0.5929384231567383,0.18506383895874023,0.017192721366882324
1750927201301030700,11.89103076171875,-0.8745765686035156,0.23542165756225586,0.0014908313751220703
1750927201319854800,11.909854736328125,-1.1319098472595215,0.35810017585754395,0.24264013767242432
1750927201338679300,11.92867919921875,-1.0913448333740234,0.2666358947753906,0.3607172966003418
1750927201357503500,11.94750341796875,-0.7104864120483398,0.11248612403869629,0.192918062210083
1750927201376328000,11.966327880859374,-0.49056243896484375,0.03353428840637207,0.07219851016998291
1750927201395152100,11.985152099609374,-0.38999366760253906,-0.24329543113708496,0.12198686599731445
1750927201413976300,12.003976318359374,-0.16626834869384766,-0.13862276077270508,-0.16518408060073853
1750927201432800800,12.02280078125,0.49616336822509766,-0.1801738739013672,-0.015361428260803223
1750927201451625000,12.041625,0.41449642181396484,-0.14570772647857666,-0.08244997262954712
1750927201470449400,12.060449462890626,0.2087230682373047,0.02483755350112915,-0.11684644222259521
1750927201489273600,12.079273681640625,0.30647754669189453,-0.08789345622062683,-0.060262978076934814
1750927201508098000,12.09809814453125,0.3437385559082031,-0.041669201105833054,-0.0457686185836792
1750927201526922200,12.116922119140625,0.43397998809814453,-0.04416772723197937,-0.03610634803771973
1750927201545746400,12.135746337890625,0.36472320556640625,0.11877888441085815,-0.2381344437599182
1750927201564571000,12.15457080078125,0.5109329223632812,0.27941882610321045,-0.0820012092590332
1750927201583395000,12.17339501953125,0.049477577209472656,0.014463663101196289,0.03483617305755615
1750927201602219500,12.192219482421875,-0.00995635986328125,-0.024111270904541016,-0.10088706016540527
1750927201621043700,12.211043701171874,0.0782461166381836,-0.024550914764404297,-0.08687686920166016
1750927201639868200,12.2298681640625,0.18325328826904297,0.041527748107910156,-0.01157301664352417
1750927201658692400,12.2486923828125,0.4098997116088867,0.10613560676574707,-0.06236320734024048
1750927201677516500,12.2675166015625,0.051049232482910156,0.058475494384765625,-0.1586834192276001
1750927201696341000,12.286341064453126,0.026020050048828125,-0.014353752136230469,-0.0994756817817688
1750927201715165200,12.305165283203126,-0.000698089599609375,-0.06241297721862793,-0.15243607759475708
1750927201733989600,12.32398974609375,0.2624244689941406,-0.02376842498779297,-0.037130892276763916
1750927201752813800,12.342813720703125,0.5350399017333984,0.11445307731628418,-0.06918811798095703
1750927201771638300,12.36163818359375,0.4703664779663086,0.17506122589111328,-0.04412078857421875
1750927201790462500,12.38046240234375,0.32802867889404297,0.04561138153076172,-0.06603968143463135
1750927201809286700,12.39928662109375,0.15077686309814453,0.0063991546630859375,-0.11793285608291626
1750927201828111000,12.418111083984375,0.32668399810791016,0.014913797378540039,0.014628052711486816
1750927201846935300,12.436935302734375,0.6194648742675781,0.09662342071533203,0.10904353857040405
1750927201865759500,12.455759521484374,0.7954378128051758,0.1987917423248291,0.05750608444213867
1750927201884584000,12.474583984375,0.891387939453125,0.1622943878173828,0.004297077655792236
1750927201903408000,12.493408203125,0.7716464996337891,0.05209684371948242,-0.0029175877571105957
1750927201922232600,12.512232666015626,0.7273101806640625,-0.11456847190856934,-0.012193679809570312
1750927201941056800,12.531056884765626,0.5602960586547852,-0.31436777114868164,0.013306796550750732
1750927201959881200,12.549881103515625,0.3623685836791992,-0.39899325370788574,-0.05932348966598511
1750927201978705400,12.568705322265625,0.27904701232910156,-0.354201078414917,-0.17485541105270386
1750927201997529600,12.587529541015625,0.14739513397216797,-0.46039772033691406,-0.3029281497001648
1750927202016354000,12.60635400390625,-0.1416492462158203,-0.633347749710083,-0.25062060356140137
1750927202035178200,12.62517822265625,-0.2120800018310547,-0.6272495985031128,-0.27940648794174194
1750927202054002700,12.644002685546875,-0.2839231491088867,-0.6007815599441528,-0.07338643074035645
1750927202072827000,12.662826904296875,-0.28590869903564453,-0.5502668619155884,0.027795374393463135
1750927202091651300,12.6816513671875,-0.37662506103515625,-0.7323272824287415,0.16959917545318604
1750927202110475500,12.7004755859375,-0.5557765960693359,-0.7736930847167969,0.26560288667678833
1750927202129299700,12.7192998046875,-0.5847797393798828,-0.5032047629356384,0.26702576875686646
1750927202148124200,12.738124267578126,-0.2641181945800781,-0.09187719225883484,0.011144399642944336
1750927202166948400,12.7569482421875,-0.12988853454589844,-0.06050056219100952,-0.2758408188819885
1750927202185772800,12.775772705078126,-0.047224998474121094,-0.3640241026878357,0.049285173416137695
1750927202204597000,12.794596923828125,-0.16021347045898438,-0.44972383975982666,0.22180724143981934
1750927202223421400,12.81342138671875,-0.4085559844970703,-0.38765907287597656,0.2034595012664795
1750927202242245600,12.83224560546875,-0.32366371154785156,-0.1809988021850586,-0.013439834117889404
1750927202261069800,12.85106982421875,-0.0899810791015625,-0.00799250602722168,-0.12070542573928833
1750927202279894300,12.869894287109375,0.03525352478027344,0.11924910545349121,-0.11965054273605347
1750927202298718500,12.888718505859375,0.11119270324707031,-0.04388618469238281,0.005866646766662598
1750927202317543000,12.90754296875,0.08585262298583984,-0.040261030197143555,0.00825953483581543
1750927202336367000,12.9263671875,0.17957019805908203,0.13312768936157227,-0.15040087699890137
1750927202355191600,12.945191650390624,0.1332225799560547,0.15661907196044922,-0.3376005291938782
1750927202374015700,12.964015625,-0.16290664672851562,0.06376099586486816,-0.2462199330329895
1750927202392840000,12.98283984375,-0.32129573822021484,-0.027542591094970703,-0.06948763132095337
1750927202411664400,13.001664306640626,-0.2161712646484375,0.04544782638549805,0.10305380821228027
1750927202430488600,13.020488525390626,-0.21286296844482422,0.11540770530700684,0.07006609439849854
1750927202449313000,13.03931298828125,-0.2170877456665039,-0.052171945571899414,0.01591777801513672
1750927202468137200,13.05813720703125,-0.2895545959472656,0.0004937648773193359,0.09514141082763672
1750927202486961700,13.076961669921875,-0.51007080078125,-0.04054999351501465,0.10802853107452393
1750927202505785900,13.095785888671875,-0.7155132293701172,-0.08627700805664062,0.2152334451675415
1750927202524610000,13.114610107421875,-1.0569415092468262,0.18015384674072266,0.2155001163482666
1750927202543434500,13.1334345703125,-1.0328483581542969,0.3631565570831299,0.19764137268066406
1750927202562258700,13.1522587890625,-0.8722600936889648,0.1452960968017578,0.14922308921813965
1750927202581083100,13.171083251953124,-0.6974859237670898,0.07100129127502441,0.0756680965423584
1750927202599907300,13.1899072265625,-0.8185958862304688,0.10771989822387695,0.002613067626953125
1750927202618731500,13.2087314453125,-0.905055046081543,0.09145927429199219,0.05568552017211914
1750927202637556000,13.227555908203126,-0.6518125534057617,0.12212824821472168,-0.06694823503494263
1750927202656380200,13.246380126953126,-0.2199726104736328,-0.08916616439819336,-0.14889025688171387
1750927202675204600,13.26520458984375,0.005381584167480469,-0.24826312065124512,-0.03783303499221802
1750927202694028800,13.28402880859375,-0.006188392639160156,-0.21911978721618652,0.02163243293762207
1750927202712853200,13.302853271484375,0.33798885345458984,-0.20798438787460327,0.2989571690559387
1750927202731677400,13.321677490234375,0.4343996047973633,-0.28256499767303467,0.3807935118675232
1750927202750501600,13.340501708984375,0.1805734634399414,-0.2775105834007263,0.3010271191596985
1750927202769326000,13.359326171875,0.039559364318847656,0.05890297889709473,-0.0646371841430664
1750927202788150300,13.378150390625,0.5150299072265625,0.13243436813354492,-0.2846357822418213
1750927202806974700,13.396974609375,0.7801609039306641,0.12191766500473022,-0.43985897302627563
1750927202825799000,13.415798828125,0.5991830825805664,0.13118314743041992,-0.5360004305839539
1750927202844623000,13.434623046875,0.20227432250976562,-0.025525212287902832,-0.4414399266242981
1750927202863447600,13.453447509765626,0.06422996520996094,-0.008512377738952637,-0.23124724626541138
1750927202882271700,13.472271728515626,0.1676034927368164,0.1580030918121338,-0.17776882648468018
1750927202901096200,13.49109619140625,0.31224632263183594,0.2900979518890381,-0.2106243371963501
1750927202919920400,13.50992041015625,0.3736133575439453,0.13362598419189453,0.04673260450363159
1750927202938744800,13.528744873046875,0.2399158477783203,0.14668822288513184,0.1538049578666687
1750927202957569000,13.547569091796875,0.43108463287353516,0.21743321418762207,0.013765394687652588
1750927202976393200,13.566393310546875,0.2081623077392578,0.12025094032287598,0.04152786731719971
1750927202995217700,13.5852177734375,0.12338447570800781,-0.04102802276611328,0.010564267635345459
1750927203014041900,13.604041748046875,-0.034300804138183594,-0.06026148796081543,0.02731943130493164
1750927203032866300,13.6228662109375,0.2276163101196289,0.13504266738891602,0.13167929649353027
1750927203051690500,13.6416904296875,0.5034828186035156,0.2415471076965332,0.18622249364852905
1750927203070515000,13.660514892578124,0.6319723129272461,0.27523350715637207,0.16125047206878662
1750927203089339100,13.679339111328124,0.7274055480957031,0.3444356918334961,-0.07260507345199585
1750927203108163300,13.698163330078126,0.6657085418701172,0.2658970355987549,-0.01801389455795288
1750927203126987800,13.71698779296875,0.520472526550293,0.10318303108215332,-0.015051841735839844
1750927203145812000,13.73581201171875,0.3950777053833008,-0.16872620582580566,0.0757555365562439
1750927203164636400,13.754636474609375,0.46449851989746094,-0.05154538154602051,0.06265020370483398
1750927203183460600,13.773460693359375,0.7120866775512695,0.05000019073486328,0.033061861991882324
1750927203202284800,13.792284912109375,0.5016689300537109,-0.2675192356109619,0.03607267141342163
1750927203221109200,13.811109130859375,0.1843404769897461,-0.6967215538024902,-0.1199488639831543
1750927203239933400,13.829933349609375,-0.2201690673828125,-0.8592923879623413,-0.30998164415359497
1750927203258758000,13.8487578125,-0.22241878509521484,-0.6998013257980347,-0.3432503342628479
1750927203277582000,13.86758203125,-0.30762672424316406,-0.6216682195663452,-0.1403418779373169
1750927203296406500,13.886406494140624,-0.3569297790527344,-0.6847730875015259,0.10468894243240356
1750927203315230700,13.905230712890624,-0.42945098876953125,-0.7163054347038269,0.2325921654701233
1750927203334055000,13.924054931640624,-0.4396543502807617,-0.5157871842384338,0.016111791133880615
1750927203352879400,13.94287939453125,-0.3206815719604492,-0.23555231094360352,-0.056281447410583496
1750927203371703600,13.96170361328125,0.16541481018066406,-0.21474628150463104,-0.008194029331207275
1750927203390528000,13.980528076171876,0.5464200973510742,-0.3480437695980072,0.03390204906463623
1750927203409352200,13.999352294921875,0.1894855499267578,-0.6360670328140259,0.0501629114151001
1750927203428176600,14.0181767578125,0.18204975128173828,-0.6364794969558716,0.24964827299118042
1750927203447000800,14.037000732421875,-0.11644363403320312,-0.358967661857605,-0.019964635372161865
1750927203465825000,14.055824951171875,-0.1456451416015625,-0.2546912431716919,-0.28475892543792725
1750927203484649500,14.0746494140625,-0.24187088012695312,-0.46614599227905273,-0.17540067434310913
1750927203503473700,14.0934736328125,-0.5550661087036133,-0.3557584285736084,-0.0849657654762268
1750927203522298000,14.112298095703125,-0.3964042663574219,0.06113100051879883,-0.09839481115341187
1750927203541122300,14.131122314453124,-0.06927871704101562,0.1672978401184082,-0.1894742250442505
1750927203559946500,14.149946533203124,0.3618621826171875,-0.19674348831176758,-0.16540664434432983
1750927203578771000,14.16877099609375,0.12282085418701172,-0.3788309097290039,0.14806699752807617
1750927203597595100,14.18759521484375,-0.153289794921875,-0.15504717826843262,0.3365974426269531
1750927203616419600,14.206419677734376,-0.29546356201171875,0.047514915466308594,0.23017948865890503
1750927203635243800,14.225243896484375,-0.1343374252319336,0.19379520416259766,-0.11246746778488159
1750927203654068200,14.244068115234375,-0.016716957092285156,0.019101619720458984,-0.20852845907211304
1750927203672892400,14.262892333984375,0.13510417938232422,-0.14066171646118164,-0.1382189393043518
1750927203691716600,14.281716552734375,-0.045200347900390625,-0.12495136260986328,0.018485188484191895
1750927203710541000,14.300541015625,-0.3253183364868164,0.009509563446044922,0.13740324974060059
1750927203729365200,14.319365234375,-0.5785760879516602,0.09610939025878906,0.06297791004180908
1750927203748189700,14.338189697265625,-0.5398406982421875,0.23038339614868164,-0.24679625034332275
1750927203767014000,14.357013916015624,-0.5718975067138672,0.2224283218383789,-0.21783703565597534
1750927203785838000,14.375838134765624,-1.002110481262207,0.15181684494018555,-0.09994381666183472
1750927203804662500,14.39466259765625,-1.4089679718017578,0.42384767532348633,0.3160668611526489
1750927203823486700,14.41348681640625,-1.4181180000305176,0.45662403106689453,0.3976176977157593
1750927203842311200,14.432311279296876,-1.0977420806884766,0.2425990104675293,0.13925504684448242
1750927203861135400,14.45113525390625,-1.074991226196289,0.05879688262939453,0.1567155122756958
1750927203879959800,14.469959716796875,-0.9589071273803711,-0.0819692611694336,0.25728344917297363
1750927203898784000,14.488783935546875,-0.5726194381713867,-0.3180735111236572,0.34366297721862793
1750927203917608200,14.507608154296875,-0.1176004409790039,-0.2894585132598877,0.08208084106445312
1750927203936432600,14.5264326171875,0.7688846588134766,-0.22916674613952637,-0.002093493938446045
1750927203955256800,14.5452568359375,-0.2848854064941406,-0.178908109664917,-0.4435843825340271
1750927203974081300,14.564081298828125,0.1938772201538086,-0.2326068878173828,-0.014616608619689941
1750927203992905500,14.582905517578125,-0.14806079864501953,-0.13576006889343262,0.11249381303787231
1750927204011729700,14.601729736328124,0.10059070587158203,-0.04386913776397705,0.10237151384353638
1750927204030554000,14.62055419921875,0.39870166778564453,0.010534152388572693,-0.07016301155090332
1750927204049378300,14.63937841796875,0.19998836517333984,-0.01779194176197052,-0.29055917263031006
1750927204068202800,14.65820263671875,0.09155464172363281,-0.11350321769714355,-0.2223246693611145
1750927204087027000,14.67702685546875,0.053780555725097656,-0.06728506088256836,-0.014842748641967773
1750927204105851400,14.695851318359376,0.508000373840332,0.10886943340301514,-0.0071089863777160645
1750927204124675600,14.714675537109375,0.6270780563354492,0.14753377437591553,-0.11131376028060913
1750927204143499800,14.733499755859375,0.6241579055786133,0.14383959770202637,-0.10185778141021729
1750927204162324200,14.75232421875,0.2651491165161133,0.04090142250061035,-0.159518301486969
1750927204181148400,14.7711484375,0.2203359603881836,0.016394615173339844,-0.05272328853607178
1750927204199972900,14.789972900390625,0.41175365447998047,0.1115570068359375,-0.13165396451950073
1750927204218797000,14.808797119140625,0.5180015563964844,0.18664908409118652,-0.07196742296218872
1750927204237621500,14.82762158203125,0.5038175582885742,0.16597867012023926,-0.14823156595230103
1750927204256445700,14.84644580078125,0.4178915023803711,0.20813536643981934,-0.04851818084716797
1750927204275270000,14.865269775390624,0.693572998046875,0.13312244415283203,0.07540035247802734
1750927204294094300,14.88409423828125,0.5086345672607422,-0.01736140251159668,-0.011953949928283691
1750927204312918500,14.90291845703125,0.6323738098144531,0.1256546974182129,-0.043238937854766846
1750927204331743000,14.921742919921876,0.9696922302246094,0.3019423484802246,0.015200495719909668
1750927204350567200,14.940567138671875,0.9822769165039062,0.23485445976257324,0.1373124122619629
1750927204369391400,14.959391357421875,0.8144702911376953,0.12531328201293945,0.040200769901275635
1750927204388215800,14.9782158203125,0.6139011383056641,-0.12898755073547363,0.12184017896652222
1750927204407040000,14.9970400390625,0.5351400375366211,-0.2738807201385498,0.00407034158706665
1750927204425864400,15.015864501953125,0.38776111602783203,-0.3966858386993408,-0.14454114437103271
1750927204444688600,15.034688720703125,0.10871028900146484,-0.537571907043457,-0.08107465505599976
1750927204463513000,15.05351318359375,-0.05621623992919922,-0.6740226745605469,-0.05027163028717041
1750927204482337300,15.072337158203124,-0.2705097198486328,-0.7171648740768433,-0.10624253749847412
1750927204501161500,15.091161376953124,-0.1129312515258789,-0.5922356843948364,-0.19168072938919067
1750927204519986000,15.10998583984375,-0.09700298309326172,-0.5767620801925659,-0.2128085494041443
1750927204538810000,15.12881005859375,-0.3119649887084961,-0.7318391799926758,-0.03891181945800781
1750927204557634600,15.147634521484376,-0.5747003555297852,-0.7801833748817444,0.1468038558959961
1750927204576458800,15.166458740234376,-0.3378114700317383,-0.7897659540176392,0.2111559510231018
1750927204595283000,15.185282958984375,-0.3500556945800781,-0.5489399433135986,-0.02980262041091919
1750927204614107400,15.204107421875,-0.24019813537597656,-0.47583383321762085,0.03978079557418823
1750927204632931600,15.222931640625,-0.41113758087158203,-0.42294907569885254,0.16179102659225464
1750927204651756000,15.241756103515625,-0.36953258514404297,-0.3455047607421875,-0.04485213756561279
1750927204670580200,15.260580322265625,-0.4098653793334961,-0.39007568359375,0.27657759189605713
1750927204689404700,15.27940478515625,-0.1070852279663086,-0.16334128379821777,0.30173367261886597
1750927204708228900,15.298228759765625,-0.036696434020996094,0.02449941635131836,0.11180877685546875
1750927204727053000,15.317052978515624,0.08982658386230469,-0.01507425308227539,-0.17224669456481934
1750927204745877500,15.33587744140625,0.24501800537109375,-0.0636909008026123,-0.21435129642486572
1750927204764701700,15.35470166015625,0.0009241104125976562,-0.14922261238098145,-0.1371573805809021
1750927204783526100,15.373526123046876,-0.12230396270751953,-0.013180732727050781,-0.0959550142288208
1750927204802350300,15.392350341796876,0.0013580322265625,-0.0505368709564209,-0.10052371025085449
1750927204821174800,15.4111748046875,0.04416465759277344,0.016172409057617188,-0.17709386348724365
1750927204839999000,15.4299990234375,-0.06326675415039062,0.03260231018066406,-0.11181801557540894
1750927204858823200,15.4488232421875,-0.1574726104736328,-0.1752176284790039,0.07042860984802246
1750927204877647600,15.467647705078125,-0.43088626861572266,-0.18230628967285156,0.14910799264907837
1750927204896471800,15.486471923828125,-0.6526813507080078,0.035742759704589844,0.20477592945098877
1750927204915296300,15.505296142578125,-0.9625248908996582,0.1667771339416504,0.5007009506225586
1750927204934120400,15.524120361328125,-1.294745922088623,0.5158123970031738,0.19119030237197876
1750927204952944600,15.542944580078125,-1.124967098236084,0.37612056732177734,-0.12491345405578613
1750927204971769000,15.56176904296875,-0.9166436195373535,0.15488433837890625,-0.14642786979675293
1750927204990593300,15.58059326171875,-0.8485279083251953,0.29978418350219727,0.09485256671905518
1750927205009417700,15.599417724609374,-0.9366426467895508,0.3006420135498047,0.38005346059799194
1750927205028242000,15.618241943359376,-0.843266487121582,0.16121649742126465,0.32636189460754395
1750927205047066400,15.63706640625,-0.09612274169921875,-0.11618399620056152,-0.10734045505523682
1750927205065890600,15.655890625,0.3447122573852539,-0.21187639236450195,-0.34945225715637207
1750927205084714800,15.67471484375,0.18714427947998047,-0.008719921112060547,-0.5446134209632874
1750927205103539200,15.693539306640625,0.03143119812011719,0.07988691329956055,-0.08805298805236816
1750927205122363400,15.71236328125,0.0046634674072265625,0.1398371458053589,-0.09923288226127625
1750927205141187800,15.731187744140625,0.23492813110351562,-0.02659010887145996,-0.21234412491321564
1750927205160012000,15.750011962890625,0.42229652404785156,-0.09012937545776367,-0.12293234467506409
1750927205178836200,15.768836181640625,0.22262287139892578,-0.1734822392463684,0.05897590517997742
1750927205197660700,15.78766064453125,0.1962881088256836,0.004456654191017151,0.2888009250164032
1750927205216484900,15.80648486328125,0.07140731811523438,-0.0687616765499115,0.06574112176895142
1750927205235309300,15.825309326171874,-0.023382186889648438,0.13376116752624512,-0.11619195342063904
1750927205254133500,15.844133544921876,-0.2007131576538086,0.08050084114074707,-0.31647124886512756
1750927205272958000,15.8629580078125,0.13156509399414062,-0.076019287109375,-0.23620274662971497
1750927205291782100,15.8817822265625,-0.0845651626586914,-0.09830105304718018,-0.1389891356229782
1750927205310606300,15.9006064453125,-0.10231494903564453,-0.1576220989227295,0.10410115122795105
1750927205329430800,15.9194306640625,-0.0008335113525390625,-0.09706354141235352,0.07968947291374207
1750927205348255000,15.9382548828125,0.230316162109375,0.09744882583618164,0.019380956888198853
1750927205367079400,15.957079345703125,0.3173952102661133,0.1586003303527832,0.16650119423866272
1750927205385903600,15.975903564453125,0.35733604431152344,-0.01952838897705078,0.44054022431373596
1750927205404728000,15.99472802734375,0.6658821105957031,0.1674480438232422,-0.018069177865982056
1750927205423552300,16.01355224609375,0.7842807769775391,0.34360694885253906,-0.37318745255470276
1750927205442376400,16.03237646484375,0.9564905166625977,0.0526423454284668,0.1361948847770691
1750927205461201000,16.051200927734374,0.7690601348876953,0.12654781341552734,0.04405248165130615
1750927205480025000,16.070025146484376,0.7835626602172852,0.012481212615966797,0.06962750852108002
1750927205498849500,16.088849609375,0.6035699844360352,0.2175149917602539,-0.10727512836456299
1750927205517673700,16.107673828125,0.5863466262817383,0.6096889972686768,-0.28474581241607666
1750927205536498000,16.126497802734374,0.790989875793457,0.46015048027038574,-0.3414037227630615
1750927205555322400,16.145322265625,0.9626646041870117,0.0039653778076171875,-0.20945042371749878
1750927205574146600,16.164146484375,0.49118518829345703,-0.19684720039367676,-0.03417554497718811
1750927205592971000,16.182970947265623,0.35396385192871094,-0.2368156909942627,0.12269517779350281
1750927205611795200,16.201795166015625,0.16418743133544922,-0.6721258163452148,-0.05835337936878204
1750927205630619600,16.22061962890625,0.11477375030517578,-0.7338509559631348,-0.01525464653968811
1750927205649443800,16.23944384765625,0.22878360748291016,-0.5768383741378784,-0.04145151376724243
1750927205668268000,16.25826806640625,-0.30745410919189453,-0.7967387437820435,-0.28369587659835815
1750927205687092500,16.277092529296876,-0.3902711868286133,-0.5952110290527344,-0.16905881464481354
1750927205705916700,16.295916748046874,-0.0004024505615234375,-0.681911051273346,0.09274491667747498
1750927205724741000,16.3147412109375,-0.2268390655517578,-0.9212218523025513,0.109866201877594
1750927205743565300,16.3335654296875,-0.7072629928588867,-0.8336868286132812,0.04776036739349365
1750927205762389800,16.3523896484375,-1.2049007415771484,-0.7267146110534668,0.10319507122039795
1750927205781214000,16.3712138671875,-0.9919548034667969,-0.002907276153564453,0.1879788637161255
1750927205800038100,16.3900380859375,-0.19895172119140625,-0.08329606056213379,0.19530260562896729
1750927205818862600,16.408862548828125,0.46929454803466797,-0.23832225799560547,0.14153778553009033
1750927205837686800,16.427686767578123,0.6662693023681641,-0.4333643913269043,0.07856577634811401
1750927205856511200,16.44651123046875,0.559473991394043,-0.4123196601867676,-0.09152370691299438
1750927205875335400,16.46533544921875,0.6192693710327148,-0.18845140933990479,-0.5274507999420166
1750927205894159600,16.48415966796875,0.5117530822753906,-0.09917187690734863,-0.6740021109580994
1750927205912984000,16.502984130859375,0.2232666015625,-0.10900354385375977,-0.6467238068580627
1750927205931808300,16.521808349609376,-0.053078651428222656,-0.12569618225097656,-0.11441832780838013
1750927205950632700,16.5406328125,-0.22324848175048828,-0.13560032844543457,0.10663169622421265
1750927205969457000,16.559456787109376,0.04127216339111328,-0.16068267822265625,-0.05083423852920532
1750927205988281300,16.57828125,0.0016756057739257812,-0.18133997917175293,-0.07413458824157715
1750927206007105500,16.59710546875,-0.5875959396362305,0.01720285415649414,0.05969119071960449
1750927206025929700,16.6159296875,-1.1714000701904297,0.17101716995239258,0.0972738265991211
1750927206044754200,16.634754150390624,-1.3936748504638672,0.4602975845336914,0.23324644565582275
1750927206063578400,16.653578369140625,-1.0716524124145508,0.3126859664916992,0.4309927225112915
1750927206082402800,16.67240283203125,-1.066688060760498,-0.015969276428222656,0.5226187705993652
1750927206101227000,16.69122705078125,-1.1734395027160645,0.12849664688110352,0.34652984142303467
1750927206120051200,16.71005126953125,-1.2151436805725098,0.30387020111083984,0.01487720012664795
1750927206138875600,16.728875732421876,-0.9403152465820312,0.17432904243469238,-0.09343594312667847
1750927206157699800,16.747699951171874,-0.4890756607055664,0.0075130462646484375,0.16016238927841187
1750927206176524300,16.766524169921876,-0.0635538101196289,-0.010556697845458984,0.2971656918525696
1750927206195348500,16.785348388671874,-0.11878013610839844,0.16348743438720703,-0.09469664096832275
1750927206214173000,16.8041728515625,-0.045806884765625,-0.07126426696777344,-0.39945536851882935
1750927206232997000,16.8229970703125,0.47979259490966797,-0.34982824325561523,-0.12197762727737427
1750927206251821300,16.8418212890625,-0.09273052215576172,-0.1772148609161377,-0.34554916620254517
1750927206270645800,16.860645751953125,0.0815572738647461,-0.08204793930053711,-0.04317331314086914
1750927206289470000,16.879469970703123,-0.021778106689453125,-0.15910035371780396,0.2009791135787964
1750927206308294400,16.89829443359375,-0.10052967071533203,-0.19088983535766602,0.11522281169891357
1750927206327118600,16.91711865234375,-0.0822000503540039,-0.16848206520080566,0.15096640586853027
1750927206345942800,16.93594287109375,0.10878372192382812,-0.062120795249938965,0.15796196460723877
1750927206364767200,16.954767333984375,0.23566627502441406,0.02557617425918579,0.005048096179962158
1750927206383591400,16.97359130859375,0.1311807632446289,0.027803003787994385,-0.08294230699539185
1750927206402415900,16.992415771484374,-0.02198505401611328,-0.05921614170074463,-0.17983126640319824
1750927206421240000,17.011239990234376,0.20997238159179688,0.14153850078582764,-0.18006551265716553
1750927206440064500,17.030064453125,0.2979574203491211,0.2047208547592163,-0.16206568479537964
1750927206458888700,17.048888671875,0.46903419494628906,0.051915645599365234,0.0069841742515563965
1750927206477713000,17.067712890625,0.4198150634765625,0.038964271545410156,0.12650471925735474
1750927206496537300,17.086537353515624,0.15491867065429688,0.019916057586669922,0.042533159255981445
1750927206515361500,17.105361572265625,-0.18275070190429688,-0.27000856399536133,-0.06646871566772461
1750927206534186000,17.12418603515625,0.06319904327392578,-0.1641247272491455,-0.2019636034965515
1750927206553010200,17.14301025390625,0.7680015563964844,0.1184382438659668,-0.45110857486724854
1750927206571834600,17.161834716796875,0.7220582962036133,0.18485116958618164,-0.38152575492858887
1750927206590658800,17.180658935546877,0.3253774642944336,0.06421184539794922,-0.15255457162857056
1750927206609483000,17.19948291015625,0.2692689895629883,0.08336257934570312,0.40306663513183594
1750927206628307500,17.218307373046876,0.6245241165161133,0.21183276176452637,0.4482043981552124
1750927206647131600,17.237131591796874,1.0815401077270508,0.4513106346130371,0.12994855642318726
1750927206665956000,17.2559560546875,1.162308692932129,0.2996077537536621,0.11789309978485107
1750927206684780300,17.2747802734375,1.0509109497070312,0.13785862922668457,-0.06022542715072632
1750927206703604700,17.293604736328124,0.6926689147949219,-0.19265222549438477,-0.22144877910614014
1750927206722429000,17.312428955078126,0.4478464126586914,-0.19594049453735352,-0.3965758681297302
1750927206741253000,17.331253173828124,0.16727352142333984,-0.22733640670776367,-0.25642281770706177
1750927206760077600,17.35007763671875,0.1350841522216797,-0.3405158519744873,0.05790334939956665
1750927206778901800,17.36890185546875,-0.09244728088378906,-0.4902017116546631,0.17342644929885864
1750927206797726200,17.387726318359373,-0.514185905456543,-0.656543493270874,0.18746113777160645
1750927206816550400,17.40655029296875,-0.7708282470703125,-0.5712454319000244,0.009223699569702148
1750927206835374600,17.42537451171875,-0.6040124893188477,-0.5288006067276001,-0.2887263894081116
1750927206854199000,17.444198974609375,-0.31502246856689453,-0.36457502841949463,-0.2568434476852417
1750927206873023200,17.463023193359376,-0.1314096450805664,-0.3687096834182739,-0.0052433013916015625
1750927206891847700,17.48184765625,-0.021164894104003906,-0.52773118019104,0.23212206363677979
1750927206910672000,17.500671875,0.050482749938964844,-0.5899834632873535,0.307609498500824
1750927206929496000,17.51949609375,-0.08452606201171875,-0.40519046783447266,0.163519024848938
1750927206948320500,17.538320556640624,-0.4911842346191406,-0.39513853192329407,0.11738544702529907
1750927206967144700,17.557144775390626,-0.6293926239013672,-0.47234073281288147,0.14015978574752808
1750927206985969200,17.57596923828125,0.10118865966796875,-0.4800809621810913,0.01984858512878418
1750927207004793300,17.59479345703125,0.3481149673461914,-0.42549484968185425,-0.11882352828979492
1750927207023617800,17.61361767578125,0.5793972015380859,-0.35736143589019775,-0.31916236877441406
1750927207042442000,17.63244189453125,0.5592060089111328,-0.4275944232940674,-0.17767709493637085
1750927207061266200,17.65126611328125,0.2896089553833008,-0.24260997772216797,-0.22993123531341553
1750927207080090600,17.670090576171877,0.1475353240966797,-0.06981945037841797,-0.2139415144920349
1750927207098914800,17.688914794921875,0.07705879211425781,-0.14425945281982422,-0.29845893383026123
1750927207117739300,17.7077392578125,0.08144187927246094,-0.14213204383850098,-0.3174402713775635
1750927207136563500,17.7265634765625,0.3123607635498047,-0.2556476593017578,-0.275333046913147
1750927207155388000,17.745387939453124,-0.044406890869140625,-0.22603750228881836,-0.22238200902938843
1750927207174212000,17.764212158203126,-0.45711612701416016,0.10971236228942871,-0.18513399362564087
1750927207193036300,17.783036376953124,-0.4864501953125,0.23791122436523438,0.03964024782180786
1750927207211860500,17.801860595703126,-0.2962169647216797,-0.1255021095275879,0.2322828769683838
1750927207230685000,17.820684814453124,-0.3412933349609375,-0.32417774200439453,0.24917954206466675
1750927207249509000,17.839509033203125,-0.3856468200683594,-0.17982149124145508,0.3112030625343323
1750927207268333600,17.85833349609375,-0.32003307342529297,0.18242406845092773,0.16701531410217285
1750927207287157800,17.87715771484375,-0.8647489547729492,0.32117795944213867,-0.002543628215789795
1750927207305982000,17.89598193359375,-1.4341850280761719,0.2833552360534668,0.28668278455734253
1750927207324806400,17.914806396484376,-1.6824426651000977,0.3048367500305176,0.46949946880340576
1750927207343630600,17.933630615234375,-1.5897140502929688,0.2815895080566406,0.3856552839279175
1750927207362455000,17.952455078125,-1.4679088592529297,0.18278741836547852,0.3670320510864258
1750927207381279200,17.971279296875,-1.3347458839416504,0.08850622177124023,0.40186572074890137
1750927207400103400,17.990103515625,-1.1514711380004883,-0.018636226654052734,0.30089378356933594
1750927207418927900,18.008927978515626,-0.3552408218383789,0.05333304405212402,-0.22200262546539307
1750927207437752000,18.027751953125,0.7615146636962891,-0.166168212890625,-0.5840705037117004
1750927207456576500,18.046576416015625,0.4339942932128906,-0.9033752679824829,-0.30335551500320435
1750927207475400700,18.065400634765624,0.25415515899658203,-0.13663864135742188,-0.04148155450820923
1750927207494225000,18.084224853515625,0.35373687744140625,0.08264482021331787,-0.29468071460723877
1750927207513049300,18.10304931640625,0.3135528564453125,-0.10866928100585938,-0.40155792236328125
1750927207531873500,18.12187353515625,0.10439395904541016,-0.192714124917984,-0.3380526304244995
1750927207550698000,18.140697998046875,0.05179595947265625,-0.309227854013443,-0.11225825548171997
1750927207569522200,18.159522216796876,0.4397916793823242,-0.3377050757408142,0.23709046840667725
1750927207588346600,18.1783466796875,0.6866664886474609,-0.01101064682006836,0.1547357439994812
1750927207607170800,18.1971708984375,0.6412382125854492,0.14561891555786133,0.1305142045021057
1750927207625995000,18.2159951171875,0.02545928955078125,0.26884138584136963,-0.09313470125198364
1750927207644819500,18.2348193359375,0.2041463851928711,0.14201641082763672,-0.14240175485610962
1750927207663643600,18.2536435546875,0.005228996276855469,0.062307119369506836,-0.008574366569519043
1750927207682468000,18.272468017578124,-0.12341690063476562,0.2741973400115967,0.14130419492721558
1750927207701292300,18.291292236328125,0.1836090087890625,0.3832058906555176,0.1489790678024292
1750927207720116500,18.310116455078123,0.38156700134277344,0.14735126495361328,0.003928065299987793
1750927207738941000,18.32894091796875,0.2632102966308594,-0.0862891674041748,-0.005021870136260986
1750927207757765000,18.34776513671875,-0.044768333435058594,-0.21274209022521973,-0.08053642511367798
1750927207776589600,18.366589599609377,0.2113018035888672,0.04592537879943848,-0.17068123817443848
1750927207795413800,18.385413818359375,0.4451160430908203,0.25281357765197754,-0.013351917266845703
1750927207814238200,18.40423828125,0.5982494354248047,0.33547401428222656,0.22028154134750366
1750927207833062400,18.4230625,0.7533445358276367,0.26739072799682617,0.26118993759155273
1750927207851886600,18.441886474609376,0.8516111373901367,0.15424156188964844,-0.01966780424118042
1750927207870711000,18.4607109375,0.8512325286865234,0.0324549674987793,-0.029234886169433594
1750927207889535200,18.47953515625,0.8090438842773438,-0.014698982238769531,-0.2896324396133423
1750927207908359700,18.498359619140626,0.5439596176147461,-0.10908794403076172,-0.32243990898132324
1750927207927184000,18.517183837890624,0.6163082122802734,-0.14700865745544434,-0.02646183967590332
1750927207946008300,18.53600830078125,0.5894985198974609,-0.1944577693939209,0.09037798643112183
1750927207964832500,18.55483251953125,0.29688549041748047,-0.2937619686126709,0.009065091609954834
1750927207983656700,18.57365673828125,0.038840293884277344,-0.5048134326934814,-0.12273532152175903
1750927208002481200,18.592481201171875,-0.15618133544921875,-0.5663533210754395,-0.18813270330429077
1750927208021305300,18.611305419921877,-0.05007648468017578,-0.32627224922180176,-0.2532612085342407
1750927208040129500,18.630129638671875,0.03563117980957031,-0.47860026359558105,-0.24616295099258423
1750927208058954000,18.6489541015625,-0.13094806671142578,-0.6753753423690796,-0.20809751749038696
1750927208077778200,18.667778076171874,-0.24527549743652344,-0.8247019052505493,0.05019485950469971
1750927208096602600,18.6866025390625,-0.12622642517089844,-0.7863805294036865,0.33615028858184814
1750927208115426800,18.7054267578125,-0.12623882293701172,-0.5764180421829224,0.16454041004180908
1750927208134251300,18.724251220703124,-0.3720560073852539,-0.43584829568862915,-0.1577731966972351
1750927208153075500,18.743075439453126,-0.6172189712524414,-0.45787787437438965,-0.09516119956970215
1750927208171899600,18.761899658203124,-0.29750633239746094,-0.44428467750549316,0.062402188777923584
1750927208190724000,18.78072412109375,0.4403524398803711,-0.34460359811782837,0.0002818107604980469
1750927208209548300,18.79954833984375,-0.27488136291503906,-0.5356746912002563,-0.04547321796417236
1750927208228372700,18.818372802734373,0.14095592498779297,-0.48351383209228516,0.10408127307891846
1750927208247197000,18.837197021484375,0.07701969146728516,-0.5261942148208618,-0.14421993494033813
1750927208266021400,18.856021484375,-0.15252304077148438,-0.3930032253265381,-0.13749706745147705
1750927208284845600,18.874845458984375,-0.44124794006347656,-0.00037550926208496094,-0.09489762783050537
1750927208303669800,18.893669677734376,-0.2541217803955078,0.05466127395629883,-0.004498600959777832
1750927208322494200,18.912494140625,0.2983570098876953,-0.2173328399658203,0.06893724203109741
1750927208341318400,18.931318359375,0.37704944610595703,-0.22544527053833008,-0.026534676551818848
1750927208360142800,18.950142822265626,0.2493457794189453,-0.21113824844360352,-0.09955108165740967
1750927208378967000,18.968967041015624,-0.12662506103515625,0.0371241569519043,-0.11500102281570435
1750927208397791200,18.987791259765626,-0.20012569427490234,0.26113224029541016,-0.16907018423080444
1750927208416615700,19.00661572265625,-0.1854257583618164,0.0627894401550293,0.0876617431640625
1750927208435439900,19.02543994140625,-0.014835357666015625,-0.07986688613891602,0.08879649639129639
1750927208454264300,19.044264404296875,0.07700061798095703,-0.18282270431518555,-0.08318769931793213
1750927208473088500,19.063088623046873,-0.21899890899658203,-0.10122394561767578,-0.005386233329772949
1750927208491912700,19.08191259765625,-0.872401237487793,0.0548396110534668,0.1566612720489502
1750927208510737200,19.100737060546876,-1.315554141998291,0.4537687301635742,0.1920030117034912
1750927208529561300,19.119561279296875,-1.5567975044250488,0.6233954429626465,0.1450362205505371
1750927208548385800,19.1383857421875,-1.459726333618164,0.3507657051086426,0.3133254051208496
1750927208567210000,19.1572099609375,-1.2151398658752441,0.16823434829711914,0.34395313262939453
1750927208586034400,19.176034423828124,-1.1146917343139648,0.04990100860595703,0.3833906054496765
1750927208604858600,19.194858642578126,-0.7540512084960938,0.1892247200012207,0.3285878300666809
1750927208623682800,19.213682861328124,-0.25226306915283203,0.15441203117370605,0.1333499550819397
1750927208642507300,19.23250732421875,-0.041907310485839844,-0.04381704330444336,-0.07373052835464478
1750927208661331500,19.25133154296875,-0.1612081527709961,-0.19626069068908691,-0.19317328929901123
1750927208680156000,19.270156005859373,0.28245067596435547,-0.32385706901550293,0.047535479068756104
1750927208698980000,19.28897998046875,0.15915966033935547,-0.16677546501159668,-0.188335120677948
1750927208717804300,19.30780419921875,0.2367258071899414,0.07902133464813232,-0.2633020281791687
1750927208736628700,19.326628662109375,-0.08025264739990234,-0.0519176721572876,-0.27787089347839355
1750927208755453000,19.345452880859376,0.15939044952392578,-0.0581626296043396,-0.278984010219574
1750927208774277400,19.36427734375,0.2340402603149414,-0.1664591133594513,-0.19904077053070068
1750927208793101600,19.3831015625,-0.017670631408691406,-0.15541291236877441,-0.11401951313018799
1750927208821338000,19.411338134765625,0.14554214477539062,-0.043027520179748535,0.07073557376861572
1750927208840162300,19.430162353515627,0.1785440444946289,0.19323837757110596,0.08189809322357178
1750927208858986800,19.44898681640625,0.24416637420654297,0.07843852043151855,0.15596896409988403
1750927208877811000,19.46781103515625,-0.26195621490478516,0.07959914207458496,0.10430622100830078
1750927208896635100,19.48663525390625,-0.4854927062988281,-0.1609898805618286,0.13492578268051147
1750927208915459600,19.50545947265625,-0.13268756866455078,-0.3030543327331543,0.13261795043945312
1750927208934283800,19.52428369140625,0.45974063873291016,0.08668851852416992,0.0721781849861145
1750927208953108200,19.543108154296874,0.5131673812866211,0.382610559463501,-0.02922677993774414
1750927208971932400,19.561932373046876,0.4018220901489258,0.05345654487609863,-0.08594006299972534
1750927208990756900,19.5807568359375,0.07441139221191406,-0.12021183967590332,-0.3445861339569092
1750927209009581000,19.5995810546875,0.2868795394897461,-0.15306735038757324,-0.29347360134124756
1750927209028405200,19.6184052734375,0.6171188354492188,0.050211191177368164,-0.16189438104629517
1750927209047229700,19.637229736328123,1.0653162002563477,0.34879040718078613,-0.16969233751296997
1750927209066054000,19.656053955078125,1.1540203094482422,0.4718282222747803,-0.1585734486579895
1750927209084878000,19.674878173828127,0.7932119369506836,0.17202520370483398,0.04458361864089966
1750927209103702500,19.69370263671875,0.32227134704589844,-0.05298042297363281,-0.19919466972351074
1750927209122526700,19.712526611328126,0.49210166931152344,-0.13588857650756836,-0.3365901708602905
1750927209141351200,19.73135107421875,0.4618072509765625,-0.018666744232177734,-0.06518423557281494
1750927209160175400,19.75017529296875,0.5981760025024414,0.050435543060302734,0.18702024221420288
1750927209178999800,19.768999755859376,0.6922712326049805,-0.05029582977294922,0.3149959444999695
1750927209197824000,19.787823974609374,0.7416868209838867,-0.10650467872619629,0.169600248336792
1750927209216648200,19.806648193359376,0.5213108062744141,-0.3430600166320801,-0.0008940696716308594
1750927209235472600,19.82547265625,0.10921382904052734,-0.7587580680847168,-0.24396568536758423
1750927209254296800,19.844296875,-0.3669414520263672,-0.7510390281677246,-0.29059767723083496
1750927209273121300,19.863121337890625,-0.26210880279541016,-0.562525749206543,-0.10710370540618896
1750927209291945500,19.881945556640623,0.12045764923095703,-0.48244571685791016,0.2777184247970581
1750927209310770000,19.90077001953125,0.29544734954833984,-0.6156668663024902,0.3138679265975952
1750927209329594000,19.919593994140627,0.0959625244140625,-0.8309465646743774,0.12264764308929443
1750927209348418300,19.938418212890625,-0.2191934585571289,-0.7427384853363037,-0.48372364044189453
1750927209367242800,19.95724267578125,-0.39957523345947266,-0.4985770583152771,-0.6553775072097778
1750927209386067000,19.97606689453125,-0.33184814453125,-0.6249467134475708,-0.2811357378959656
1750927209404891400,19.994891357421874,-0.1913766860961914,-0.743159294128418,0.11372774839401245
1750927209423715600,20.013715576171876,-0.10251235961914062,-0.7588834166526794,0.11033141613006592
1750927209442539800,20.032539794921874,-0.16488170623779297,-0.6587477922439575,0.21521824598312378
1750927209461364200,20.0513642578125,-0.4196815490722656,-0.4813101291656494,0.0790414810180664
1750927209480188400,20.0701884765625,-0.3753395080566406,-0.25761449337005615,-0.12729942798614502
1750927209499012900,20.089012939453124,-0.082122802734375,-0.22752046585083008,-0.07476150989532471
1750927209517837000,20.107837158203125,0.15191268920898438,-0.3195064067840576,0.0796135663986206
1750927209536661200,20.1266611328125,0.11959457397460938,-0.42389631271362305,0.005359768867492676
1750927209555485700,20.145485595703125,-0.10515117645263672,-0.20863819122314453,-0.11826103925704956
1750927209574310000,20.164309814453127,-0.3426017761230469,0.23299932479858398,-0.1902192234992981
1750927209593134300,20.18313427734375,-0.22734355926513672,0.3078892230987549,-0.054190099239349365
1750927209611958500,20.20195849609375,0.0057926177978515625,0.009661436080932617,0.2266247272491455
1750927209630783000,20.220782958984376,0.008196830749511719,-0.24685907363891602,0.22483277320861816
1750927209649607200,20.239607177734374,0.004832267761230469,-0.37531471252441406,0.16029226779937744
1750927209668431400,20.258431396484376,-0.1459941864013672,-0.27957916259765625,-0.027278661727905273
1750927209687255800,20.277255859375,-0.2611970901489258,0.09757709503173828,-0.13779348134994507
1750927209706080000,20.296080078125,-0.34692859649658203,0.3141298294067383,-0.01500403881072998
1750927209724904400,20.314904541015625,-0.3311605453491211,0.21668434143066406,0.007385730743408203
1750927209743728600,20.333728759765624,-0.4783205986022949,0.11331605911254883,0.06002914905548096
1750927209762553000,20.352552978515625,-0.8952364921569824,0.30562925338745117,-0.18855798244476318
1750927209781377300,20.371377197265623,-1.1478791236877441,0.4376826286315918,0.008940815925598145
1750927209800201500,20.390201416015625,-1.0569686889648438,0.34740257263183594,0.38023972511291504
1750927209819026000,20.40902587890625,-1.1814994812011719,0.3908352851867676,0.4767709970474243
1750927209837850000,20.42785009765625,-1.1838412284851074,0.349332332611084,0.3467336893081665
1750927209856674600,20.446674560546874,-0.7655529975891113,0.13508272171020508,0.1074209213256836
1750927209875498800,20.465498779296876,-0.26386070251464844,-0.1708512306213379,-0.02100682258605957
1750927209894323000,20.484322998046874,-0.12375450134277344,-0.15187454223632812,0.07203292846679688
1750927209913147400,20.5031474609375,-0.08681964874267578,0.03886079788208008,-0.09971970319747925
1750927209931971600,20.5219716796875,0.01603412628173828,-0.03076314926147461,-0.2088911533355713
1750927209950796000,20.540796142578124,0.34084415435791016,-0.1936635971069336,-0.1001359224319458
1750927209969620200,20.5596201171875,-0.19837284088134766,-0.11244559288024902,-0.1060563325881958
1750927209988444700,20.578444580078123,-0.36824989318847656,0.0387117862701416,-0.06703352928161621
1750927210007268900,20.597268798828125,-0.2303028106689453,0.020731449127197266,0.039418816566467285
1750927210026093000,20.616093017578127,-0.2160806655883789,-0.15196382999420166,-0.022294223308563232
1750927210044917500,20.63491748046875,-0.1524486541748047,-0.22994637489318848,0.10038155317306519
1750927210063741700,20.65374169921875,-0.1919412612915039,-0.19246917963027954,0.16290801763534546
1750927210082566100,20.672566162109376,-0.16194915771484375,-0.09143117070198059,0.10062074661254883
1750927210101390300,20.691390380859374,-0.13395404815673828,-0.12485389411449432,0.16259866952896118
1750927210120214500,20.710214599609376,0.14066505432128906,-0.06974464654922485,0.05275052785873413
1750927210139039000,20.7290390625,0.36844825744628906,0.09393841028213501,-0.2946924567222595
1750927210157863200,20.74786328125,0.33284759521484375,0.004257798194885254,-0.2145787477493286
1750927210176687600,20.7666875,0.04041576385498047,-0.11020517349243164,-0.1637253761291504
1750927210195511800,20.78551171875,0.17866039276123047,-0.030152559280395508,-0.05689811706542969
1750927210214336000,20.8043359375,0.3138608932495117,0.06547069549560547,-0.0389980673789978
1750927210233160400,20.823160400390623,0.4598531723022461,-0.014145612716674805,-0.07248598337173462
1750927210251984600,20.841984619140625,0.41736412048339844,0.01820850372314453,-0.027586281299591064
1750927210270809000,20.86080908203125,0.4753589630126953,0.15257620811462402,0.1286156177520752
1750927210289633300,20.87963330078125,0.2935504913330078,0.06855988502502441,-0.05725020170211792
1750927210308457700,20.898457763671875,-0.02138042449951172,-0.01828932762145996,-0.2443326711654663
1750927210327282000,20.917281982421876,0.18742656707763672,-0.18139219284057617,-0.06417888402938843
1750927210346106000,20.936106201171874,0.5314064025878906,0.08804798126220703,-0.09536236524581909
1750927210364930600,20.9549306640625,0.8059940338134766,0.34097886085510254,-0.32918208837509155
1750927210383754800,20.973754638671874,0.8421125411987305,0.24408888816833496,-0.03369581699371338
1750927210402579200,20.9925791015625,0.7841787338256836,0.12277603149414062,0.12996572256088257
1750927210421403400,21.0114033203125,0.6552553176879883,0.1571793556213379,0.03639674186706543
1750927210440227800,21.030227783203124,0.6666755676269531,0.07066106796264648,-0.07648360729217529
1750927210459052000,21.049052001953125,0.61407470703125,-0.1136627197265625,0.013051450252532959
1750927210477876200,21.067876220703123,0.5524091720581055,-0.15728449821472168,0.005695760250091553
1750927210496700700,21.08670068359375,0.37226104736328125,-0.27634549140930176,-0.018142223358154297
1750927210515524900,21.10552490234375,0.18908309936523438,-0.3051731586456299,-0.08910292387008667
1750927210534349300,21.124349365234377,0.07116985321044922,-0.5185554027557373,-0.18862968683242798
1750927210553173500,21.143173583984375,-0.042120933532714844,-0.599738597869873,-0.19415956735610962
1750927210571998000,21.161998046875,-0.2376861572265625,-0.6216809749603271,-0.056369125843048096
1750927210590822100,21.180822265625,-0.3357210159301758,-0.5308647155761719,0.1300063133239746
1750927210609646300,21.199646240234376,-0.17555618286132812,-0.4155385494232178,0.0859495997428894
1750927210628470800,21.218470703125,0.12542724609375,-0.3306717872619629,-0.16945713758468628
1750927210647295000,21.237294921875,0.11651897430419922,-0.47677695751190186,-0.2207329273223877
1750927210666119200,21.256119140625,-0.053680419921875,-0.5259458422660828,-0.08693313598632812
1750927210684943600,21.274943603515624,-0.2580423355102539,-0.4917716979980469,0.17372572422027588
1750927210703767800,21.293767822265625,-0.20180130004882812,-0.3128892183303833,0.19893324375152588
1750927210722592300,21.31259228515625,0.12282276153564453,-0.2600710690021515,0.008894205093383789
1750927210741416400,21.33141650390625,0.20516490936279297,-0.4016168713569641,-0.15005528926849365
1750927210760241000,21.350240966796875,0.12392997741699219,-0.5231324434280396,-0.15207260847091675
1750927210779065000,21.369065185546877,-0.044753074645996094,-0.39043211936950684,-0.19595259428024292
1750927210797889300,21.38788916015625,-0.04935264587402344,-0.2834845781326294,-0.059791505336761475
1750927210816713700,21.406713623046876,0.10547351837158203,-0.2542710304260254,0.02594470977783203
1750927210835538000,21.425537841796874,0.14426040649414062,-0.402870774269104,0.04457271099090576
1750927210854362400,21.4443623046875,-0.05724906921386719,-0.439316987991333,0.02543187141418457
1750927210873186600,21.4631865234375,-0.34769535064697266,-0.2545492649078369,-0.16077786684036255
1750927210892011000,21.482010986328124,-0.5748472213745117,0.048300743103027344,-0.1944272518157959
1750927210910835200,21.500835205078126,-0.5977878570556641,0.2379150390625,-0.010701894760131836
1750927210929659400,21.519659423828124,-0.5084648132324219,0.042409658432006836,0.07664322853088379
1750927210948483800,21.53848388671875,-0.6175327301025391,-0.08655595779418945,0.21049565076828003
1750927210967308000,21.55730810546875,-0.7177438735961914,0.1174168586730957,0.2572796940803528
1750927210986132500,21.576132568359377,-0.5779008865356445,0.1887354850769043,0.13106024265289307
1750927211004956700,21.594956787109375,-0.537449836730957,0.1928572654724121,0.11526739597320557
1750927211023780900,21.61378076171875,-0.698786735534668,0.2989039421081543,0.1555194854736328
1750927211042605300,21.632605224609375,-0.5308742523193359,0.3444638252258301,0.06154274940490723
1750927211061429500,21.651429443359376,-0.13654422760009766,0.18835234642028809,0.048591017723083496
1750927211080254000,21.67025390625,0.028969764709472656,0.03305482864379883,-0.024194836616516113
1750927211099078100,21.689078125,-0.17125511169433594,0.08001279830932617,-0.1034807562828064
1750927211117902600,21.707902587890626,-0.5977497100830078,0.3910343647003174,-0.15419524908065796
1750927211136726800,21.726726806640624,-0.623199462890625,0.5302608013153076,-0.14175397157669067
1750927211155551000,21.745551025390625,-0.4447612762451172,0.18113160133361816,-0.0019462108612060547
1750927211174375400,21.76437548828125,0.13385391235351562,-0.18941712379455566,0.23871469497680664
1750927211193199600,21.78319970703125,-0.25228118896484375,-0.12244725227355957,0.1163138747215271
1750927211212024000,21.802024169921875,-0.00461578369140625,-0.07700896263122559,0.04737907648086548
1750927211230848300,21.82084814453125,-0.12827777862548828,0.07272863388061523,0.017327606678009033
1750927211249672400,21.83967236328125,-0.2851285934448242,0.14191389083862305,-0.08231997489929199
1750927211268497000,21.858496826171876,-0.4029722213745117,0.07676288485527039,0.013338088989257812
1750927211287321000,21.877321044921874,-0.11631107330322266,-0.15123367309570312,0.04074668884277344
1750927211306145500,21.8961455078125,0.312408447265625,-0.13981541991233826,-0.06991744041442871
1750927211324969700,21.9149697265625,0.3085002899169922,-0.03865492343902588,-0.13575059175491333
1750927211343794200,21.933794189453124,0.19088077545166016,-0.03706169128417969,0.05367475748062134
1750927211362618400,21.952618408203126,0.27294445037841797,0.007909774780273438,0.05811268091201782
1750927211381442600,21.971442626953124,0.23453330993652344,0.04290497303009033,-0.13382256031036377
1750927211400267000,21.99026708984375,-0.0031156539916992188,-0.004886031150817871,-0.47967851161956787
1750927211419091200,22.00909130859375,-0.0037164688110351562,-0.16486001014709473,-0.5890179872512817
1750927211437915600,22.02791552734375,0.20483970642089844,-0.14318442344665527,-0.019644200801849365
1750927211456739800,22.04673974609375,0.5089349746704102,-0.009054183959960938,0.2676106095314026
1750927211475564000,22.06556396484375,0.779383659362793,0.1109321117401123,0.12071973085403442
1750927211494388500,22.084388427734375,0.5604457855224609,0.17731857299804688,-0.0022819042205810547
1750927211513212700,22.103212646484376,0.04997539520263672,-0.0480802059173584,-0.26120471954345703
1750927211532037000,22.122037109375,-0.040950775146484375,-0.05903768539428711,-0.07002520561218262
1750927211550861300,22.140861328125,0.27791404724121094,0.08747124671936035,0.15178155899047852
1750927211569685800,22.159685791015626,0.709355354309082,0.2533082962036133,0.12309134006500244
1750927211588510000,22.178510009765624,0.6854124069213867,0.1584773063659668,0.17107164859771729
1750927211607334100,22.197334228515626,0.6371831893920898,0.07750630378723145,0.23728573322296143
1750927211626158600,22.21615869140625,0.6383523941040039,0.1197199821472168,0.006980955600738525
1750927211644982800,22.234982666015625,0.33397388458251953,-0.033930063247680664,-0.1757938265800476
1750927211663807200,22.25380712890625,-0.10312938690185547,-0.23110389709472656,-0.2401973009109497
1750927211682631400,22.27263134765625,-0.031266212463378906,-0.22315764427185059,-0.12490993738174438
1750927211701456000,22.291455810546875,0.4160909652709961,-0.06613874435424805,-0.010076940059661865
1750927211720280000,22.310280029296877,0.553013801574707,-0.1913163661956787,-0.11418527364730835
1750927211748516400,22.338516357421874,-0.051712989807128906,-0.506833553314209,0.018767833709716797
1750927211767340800,22.3573408203125,-0.37971019744873047,-0.526756763458252,0.08096277713775635
1750927211786165000,22.3761650390625,-0.3338890075683594,-0.48695921897888184,0.021541714668273926
1750927211804989400,22.394989501953123,-0.12404727935791016,-0.3938472270965576,0.026615142822265625
1750927211823813600,22.413813720703125,0.1737384796142578,-0.37685704231262207,-0.030481934547424316
1750927211842638000,22.43263818359375,0.07256412506103516,-0.39644062519073486,0.08005058765411377
1750927211861462300,22.451462158203125,-0.09327316284179688,-0.39901816844940186,0.001361072063446045
1750927211880286500,22.470286376953126,-0.2005939483642578,-0.24669289588928223,-0.21269935369491577
1750927211899111000,22.48911083984375,0.046317100524902344,-0.12345457077026367,-0.25918352603912354
1750927211917935000,22.50793505859375,0.2522926330566406,-0.28338903188705444,-0.16158723831176758
1750927211936759600,22.526759521484376,0.20360946655273438,-0.48054957389831543,0.08303344249725342
1750927211955583700,22.545583740234374,0.16067028045654297,-0.4228067100048065,-0.01836329698562622
1750927211974408000,22.564407958984376,0.0864419937133789,-0.4247433543205261,-0.1382904052734375
1750927211993232400,22.583232421875,-0.18209457397460938,-0.2712233066558838,-0.1484743356704712
1750927212012056600,22.602056640625,-0.4863777160644531,-0.1711416244506836,-0.008771777153015137
1750927212030881000,22.620881103515625,-0.31446361541748047,-0.15642642974853516,0.1495768427848816
1750927212049705200,22.639705322265623,-0.1066436767578125,-0.20407557487487793,0.19141703844070435
1750927212068529700,22.65852978515625,0.09711456298828125,-0.26147961616516113,0.07219243049621582
1750927212087353900,22.677353759765627,0.15137386322021484,-0.25729668140411377,-0.08320188522338867
1750927212106178000,22.696177978515625,-0.22352123260498047,-0.12115216255187988,-0.02631986141204834
1750927212125002500,22.71500244140625,-0.41846179962158203,0.1493988037109375,0.016517996788024902
1750927212143826700,22.73382666015625,-0.3466911315917969,0.30519819259643555,-0.09367674589157104
1750927212162651100,22.752651123046874,0.08485126495361328,0.20233631134033203,-0.23138880729675293
1750927212181475300,22.771475341796876,0.32387256622314453,-0.12872529029846191,-0.11889714002609253
1750927212200299800,22.7902998046875,0.22807884216308594,-0.41454124450683594,0.14529329538345337
1750927212219124000,22.8091240234375,0.14536666870117188,-0.35184669494628906,0.03676128387451172
1750927212237948200,22.8279482421875,-0.21634864807128906,-0.045563697814941406,0.015729129314422607
1750927212256772600,22.846772705078124,-0.5405797958374023,0.24762463569641113,0.01328510046005249
1750927212275596800,22.8655966796875,-0.5041131973266602,0.08827996253967285,0.09433853626251221
1750927212294421000,22.8844208984375,-0.6984825134277344,-0.0071125030517578125,0.19548344612121582
1750927212313245400,22.903245361328125,-1.0543503761291504,0.0991678237915039,0.33655649423599243
1750927212332069600,22.922069580078126,-1.0977683067321777,0.33246278762817383,0.23191744089126587
1750927212350894000,22.94089404296875,-0.8910465240478516,0.36753296852111816,0.08684360980987549
1750927212369718300,22.95971826171875,-0.6808967590332031,0.17757606506347656,-0.02571237087249756
1750927212388542700,22.978542724609376,-0.5798740386962891,0.030081510543823242,-0.08681970834732056
1750927212407367000,22.997366943359374,-0.4695472717285156,0.06705403327941895,0.023211181163787842
1750927212426191000,23.016191162109376,-0.2750825881958008,0.2534959316253662,0.20285892486572266
1750927212445015600,23.035015625,0.018509864807128906,0.254011869430542,0.05858254432678223
1750927212463839700,23.05383984375,0.1475362777709961,0.16640400886535645,-0.1846655011177063
1750927212482664200,23.072664306640625,0.46040916442871094,-0.02684652805328369,-0.12103557586669922
1750927212501488400,23.09148828125,-0.2069988250732422,-0.07048749923706055,-0.06680530309677124
