time,seconds_elapsed,z,y,x
1750927189554664200,0.144664306640625,9.791903495788574,-0.08908728510141373,0.5301628708839417
1750927189573488600,0.163488525390625,9.789228439331055,-0.2972329556941986,0.503031313419342
1750927189601725000,0.191724853515625,9.7946195602417,-0.33365994691848755,0.3528158366680145
1750927189629961500,0.21996142578125,9.802248001098633,-0.22054967284202576,0.1941165328025818
1750927189648785700,0.23878564453125,9.804853439331055,-0.17495007812976837,0.06803251802921295
1750927189667609900,0.25760986328125,9.804540634155273,-0.20343361794948578,0.00252328859642148
1750927189686434300,0.276434326171875,9.803780555725098,-0.23416879773139954,-0.03813256695866585
1750927189705258500,0.295258544921875,9.803020477294922,-0.24461401998996735,-0.10651633143424988
1750927189724083000,0.3140830078125,9.801783561706543,-0.2909766137599945,-0.1037222221493721
1750927189742907100,0.3329072265625,9.80109977722168,-0.3256520926952362,-0.05263296887278557
1750927189761731600,0.351731689453125,9.802812576293945,-0.27206605672836304,-0.034917932003736496
1750927189780555800,0.3705556640625,9.805015563964844,-0.1700727343559265,-0.055936913937330246
1750927189799380200,0.389380126953125,9.806175231933594,-0.06293246895074844,-0.07311417907476425
1750927189818204400,0.408204345703125,9.806453704833984,0.04569292068481445,-0.042031217366456985
1750927189837028600,0.427028564453125,9.805119514465332,0.1676608920097351,0.04364781454205513
1750927189855853000,0.44585302734375,9.80062484741211,0.31519073247909546,0.13704372942447662
1750927189884089300,0.47408935546875,9.794459342956543,0.4279429614543915,0.23624126613140106
1750927189902913800,0.492913818359375,9.79250717163086,0.4415196478366852,0.2867823541164398
1750927189921738000,0.511738037109375,9.791537284851074,0.4424351155757904,0.3169110417366028
1750927189940562400,0.5305625,9.790848731994629,0.451710969209671,0.3250185549259186
1750927189959386600,0.54938671875,9.789201736450195,0.4738349914550781,0.3426562249660492
1750927189978211000,0.568211181640625,9.787666320800781,0.5017844438552856,0.3466886281967163
1750927189997035300,0.58703515625,9.786150932312012,0.5165302753448486,0.3671933710575104
1750927190015859700,0.605859619140625,9.785906791687012,0.5073612332344055,0.3860270380973816
1750927190034684000,0.624683837890625,9.786495208740234,0.4841114282608032,0.40065711736679077
1750927190053508000,0.643508056640625,9.787172317504883,0.46132323145866394,0.41087648272514343
1750927190072332500,0.66233251953125,9.786958694458008,0.4513908326625824,0.4266870617866516
1750927190091156700,0.68115673828125,9.786405563354492,0.45575666427612305,0.43466895818710327
1750927190109981200,0.699981201171875,9.785971641540527,0.4611135721206665,0.43876218795776367
1750927190128805400,0.718805419921875,9.786006927490234,0.456120103597641,0.4431723356246948
1750927190147629800,0.7376298828125,9.786702156066895,0.43932685256004333,0.4447702467441559
1750927190166454000,0.7564541015625,9.787866592407227,0.41165536642074585,0.4456429183483124
1750927190185278500,0.775278564453125,9.789179801940918,0.3900093138217926,0.43616700172424316
1750927190204102700,0.7941025390625,9.789570808410645,0.3825189769268036,0.4340144693851471
1750927190222927000,0.812927001953125,9.789554595947266,0.38586094975471497,0.4314030110836029
1750927190241751300,0.831751220703125,9.789780616760254,0.38761627674102783,0.424660861492157
1750927190260575500,0.850575439453125,9.790104866027832,0.38732168078422546,0.41739144921302795
1750927190279400000,0.86939990234375,9.7901029586792,0.38807469606399536,0.4167378842830658
1750927190298224000,0.88822412109375,9.78994369506836,0.3876529633998871,0.4208761751651764
1750927190317048600,0.907048583984375,9.789788246154785,0.37791547179222107,0.4331291615962982
1750927190335872800,0.925872802734375,9.790105819702148,0.36659616231918335,0.435697078704834
1750927190354697200,0.944697265625,9.790472984313965,0.36105677485466003,0.4320484697818756
1750927190373521400,0.963521484375,9.790918350219727,0.3563632071018219,0.42579033970832825
1750927190392345900,0.982345947265625,9.791107177734375,0.34948936104774475,0.427180677652359
1750927190411170000,1.001170166015625,9.791028022766113,0.33990535140037537,0.43659839034080505
1750927190429994500,1.019994384765625,9.790848731994629,0.33213189244270325,0.4465019702911377
1750927190448818700,1.038818603515625,9.790857315063477,0.32644614577293396,0.4504689574241638
1750927190467643100,1.05764306640625,9.791104316711426,0.32178637385368347,0.44847431778907776
1750927190486467300,1.07646728515625,9.791424751281738,0.31345030665397644,0.44737595319747925
1750927190505291500,1.09529150390625,9.791611671447754,0.3080384135246277,0.4470292925834656
1750927190524116000,1.114115966796875,9.791597366333008,0.3058208227157593,0.4488571286201477
1750927190542940200,1.132940185546875,9.79173469543457,0.30071762204170227,0.44932496547698975
1750927190561764600,1.1517646484375,9.792281150817871,0.2912180721759796,0.44365590810775757
1750927190580589000,1.170589111328125,9.79259204864502,0.2850576341152191,0.4407752752304077
1750927190599413200,1.189413330078125,9.792472839355469,0.2811465263366699,0.44588011503219604
1750927190618237400,1.208237548828125,9.792769432067871,0.27488088607788086,0.44330114126205444
1750927190637062000,1.227061767578125,9.793578147888184,0.26205381751060486,0.4330642521381378
1750927190655886000,1.245885986328125,9.79455280303955,0.24588404595851898,0.42032524943351746
1750927190674710500,1.26471044921875,9.795217514038086,0.234030082821846,0.41150298714637756
1750927190693534700,1.28353466796875,9.79549503326416,0.22952714562416077,0.407423734664917
1750927190712359200,1.302359130859375,9.795448303222656,0.2288285344839096,0.4089065492153168
1750927190731183400,1.321183349609375,9.795334815979004,0.22310706973075867,0.41473570466041565
1750927190750007800,1.3400078125,9.79544734954834,0.2146763652563095,0.4165583848953247
1750927190768832000,1.35883203125,9.795736312866211,0.21110671758651733,0.41156822443008423
1750927190787656400,1.377656494140625,9.796006202697754,0.21188631653785706,0.4046724736690521
1750927190806480600,1.396480712890625,9.796401977539062,0.21410468220710754,0.3937866985797882
1750927190825305000,1.41530517578125,9.796728134155273,0.2116699516773224,0.3869253098964691
1750927190844129300,1.43412939453125,9.797101020812988,0.2017338126897812,0.38275331258773804
1750927190862953500,1.452953369140625,9.797621726989746,0.18221910297870636,0.3791872560977936
1750927190881778000,1.47177783203125,9.798181533813477,0.16211868822574615,0.37381529808044434
1750927190900602000,1.49060205078125,9.798568725585938,0.1508752852678299,0.36833006143569946
1750927190919426600,1.509426513671875,9.798863410949707,0.14590305089950562,0.3624778091907501
1750927190938250800,1.528250732421875,9.799051284790039,0.13875040411949158,0.36020150780677795
1750927190957075200,1.5470751953125,9.799332618713379,0.12406057119369507,0.3578871488571167
1750927190975899400,1.5658994140625,9.799651145935059,0.11113528162240982,0.35339829325675964
1750927190994723800,1.584723876953125,9.799899101257324,0.10331082344055176,0.348848432302475
1750927191013548000,1.603548095703125,9.79996395111084,0.09562370181083679,0.3492189049720764
1750927191032372500,1.62237255859375,9.79985237121582,0.08423049747943878,0.3552130162715912
1750927191051196700,1.64119677734375,9.799908638000488,0.06580550968647003,0.35755854845046997
1750927191070021000,1.660021240234375,9.800090789794922,0.05018193647265434,0.35508832335472107
1750927191088845300,1.67884521484375,9.800149917602539,0.04052787274122238,0.35470083355903625
1750927191107669800,1.697669677734375,9.800085067749023,0.03517942130565643,0.35706159472465515
1750927191126494000,1.716493896484375,9.800213813781738,0.0281673613935709,0.3541223108768463
1750927191145318400,1.735318359375,9.800495147705078,0.0173316802829504,0.34695667028427124
1750927191164142600,1.754142578125,9.800694465637207,0.0023868484422564507,0.3417190611362457
1750927191182966800,1.772966796875,9.800843238830566,-0.003515770426020026,0.3374089300632477
1750927191201791200,1.791791259765625,9.80089282989502,0.001084857271052897,0.3360138237476349
1750927191220615400,1.810615478515625,9.800890922546387,0.009565870277583599,0.3359226882457733
1750927191239440000,1.82943994140625,9.800738334655762,0.014118700288236141,0.3401660621166229
1750927191258264000,1.84826416015625,9.800613403320312,0.017458578571677208,0.343595951795578
1750927191277088500,1.867088623046875,9.800661087036133,0.023321285843849182,0.34189870953559875
1750927191295912700,1.88591259765625,9.800688743591309,0.027006257325410843,0.3408113420009613
1750927191314737200,1.904737060546875,9.800743103027344,0.02419995702803135,0.3394503593444824
1750927191333561300,1.923561279296875,9.800909042358398,0.017089050263166428,0.335074782371521
1750927191352385800,1.9423857421875,9.800976753234863,0.007616586517542601,0.3334355056285858
1750927191371210000,1.9612099609375,9.801163673400879,0.0015209034318104386,0.3279878497123718
1750927191390034400,1.980034423828125,9.801260948181152,0.00049676897469908,0.32507383823394775
1750927191408858600,1.998858642578125,9.80130386352539,0.0013505072565749288,0.323749303817749
1750927191427683000,2.01768310546875,9.801421165466309,0.000622450839728117,0.32018494606018066
1750927191446507300,2.03650732421875,9.801488876342773,-0.0007979944348335266,0.31814348697662354
1750927191465331700,2.055331787109375,9.801568031311035,0.0035178824327886105,0.31564536690711975
1750927191484156000,2.074156005859375,9.801642417907715,0.00592171773314476,0.31329813599586487
1750927191502980400,2.09298046875,9.801922798156738,0.009060941636562347,0.3043355941772461
1750927191521804500,2.111804443359375,9.80215835571289,0.01416071318089962,0.2964458763599396
1750927191540628700,2.130628662109375,9.802156448364258,0.015914088115096092,0.29640933871269226
1750927191559453200,2.149453125,9.802152633666992,0.01336235273629427,0.29666680097579956
1750927191578277400,2.16827734375,9.802220344543457,0.007432886399328709,0.2946392893791199
1750927191597101800,2.187101806640625,9.802282333374023,0.0012392338830977678,0.29264238476753235
1750927191615926000,2.205926025390625,9.802234649658203,-0.0013365179765969515,0.29426243901252747
1750927191634750500,2.22475048828125,9.8023042678833,-0.00014578818809241056,0.2919248640537262
1750927191653574700,2.24357470703125,9.80229377746582,0.0018641912611201406,0.29224440455436707
1750927191672399000,2.262399169921875,9.802338600158691,-0.00019997241906821728,0.29080235958099365
1750927191691223300,2.281223388671875,9.802543640136719,-0.0030511622317135334,0.2837578058242798
1750927191710047700,2.3000478515625,9.802833557128906,-0.005931994412094355,0.27352166175842285
1750927191728872000,2.318871826171875,9.80318832397461,-0.00849695410579443,0.2604048550128937
1750927191747696400,2.3376962890625,9.803397178649902,-0.013249046169221401,0.2522348165512085
1750927191766520600,2.3565205078125,9.803570747375488,-0.01644453965127468,0.24521608650684357
1750927191785345000,2.375344970703125,9.803791999816895,-0.01718291826546192,0.23615317046642303
1750927191804169200,2.394169189453125,9.803967475891113,-0.0217424426227808,0.22832834720611572
1750927191822993400,2.412993408203125,9.804167747497559,-0.02624617889523506,0.21903608739376068
1750927191841817900,2.43181787109375,9.804346084594727,-0.027986155822873116,0.21069884300231934
1750927191860642000,2.45064208984375,9.80440616607666,-0.029163731262087822,0.2077145278453827
1750927191879466500,2.469466552734375,9.804420471191406,-0.028620997443795204,0.20715977251529694
1750927191898290700,2.488290771484375,9.804322242736816,-0.028056446462869644,0.21186450123786926
1750927191917115100,2.507115234375,9.804240226745605,-0.02736932411789894,0.21567289531230927
1750927191935939300,2.525939208984375,9.804280281066895,-0.02640761435031891,0.2139376997947693
1750927191954763800,2.544763671875,9.804354667663574,-0.02956605702638626,0.21011023223400116
1750927191973588000,2.563587890625,9.804393768310547,-0.03499339148402214,0.20738868415355682
1750927191992412400,2.582412353515625,9.804604530334473,-0.033225446939468384,0.1975385546684265
1750927192020648700,2.610648681640625,9.804786682128906,-0.031243659555912018,0.1886366307735443
1750927192039473200,2.62947314453125,9.804765701293945,-0.03183082118630409,0.18958760797977448
1750927192058297300,2.64829736328125,9.804705619812012,-0.03409530594944954,0.19230327010154724
1750927192077121800,2.667121826171875,9.8047513961792,-0.038653597235679626,0.1890806257724762
1750927192095946000,2.685946044921875,9.804869651794434,-0.04292186349630356,0.1818935126066208
1750927192114770400,2.7047705078125,9.804927825927734,-0.04508055001497269,0.17817535996437073
1750927192133594600,2.7235947265625,9.804990768432617,-0.04373961687088013,0.17505967617034912
1750927192152419000,2.742419189453125,9.805015563964844,-0.039627693593502045,0.17460541427135468
1750927192171243300,2.7612431640625,9.805012702941895,-0.03355799987912178,0.1760440319776535
1750927192190067500,2.7800673828125,9.805089950561523,-0.024896197021007538,0.1730937659740448
1750927192208892000,2.798891845703125,9.805133819580078,-0.022190188989043236,0.17107301950454712
1750927192227716000,2.817716064453125,9.805110931396484,-0.026869041845202446,0.17166665196418762
1750927192246540500,2.83654052734375,9.805116653442383,-0.0321098230779171,0.17037361860275269
1750927192265364700,2.85536474609375,9.80513858795166,-0.03333820030093193,0.1689552366733551
1750927192284189200,2.874189208984375,9.805106163024902,-0.033041756600141525,0.17086322605609894
1750927192303013400,2.893013427734375,9.80499267578125,-0.03672853857278824,0.17649611830711365
1750927192321837800,2.911837890625,9.804808616638184,-0.03838734328746796,0.18614983558654785
1750927192340662000,2.930662109375,9.804722785949707,-0.03571018949151039,0.19109752774238586
1750927192359486500,2.949486572265625,9.80474853515625,-0.03435717895627022,0.19008924067020416
1750927192378310700,2.968310546875,9.804672241210938,-0.037215497344732285,0.19337666034698486
1750927192397135000,2.987135009765625,9.804520606994629,-0.04253477230668068,0.1998719871044159
1750927192415959300,3.005959228515625,9.804473876953125,-0.0474795401096344,0.2010495513677597
1750927192434783700,3.02478369140625,9.804551124572754,-0.049149442464113235,0.19684648513793945
1750927192453608000,3.04360791015625,9.804661750793457,-0.049737539142370224,0.19109955430030823
1750927192472432400,3.062432373046875,9.804749488830566,-0.04365883395075798,0.18808613717556
1750927192491256600,3.081256591796875,9.804723739624023,-0.03529905527830124,0.19110806286334991
1750927192510080800,3.100080810546875,9.804612159729004,-0.03510379418730736,0.19680796563625336
1750927192528905200,3.1189052734375,9.804571151733398,-0.04230733588337898,0.1974426507949829
1750927192547729400,3.1377294921875,9.804679870605469,-0.045142658054828644,0.19131594896316528
1750927192566553900,3.156553955078125,9.804830551147461,-0.04172586277127266,0.18422339856624603
1750927192585378000,3.1753779296875,9.80488109588623,-0.03735072910785675,0.1824723482131958
1750927192604202500,3.194202392578125,9.804808616638184,-0.036619678139686584,0.18653133511543274
1750927192623026700,3.213026611328125,9.804706573486328,-0.03924478217959404,0.19123663008213043
1750927192641851100,3.23185107421875,9.804669380187988,-0.03992645442485809,0.19298605620861053
1750927192660675300,3.25067529296875,9.804695129394531,-0.04089796915650368,0.19142970442771912
1750927192679499800,3.269499755859375,9.80477237701416,-0.041673265397548676,0.18731513619422913
1750927192698324000,3.288323974609375,9.80483341217041,-0.04621487483382225,0.18303239345550537
1750927192717148200,3.307148193359375,9.804871559143066,-0.0536654032766819,0.17891232669353485
1750927192735972600,3.32597265625,9.804774284362793,-0.061544906347990036,0.18164873123168945
1750927192754796800,3.344796875,9.8046236038208,-0.06613310426473618,0.1881263554096222
1750927192773621200,3.363621337890625,9.80453109741211,-0.06912893801927567,0.1918332427740097
1750927192792445400,3.382445556640625,9.804587364196777,-0.06972230970859528,0.18861961364746094
1750927192811270000,3.401269775390625,9.804597854614258,-0.07402467727661133,0.18647968769073486
1750927192830094000,3.420093994140625,9.804526329040527,-0.07965811342000961,0.1879236400127411
1750927192848918500,3.43891845703125,9.804450988769531,-0.08153178542852402,0.19099779427051544
1750927192867742700,3.45774267578125,9.804551124572754,-0.07565546780824661,0.18828314542770386
1750927192886567200,3.476567138671875,9.804620742797852,-0.07065562158823013,0.1865365207195282
1750927192905391400,3.495391357421875,9.804574966430664,-0.06922144442796707,0.18952448666095734
1750927192924215600,3.514215576171875,9.804537773132324,-0.06940919160842896,0.1913285255432129
1750927192943040000,3.5330400390625,9.80457878112793,-0.07038990408182144,0.18884967267513275
1750927192961864200,3.5518642578125,9.80458927154541,-0.06930987536907196,0.18871735036373138
1750927192980688600,3.570688720703125,9.80447769165039,-0.07275839895009995,0.19315612316131592
1750927192999512800,3.589512939453125,9.804359436035156,-0.07816974073648453,0.1969815045595169
1750927193018337300,3.608337158203125,9.804344177246094,-0.07997243851423264,0.19708319008350372
1750927193037161500,3.627161376953125,9.804400444030762,-0.08242818713188171,0.19321784377098083
1750927193065398000,3.65539794921875,9.804394721984863,-0.08853490650653839,0.19079510867595673
1750927193084222200,3.67422216796875,9.804361343383789,-0.0946127250790596,0.18955036997795105
1750927193103046700,3.693046630859375,9.80435562133789,-0.09886302798986435,0.18771424889564514
1750927193121870800,3.711870849609375,9.804293632507324,-0.10069610178470612,0.18994134664535522
1750927193140695300,3.7306953125,9.804325103759766,-0.10048922896385193,0.1884147822856903
1750927193159519500,3.74951953125,9.804403305053711,-0.10017559677362442,0.18442077934741974
1750927193178344000,3.768343994140625,9.804396629333496,-0.10134013742208481,0.18415632843971252
1750927193197168000,3.787168212890625,9.8043212890625,-0.10494893044233322,0.18613958358764648
1750927193215992600,3.80599267578125,9.80427360534668,-0.10961608588695526,0.1859823614358902
1750927193244228900,3.834228759765625,9.804268836975098,-0.11293911188840866,0.18424949049949646
1750927193263053300,3.85305322265625,9.804247856140137,-0.11172092705965042,0.18608437478542328
1750927193281877500,3.87187744140625,9.804281234741211,-0.10818872600793839,0.1863868683576584
1750927193300702000,3.890701904296875,9.804293632507324,-0.10703188180923462,0.18642492592334747
1750927193319526100,3.909526123046875,9.804214477539062,-0.10943982750177383,0.18920263648033142
1750927193338350300,3.928350341796875,9.804177284240723,-0.11043728142976761,0.19049808382987976
1750927193357174800,3.9471748046875,9.804224014282227,-0.10808944702148438,0.1894623190164566
1750927193375999000,3.9659990234375,9.804190635681152,-0.11199107021093369,0.1889282464981079
1750927193394823400,3.984823486328125,9.80418586730957,-0.1171545758843422,0.18600019812583923
1750927193413647600,4.003647705078125,9.804181098937988,-0.12385869026184082,0.18188048899173737
1750927193432472000,4.02247216796875,9.80420207977295,-0.12936361134052277,0.17685289680957794
1750927193451296300,4.041296142578125,9.80416202545166,-0.13456566631793976,0.1751597374677658
1750927193470120700,4.06012060546875,9.804060935974121,-0.1409429907798767,0.17582842707633972
1750927193488945000,4.07894482421875,9.80397891998291,-0.14460095763206482,0.17746368050575256
1750927193507769300,4.097769287109375,9.804061889648438,-0.14082053303718567,0.17586755752563477
1750927193526593500,4.116593505859375,9.804140090942383,-0.138738214969635,0.17314735054969788
1750927193545417700,4.135417724609375,9.804149627685547,-0.13522003591060638,0.17537763714790344
1750927193564242200,4.1542421875,9.804155349731445,-0.1291077882051468,0.17960824072360992
1750927193583066400,4.17306640625,9.804137229919434,-0.1280732899904251,0.18133795261383057
1750927193601890800,4.191890869140625,9.804243087768555,-0.12718163430690765,0.17610900104045868
1750927193620715000,4.210715087890625,9.804346084594727,-0.1261991262435913,0.17105510830879211
1750927193639539500,4.22953955078125,9.804363250732422,-0.12906979024410248,0.16787917912006378
1750927193658363600,4.24836376953125,9.804374694824219,-0.13057273626327515,0.16600197553634644
1750927193677188000,4.26718798828125,9.804443359375,-0.1271539032459259,0.1646537035703659
1750927193696012300,4.28601220703125,9.804457664489746,-0.12801073491573334,0.16316133737564087
1750927193714836500,4.30483642578125,9.804489135742188,-0.13034556806087494,0.1593731939792633
1750927193733661000,4.323660888671875,9.804564476013184,-0.12994730472564697,0.15498943626880646
1750927193752485000,4.342485107421875,9.804583549499512,-0.12895908951759338,0.15457387268543243
1750927193771309600,4.3613095703125,9.80458927154541,-0.12905415892601013,0.15415941178798676
1750927193790133800,4.3801337890625,9.804676055908203,-0.1287715882062912,0.1487509310245514
1750927193808958200,4.398958251953125,9.80474853515625,-0.12850825488567352,0.1441514790058136
1750927193827782400,4.417782470703125,9.804713249206543,-0.1332997828722,0.1421661674976349
1750927193846606800,4.43660693359375,9.804593086242676,-0.13674454391002655,0.14711366593837738
1750927193865431000,4.45543115234375,9.8045015335083,-0.13567817211151123,0.15408773720264435
1750927193884255500,4.47425537109375,9.80450439453125,-0.13208577036857605,0.15690672397613525
1750927193903079700,4.49307958984375,9.804545402526855,-0.12929722666740417,0.1567314714193344
1750927193921903900,4.51190380859375,9.804553985595703,-0.1298016607761383,0.1556960791349411
1750927193940728300,4.530728271484375,9.804490089416504,-0.1336659938097,0.15648718178272247
1750927193959552500,4.549552490234375,9.804402351379395,-0.13544823229312897,0.16041618585586548
1750927193978377000,4.568376953125,9.804435729980469,-0.13291917741298676,0.16051150858402252
1750927193997201200,4.587201171875,9.804503440856934,-0.13054338097572327,0.15829773247241974
1750927194016025600,4.606025634765625,9.804502487182617,-0.13113154470920563,0.15782466530799866
1750927194034849800,4.624849853515625,9.804410934448242,-0.13321085274219513,0.16177375614643097
1750927194053674200,4.64367431640625,9.804375648498535,-0.13543066382408142,0.1620711237192154
1750927194072498400,4.66249853515625,9.804422378540039,-0.13723555207252502,0.15770627558231354
1750927194091322600,4.681322509765625,9.804465293884277,-0.13716405630111694,0.15501715242862701
1750927194110147000,4.70014697265625,9.804466247558594,-0.1348029375076294,0.15701532363891602
1750927194128971300,4.71897119140625,9.804438591003418,-0.13205546140670776,0.16104206442832947
1750927194147795700,4.737795654296875,9.80435562133789,-0.13525082170963287,0.16339699923992157
1750927194166620000,4.756619873046875,9.804339408874512,-0.13984645903110504,0.16048568487167358
1750927194185444400,4.7754443359375,9.8043794631958,-0.13961593806743622,0.15826036036014557
1750927194204268500,4.7942685546875,9.804357528686523,-0.1398690789937973,0.15936996042728424
1750927194223093000,4.813093017578125,9.804224014282227,-0.14164161682128906,0.16587196290493011
1750927194241917200,4.831917236328125,9.804244995117188,-0.1361061930656433,0.1692051738500595
1750927194260741400,4.850741455078125,9.804384231567383,-0.12990663945674896,0.1660350114107132
1750927194279565800,4.86956591796875,9.804442405700684,-0.12597474455833435,0.1655721515417099
1750927194298390000,4.88839013671875,9.804487228393555,-0.12135663628578186,0.16641998291015625
1750927194317214500,4.90721435546875,9.804506301879883,-0.1218990609049797,0.1648695170879364
1750927194336038700,4.92603857421875,9.804496765136719,-0.12358850240707397,0.1641813963651657
1750927194354863000,4.944863037109375,9.804497718811035,-0.1249142661690712,0.1630955934524536
1750927194373687300,4.963687255859375,9.804458618164062,-0.12538312375545502,0.1650584191083908
1750927194392511700,4.98251171875,9.804346084594727,-0.12710349261760712,0.17035029828548431
1750927194411336000,5.0013359375,9.804220199584961,-0.12734417617321014,0.17729128897190094
1750927194430160100,5.02016015625,9.804214477539062,-0.12465205043554306,0.17951716482639313
1750927194448984600,5.038984619140625,9.804226875305176,-0.1241423636674881,0.17918060719966888
1750927194467808800,5.057808837890625,9.80422592163086,-0.1281178891658783,0.17641770839691162
1750927194486633200,5.07663330078125,9.80420970916748,-0.13123634457588196,0.1750393956899643
1750927194505457400,5.09545751953125,9.804214477539062,-0.1319897621870041,0.17418164014816284
1750927194524281900,5.11428173828125,9.804169654846191,-0.13171058893203735,0.1769404113292694
1750927194543106000,5.13310595703125,9.804123878479004,-0.129230797290802,0.18121665716171265
1750927194561930500,5.151930419921875,9.804147720336914,-0.12687116861343384,0.1815691888332367
1750927194580754700,5.170754638671875,9.80419635772705,-0.12802372872829437,0.17814011871814728
1750927194599579000,5.189578857421875,9.804206848144531,-0.1331113576889038,0.17373648285865784
1750927194618403300,5.2084033203125,9.80418586730957,-0.1360539197921753,0.17270195484161377
1750927194637227500,5.2272275390625,9.8041410446167,-0.1354098916053772,0.17566564679145813
1750927194656052000,5.246052001953125,9.804080963134766,-0.13791699707508087,0.1770799458026886
1750927194674876200,5.264876220703125,9.804001808166504,-0.14327456057071686,0.1772221028804779
1750927194693700600,5.28370068359375,9.804038047790527,-0.14334335923194885,0.1751260906457901
1750927194712524800,5.30252490234375,9.804045677185059,-0.14252163469791412,0.1753966063261032
1750927194731349200,5.321349365234375,9.804040908813477,-0.14453314244747162,0.17404235899448395
1750927194750173400,5.34017333984375,9.804007530212402,-0.14720012247562408,0.17369988560676575
1750927194768997600,5.35899755859375,9.803893089294434,-0.1530732363462448,0.17498470842838287
1750927194787822000,5.377822021484375,9.803741455078125,-0.16200870275497437,0.17550526559352875
1750927194806646300,5.396646240234375,9.803557395935059,-0.17263652384281158,0.1756550669670105
1750927194825470700,5.415470703125,9.803363800048828,-0.18395142257213593,0.1749492585659027
1750927194844295000,5.434294921875,9.803105354309082,-0.19833624362945557,0.1737278699874878
1750927194863119400,5.453119384765625,9.80278205871582,-0.21494418382644653,0.172213613986969
1750927194881943600,5.471943603515625,9.8024320602417,-0.2310793697834015,0.1711876094341278
1750927194900768000,5.49076806640625,9.801934242248535,-0.2497650384902954,0.17347735166549683
1750927194919592200,5.50959228515625,9.80140209197998,-0.26978352665901184,0.1735348105430603
1750927194938416400,5.52841650390625,9.801057815551758,-0.28399893641471863,0.17029094696044922
1750927194957240800,5.54724072265625,9.801155090332031,-0.2832246422767639,0.16589362919330597
1750927194976065000,5.56606494140625,9.801700592041016,-0.2624313235282898,0.16782160103321075
1750927194994889500,5.584889404296875,9.80272102355957,-0.21096600592136383,0.18035666644573212
1750927195013713700,5.603713623046875,9.803827285766602,-0.11594204604625702,0.2047380954027176
1750927195032538000,5.6225380859375,9.8037748336792,0.024051392450928688,0.2362506240606308
1750927195051362300,5.6413623046875,9.800896644592285,0.19239753484725952,0.27529215812683105
1750927195070186800,5.660186767578125,9.79380989074707,0.38349446654319763,0.32343974709510803
1750927195089011000,5.679010986328125,9.781658172607422,0.5952889919281006,0.3676781952381134
1750927195107835100,5.697835205078125,9.763592720031738,0.8190043568611145,0.4145870804786682
1750927195126659600,5.71665966796875,9.740647315979004,1.040593147277832,0.45534393191337585
1750927195145483800,5.73548388671875,9.714301109313965,1.2501004934310913,0.4898931682109833
1750927195164308200,5.75430810546875,9.683677673339844,1.4543962478637695,0.5305671691894531
1750927195183132400,5.77313232421875,9.647258758544922,1.6622998714447021,0.5809844732284546
1750927195201956900,5.791956787109375,9.606809616088867,1.870337963104248,0.6176064610481262
1750927195220781000,5.810781005859375,9.562956809997559,2.0784494876861572,0.6326800584793091
1750927195239605500,5.82960546875,9.512081146240234,2.299506187438965,0.6348055601119995
1750927195258429700,5.8484296875,9.447080612182617,2.554020643234253,0.6324857473373413
1750927195277254000,5.86725390625,9.36320686340332,2.8461079597473145,0.6327946186065674
1750927195296078300,5.886078369140625,9.260836601257324,3.1626763343811035,0.6362223029136658
1750927195314902500,5.904902587890625,9.143649101257324,3.4842278957366943,0.6513276696205139
1750927195333727000,5.92372705078125,9.01675796508789,3.794834613800049,0.683885395526886
1750927195352551200,5.94255126953125,8.887239456176758,4.0837721824646,0.7142471075057983
1750927195371375600,5.961375732421875,8.767155647277832,4.333035469055176,0.7294971346855164
1750927195390199800,5.98019970703125,8.66112995147705,4.540387153625488,0.7349134087562561
1750927195409024000,5.99902392578125,8.565317153930664,4.719407081604004,0.7300148010253906
1750927195427848400,6.017848388671875,8.47811508178711,4.876142978668213,0.7177596688270569
1750927195446672600,6.036672607421875,8.403813362121582,5.002997398376465,0.7185543179512024
1750927195465497000,6.0554970703125,8.355303764343262,5.0827155113220215,0.7247575521469116
1750927195484321300,6.0743212890625,8.344633102416992,5.099889278411865,0.7270609140396118
1750927195503145700,6.093145751953125,8.380975723266602,5.041136741638184,0.7187401056289673
1750927195521970000,6.111969970703125,8.463582992553711,4.905004501342773,0.6921488642692566
1750927195540794400,6.13079443359375,8.577980995178223,4.707989692687988,0.6507498025894165
1750927195559618600,6.14961865234375,8.711767196655273,4.460405349731445,0.6166558861732483
1750927195578442800,6.16844287109375,8.858986854553223,4.1643781661987305,0.5888097286224365
1750927195597267200,6.18726708984375,9.014949798583984,3.820175886154175,0.5543798804283142
1750927195616091400,6.20609130859375,9.169751167297363,3.437429666519165,0.5197259783744812
1750927195634915800,6.224915771484375,9.306867599487305,3.0506200790405273,0.4963149428367615
1750927195653740000,6.243739990234375,9.41822338104248,2.68805193901062,0.49176475405693054
1750927195672564200,6.262564208984375,9.509737014770508,2.342923641204834,0.4959753155708313
1750927195691388700,6.281388671875,9.590564727783203,1.9848536252975464,0.5018073320388794
1750927195710213000,6.300213134765625,9.660696029663086,1.610730528831482,0.49686697125434875
1750927195729037300,6.319037353515625,9.71508502960205,1.2412539720535278,0.49678707122802734
1750927195747861500,6.337861572265625,9.75334358215332,0.8905196785926819,0.49963563680648804
1750927195766686000,6.35668603515625,9.77878189086914,0.5440243482589722,0.49984753131866455
1750927195785510100,6.37551025390625,9.790616989135742,0.19129621982574463,0.5268742442131042
1750927195804334600,6.39433447265625,9.78868293762207,-0.16148442029953003,0.5709697008132935
1750927195823158800,6.41315869140625,9.775167465209961,-0.5111442804336548,0.5959967374801636
1750927195841983000,6.43198291015625,9.749470710754395,-0.8619019985198975,0.6126357913017273
1750927195860807400,6.450807373046875,9.711365699768066,-1.2084685564041138,0.6319476366043091
1750927195879631600,6.469631591796875,9.662471771240234,-1.5444444417953491,0.6493939757347107
1750927195898456000,6.4884560546875,9.603931427001953,-1.870982050895691,0.6590251326560974
1750927195917280300,6.5072802734375,9.538461685180664,-2.1784207820892334,0.6652899980545044
1750927195936104700,6.526104736328125,9.470606803894043,-2.456052303314209,0.6676874160766602
1750927195954929000,6.544928955078125,9.404437065124512,-2.69992733001709,0.6613228917121887
1750927195973753000,6.563753173828125,9.341344833374023,-2.9133141040802,0.6498259902000427
1750927195992577500,6.58257763671875,9.281431198120117,-3.1001789569854736,0.6436628103256226
1750927196011401700,6.601401611328125,9.23062801361084,-3.248384952545166,0.6433418393135071
1750927196030226200,6.62022607421875,9.196077346801758,-3.3440608978271484,0.6479207277297974
1750927196049050400,6.63905029296875,9.18112564086914,-3.383694648742676,0.6541675925254822
1750927196067874800,6.657874755859375,9.186577796936035,-3.368661403656006,0.6552048921585083
1750927196086699000,6.676698974609375,9.215475082397461,-3.2905921936035156,0.6460608243942261
1750927196105523500,6.6955234375,9.267449378967285,-3.144731283187866,0.6288291811943054
1750927196124347600,6.71434765625,9.337309837341309,-2.936347007751465,0.6024256348609924
1750927196143171800,6.733171875,9.418569564819336,-2.6693930625915527,0.5790321826934814
1750927196161996300,6.751996337890625,9.505500793457031,-2.3444783687591553,0.5650417804718018
1750927196180820500,6.770820556640625,9.590907096862793,-1.969214677810669,0.5541524291038513
1750927196199645000,6.78964501953125,9.666892051696777,-1.5556972026824951,0.5489875078201294
1750927196218469000,6.80846923828125,9.72867202758789,-1.10929274559021,0.5411021709442139
1750927196237293600,6.82729345703125,9.771016120910645,-0.6420164704322815,0.5342633128166199
1750927196256117800,6.84611767578125,9.790406227111816,-0.17920450866222382,0.5349918603897095
1750927196274942200,6.864942138671875,9.78866958618164,0.25796520709991455,0.5346003770828247
1750927196293766400,6.883766357421875,9.769915580749512,0.6615599393844604,0.5305467844009399
1750927196312590600,6.902590576171875,9.73787784576416,1.032974123954773,0.5263783931732178
1750927196331415000,6.9214150390625,9.695716857910156,1.374321460723877,0.5241418480873108
1750927196350239200,6.9402392578125,9.644551277160645,1.6962172985076904,0.52521812915802
1750927196369063700,6.959063720703125,9.583942413330078,2.0101029872894287,0.5271847248077393
1750927196387887900,6.977887939453125,9.514629364013672,2.316784620285034,0.524133026599884
1750927196406712300,6.99671240234375,9.438271522521973,2.612452745437622,0.5143110156059265
1750927196425536500,7.01553662109375,9.355114936828613,2.897373914718628,0.5073736906051636
1750927196444360700,7.034360595703125,9.2640380859375,3.1748270988464355,0.5181376338005066
1750927196463185200,7.05318505859375,9.166513442993164,3.4445230960845947,0.529801607131958
1750927196482009300,7.07200927734375,9.064763069152832,3.7022626399993896,0.5419456958770752
1750927196500833800,7.090833740234375,8.959697723388672,3.948596477508545,0.5502673387527466
1750927196519658000,7.109657958984375,8.857876777648926,4.171754837036133,0.5521344542503357
1750927196538482400,7.128482421875,8.769211769104004,4.355945110321045,0.5450311303138733
1750927196557306600,7.147306640625,8.70036506652832,4.493483543395996,0.5316390991210938
1750927196576131000,7.166131103515625,8.652870178222656,4.585114479064941,0.5243658423423767
1750927196594955300,7.184955322265625,8.631416320800781,4.625285625457764,0.525132417678833
1750927196613779500,7.203779541015625,8.640204429626465,4.609009265899658,0.5237196683883667
1750927196632604000,7.22260400390625,8.68322467803955,4.52776575088501,0.5209060907363892
1750927196651428000,7.241427978515625,8.76102066040039,4.376206398010254,0.5135414004325867
1750927196670252500,7.26025244140625,8.865764617919922,4.160697937011719,0.5071321725845337
1750927196689076700,7.27907666015625,8.987539291381836,3.8923487663269043,0.49411576986312866
1750927196707901200,7.297901123046875,9.119552612304688,3.5753118991851807,0.47041055560112
1750927196726725400,7.316725341796875,9.256670951843262,3.207639217376709,0.442147433757782
1750927196745549600,7.335549560546875,9.391545295715332,2.792165994644165,0.4160166382789612
1750927196764374000,7.3543740234375,9.513166427612305,2.3480112552642822,0.39610108733177185
1750927196783198200,7.3731982421875,9.613687515258789,1.897976279258728,0.3808804154396057
1750927196802022700,7.392022705078125,9.691192626953125,1.4518804550170898,0.3784201145172119
1750927196820846800,7.410846923828125,9.746089935302734,1.0164730548858643,0.38844531774520874
1750927196839671300,7.42967138671875,9.779701232910156,0.6021570563316345,0.40648195147514343
1750927196858495500,7.44849560546875,9.794734954833984,0.21874840557575226,0.4309276044368744
1750927196877319700,7.467319580078125,9.79472541809082,-0.1475115567445755,0.4604245722293854
1750927196896144100,7.48614404296875,9.781219482421875,-0.5097283720970154,0.48816797137260437
1750927196914968300,7.50496826171875,9.75472640991211,-0.8656653165817261,0.5160632729530334
1750927196933792800,7.523792724609375,9.717394828796387,-1.205035924911499,0.5389919281005859
1750927196952617000,7.542616943359375,9.672663688659668,-1.516187310218811,0.5578086376190186
1750927196971441400,7.56144140625,9.623096466064453,-1.798168420791626,0.5770419239997864
1750927196990265600,7.580265625,9.568944931030273,-2.061594009399414,0.5962493419647217
1750927197009090000,7.599090087890625,9.512491226196289,-2.3038225173950195,0.6126050353050232
1750927197027914200,7.617914306640625,9.457136154174805,-2.51674747467041,0.6316195726394653
1750927197046738400,7.636738525390625,9.403244018554688,-2.707056999206543,0.6490209698677063
1750927197065563000,7.65556298828125,9.352044105529785,-2.8767452239990234,0.6587753295898438
1750927197084387000,7.674386962890625,9.30714225769043,-3.0153884887695312,0.6744754910469055
1750927197103211500,7.69321142578125,9.271782875061035,-3.1193552017211914,0.688513457775116
1750927197122035700,7.71203564453125,9.248600006103516,-3.1854870319366455,0.697465181350708
1750927197140860000,7.73085986328125,9.24167537689209,-3.2048280239105225,0.7006418108940125
1750927197159684400,7.749684326171875,9.25557804107666,-3.1641321182250977,0.7020885944366455
1750927197178508500,7.768508544921875,9.288617134094238,-3.065366744995117,0.7039269804954529
1750927197197333000,7.7873330078125,9.336186408996582,-2.9179511070251465,0.7011183500289917
1750927197216157200,7.8061572265625,9.394450187683105,-2.72763729095459,0.6889785528182983
1750927197234981600,7.824981689453125,9.460662841796875,-2.4929230213165283,0.6719861626625061
1750927197253805800,7.843805908203125,9.530077934265137,-2.2182536125183105,0.6537147760391235
1750927197272630000,7.862630126953125,9.598810195922852,-1.9042446613311768,0.6380246877670288
1750927197291454500,7.881454345703125,9.662029266357422,-1.552710771560669,0.6361358165740967
1750927197310278700,7.900278564453125,9.715021133422852,-1.1756740808486938,0.6376045942306519
1750927197329103000,7.91910302734375,9.753497123718262,-0.7967283725738525,0.6363070607185364
1750927197347927300,7.93792724609375,9.776726722717285,-0.43546682596206665,0.6295750141143799
1750927197366751700,7.956751708984375,9.785897254943848,-0.0975993275642395,0.6301302909851074
1750927197385576000,7.975575927734375,9.783120155334473,0.22721703350543976,0.639787495136261
1750927197404400400,7.994400390625,9.769933700561523,0.5458434820175171,0.6487305760383606
1750927197423224600,8.013224609375,9.747193336486816,0.8541896343231201,0.658007025718689
1750927197442048800,8.032048828125,9.715579986572266,1.1559714078903198,0.6645345091819763
1750927197460873200,8.050873291015625,9.674771308898926,1.4586784839630127,0.6644145250320435
1750927197479697400,8.069697509765625,9.620928764343262,1.779198408126831,0.6652630567550659
1750927197498521900,8.08852197265625,9.550678253173828,2.1208152770996094,0.6760781407356262
1750927197517346000,8.107345947265625,9.466472625732422,2.46625018119812,0.6884084343910217
1750927197536170500,8.12617041015625,9.371125221252441,2.8036015033721924,0.7015819549560547
1750927197554994700,8.14499462890625,9.2683687210083,3.1256461143493652,0.7057284116744995
1750927197573819000,8.16381884765625,9.15959644317627,3.4295904636383057,0.714215099811554
1750927197592643300,8.182643310546876,9.052910804748535,3.700683116912842,0.7212048768997192
1750927197611467500,8.201467529296876,8.958549499511719,3.924032211303711,0.7188639044761658
1750927197630292000,8.2202919921875,8.877493858337402,4.105040073394775,0.7135308980941772
1750927197649116200,8.2391162109375,8.80520248413086,4.258702754974365,0.7086961269378662
1750927197667940600,8.257940673828125,8.737367630004883,4.396329879760742,0.7078770995140076
1750927197686764800,8.276764892578125,8.679093360900879,4.510151386260986,0.7086979746818542
1750927197705589000,8.295589111328125,8.64139461517334,4.581900596618652,0.7091438174247742
1750927197724413400,8.314413330078125,8.63495922088623,4.593806266784668,0.7105083465576172
1750927197743237600,8.333237548828125,8.6640043258667,4.539006233215332,0.7091181874275208
1750927197762062000,8.35206201171875,8.726908683776855,4.4194464683532715,0.6927838325500488
1750927197780886300,8.37088623046875,8.818992614746094,4.235748291015625,0.6739314794540405
1750927197799710700,8.389710693359374,8.933100700378418,3.9924421310424805,0.6561295390129089
1750927197818535000,8.408534912109374,9.062394142150879,3.6926956176757812,0.6382756233215332
1750927197837359400,8.427359375,9.198100090026855,3.3439648151397705,0.6190696954727173
1750927197856183600,8.44618359375,9.332281112670898,2.9535770416259766,0.596063494682312
1750927197875007700,8.4650078125,9.459102630615234,2.525268793106079,0.5646122097969055
1750927197893832200,8.483832275390625,9.567569732666016,2.0823423862457275,0.5439267754554749
1750927197912656400,8.502656494140625,9.650870323181152,1.650390625,0.5543403029441833
1750927197931480800,8.521480712890625,9.712520599365234,1.233862042427063,0.5611650347709656
1750927197950305000,8.540304931640625,9.755160331726074,0.8356298804283142,0.5558462142944336
1750927197969129500,8.55912939453125,9.78058910369873,0.45221152901649475,0.5531443953514099
1750927197987953700,8.57795361328125,9.790783882141113,0.06599739193916321,0.5537039041519165
1750927198006777900,8.59677783203125,9.785857200622559,-0.31262776255607605,0.5564605593681335
1750927198025602300,8.615602294921874,9.768281936645508,-0.6459878087043762,0.5777108073234558
1750927198044426500,8.634426513671874,9.743045806884766,-0.9249662160873413,0.6227942705154419
1750927198063251000,8.6532509765625,9.71349048614502,-1.1683613061904907,0.6733715534210205
1750927198082075100,8.6720751953125,9.679789543151855,-1.4102460145950317,0.6951807737350464
1750927198100899300,8.6908994140625,9.639636039733887,-1.6581146717071533,0.7060161828994751
1750927198119723800,8.709723876953126,9.594937324523926,-1.8960832357406616,0.7158454656600952
1750927198138548000,8.7285478515625,9.550905227661133,-2.1022112369537354,0.7288973927497864
1750927198157372400,8.747372314453125,9.50952434539795,-2.2787985801696777,0.7392033934593201
1750927198176196600,8.766196533203125,9.470728874206543,-2.433573007583618,0.7439069747924805
1750927198195021000,8.78502099609375,9.435514450073242,-2.567338705062866,0.7417662739753723
1750927198213845200,8.80384521484375,9.402891159057617,-2.6866188049316406,0.7335580587387085
1750927198232669400,8.82266943359375,9.372945785522461,-2.790733575820923,0.7280671000480652
1750927198251494000,8.841493896484375,9.348572731018066,-2.8715081214904785,0.7273250222206116
1750927198270318000,8.860318115234374,9.33726692199707,-2.9083070755004883,0.726356565952301
1750927198289142500,8.879142578125,9.344205856323242,-2.885782480239868,0.7269420027732849
1750927198307966700,8.897966796875,9.369171142578125,-2.8042078018188477,0.7248757481575012
1750927198326791200,8.916791259765626,9.409212112426758,-2.6682896614074707,0.7192671298980713
1750927198345615400,8.935615478515626,9.458922386169434,-2.4895503520965576,0.7080332040786743
1750927198364439600,8.954439453125,9.515650749206543,-2.267590045928955,0.6934031844139099
1750927198383264000,8.973263916015625,9.576632499694824,-2.0000481605529785,0.6769886016845703
1750927198402088200,8.992088134765625,9.637471199035645,-1.6882325410842896,0.6628782153129578
1750927198420912600,9.01091259765625,9.692767143249512,-1.3374906778335571,0.6570827960968018
1750927198439736800,9.02973681640625,9.736946105957031,-0.9625533819198608,0.6601141095161438
1750927198458561300,9.048561279296875,9.766671180725098,-0.5822455286979675,0.6659621596336365
1750927198477385500,9.067385498046875,9.78141975402832,-0.19986151158809662,0.6740037798881531
1750927198496209700,9.086209716796875,9.780783653259277,0.19221073389053345,0.6853489279747009
1750927198515034000,9.1050341796875,9.763665199279785,0.5908991694450378,0.7014644145965576
1750927198533858300,9.1238583984375,9.731705665588379,0.9724999666213989,0.720099151134491
1750927198552682800,9.142682861328124,9.689947128295898,1.3191149234771729,0.7316145896911621
1750927198571507000,9.1615068359375,9.641563415527344,1.632493019104004,0.7386446595191956
1750927198590331400,9.180331298828126,9.585600852966309,1.9311827421188354,0.7464538216590881
1750927198609155600,9.199155517578125,9.520195960998535,2.228262186050415,0.7557104229927063
1750927198627979800,9.217979736328125,9.445819854736328,2.5237960815429688,0.7598156929016113
1750927198646804200,9.23680419921875,9.36341381072998,2.814532518386841,0.7584751844406128
1750927198665628400,9.25562841796875,9.273850440979004,3.097686767578125,0.7552646994590759
1750927198684452900,9.274452880859375,9.177005767822266,3.3739781379699707,0.7544708251953125
1750927198703277000,9.293277099609375,9.073267936706543,3.6423683166503906,0.7611464858055115
1750927198722101500,9.3121015625,8.965003967285156,3.899013042449951,0.7725183963775635
1750927198740925700,9.33092578125,8.853914260864258,4.143537998199463,0.7808279991149902
1750927198759750000,9.34975,8.74244213104248,4.373641490936279,0.7818851470947266
1750927198778574300,9.36857421875,8.639636039733887,4.5737833976745605,0.7794800996780396
1750927198797398500,9.3873984375,8.557287216186523,4.725461006164551,0.783103883266449
1750927198816223000,9.406222900390626,8.498334884643555,4.829035758972168,0.7931543588638306
1750927198835047200,9.425047119140626,8.463827133178711,4.888275623321533,0.7992323637008667
1750927198853871400,9.443871337890625,8.458704948425293,4.8971333503723145,0.7992468476295471
1750927198872695800,9.46269580078125,8.48756217956543,4.847381591796875,0.7965981364250183
1750927198891520000,9.48152001953125,8.55019760131836,4.736262798309326,0.7951914668083191
1750927198910344400,9.500344482421875,8.642683982849121,4.566563606262207,0.7879778742790222
1750927198929168600,9.519168701171875,8.7576904296875,4.344729423522949,0.7723863124847412
1750927198947993000,9.5379931640625,8.885710716247559,4.079899311065674,0.7542976140975952
1750927198966817300,9.5568173828125,9.016315460205078,3.785503387451172,0.7391907572746277
1750927198985641500,9.575641357421874,9.143202781677246,3.4701225757598877,0.7283450365066528
1750927199004466000,9.5944658203125,9.264461517333984,3.1350553035736084,0.7152383923530579
1750927199023290000,9.6132900390625,9.375944137573242,2.78922700881958,0.6944550275802612
1750927199042114600,9.632114501953126,9.475691795349121,2.4342424869537354,0.6753634214401245
1750927199060938800,9.650938720703126,9.564196586608887,2.061357021331787,0.6688339114189148
1750927199079763200,9.66976318359375,9.638527870178223,1.6730663776397705,0.6855676770210266
1750927199098587400,9.68858740234375,9.695639610290527,1.2867523431777954,0.7135993242263794
1750927199117411600,9.70741162109375,9.735939025878906,0.915229856967926,0.7377158999443054
1750927199136236000,9.726236083984375,9.763022422790527,0.5535610914230347,0.7398282885551453
1750927199155060200,9.745060302734375,9.777326583862305,0.20067423582077026,0.7307533025741577
1750927199173884700,9.763884765625,9.778449058532715,-0.14057983458042145,0.7297743558883667
1750927199192708900,9.782708984375,9.768370628356934,-0.46432721614837646,0.7305721044540405
1750927199211533300,9.801533203125,9.74923038482666,-0.7649409174919128,0.733309805393219
1750927199230357500,9.820357421875,9.722146034240723,-1.04799222946167,0.7429484724998474
1750927199249181700,9.839181640625,9.687882423400879,-1.3196020126342773,0.7576164603233337
1750927199268006100,9.858006103515624,9.647503852844238,-1.5826659202575684,0.7689116597175598
1750927199286830300,9.876830322265626,9.602276802062988,-1.8322635889053345,0.7806914448738098
1750927199305654800,9.89565478515625,9.552584648132324,-2.066979169845581,0.8038032054901123
1750927199324479000,9.91447900390625,9.497467041015625,-2.3003106117248535,0.8228512406349182
1750927199343303400,9.933303466796875,9.437348365783691,-2.5313127040863037,0.8362409472465515
1750927199362127600,9.952127685546875,9.374719619750977,-2.7516629695892334,0.8446104526519775
1750927199380951800,9.970951904296875,9.31006908416748,-2.963062286376953,0.8445421457290649
1750927199399776300,9.9897763671875,9.239677429199219,-3.176443338394165,0.841998815536499
1750927199418600400,10.008600341796875,9.164395332336426,-3.389045238494873,0.8358317017555237
1750927199437425000,10.0274248046875,9.091740608215332,-3.579477310180664,0.8354475498199463
1750927199456249000,10.0462490234375,9.03212833404541,-3.7271242141723633,0.8364022970199585
1750927199475073500,10.065073486328124,8.990544319152832,-3.8270633220672607,0.8331164121627808
1750927199493897700,10.083897705078124,8.966845512390137,-3.8824589252471924,0.8322181701660156
1750927199512722000,10.102721923828126,8.960171699523926,-3.897597551345825,0.8333325386047363
1750927199531546400,10.12154638671875,8.971421241760254,-3.8717563152313232,0.8327609896659851
1750927199550370600,10.14037060546875,9.003326416015625,-3.7974250316619873,0.8307059407234192
1750927199569195000,10.159195068359375,9.057816505432129,-3.6647400856018066,0.8342888951301575
1750927199588019200,10.178019287109375,9.136750221252441,-3.462934970855713,0.8356212973594666
1750927199606843400,10.196843505859375,9.23472785949707,-3.1933767795562744,0.8321781754493713
1750927199625667800,10.215667724609375,9.341609001159668,-2.866572618484497,0.8291501402854919
1750927199644492000,10.234491943359375,9.444169998168945,-2.5076496601104736,0.8304899334907532
1750927199663316500,10.25331640625,9.536589622497559,-2.1268746852874756,0.8368064761161804
1750927199682140700,10.272140625,9.61721134185791,-1.7240307331085205,0.8410398960113525
1750927199700965000,10.290965087890624,9.681394577026367,-1.314916729927063,0.8437851667404175
1750927199719789300,10.309789306640624,9.72822093963623,-0.9127506017684937,0.8360651731491089
1750927199738613500,10.328613525390624,9.758424758911133,-0.5202641487121582,0.820277214050293
1750927199757438000,10.34743798828125,9.772647857666016,-0.13885672390460968,0.804029107093811
1750927199776262100,10.36626220703125,9.77139663696289,0.2401183396577835,0.7953271865844727
1750927199795086600,10.385086669921876,9.755824089050293,0.6158995628356934,0.7841772437095642
1750927199813910800,10.403910888671875,9.727354049682617,0.9843097925186157,0.7616474032402039
1750927199832735200,10.4227353515625,9.686868667602539,1.3386569023132324,0.7368636727333069
1750927199851559400,10.441559326171875,9.63590145111084,1.6771234273910522,0.712066113948822
1750927199870383600,10.460383544921875,9.575627326965332,1.9981673955917358,0.6964877843856812
1750927199889208000,10.4792080078125,9.507814407348633,2.3011701107025146,0.6902807354927063
1750927199908032300,10.4980322265625,9.434235572814941,2.587092876434326,0.6874105334281921
1750927199926856700,10.516856689453125,9.357446670532227,2.8533687591552734,0.6832769513130188
1750927199945681000,10.535680908203124,9.279850959777832,3.0988924503326416,0.6720072627067566
1750927199964505300,10.55450537109375,9.200822830200195,3.3292198181152344,0.6569174528121948
1750927199983329500,10.57332958984375,9.118707656860352,3.55063796043396,0.6422811150550842
1750927200002154000,10.592154052734376,9.035643577575684,3.7598841190338135,0.6251459121704102
1750927200020978200,10.610978271484376,8.956254005432129,3.948533535003662,0.6041497588157654
1750927200039802400,10.62980224609375,8.884228706359863,4.110731601715088,0.5854487419128418
1750927200058626800,10.648626708984375,8.820037841796875,4.249066352844238,0.5681309700012207
1750927200077451000,10.667450927734375,8.764260292053223,4.362883567810059,0.5686619877815247
1750927200096275500,10.686275390625,8.721811294555664,4.444726943969727,0.5871835350990295
1750927200115099600,10.705099609375,8.70273208618164,4.4785614013671875,0.6126371026039124
1750927200133924000,10.723924072265625,8.716075897216797,4.449632167816162,0.6333853602409363
1750927200152748300,10.742748291015625,8.76630973815918,4.348322868347168,0.6436544060707092
1750927200171572500,10.761572509765625,8.849061012268066,4.176449775695801,0.6494435667991638
1750927200190397000,10.78039697265625,8.958860397338867,3.93389892578125,0.658521294593811
1750927200209221000,10.79922119140625,9.084406852722168,3.632723569869995,0.6687694191932678
1750927200228045600,10.818045654296874,9.214561462402344,3.2872889041900635,0.6752681732177734
1750927200246869800,10.836869873046876,9.342818260192871,2.9013071060180664,0.6815759539604187
1750927200265694200,10.855694091796876,9.464237213134766,2.4706478118896484,0.7032010555267334
1750927200284518400,10.874518310546875,9.571775436401367,2.0063858032226562,0.725197434425354
1750927200303342600,10.893342529296875,9.657123565673828,1.5376107692718506,0.7390012741088867
1750927200322167000,10.9121669921875,9.71541690826416,1.1031471490859985,0.7510829567909241
1750927200340991200,10.9309912109375,9.749809265136719,0.7243870496749878,0.7660863995552063
1750927200359815700,10.949815673828125,9.76729679107666,0.3863302171230316,0.788067102432251
1750927200378640000,10.968639892578125,9.772927284240723,0.05175771936774254,0.8109280467033386
1750927200397464300,10.98746435546875,9.767084121704102,-0.306884229183197,0.8247966766357422
1750927200416288500,11.00628857421875,9.747773170471191,-0.6729347705841064,0.8357434868812561
1750927200435112700,11.02511279296875,9.71616268157959,-1.0230915546417236,0.8484398722648621
1750927200453937200,11.043937255859374,9.67389965057373,-1.3578985929489136,0.8614916205406189
1750927200472761300,11.06276123046875,9.621565818786621,-1.6830135583877563,0.8736799359321594
1750927200491585800,11.081585693359376,9.559118270874023,-2.0028228759765625,0.8844932317733765
1750927200510410000,11.100409912109376,9.487298965454102,-2.3146190643310547,0.8967158794403076
1750927200529234200,11.119234130859375,9.40773868560791,-2.6156349182128906,0.9073648452758789
1750927200548058600,11.13805859375,9.322148323059082,-2.903332471847534,0.9157541990280151
1750927200566882800,11.1568828125,9.232471466064453,-3.1746582984924316,0.9238014817237854
1750927200585707300,11.175707275390625,9.142112731933594,-3.4243924617767334,0.9304273128509521
1750927200604531500,11.194531494140625,9.057535171508789,-3.6422324180603027,0.9303687810897827
1750927200623356000,11.21335595703125,8.979809761047363,-3.8301749229431152,0.9290608763694763
1750927200642180000,11.23218017578125,8.910295486450195,-3.9892494678497314,0.9289276003837585
1750927200661004300,11.25100439453125,8.853063583374023,-4.115418434143066,0.9257361888885498
1750927200679828700,11.269828857421874,8.812527656555176,-4.202897548675537,0.9194451570510864
1750927200698653000,11.28865283203125,8.791630744934082,-4.248442649841309,0.9101394414901733
1750927200717477400,11.307477294921876,8.794487953186035,-4.2453813552856445,0.8967280983924866
1750927200736301600,11.326301513671876,8.828228950500488,-4.177416801452637,0.8842820525169373
1750927200755126000,11.3451259765625,8.89074993133545,-4.044477939605713,0.8758796453475952
1750927200773950200,11.3639501953125,8.976320266723633,-3.851787567138672,0.8716585636138916
1750927200792774400,11.3827744140625,9.080544471740723,-3.599120855331421,0.8720247149467468
1750927200811598800,11.401598876953125,9.199199676513672,-3.2823853492736816,0.8780998587608337
1750927200830423000,11.420423095703125,9.323989868164062,-2.9033701419830322,0.8966804146766663
1750927200849247500,11.43924755859375,9.445840835571289,-2.466381072998047,0.9292191863059998
1750927200868071700,11.45807177734375,9.554296493530273,-1.9846787452697754,0.9730735421180725
1750927200886896000,11.476896240234375,9.641402244567871,-1.4790087938308716,1.0130535364151
1750927200905720300,11.49572021484375,9.703001976013184,-0.9681033492088318,1.041593313217163
1750927200924544500,11.51454443359375,9.738286018371582,-0.44800177216529846,1.0655784606933594
1750927200943369000,11.533368896484374,9.74540901184082,0.08845017850399017,1.0906678438186646
1750927200962193200,11.552193115234376,9.723396301269531,0.616500198841095,1.1161912679672241
1750927200981017600,11.571017578125,9.678033828735352,1.1013644933700562,1.137118935585022
1750927200999841800,11.589841796875,9.617497444152832,1.5343523025512695,1.1488604545593262
1750927201018666200,11.608666259765625,9.545797348022461,1.928540587425232,1.1527682542800903
1750927201037490400,11.627490478515625,9.462640762329102,2.3017451763153076,1.1535987854003906
1750927201056314600,11.646314697265625,9.370606422424316,2.6512343883514404,1.1545888185501099
1750927201075139000,11.66513916015625,9.273948669433594,2.9707977771759033,1.1569867134094238
1750927201093963300,11.68396337890625,9.177339553833008,3.256751298904419,1.1577544212341309
1750927201112787700,11.70278759765625,9.085899353027344,3.5054609775543213,1.1526340246200562
1750927201131612000,11.72161181640625,9.00792407989502,3.703758716583252,1.144492506980896
1750927201150436400,11.740436279296874,8.946494102478027,3.852119207382202,1.1365771293640137
1750927201169260500,11.759260498046874,8.896615028381348,3.9680516719818115,1.1292475461959839
1750927201188084700,11.778084716796876,8.851971626281738,4.06914758682251,1.1202764511108398
1750927201206909200,11.7969091796875,8.812782287597656,4.156792640686035,1.1073952913284302
1750927201225733400,11.8157333984375,8.787081718444824,4.213230609893799,1.0983003377914429
1750927201244557800,11.834557861328125,8.784667015075684,4.2184576988220215,1.0975592136383057
1750927201263382000,11.853382080078125,8.806200981140137,4.174039363861084,1.094802975654602
1750927201282206200,11.872206298828125,8.845858573913574,4.090985298156738,1.0885783433914185
1750927201301030700,11.89103076171875,8.904723167419434,3.9620628356933594,1.08552086353302
1750927201319854800,11.909854736328125,8.987869262695312,3.7714040279388428,1.079399824142456
1750927201338679300,11.92867919921875,9.093890190124512,3.5132102966308594,1.0624979734420776
1750927201357503500,11.94750341796875,9.212620735168457,3.1980185508728027,1.0347336530685425
1750927201376328000,11.966327880859374,9.333778381347656,2.836395502090454,1.002912998199463
1750927201395152100,11.985152099609374,9.44904899597168,2.4333324432373047,0.9822158813476562
1750927201413976300,12.003976318359374,9.551397323608398,2.007767915725708,0.9539772868156433
1750927201432800800,12.02280078125,9.633191108703613,1.5841625928878784,0.9286767244338989
1750927201451625000,12.041625,9.692928314208984,1.1753770112991333,0.91434246301651
1750927201470449400,12.060449462890626,9.73449420928955,0.7790160179138184,0.8961800932884216
1750927201489273600,12.079273681640625,9.759547233581543,0.3883815407752991,0.8779442310333252
1750927201508098000,12.09809814453125,9.768562316894531,0.001572991139255464,0.8634673953056335
1750927201526922200,12.116922119140625,9.762408256530762,-0.3700316846370697,0.8537217378616333
1750927201545746400,12.135746337890625,9.743910789489746,-0.7157979011535645,0.845116138458252
1750927201564571000,12.15457080078125,9.715417861938477,-1.0354434251785278,0.8419641852378845
1750927201583395000,12.17339501953125,9.6787691116333,-1.3365328311920166,0.8399350643157959
1750927201602219500,12.192219482421875,9.633609771728516,-1.6344443559646606,0.832191526889801
1750927201621043700,12.211043701171874,9.579141616821289,-1.9321084022521973,0.8230370283126831
1750927201639868200,12.2298681640625,9.51731014251709,-2.219758987426758,0.8147745132446289
1750927201658692400,12.2486923828125,9.452484130859375,-2.481989860534668,0.8128053545951843
1750927201677516500,12.2675166015625,9.385737419128418,-2.723371744155884,0.8133683204650879
1750927201696341000,12.286341064453126,9.315823554992676,-2.9541680812835693,0.8116058707237244
1750927201715165200,12.305165283203126,9.242823600769043,-3.1763241291046143,0.8071843385696411
1750927201733989600,12.32398974609375,9.171223640441895,-3.37986421585083,0.7972146272659302
1750927201752813800,12.342813720703125,9.107744216918945,-3.5487899780273438,0.7908719182014465
1750927201771638300,12.36163818359375,9.056468963623047,-3.6789586544036865,0.7848707437515259
1750927201790462500,12.38046240234375,9.016016960144043,-3.7774455547332764,0.7827633619308472
1750927201809286700,12.39928662109375,8.982491493225098,-3.8566489219665527,0.7819705605506897
1750927201828111000,12.418111083984375,8.958885192871094,-3.911853790283203,0.7785655856132507
1750927201846935300,12.436935302734375,8.951177597045898,-3.93017578125,0.7749351263046265
1750927201865759500,12.455759521484374,8.963525772094727,-3.9021987915039062,0.7735927104949951
1750927201884584000,12.474583984375,8.997872352600098,-3.822277784347534,0.7738757729530334
1750927201903408000,12.493408203125,9.051393508911133,-3.6933023929595947,0.7759940028190613
1750927201922232600,12.512232666015626,9.12014102935791,-3.5181539058685303,0.7848595380783081
1750927201941056800,12.531056884765626,9.201549530029297,-3.296414852142334,0.7972020506858826
1750927201959881200,12.549881103515625,9.290454864501953,-3.032907724380493,0.8119776844978333
1750927201978705400,12.568705322265625,9.380218505859375,-2.7369232177734375,0.8313525319099426
1750927201997529600,12.587529541015625,9.466219902038574,-2.4150145053863525,0.8536926507949829
1750927202016354000,12.60635400390625,9.543362617492676,-2.079535722732544,0.8775821924209595
1750927202035178200,12.62517822265625,9.608613967895508,-1.741441249847412,0.901282548904419
1750927202054002700,12.644002685546875,9.661393165588379,-1.4045557975769043,0.9247076511383057
1750927202072827000,12.662826904296875,9.702169418334961,-1.0677539110183716,0.9477204084396362
1750927202091651300,12.6816513671875,9.73151683807373,-0.728064775466919,0.9684509038925171
1750927202110475500,12.7004755859375,9.74997329711914,-0.3902116119861603,0.9778244495391846
1750927202129299700,12.7192998046875,9.757692337036133,-0.06241987273097038,0.976693332195282
1750927202148124200,12.738124267578126,9.754817008972168,0.25406336784362793,0.974371612071991
1750927202166948400,12.7569482421875,9.741128921508789,0.5677382946014404,0.9790109395980835
1750927202185772800,12.775772705078126,9.71678352355957,0.8813509345054626,0.988801896572113
1750927202204597000,12.794596923828125,9.682560920715332,1.1925771236419678,0.9980767369270325
1750927202223421400,12.81342138671875,9.641500473022461,1.4857386350631714,1.002214789390564
1750927202242245600,12.83224560546875,9.597428321838379,1.749664545059204,0.9992170929908752
1750927202261069800,12.85106982421875,9.551755905151367,1.9852641820907593,0.9965282082557678
1750927202279894300,12.869894287109375,9.503666877746582,2.204476833343506,0.9954810738563538
1750927202298718500,12.888718505859375,9.451884269714355,2.417336940765381,0.9943578243255615
1750927202317543000,12.90754296875,9.396245956420898,2.626206636428833,0.9919588565826416
1750927202336367000,12.9263671875,9.336008071899414,2.832685708999634,0.9925975203514099
1750927202355191600,12.945191650390624,9.272379875183105,3.0312252044677734,1.0025144815444946
1750927202374015700,12.964015625,9.210700035095215,3.207953691482544,1.0209877490997314
1750927202392840000,12.98283984375,9.15589427947998,3.355236053466797,1.0403693914413452
1750927202411664400,13.001664306640626,9.105046272277832,3.4866576194763184,1.0543938875198364
1750927202430488600,13.020488525390626,9.055185317993164,3.611529588699341,1.0634114742279053
1750927202449313000,13.03931298828125,9.008219718933105,3.725327968597412,1.0697202682495117
1750927202468137200,13.05813720703125,8.967527389526367,3.820284366607666,1.0766884088516235
1750927202486961700,13.076961669921875,8.936737060546875,3.889991044998169,1.0830965042114258
1750927202505785900,13.095785888671875,8.920201301574707,3.926887273788452,1.0862550735473633
1750927202524610000,13.114610107421875,8.925581932067871,3.915898084640503,1.081719160079956
1750927202543434500,13.1334345703125,8.957426071166992,3.8453800678253174,1.0714256763458252
1750927202562258700,13.1522587890625,9.015047073364258,3.7120795249938965,1.0581949949264526
1750927202581083100,13.171083251953124,9.091243743896484,3.526369571685791,1.0413484573364258
1750927202599907300,13.1899072265625,9.181074142456055,3.292314052581787,1.0192818641662598
1750927202618731500,13.2087314453125,9.2847318649292,2.9970602989196777,0.9908518195152283
1750927202637556000,13.227555908203126,9.397238731384277,2.635890007019043,0.9562268853187561
1750927202656380200,13.246380126953126,9.506853103637695,2.219897985458374,0.9285356402397156
1750927202675204600,13.26520458984375,9.600820541381836,1.775347352027893,0.9180355668067932
1750927202694028800,13.28402880859375,9.67439079284668,1.3246345520019531,0.906580924987793
1750927202712853200,13.302853271484375,9.725606918334961,0.8868118524551392,0.8924782872200012
1750927202731677400,13.321677490234375,9.755876541137695,0.4723401665687561,0.8775820732116699
1750927202750501600,13.340501708984375,9.768857955932617,0.07398099452257156,0.856927216053009
1750927202769326000,13.359326171875,9.766162872314453,-0.32070392370224,0.8304187059402466
1750927202788150300,13.378150390625,9.748626708984375,-0.7013792991638184,0.8017137050628662
1750927202806974700,13.396974609375,9.719486236572266,-1.0458991527557373,0.7798027992248535
1750927202825799000,13.415798828125,9.682626724243164,-1.3530247211456299,0.7657949328422546
1750927202844623000,13.434623046875,9.638361930847168,-1.642795443534851,0.7573593258857727
1750927202863447600,13.453447509765626,9.585443496704102,-1.9294224977493286,0.7529881596565247
1750927202882271700,13.472271728515626,9.525287628173828,-2.2076194286346436,0.7521209120750427
1750927202901096200,13.49109619140625,9.461787223815918,-2.4658384323120117,0.7514119744300842
1750927202919920400,13.50992041015625,9.399657249450684,-2.6940462589263916,0.7476208209991455
1750927202938744800,13.528744873046875,9.341434478759766,-2.891167640686035,0.7410300374031067
1750927202957569000,13.547569091796875,9.288164138793945,-3.059992551803589,0.7326918840408325
1750927202976393200,13.566393310546875,9.237848281860352,-3.2095725536346436,0.7288206219673157
1750927202995217700,13.5852177734375,9.188450813293457,-3.347898006439209,0.7309849858283997
1750927203014041900,13.604041748046875,9.14077377319336,-3.4754652976989746,0.7333334684371948
1750927203032866300,13.6228662109375,9.099020957946777,-3.583174228668213,0.7342097163200378
1750927203051690500,13.6416904296875,9.07070255279541,-3.654672622680664,0.732200026512146
1750927203070515000,13.660514892578124,9.059810638427734,-3.6823570728302,0.7283298373222351
1750927203089339100,13.679339111328124,9.067065238952637,-3.664621114730835,0.7274977564811707
1750927203108163300,13.698163330078126,9.092583656311035,-3.600311279296875,0.7301121950149536
1750927203126987800,13.71698779296875,9.134664535522461,-3.490830183029175,0.7364693880081177
1750927203145812000,13.73581201171875,9.190216064453125,-3.339759111404419,0.7458661794662476
1750927203164636400,13.754636474609375,9.256705284118652,-3.1477394104003906,0.758638858795166
1750927203183460600,13.773460693359375,9.335345268249512,-2.902329444885254,0.7734289169311523
1750927203202284800,13.792284912109375,9.422033309936523,-2.60249924659729,0.7891021966934204
1750927203221109200,13.811109130859375,9.506568908691406,-2.2684783935546875,0.8059425354003906
1750927203239933400,13.829933349609375,9.579755783081055,-1.9288910627365112,0.8234363198280334
1750927203258758000,13.8487578125,9.639264106750488,-1.5955524444580078,0.842140257358551
1750927203277582000,13.86758203125,9.686437606811523,-1.2669144868850708,0.8592105507850647
1750927203296406500,13.886406494140624,9.722330093383789,-0.9452844262123108,0.8678270578384399
1750927203315230700,13.905230712890624,9.748361587524414,-0.6263964176177979,0.8645498752593994
1750927203334055000,13.924054931640624,9.765097618103027,-0.30971258878707886,0.8469480276107788
1750927203352879400,13.94287939453125,9.772359848022461,-0.0007291484507732093,0.8193774223327637
1750927203371703600,13.96170361328125,9.7693452835083,0.29985055327415466,0.8002352118492126
1750927203390528000,13.980528076171876,9.754593849182129,0.6012320518493652,0.8104413747787476
1750927203409352200,13.999352294921875,9.727993965148926,0.9230372905731201,0.8273594975471497
1750927203428176600,14.0181767578125,9.687519073486328,1.2726848125457764,0.8382396101951599
1750927203447000800,14.037000732421875,9.63302230834961,1.631543517112732,0.8445883393287659
1750927203465825000,14.055824951171875,9.568439483642578,1.9726197719573975,0.8509619235992432
1750927203484649500,14.0746494140625,9.499500274658203,2.2759623527526855,0.865951657295227
1750927203503473700,14.0934736328125,9.433703422546387,2.5314013957977295,0.8761523962020874
1750927203522298000,14.112298095703125,9.373687744140625,2.7440266609191895,0.8801578879356384
1750927203541122300,14.131122314453124,9.316025733947754,2.9323441982269287,0.885099470615387
1750927203559946500,14.149946533203124,9.253091812133789,3.1212856769561768,0.8990297913551331
1750927203578771000,14.16877099609375,9.181640625,3.319793224334717,0.9202383756637573
1750927203597595100,14.18759521484375,9.10519790649414,3.5195412635803223,0.9373269081115723
1750927203616419600,14.206419677734376,9.029236793518066,3.707369804382324,0.947999119758606
1750927203635243800,14.225243896484375,8.955720901489258,3.879725456237793,0.9556080102920532
1750927203654068200,14.244068115234375,8.882234573364258,4.042804718017578,0.96541428565979
1750927203672892400,14.262892333984375,8.803057670593262,4.2099151611328125,0.9763031601905823
1750927203691716600,14.281716552734375,8.716710090637207,4.383513927459717,0.9869856834411621
1750927203710541000,14.300541015625,8.630369186401367,4.54891300201416,0.9972551465034485
1750927203729365200,14.319365234375,8.556131362915039,4.686455726623535,1.000066876411438
1750927203748189700,14.338189697265625,8.500733375549316,4.786431312561035,0.9989972114562988
1750927203767014000,14.357013916015624,8.467815399169922,4.842478275299072,1.0084002017974854
1750927203785838000,14.375838134765624,8.465558052062988,4.843012809753418,1.0246702432632446
1750927203804662500,14.39466259765625,8.502809524536133,4.775087833404541,1.034961462020874
1750927203823486700,14.41348681640625,8.58243179321289,4.6314377784729,1.0305558443069458
1750927203842311200,14.432311279296876,8.700150489807129,4.409536361694336,1.016737937927246
1750927203861135400,14.45113525390625,8.847428321838379,4.110179901123047,0.9999094605445862
1750927203879959800,14.469959716796875,9.011470794677734,3.744232416152954,0.9718539118766785
1750927203898784000,14.488783935546875,9.177124977111816,3.3297488689422607,0.9292652606964111
1750927203917608200,14.507608154296875,9.329936981201172,2.8892242908477783,0.8803598880767822
1750927203936432600,14.5264326171875,9.459329605102539,2.4399192333221436,0.8592284321784973
1750927203955256800,14.5452568359375,9.56567096710205,1.9919990301132202,0.8368135690689087
1750927203974081300,14.564081298828125,9.65064811706543,1.542453646659851,0.8100653886795044
1750927203992905500,14.582905517578125,9.714762687683105,1.086071252822876,0.7837185263633728
1750927204011729700,14.601729736328124,9.757543563842773,0.6297995448112488,0.7510568499565125
1750927204030554000,14.62055419921875,9.778103828430176,0.1916857659816742,0.7227188944816589
1750927204049378300,14.63937841796875,9.77942180633545,-0.22595913708209991,0.6944390535354614
1750927204068202800,14.65820263671875,9.762922286987305,-0.6384145617485046,0.6694634556770325
1750927204087027000,14.67702685546875,9.7290620803833,-1.0492424964904785,0.6440640687942505
1750927204105851400,14.695851318359376,9.680448532104492,-1.441594123840332,0.6173356771469116
1750927204124675600,14.714675537109375,9.621216773986816,-1.8016762733459473,0.5971254706382751
1750927204143499800,14.733499755859375,9.554975509643555,-2.1291072368621826,0.5828531980514526
1750927204162324200,14.75232421875,9.482409477233887,-2.4342103004455566,0.5735127925872803
1750927204181148400,14.7711484375,9.402754783630371,-2.7270545959472656,0.5672292113304138
1750927204199972900,14.789972900390625,9.320709228515625,-2.9959728717803955,0.5647356510162354
1750927204218797000,14.808797119140625,9.24213981628418,-3.2306294441223145,0.5623880624771118
1750927204237621500,14.82762158203125,9.169013977050781,-3.4319703578948975,0.5666996836662292
1750927204256445700,14.84644580078125,9.105826377868652,-3.596165657043457,0.5673865079879761
1750927204275270000,14.865269775390624,9.057957649230957,-3.715033769607544,0.5677381157875061
1750927204294094300,14.88409423828125,9.025491714477539,-3.792356252670288,0.573516309261322
1750927204312918500,14.90291845703125,9.009688377380371,-3.8286755084991455,0.5806399583816528
1750927204331743000,14.921742919921876,9.018373489379883,-3.8076345920562744,0.5841614603996277
1750927204350567200,14.940567138671875,9.054078102111816,-3.7208690643310547,0.5909231901168823
1750927204369391400,14.959391357421875,9.112507820129395,-3.5736138820648193,0.6015365719795227
1750927204388215800,14.9782158203125,9.189318656921387,-3.3687262535095215,0.6152220368385315
1750927204407040000,14.9970400390625,9.278435707092285,-3.1115102767944336,0.632075309753418
1750927204425864400,15.015864501953125,9.374188423156738,-2.8055522441864014,0.6510425209999084
1750927204444688600,15.034688720703125,9.468653678894043,-2.463329315185547,0.6685863733291626
1750927204463513000,15.05351318359375,9.555176734924316,-2.097447156906128,0.6853582262992859
1750927204482337300,15.072337158203124,9.63020133972168,-1.7152953147888184,0.6981186866760254
1750927204501161500,15.091161376953124,9.692032814025879,-1.3147292137145996,0.7115917801856995
1750927204519986000,15.10998583984375,9.738052368164062,-0.9006221294403076,0.727733850479126
1750927204538810000,15.12881005859375,9.76693344116211,-0.4787807762622833,0.7403717637062073
1750927204557634600,15.147634521484376,9.77834415435791,-0.06773574650287628,0.7414684891700745
1750927204576458800,15.166458740234376,9.773151397705078,0.31941816210746765,0.7442231178283691
1750927204595283000,15.185282958984375,9.754117965698242,0.6863016486167908,0.746025025844574
1750927204614107400,15.204107421875,9.72266674041748,1.039322853088379,0.7483044862747192
1750927204632931600,15.222931640625,9.680746078491211,1.374690294265747,0.7508378624916077
1750927204651756000,15.241756103515625,9.632165908813477,1.681222915649414,0.7518383860588074
1750927204670580200,15.260580322265625,9.579936027526855,1.9572488069534302,0.7512488961219788
1750927204689404700,15.27940478515625,9.522862434387207,2.220336437225342,0.745381236076355
1750927204708228900,15.298228759765625,9.458386421203613,2.483922004699707,0.7344703078269958
1750927204727053000,15.317052978515624,9.385141372680664,2.7498111724853516,0.7266771197319031
1750927204745877500,15.33587744140625,9.301895141601562,3.01969575881958,0.7256550788879395
1750927204764701700,15.35470166015625,9.212047576904297,3.2837307453155518,0.7250332832336426
1750927204783526100,15.373526123046876,9.121635437011719,3.5276899337768555,0.7221972942352295
1750927204802350300,15.392350341796876,9.032923698425293,3.749051570892334,0.7220096588134766
1750927204821174800,15.4111748046875,8.943283081054688,3.9572646617889404,0.7267283201217651
1750927204839999000,15.4299990234375,8.850970268249512,4.158504486083984,0.7331648468971252
1750927204858823200,15.4488232421875,8.760441780090332,4.345232009887695,0.7375685572624207
1750927204877647600,15.467647705078125,8.67776870727539,4.509154319763184,0.730908989906311
1750927204896471800,15.486471923828125,8.610688209533691,4.640061378479004,0.7044599652290344
1750927204915296300,15.505296142578125,8.57472038269043,4.710888385772705,0.6723726391792297
1750927204934120400,15.524120361328125,8.580513000488281,4.703824996948242,0.6474668383598328
1750927204952944600,15.542944580078125,8.629083633422852,4.616667747497559,0.6290382742881775
1750927204971769000,15.56176904296875,8.715127944946289,4.453733444213867,0.6174162030220032
1750927204990593300,15.58059326171875,8.830632209777832,4.221717834472656,0.6061660051345825
1750927205009417700,15.599417724609374,8.968435287475586,3.923748254776001,0.5846004486083984
1750927205028242000,15.618241943359376,9.120950698852539,3.560680627822876,0.5479162931442261
1750927205047066400,15.63706640625,9.273567199707031,3.148488759994507,0.5082883834838867
1750927205065890600,15.655890625,9.408708572387695,2.721120834350586,0.4920266568660736
1750927205084714800,15.67471484375,9.521705627441406,2.296884059906006,0.4814806878566742
1750927205103539200,15.693539306640625,9.613837242126465,1.8771140575408936,0.47006747126579285
1750927205122363400,15.71236328125,9.68766975402832,1.4526516199111938,0.4574335217475891
1750927205141187800,15.731187744140625,9.743240356445312,1.0200834274291992,0.4461882710456848
1750927205160012000,15.750011962890625,9.778582572937012,0.5946316123008728,0.4428645670413971
1750927205178836200,15.768836181640625,9.794853210449219,0.19844864308834076,0.43801015615463257
1750927205197660700,15.78766064453125,9.796224594116211,-0.157822385430336,0.42363640666007996
1750927205216484900,15.80648486328125,9.786640167236328,-0.4833332598209381,0.3980739712715149
1750927205235309300,15.825309326171874,9.766779899597168,-0.8023073673248291,0.36972254514694214
1750927205254133500,15.844133544921876,9.734801292419434,-1.1334813833236694,0.34535351395606995
1750927205272958000,15.8629580078125,9.689958572387695,-1.4712998867034912,0.3322092294692993
1750927205291782100,15.8817822265625,9.633820533752441,-1.804626703262329,0.32124462723731995
1750927205310606300,15.9006064453125,9.56656551361084,-2.13455867767334,0.3080116808414459
1750927205329430800,15.9194306640625,9.489782333374023,-2.4551644325256348,0.294274240732193
1750927205348255000,15.9382548828125,9.407011985778809,-2.756538152694702,0.28288665413856506
1750927205367079400,15.957079345703125,9.32458209991455,-3.025271415710449,0.2651285231113434
1750927205385903600,15.975903564453125,9.245499610900879,-3.2605443000793457,0.2448885589838028
1750927205404728000,15.99472802734375,9.169815063476562,-3.4684088230133057,0.23454894125461578
1750927205423552300,16.01355224609375,9.106553077697754,-3.6320977210998535,0.22124049067497253
1750927205442376400,16.03237646484375,9.06495475769043,-3.7356395721435547,0.20487014949321747
1750927205461201000,16.051200927734374,9.03917407989502,-3.798039436340332,0.19654393196105957
1750927205480025000,16.070025146484376,9.035608291625977,-3.8068392276763916,0.1901131272315979
1750927205498849500,16.088849609375,9.050224304199219,-3.771970272064209,0.18989720940589905
1750927205517673700,16.107673828125,9.079815864562988,-3.7001523971557617,0.19026048481464386
1750927205536498000,16.126497802734374,9.125950813293457,-3.584648370742798,0.194178968667984
1750927205555322400,16.145322265625,9.193657875061035,-3.406862735748291,0.20084135234355927
1750927205574146600,16.164146484375,9.277839660644531,-3.1697239875793457,0.21198447048664093
1750927205592971000,16.182970947265623,9.364123344421387,-2.903033494949341,0.23658902943134308
1750927205611795200,16.201795166015625,9.450551986694336,-2.605323553085327,0.2640751898288727
1750927205630619600,16.22061962890625,9.535881996154785,-2.2703773975372314,0.28761422634124756
1750927205649443800,16.23944384765625,9.615217208862305,-1.9009878635406494,0.3228321969509125
1750927205668268000,16.25826806640625,9.681646347045898,-1.5190061330795288,0.35879024863243103
1750927205687092500,16.277092529296876,9.732008934020996,-1.1422107219696045,0.3921085596084595
1750927205705916700,16.295916748046874,9.767690658569336,-0.7593606114387512,0.43126028776168823
1750927205724741000,16.3147412109375,9.788607597351074,-0.3628789782524109,0.4710395634174347
1750927205743565300,16.3335654296875,9.793167114257812,0.022808292880654335,0.5135580897331238
1750927205762389800,16.3523896484375,9.784516334533691,0.3565728962421417,0.553612232208252
1750927205781214000,16.3712138671875,9.76872444152832,0.6250413060188293,0.5930773019790649
1750927205800038100,16.3900380859375,9.74846076965332,0.8653296828269958,0.6237844824790955
1750927205818862600,16.408862548828125,9.720296859741211,1.1223177909851074,0.6531583070755005
1750927205837686800,16.427686767578123,9.678815841674805,1.4232661724090576,0.6820647716522217
1750927205856511200,16.44651123046875,9.621185302734375,1.7611913681030273,0.7080746293067932
1750927205875335400,16.46533544921875,9.545523643493652,2.1254701614379883,0.7319363355636597
1750927205894159600,16.48415966796875,9.451106071472168,2.5043833255767822,0.7583224773406982
1750927205912984000,16.502984130859375,9.342894554138184,2.8726816177368164,0.7927150130271912
1750927205931808300,16.521808349609376,9.228670120239258,3.2103302478790283,0.8341531753540039
1750927205950632700,16.5406328125,9.114209175109863,3.5132217407226562,0.8711203932762146
1750927205969457000,16.559456787109376,9.000064849853516,3.7884597778320312,0.9037710428237915
1750927205988281300,16.57828125,8.888141632080078,4.035584926605225,0.9409453272819519
1750927206007105500,16.59710546875,8.79138469696045,4.2324981689453125,0.9838195443153381
1750927206025929700,16.6159296875,8.72429370880127,4.361273765563965,1.0180225372314453
1750927206044754200,16.634754150390624,8.693018913269043,4.41811466217041,1.0402302742004395
1750927206063578400,16.653578369140625,8.69514274597168,4.409694671630859,1.0580508708953857
1750927206082402800,16.67240283203125,8.727117538452148,4.343815803527832,1.0672814846038818
1750927206101227000,16.69122705078125,8.789621353149414,4.217213153839111,1.062096357345581
1750927206120051200,16.71005126953125,8.882638931274414,4.022048473358154,1.0451064109802246
1750927206138875600,16.728875732421876,8.998119354248047,3.763456344604492,1.020117998123169
1750927206157699800,16.747699951171874,9.122538566589355,3.4604876041412354,0.987267792224884
1750927206176524300,16.766524169921876,9.241972923278809,3.1372852325439453,0.9559066295623779
1750927206195348500,16.785348388671874,9.35383129119873,2.7943191528320312,0.9316766858100891
1750927206214173000,16.8041728515625,9.457542419433594,2.429711103439331,0.9065235257148743
1750927206232997000,16.8229970703125,9.54712200164795,2.0558972358703613,0.8922678828239441
1750927206251821300,16.8418212890625,9.621610641479492,1.6811695098876953,0.8767417073249817
1750927206270645800,16.860645751953125,9.681282043457031,1.307232141494751,0.8569117784500122
1750927206289470000,16.879469970703123,9.726578712463379,0.9284683465957642,0.8378517031669617
1750927206308294400,16.89829443359375,9.75760269165039,0.5380998849868774,0.8185445666313171
1750927206327118600,16.91711865234375,9.77308464050293,0.14615750312805176,0.7973970770835876
1750927206345942800,16.93594287109375,9.773189544677734,-0.22941261529922485,0.776218831539154
1750927206364767200,16.954767333984375,9.760075569152832,-0.5816776156425476,0.756939172744751
1750927206393003800,16.983003662109375,9.7174654006958,-1.0973727703094482,0.7328247427940369
1750927206411828000,17.001827880859373,9.673190116882324,-1.4418978691101074,0.7216021418571472
1750927206430652200,17.020652099609375,9.617875099182129,-1.777045488357544,0.7134325504302979
1750927206449476600,17.0394765625,9.554168701171875,-2.0955517292022705,0.7049141526222229
1750927206468300800,17.05830078125,9.484464645385742,-2.39225172996521,0.7017432451248169
1750927206487125200,17.077125244140625,9.411025047302246,-2.6660120487213135,0.703830361366272
1750927206505949400,17.095949462890626,9.332889556884766,-2.9275078773498535,0.7051548957824707
1750927206524774000,17.11477392578125,9.245684623718262,-3.1927332878112793,0.7029561400413513
1750927206543598000,17.13359814453125,9.150969505310059,-3.453028440475464,0.711852490901947
1750927206562422300,17.15242236328125,9.06268310546875,-3.6755049228668213,0.7271943092346191
1750927206581246700,17.171246826171874,8.98919677734375,-3.850804328918457,0.7321370244026184
1750927206600071000,17.19007080078125,8.925050735473633,-3.997418165206909,0.731107771396637
1750927206618895400,17.208895263671874,8.873578071594238,-4.110140323638916,0.7326377034187317
1750927206637719600,17.227719482421875,8.846439361572266,-4.1681132316589355,0.7333009839057922
1750927206656544000,17.2465439453125,8.85407829284668,-4.152614593505859,0.7290218472480774
1750927206675368200,17.2653681640625,8.89431095123291,-4.065449237823486,0.7305780649185181
1750927206694192400,17.2841923828125,8.960402488708496,-3.9163286685943604,0.7375251054763794
1750927206713016800,17.303016845703127,9.04410171508789,-3.717085838317871,0.7469226121902466
1750927206731841000,17.321841064453125,9.134235382080078,-3.4865589141845703,0.7616084218025208
1750927206750665200,17.340665283203126,9.227826118469238,-3.225907802581787,0.7817507386207581
1750927206769489700,17.35948974609375,9.327550888061523,-2.9203412532806396,0.7992376685142517
1750927206788313900,17.37831396484375,9.427475929260254,-2.576525926589966,0.8090727925300598
1750927206807138300,17.39713818359375,9.516962051391602,-2.224020481109619,0.8071929812431335
1750927206825962500,17.41596240234375,9.589816093444824,-1.8907743692398071,0.7942049503326416
1750927206844787000,17.434786865234376,9.647629737854004,-1.5796030759811401,0.7736252546310425
1750927206863611100,17.453611083984374,9.694138526916504,-1.2756822109222412,0.7527968287467957
1750927206882435300,17.472435302734375,9.731154441833496,-0.961743950843811,0.7416725754737854
1750927206901259800,17.491259765625,9.759519577026367,-0.618323028087616,0.7347351908683777
1750927206920084000,17.510083984375,9.776800155639648,-0.24746033549308777,0.7234061360359192
1750927206938908400,17.528908447265625,9.78028678894043,0.12075496464967728,0.7083877921104431
1750927206957732600,17.547732666015627,9.772248268127441,0.4425869286060333,0.6911340355873108
1750927206976557000,17.56655712890625,9.758149147033691,0.7145352363586426,0.6620864868164062
1750927206995381200,17.58538134765625,9.738520622253418,0.9655571579933167,0.6318910717964172
1750927207014205400,17.604205322265624,9.711316108703613,1.2164057493209839,0.6173166036605835
1750927207033030000,17.62302978515625,9.673659324645996,1.4861730337142944,0.6180475354194641
1750927207051854000,17.64185400390625,9.623469352722168,1.7778959274291992,0.631110429763794
1750927207070678500,17.660678466796874,9.560881614685059,2.081888198852539,0.6524338722229004
1750927207089502700,17.679502685546876,9.487800598144531,2.3868799209594727,0.6744062900543213
1750927207108327000,17.698326904296874,9.407238006591797,2.681124210357666,0.6970219016075134
1750927207127151400,17.7171513671875,9.317225456237793,2.9731814861297607,0.721035897731781
1750927207145975600,17.7359755859375,9.21499252319336,3.2705764770507812,0.7467459440231323
1750927207164800000,17.754800048828123,9.108111381530762,3.550748825073242,0.7777459025382996
1750927207183624200,17.773624267578125,9.004356384277344,3.7984859943389893,0.8145290613174438
1750927207202448400,17.792448486328126,8.903549194335938,4.02144718170166,0.8515666127204895
1750927207221272800,17.81127294921875,8.80043888092041,4.237525939941406,0.875231921672821
1750927207240097000,17.830096923828126,8.694084167480469,4.4517951011657715,0.8745375275611877
1750927207258921200,17.848921142578124,8.591704368591309,4.648766040802002,0.8613791465759277
1750927207277745700,17.86774560546875,8.503586769104004,4.809961318969727,0.8506857752799988
1750927207296569900,17.88656982421875,8.44743537902832,4.9086408615112305,0.8464527726173401
1750927207315394300,17.905394287109374,8.438847541809082,4.923340797424316,0.8467391133308411
1750927207334218500,17.924218505859375,8.486172676086426,4.8420186042785645,0.8426837921142578
1750927207353042700,17.943042724609374,8.585661888122559,4.6648688316345215,0.8341492414474487
1750927207371867100,17.9618671875,8.726308822631836,4.400453090667725,0.8111363649368286
1750927207390691300,17.98069140625,8.898587226867676,4.049736499786377,0.7649592161178589
1750927207409515800,17.999515869140627,9.0889253616333,3.6145994663238525,0.7046152949333191
1750927207428340000,18.018340087890625,9.272576332092285,3.121671199798584,0.6669899225234985
1750927207447164200,18.0371640625,9.42795181274414,2.615929126739502,0.6640992760658264
1750927207465988600,18.055988525390624,9.549539566040039,2.1293752193450928,0.6651720404624939
1750927207484812800,18.074812744140626,9.641950607299805,1.6609103679656982,0.6667442917823792
1750927207503637200,18.09363720703125,9.710516929626465,1.199112057685852,0.6621028780937195
1750927207522461400,18.11246142578125,9.75695514678955,0.7386553287506104,0.6531383395195007
1750927207541285600,18.13128564453125,9.78204345703125,0.2746841311454773,0.6376229524612427
1750927207560110000,18.150110107421874,9.785533905029297,-0.18273141980171204,0.6167086362838745
1750927207578934300,18.168934326171875,9.769021034240723,-0.6119115352630615,0.6018202304840088
1750927207597758700,18.1877587890625,9.736856460571289,-1.0009130239486694,0.6018157601356506
1750927207616583000,18.2065830078125,9.692331314086914,-1.3608211278915405,0.6142187118530273
1750927207635407400,18.225407470703125,9.638139724731445,-1.7014340162277222,0.6178678870201111
1750927207654231600,18.2442314453125,9.574169158935547,-2.030372142791748,0.6190770268440247
1750927207673055700,18.2630556640625,9.501690864562988,-2.3473949432373047,0.6148079633712769
1750927207701292300,18.291292236328125,9.381940841674805,-2.793006658554077,0.5904892683029175
1750927207720116500,18.310116455078123,9.298360824584961,-3.06131911277771,0.5823982357978821
1750927207738941000,18.32894091796875,9.215213775634766,-3.303309440612793,0.5816988348960876
1750927207757765000,18.34776513671875,9.131129264831543,-3.528486490249634,0.585358738899231
1750927207776589600,18.366589599609377,9.047846794128418,-3.736996650695801,0.5845615267753601
1750927207795413800,18.385413818359375,8.971437454223633,-3.9175124168395996,0.5803318023681641
1750927207814238200,18.40423828125,8.908092498779297,-4.060064792633057,0.576334536075592
1750927207833062400,18.4230625,8.865840911865234,-4.152547836303711,0.5688477754592896
1750927207851886600,18.441886474609376,8.850831031799316,-4.185943603515625,0.5577113628387451
1750927207870711000,18.4607109375,8.862090110778809,-4.163339614868164,0.5480385422706604
1750927207889535200,18.47953515625,8.895661354064941,-4.091516494750977,0.5450498461723328
1750927207908359700,18.498359619140626,8.946962356567383,-3.978203058242798,0.5442101955413818
1750927207927184000,18.517183837890624,9.014701843261719,-3.8214638233184814,0.5495011210441589
1750927207946008300,18.53600830078125,9.099621772766113,-3.6127495765686035,0.5615343451499939
1750927207964832500,18.55483251953125,9.197503089904785,-3.3533694744110107,0.5755388736724854
1750927207983656700,18.57365673828125,9.299839973449707,-3.0549428462982178,0.5921860933303833
1750927208002481200,18.592481201171875,9.397662162780762,-2.7344257831573486,0.6142066121101379
1750927208021305300,18.611305419921877,9.486530303955078,-2.3999104499816895,0.6454144716262817
1750927208040129500,18.630129638671875,9.566880226135254,-2.0464558601379395,0.6761637330055237
1750927208058954000,18.6489541015625,9.636713027954102,-1.677550196647644,0.6999849081039429
1750927208077778200,18.667778076171874,9.69333553314209,-1.3036041259765625,0.714317262172699
1750927208096602600,18.6866025390625,9.736690521240234,-0.9211506247520447,0.7202272415161133
1750927208115426800,18.7054267578125,9.765218734741211,-0.5285921096801758,0.7290213108062744
1750927208134251300,18.724251220703124,9.777911186218262,-0.14784535765647888,0.7355116605758667
1750927208153075500,18.743075439453126,9.777095794677734,0.19514217972755432,0.7353307604789734
1750927208171899600,18.761899658203124,9.765937805175781,0.49838578701019287,0.7405733466148376
1750927208190724000,18.78072412109375,9.745085716247559,0.7873749732971191,0.7640246748924255
1750927208209548300,18.79954833984375,9.714753150939941,1.084779977798462,0.7856242656707764
1750927208228372700,18.818372802734373,9.673014640808105,1.4019049406051636,0.7986397743225098
1750927208247197000,18.837197021484375,9.617752075195312,1.736993670463562,0.8075240850448608
1750927208266021400,18.856021484375,9.552262306213379,2.0640313625335693,0.8151334524154663
1750927208284845600,18.874845458984375,9.484856605529785,2.352586269378662,0.8204906582832336
1750927208303669800,18.893669677734376,9.419668197631836,2.6011505126953125,0.8211402893066406
1750927208322494200,18.912494140625,9.350783348083496,2.836573362350464,0.8289117813110352
1750927208341318400,18.931318359375,9.27161693572998,3.080476760864258,0.8474520444869995
1750927208360142800,18.950142822265626,9.17939281463623,3.3401498794555664,0.8674869537353516
1750927208378967000,18.968967041015624,9.078381538391113,3.6007919311523438,0.8875008225440979
1750927208397791200,18.987791259765626,8.976531028747559,3.842923641204834,0.9078591465950012
1750927208416615700,19.00661572265625,8.877567291259766,4.0627360343933105,0.9237762689590454
1750927208435439900,19.02543994140625,8.78019905090332,4.265196323394775,0.9415867328643799
1750927208454264300,19.044264404296875,8.680082321166992,4.461452484130859,0.9602043628692627
1750927208473088500,19.063088623046873,8.58076000213623,4.6459150314331055,0.9779700040817261
1750927208491912700,19.08191259765625,8.496134757995605,4.795809268951416,0.9931204915046692
1750927208510737200,19.100737060546876,8.44579792022705,4.88129186630249,1.0059118270874023
1750927208529561300,19.119561279296875,8.447245597839355,4.876903533935547,1.0150033235549927
1750927208548385800,19.1383857421875,8.50252914428711,4.77992057800293,1.0147649049758911
1750927208567210000,19.1572099609375,8.600934028625488,4.602882385253906,1.0038901567459106
1750927208586034400,19.176034423828124,8.733059883117676,4.352538108825684,0.9795243740081787
1750927208604858600,19.194858642578126,8.886072158813477,4.040517807006836,0.9393213987350464
1750927208623682800,19.213682861328124,9.044488906860352,3.6819350719451904,0.9005441665649414
1750927208642507300,19.23250732421875,9.1959810256958,3.2901296615600586,0.8828138113021851
1750927208661331500,19.25133154296875,9.334583282470703,2.8820362091064453,0.8542925715446472
1750927208680156000,19.270156005859373,9.453999519348145,2.47238826751709,0.8243722915649414
1750927208698980000,19.28897998046875,9.551856994628906,2.0747005939483643,0.7924837470054626
1750927208717804300,19.30780419921875,9.630488395690918,1.68393075466156,0.7671025395393372
1750927208736628700,19.326628662109375,9.69330883026123,1.2873247861862183,0.7436073422431946
1750927208755453000,19.345452880859376,9.740352630615234,0.8809580206871033,0.7209989428520203
1750927208774277400,19.36427734375,9.769460678100586,0.47607189416885376,0.7080824971199036
1750927208793101600,19.3831015625,9.781697273254395,0.07633461803197861,0.6949628591537476
1750927208821338000,19.411338134765625,9.770519256591797,-0.5043407082557678,0.6730411648750305
1750927208840162300,19.430162353515627,9.746597290039062,-0.8615870475769043,0.6571947336196899
1750927208858986800,19.44898681640625,9.713516235351562,-1.1838362216949463,0.6453655362129211
1750927208877811000,19.46781103515625,9.670328140258789,-1.5026472806930542,0.6302161812782288
1750927208896635100,19.48663525390625,9.6095552444458,-1.857290267944336,0.6142505407333374
1750927208915459600,19.50545947265625,9.531010627746582,-2.2287657260894775,0.6023597121238708
1750927208934283800,19.52428369140625,9.445220947265625,-2.571856737136841,0.5862895250320435
1750927208953108200,19.543108154296874,9.362044334411621,-2.8644559383392334,0.5633745193481445
1750927208971932400,19.561932373046876,9.280905723571777,-3.120844602584839,0.5436004996299744
1750927208990756900,19.5807568359375,9.192285537719727,-3.375178098678589,0.5295710563659668
1750927209009581000,19.5995810546875,9.094380378723145,-3.6312074661254883,0.526274561882019
1750927209028405200,19.6184052734375,8.997493743896484,-3.8647310733795166,0.5285462737083435
1750927209047229700,19.637229736328123,8.919878005981445,-4.040280818939209,0.5313217043876648
1750927209066054000,19.656053955078125,8.875723838806152,-4.136602401733398,0.5295674800872803
1750927209084878000,19.674878173828127,8.860020637512207,-4.16982364654541,0.5319621562957764
1750927209103702500,19.69370263671875,8.85567855834961,-4.178481101989746,0.5363140106201172
1750927209122526700,19.712526611328126,8.860818862915039,-4.166538715362549,0.5442790985107422
1750927209141351200,19.73135107421875,8.879375457763672,-4.125418186187744,0.5549774765968323
1750927209160175400,19.75017529296875,8.917283058166504,-4.0413408279418945,0.5657055974006653
1750927209178999800,19.768999755859376,8.982222557067871,-3.8933372497558594,0.5761994123458862
1750927209197824000,19.787823974609374,9.07653522491455,-3.666339635848999,0.587235152721405
1750927209216648200,19.806648193359376,9.191819190979004,-3.3655834197998047,0.5947200059890747
1750927209235472600,19.82547265625,9.308430671691895,-3.02557635307312,0.6077752113342285
1750927209254296800,19.844296875,9.410135269165039,-2.6885924339294434,0.6254667043685913
1750927209273121300,19.863121337890625,9.49636173248291,-2.3601343631744385,0.6475107073783875
1750927209291945500,19.881945556640623,9.576234817504883,-2.0045928955078125,0.6691283583641052
1750927209310770000,19.90077001953125,9.651897430419922,-1.5942668914794922,0.6852626800537109
1750927209329594000,19.919593994140627,9.715258598327637,-1.1410186290740967,0.6944128274917603
1750927209348418300,19.938418212890625,9.757424354553223,-0.6852440237998962,0.7024933099746704
1750927209367242800,19.95724267578125,9.776865005493164,-0.265296071767807,0.7161805629730225
1750927209386067000,19.97606689453125,9.777984619140625,0.12377738952636719,0.7389765977859497
1750927209404891400,19.994891357421874,9.763473510742188,0.509643018245697,0.76500403881073
1750927209423715600,20.013715576171876,9.733193397521973,0.9030423760414124,0.7873064875602722
1750927209442539800,20.032539794921874,9.687166213989258,1.2955520153045654,0.8066781759262085
1750927209461364200,20.0513642578125,9.628922462463379,1.6639727354049683,0.8278961181640625
1750927209480188400,20.0701884765625,9.563812255859375,1.9963810443878174,0.8475480675697327
1750927209499012900,20.089012939453124,9.49262523651123,2.302422285079956,0.8713685870170593
1750927209517837000,20.107837158203125,9.412596702575684,2.6011762619018555,0.8984931111335754
1750927209536661200,20.1266611328125,9.321474075317383,2.9027116298675537,0.9245458841323853
1750927209555485700,20.145485595703125,9.222692489624023,3.196040153503418,0.947445809841156
1750927209574310000,20.164309814453127,9.12271785736084,3.4645121097564697,0.9713644981384277
1750927209593134300,20.18313427734375,9.023795127868652,3.7075469493865967,0.9978015422821045
1750927209611958500,20.20195849609375,8.921072006225586,3.940652847290039,1.0276769399642944
1750927209630783000,20.220782958984376,8.810158729553223,4.175222873687744,1.0578330755233765
1750927209649607200,20.239607177734374,8.691217422485352,4.411169528961182,1.0838489532470703
1750927209668431400,20.258431396484376,8.566905975341797,4.643289566040039,1.1037945747375488
1750927209687255800,20.277255859375,8.445326805114746,4.857537746429443,1.118552565574646
1750927209706080000,20.296080078125,8.33202838897705,5.045864105224609,1.134437918663025
1750927209724904400,20.314904541015625,8.231966972351074,5.204042911529541,1.1502354145050049
1750927209743728600,20.333728759765624,8.15160846710205,5.325915336608887,1.1645973920822144
1750927209762553000,20.352552978515625,8.102350234985352,5.397465705871582,1.1788467168807983
1750927209781377300,20.371377197265623,8.094708442687988,5.405994415283203,1.1921815872192383
1750927209800201500,20.390201416015625,8.130561828613281,5.350337028503418,1.1992733478546143
1750927209819026000,20.40902587890625,8.209342956542969,5.228740215301514,1.1988908052444458
1750927209837850000,20.42785009765625,8.328584671020508,5.039700508117676,1.1859608888626099
1750927209856674600,20.446674560546874,8.476371765136719,4.7938151359558105,1.1579471826553345
1750927209875498800,20.465498779296876,8.635217666625977,4.5099406242370605,1.1242049932479858
1750927209894323000,20.484322998046874,8.791173934936523,4.207095146179199,1.0890295505523682
1750927209913147400,20.5031474609375,8.939915657043457,3.8903088569641113,1.0553665161132812
1750927209931971600,20.5219716796875,9.079980850219727,3.5610764026641846,1.0213048458099365
1750927209950796000,20.540796142578124,9.207908630371094,3.2243757247924805,0.9940829277038574
1750927209969620200,20.5596201171875,9.324719429016113,2.87362003326416,0.9809660315513611
1750927209988444700,20.578444580078123,9.433351516723633,2.5015690326690674,0.9614723324775696
1750927210007268900,20.597268798828125,9.530174255371094,2.111829996109009,0.941460907459259
1750927210026093000,20.616093017578127,9.612016677856445,1.7140567302703857,0.9173557758331299
1750927210044917500,20.63491748046875,9.677963256835938,1.3124216794967651,0.8859764337539673
1750927210063741700,20.65374169921875,9.727481842041016,0.9053584337234497,0.8525388836860657
1750927210082566100,20.672566162109376,9.760347366333008,0.4921427369117737,0.8147372603416443
1750927210101390300,20.691390380859374,9.775907516479492,0.07456009089946747,0.7723193168640137
1750927210120214500,20.710214599609376,9.773717880249023,-0.3359212577342987,0.7293692827224731
1750927210139039000,20.7290390625,9.755086898803711,-0.7258220314979553,0.694153368473053
1750927210157863200,20.74786328125,9.722273826599121,-1.0968838930130005,0.6668060421943665
1750927210176687600,20.7666875,9.674816131591797,-1.4671448469161987,0.6448285579681396
1750927210195511800,20.78551171875,9.613062858581543,-1.8356646299362183,0.624287486076355
1750927210214336000,20.8043359375,9.539507865905762,-2.190974473953247,0.606471061706543
1750927210233160400,20.823160400390623,9.459290504455566,-2.5193636417388916,0.5873714685440063
1750927210251984600,20.841984619140625,9.376165390014648,-2.8163137435913086,0.5712180137634277
1750927210270809000,20.86080908203125,9.293157577514648,-3.0814905166625977,0.5585941672325134
1750927210289633300,20.87963330078125,9.210990905761719,-3.319976568222046,0.5529947280883789
1750927210308457700,20.898457763671875,9.124788284301758,-3.551440715789795,0.5439563393592834
1750927210327282000,20.917281982421876,9.035723686218262,-3.7734146118164062,0.5361173748970032
1750927210346106000,20.936106201171874,8.954071998596191,-3.963601589202881,0.5337236523628235
1750927210364930600,20.9549306640625,8.892908096313477,-4.099098205566406,0.5329017639160156
1750927210383754800,20.973754638671874,8.859004020690918,-4.172334671020508,0.5292040705680847
1750927210402579200,20.9925791015625,8.851845741271973,-4.188232898712158,0.5233579277992249
1750927210421403400,21.0114033203125,8.867985725402832,-4.154827117919922,0.516359806060791
1750927210440227800,21.030227783203124,8.906073570251465,-4.072810173034668,0.5142534375190735
1750927210459052000,21.049052001953125,8.964882850646973,-3.941514253616333,0.5154779553413391
1750927210477876200,21.067876220703123,9.042030334472656,-3.760180950164795,0.5225898623466492
1750927210496700700,21.08670068359375,9.132655143737793,-3.533008575439453,0.5318245887756348
1750927210515524900,21.10552490234375,9.227042198181152,-3.277204751968384,0.540378212928772
1750927210534349300,21.124349365234377,9.31882381439209,-3.0047831535339355,0.5488091111183167
1750927210553173500,21.143173583984375,9.406291961669922,-2.716550827026367,0.5589479207992554
1750927210571998000,21.161998046875,9.486059188842773,-2.420924663543701,0.5693822503089905
1750927210590822100,21.180822265625,9.555418968200684,-2.1281323432922363,0.5791481137275696
1750927210609646300,21.199646240234376,9.615228652954102,-1.835793375968933,0.589607298374176
1750927210628470800,21.218470703125,9.667288780212402,-1.5320813655853271,0.6055005192756653
1750927210647295000,21.237294921875,9.712870597839355,-1.203456163406372,0.6182610988616943
1750927210666119200,21.256119140625,9.748489379882812,-0.8620154857635498,0.6278974413871765
1750927210684943600,21.274943603515624,9.771531105041504,-0.5273192524909973,0.6399183869361877
1750927210703767800,21.293767822265625,9.783194541931152,-0.19842025637626648,0.6481733918190002
1750927210722592300,21.31259228515625,9.78377628326416,0.13214904069900513,0.6562401652336121
1750927210741416400,21.33141650390625,9.772428512573242,0.475019633769989,0.6666369438171387
1750927210760241000,21.350240966796875,9.748212814331055,0.8264349699020386,0.6780442595481873
1750927210779065000,21.369065185546877,9.711929321289062,1.1726210117340088,0.6883154511451721
1750927210797889300,21.38788916015625,9.664905548095703,1.5064692497253418,0.7003822326660156
1750927210816713700,21.406713623046876,9.606548309326172,1.8366930484771729,0.7149562239646912
1750927210835538000,21.425537841796874,9.534794807434082,2.1722874641418457,0.734332263469696
1750927210854362400,21.4443623046875,9.450699806213379,2.5060153007507324,0.7579872608184814
1750927210873186600,21.4631865234375,9.361245155334473,2.815492630004883,0.7813329100608826
1750927210892011000,21.482010986328124,9.276078224182129,3.079582929611206,0.8005914092063904
1750927210910835200,21.500835205078126,9.201948165893555,3.2902300357818604,0.8178700804710388
1750927210929659400,21.519659423828124,9.139435768127441,3.4558017253875732,0.8357842564582825
1750927210948483800,21.53848388671875,9.08892822265625,3.584228515625,0.8456190824508667
1750927210967308000,21.55730810546875,9.053582191467285,3.6722919940948486,0.8469393253326416
1750927210986132500,21.576132568359377,9.03587532043457,3.716271162033081,0.8441919088363647
1750927211004956700,21.594956787109375,9.035585403442383,3.7176899909973145,0.8410513401031494
1750927211023780900,21.61378076171875,9.05544662475586,3.670522689819336,0.8345824480056763
1750927211042605300,21.632605224609375,9.094922065734863,3.5741448402404785,0.8235757946968079
1750927211061429500,21.651429443359376,9.145706176757812,3.444688320159912,0.8127636909484863
1750927211080254000,21.67025390625,9.199665069580078,3.2999536991119385,0.8042723536491394
1750927211099078100,21.689078125,9.256091117858887,3.1399242877960205,0.7975176572799683
1750927211117902600,21.707902587890626,9.320068359375,2.9463486671447754,0.7910290360450745
1750927211136726800,21.726726806640624,9.394949913024902,2.7002227306365967,0.7836430668830872
1750927211155551000,21.745551025390625,9.476058006286621,2.4019463062286377,0.7780469059944153
1750927211174375400,21.76437548828125,9.552650451660156,2.077012777328491,0.776707112789154
1750927211193199600,21.78319970703125,9.618438720703125,1.7501611709594727,0.7700342535972595
1750927211212024000,21.802024169921875,9.672149658203125,1.4302759170532227,0.7577614188194275
1750927211230848300,21.82084814453125,9.714417457580566,1.1160773038864136,0.7448925375938416
1750927211249672400,21.83967236328125,9.747737884521484,0.7869048118591309,0.7299178838729858
1750927211268497000,21.858496826171876,9.771600723266602,0.42482540011405945,0.7111483216285706
1750927211287321000,21.877321044921874,9.782665252685547,0.04375862330198288,0.684066116809845
1750927211306145500,21.8961455078125,9.778858184814453,-0.3279675245285034,0.6608716249465942
1750927211324969700,21.9149697265625,9.762104034423828,-0.6746891736984253,0.6453800797462463
1750927211343794200,21.933794189453124,9.735421180725098,-0.9985824823379517,0.6283337473869324
1750927211362618400,21.952618408203126,9.700169563293457,-1.3037008047103882,0.6143690347671509
1750927211381442600,21.971442626953124,9.656476020812988,-1.5988863706588745,0.6053206920623779
1750927211400267000,21.99026708984375,9.602481842041016,-1.8975036144256592,0.601842999458313
1750927211419091200,22.00909130859375,9.536937713623047,-2.2035975456237793,0.6011333465576172
1750927211437915600,22.02791552734375,9.462366104125977,-2.504511833190918,0.6012036800384521
1750927211456739800,22.04673974609375,9.386565208435059,-2.774151563644409,0.6056901812553406
1750927211475564000,22.06556396484375,9.319392204284668,-2.9914417266845703,0.6087731719017029
1750927211494388500,22.084388427734375,9.263535499572754,-3.1604790687561035,0.6071946024894714
1750927211513212700,22.103212646484376,9.208993911743164,-3.31596040725708,0.6076295375823975
1750927211532037000,22.122037109375,9.147768020629883,-3.4804341793060303,0.6126299500465393
1750927211550861300,22.140861328125,9.087120056152344,-3.634524345397949,0.6203926801681519
1750927211569685800,22.159685791015626,9.041586875915527,-3.74560284614563,0.6249521970748901
1750927211588510000,22.178510009765624,9.019972801208496,-3.79740834236145,0.6246431469917297
1750927211607334100,22.197334228515626,9.022537231445312,-3.7919909954071045,0.6205127835273743
1750927211626158600,22.21615869140625,9.047256469726562,-3.733340263366699,0.6161981821060181
1750927211644982800,22.234982666015625,9.08614730834961,-3.63753080368042,0.6169858574867249
1750927211663807200,22.25380712890625,9.125226974487305,-3.5371508598327637,0.6238551139831543
1750927211682631400,22.27263134765625,9.163065910339355,-3.4362857341766357,0.6328912377357483
1750927211701456000,22.291455810546875,9.211474418640137,-3.302515983581543,0.6422767043113708
1750927211720280000,22.310280029296877,9.276759147644043,-3.1117489337921143,0.655104398727417
1750927211748516400,22.338516357421874,9.389991760253906,-2.747600555419922,0.6701788902282715
1750927211767340800,22.3573408203125,9.459481239318848,-2.4965996742248535,0.674979031085968
1750927211786165000,22.3761650390625,9.519268035888672,-2.2573366165161133,0.6770234107971191
1750927211804989400,22.394989501953123,9.572428703308105,-2.0185537338256836,0.6814976930618286
1750927211823813600,22.413813720703125,9.62248706817627,-1.7610409259796143,0.6905615925788879
1750927211842638000,22.43263818359375,9.669530868530273,-1.47691011428833,0.6994928121566772
1750927211870874400,22.460874267578124,9.727426528930664,-1.0276507139205933,0.7010626792907715
1750927211889698800,22.47969873046875,9.753348350524902,-0.7422682046890259,0.7011472582817078
1750927211908523000,22.49852294921875,9.770190238952637,-0.46197444200515747,0.7073596119880676
1750927211927347200,22.51734716796875,9.779084205627441,-0.16807734966278076,0.7153087258338928
1750927211946171600,22.536171630859375,9.778730392456055,0.14442427456378937,0.7252272963523865
1750927211964995800,22.554995849609377,9.767626762390137,0.47285884618759155,0.7350375652313232
1750927211983820300,22.5738203125,9.745231628417969,0.8034525513648987,0.7451943159103394
1750927212002644500,22.59264453125,9.714574813842773,1.1080043315887451,0.7548210024833679
1750927212021469000,22.611468994140626,9.680249214172363,1.3715195655822754,0.762961208820343
1750927212040293000,22.630293212890624,9.64336109161377,1.6046404838562012,0.7753142714500427
1750927212059117300,22.649117431640626,9.601570129394531,1.8313865661621094,0.7913614511489868
1750927212077941800,22.667941650390624,9.552016258239746,2.0707168579101562,0.8009510636329651
1750927212096766000,22.686765869140626,9.494365692138672,2.31797456741333,0.8089559674263
1750927212115590400,22.70559033203125,9.435948371887207,2.5419983863830566,0.819453239440918
1750927212134414600,22.72441455078125,9.382542610168457,2.7302215099334717,0.8271415829658508
1750927212153238800,22.74323876953125,9.3337984085083,2.8909833431243896,0.8323525190353394
1750927212172063200,22.762063232421873,9.284177780151367,3.0430729389190674,0.8450604677200317
1750927212190887400,22.780887451171875,9.226851463317871,3.2079644203186035,0.8628867268562317
1750927212209711900,22.7997119140625,9.16060733795166,3.3879547119140625,0.8805813193321228
1750927212228536000,22.8185361328125,9.08869457244873,3.5721778869628906,0.8975399136543274
1750927212247360300,22.8373603515625,9.0185546875,3.7422430515289307,0.9119702577590942
1750927212266184700,22.856184814453126,8.958815574645996,3.880645990371704,0.9222860336303711
1750927212285009000,22.8750087890625,8.91299819946289,3.9824604988098145,0.9321186542510986
1750927212303833300,22.893833251953126,8.886449813842773,4.039766311645508,0.9389755725860596
1750927212322657500,22.912657470703124,8.888350486755371,4.035864353179932,0.9377626180648804
1750927212341482000,22.93148193359375,8.923005104064941,3.960768938064575,0.9288034439086914
1750927212360306200,22.95030615234375,8.985788345336914,3.819767713546753,0.9139835834503174
1750927212379130400,22.96913037109375,9.069737434387207,3.6200103759765625,0.8976410031318665
1750927212397954800,22.987954833984375,9.16767692565918,3.3678958415985107,0.8839553594589233
1750927212416779000,23.006779052734377,9.270503044128418,3.0782949924468994,0.8673367500305176
1750927212435603500,23.025603515625,9.371163368225098,2.764727830886841,0.8414050936698914
1750927212454427600,23.044427734375,9.46512508392334,2.4328553676605225,0.8142528533935547
1750927212473251800,23.063251953125,9.549105644226074,2.0867679119110107,0.7939565777778625
1750927212492076300,23.082076171875,9.619176864624023,1.7358672618865967,0.7928335666656494
1750927212510900500,23.100900390625,9.676153182983398,1.3878344297409058,0.7850937247276306
1750927212529725000,23.119724853515624,9.720108032226562,1.0442851781845093,0.7741772532463074
1750927212548549000,23.138549072265626,9.752076148986816,0.697752058506012,0.7619325518608093
1750927212567373600,23.15737353515625,9.771971702575684,0.3406580090522766,0.7502650618553162
1750927212586197800,23.17619775390625,9.779095649719238,-0.022829532623291016,0.7342787981033325
1750927212605022000,23.19502197265625,9.773467063903809,-0.37470635771751404,0.713675856590271
1750927212623846400,23.213846435546873,9.75694465637207,-0.703715980052948,0.6907962560653687
1750927212642670600,23.232670654296875,9.731450080871582,-1.0087032318115234,0.6721487045288086
1750927212661495000,23.2514951171875,9.699075698852539,-1.2872120141983032,0.6643808484077454
1750927212680319200,23.2703193359375,9.662358283996582,-1.5400840044021606,0.6613304615020752
1750927212699143400,23.289143310546876,9.621893882751465,-1.7750316858291626,0.6624136567115784
1750927212717968000,23.3079677734375,9.581016540527344,-1.9861642122268677,0.65549236536026
1750927212736792000,23.3267919921875,9.54251480102539,-2.1659634113311768,0.6476060748100281
1750927212755616500,23.345616455078126,9.502900123596191,-2.3341987133026123,0.645582377910614
1750927212774440700,23.364440673828124,9.4575834274292,-2.5120866298675537,0.6433730125427246
1750927212793265000,23.383264892578126,9.41006851196289,-2.6853983402252197,0.6400331854820251
1750927212812089300,23.40208935546875,9.364300727844238,-2.841219186782837,0.638550341129303
1750927212830913500,23.42091357421875,9.317784309387207,-2.9894323348999023,0.6423190236091614
1750927212849738000,23.439738037109375,9.27033805847168,-3.1320087909698486,0.6494162678718567
1750927212868562200,23.458562255859373,9.228166580200195,-3.252830743789673,0.6560607552528381
1750927212887386600,23.47738671875,9.192217826843262,-3.3514585494995117,0.6642608642578125
1750927212906210800,23.4962109375,9.156309127807617,-3.4484031200408936,0.6639994382858276
1750927212925035000,23.515034912109375,9.118928909301758,-3.546975612640381,0.6591619849205017
1750927212943859500,23.533859375,9.089070320129395,-3.6243319511413574,0.6506857872009277
1750927212962683600,23.55268359375,9.074318885803223,-3.663693904876709,0.6359795331954956
1750927212981508000,23.571508056640624,9.07933235168457,-3.65478515625,0.6153641939163208
1750927213000332300,23.590332275390626,9.106931686401367,-3.588819742202759,0.5954304933547974
1750927213019156700,23.60915673828125,9.154945373535156,-3.4666128158569336,0.5830593109130859
1750927213037981000,23.62798095703125,9.219684600830078,-3.291250228881836,0.5791947841644287
1750927213056805000,23.64680517578125,9.298155784606934,-3.062328577041626,0.5803696513175964
1750927213075629600,23.665629638671874,9.381787300109863,-2.7941317558288574,0.5876054763793945
1750927213094453800,23.684453857421875,9.460613250732422,-2.5109872817993164,0.6017759442329407
1750927213113278200,23.7032783203125,9.529449462890625,-2.2312262058258057,0.6177409887313843
1750927213132102400,23.722102294921875,9.589241027832031,-1.953697681427002,0.6323808431625366
1750927213150926600,23.740926513671877,9.643310546875,-1.6614031791687012,0.6455126404762268
1750927213169751000,23.7597509765625,9.692200660705566,-1.3425219058990479,0.6551750302314758
1750927213188575200,23.7785751953125,9.7322998046875,-1.007811427116394,0.6610928773880005
1750927213207399700,23.797399658203126,9.760275840759277,-0.6820101141929626,0.665028989315033
1750927213226223900,23.816223876953124,9.776548385620117,-0.3861066997051239,0.66363126039505
1750927213245048300,23.83504833984375,9.784162521362305,-0.1083177775144577,0.6548388600349426
1750927213263872500,23.85387255859375,9.784196853637695,0.17564186453819275,0.6395625472068787
1750927213282696700,23.87269677734375,9.774717330932617,0.47659948468208313,0.6309821605682373
1750927213301521200,23.891521240234376,9.754034996032715,0.7965903282165527,0.628192126750946
1750927213320345300,23.910345458984374,9.721213340759277,1.1318426132202148,0.622359037399292
1750927213339169800,23.929169677734375,9.674620628356934,1.4805829524993896,0.6164297461509705
1750927213357994000,23.947993896484373,9.614480972290039,1.8316515684127808,0.6141750812530518
1750927213376818200,23.966818115234375,9.54269790649414,2.1736271381378174,0.6185839772224426
1750927213395642600,23.985642578125,9.462898254394531,2.4950127601623535,0.6315484046936035
1750927213414466800,24.004466796875,9.383155822753906,2.7749617099761963,0.6529711484909058
1750927213433291300,24.023291259765625,9.308738708496094,3.0113346576690674,0.6705431938171387
1750927213452115500,24.042115478515626,9.239789962768555,3.2145028114318848,0.6809184551239014
1750927213470939600,24.060939697265624,9.178380012512207,3.383877754211426,0.6907259225845337
1750927213489764000,24.07976416015625,9.130417823791504,3.5087358951568604,0.7033129930496216
1750927213508588300,24.09858837890625,9.102699279785156,3.577444076538086,0.7163445949554443
1750927213527412700,24.117412841796874,9.096481323242188,3.5919349193573,0.7227770686149597
1750927213546237000,24.13623681640625,9.110259056091309,3.5575063228607178,0.7195190191268921
1750927213565061400,24.155061279296874,9.13915729522705,3.4839768409729004,0.7127968668937683
1750927213583885600,24.173885498046875,9.180110931396484,3.375256299972534,0.709648072719574
1750927213602709800,24.192709716796877,9.233338356018066,3.227159261703491,0.7080236077308655
1750927213621534200,24.2115341796875,9.298595428466797,3.034698009490967,0.7050716280937195
1750927213640358400,24.2303583984375,9.371606826782227,2.8025527000427246,0.6993330121040344
1750927213659182800,24.249182861328126,9.445518493652344,2.5444061756134033,0.6917765140533447
1750927213678007000,24.268007080078124,9.518575668334961,2.2591664791107178,0.6806464195251465
