time,seconds_elapsed,z,y,x
1750927189620549000,0.210549072265625,-0.36835145950317383,0.18295399844646454,-0.31673339009284973
1750927189648785700,0.23878564453125,-0.03848448023200035,0.15485422313213348,-0.22754712402820587
1750927189667609900,0.25760986328125,-0.010384701192378998,0.12064579129219055,-0.20922118425369263
1750927189686434300,0.276434326171875,-0.0360410213470459,0.09376774728298187,-0.23365578055381775
1750927189705258500,0.295258544921875,0.1496618688106537,0.013286309316754341,-0.21899501979351044
1750927189724083000,0.3140830078125,0.07513637095689774,0.06444623321294785,-0.18356487154960632
1750927189742907100,0.3329072265625,-0.1692095398902893,0.1230892539024353,-0.03222311660647392
1750927189761731600,0.351731689453125,-0.21685700118541718,0.06200277432799339,0.18402300775051117
1750927189780555800,0.3705556640625,-0.0616973415017128,-0.10644318908452988,0.3770562708377838
1750927189799380200,0.389380126953125,0.07635809481143951,-0.20906847715377808,0.5774199366569519
1750927189818204400,0.408204345703125,0.09590577334165573,-0.3324631452560425,0.6653844714164734
1750927189837028600,0.427028564453125,0.205861434340477,-0.5694786906242371,0.7008146047592163
1750927189855853000,0.44585302734375,0.28038692474365234,-0.5059487819671631,0.708145022392273
1750927189884089300,0.47408935546875,0.07880155742168427,-0.23961171507835388,0.40637779235839844
1750927189902913800,0.492913818359375,-0.007941242307424545,-0.12965604662895203,0.11316270381212234
1750927189921738000,0.511738037109375,-0.06536252796649933,-0.06123919412493706,-0.006566796451807022
1750927189940562400,0.5305625,-0.13255766034126282,-0.058795735239982605,0.05329795181751251
1750927189959386600,0.54938671875,-0.1496618688106537,-0.11621702462434769,0.10461059212684631
1750927189978211000,0.568211181640625,-0.015271619893610477,-0.11988221108913422,0.10461059212684631
1750927189997035300,0.58703515625,0.05558869615197182,-0.1259908676147461,0.052076224237680435
1750927190015859700,0.605859619140625,0.08491020649671555,-0.06612611562013626,-0.06505709886550903
1750927190034684000,0.624683837890625,0.08002328872680664,-0.017256930470466614,-0.1285870373249054
1750927190053508000,0.643508056640625,0.033597562462091446,0.029016077518463135,-0.10659590363502502
1750927190072332500,0.66233251953125,-0.02626718580722809,-0.05146535858511925,-0.031001387163996696
1750927190091156700,0.68115673828125,-0.037262752652168274,-0.07834340631961823,0.014202605932950974
1750927190109981200,0.699981201171875,0.000610864779446274,-0.049021899700164795,0.012980876490473747
1750927190128805400,0.718805419921875,0.0665842592716217,0.003512472379952669,-0.04428769648075104
1750927190147629800,0.7376298828125,0.08002328872680664,0.032681263983249664,-0.08093958348035812
1750927190166454000,0.7564541015625,0.004276053514331579,0.0668896958231926,-0.1127045527100563
1750927190185278500,0.775278564453125,-0.05803215503692627,0.0766635313630104,-0.09804379940032959
1750927190204102700,0.7941025390625,-0.07513637095689774,-0.007483093533664942,-0.016340631991624832
1750927190222927000,0.812927001953125,-0.033597562462091446,0.0206166859716177,0.020311253145337105
1750927190241751300,0.831751220703125,0.004276053514331579,0.05222893878817558,0.004428769461810589
1750927190260575500,0.850575439453125,0.0054977829568088055,0.02306014485657215,-0.011453714221715927
1750927190279400000,0.86939990234375,0.009162971749901772,-0.025809036567807198,0.0007635809597559273
1750927190298224000,0.88822412109375,0.01893680728971958,-0.03191768378019333,-0.002901607658714056
1750927190317048600,0.907048583984375,-0.017715077847242355,-0.016035201027989388,-0.04917461425065994
1750927190335872800,0.925872802734375,-0.02626718580722809,0.01695149764418602,-0.07360920310020447
1750927190354697200,0.944697265625,-0.023823726922273636,0.021838415414094925,-0.04428769648075104
1750927190373521400,0.963521484375,-0.02260199747979641,0.015729768201708794,-0.035735588520765305
1750927190392345900,0.982345947265625,-0.010384701192378998,-0.02825249545276165,-0.031001387163996696
1750927190411170000,1.001170166015625,0.0054977829568088055,-0.0539088174700737,-0.051618073135614395
1750927190429994500,1.019994384765625,-0.000610864779446274,-0.02458730712532997,-0.04062250629067421
1750927190448818700,1.038818603515625,-0.01893680728971958,0.01206457894295454,-0.024740023538470268
1750927190467643100,1.05764306640625,-0.020158538594841957,0.03390299528837204,-0.035735588520765305
1750927190486467300,1.07646728515625,-0.029932374134659767,0.02306014485657215,-0.04062250629067421
1750927190505291500,1.09529150390625,-0.049480047076940536,0.007177661173045635,-0.02718348242342472
1750927190524116000,1.114115966796875,-0.02260199747979641,-0.017256930470466614,-0.011453714221715927
1750927190542940200,1.132940185546875,0.000610864779446274,-0.0013744457392022014,-0.023518294095993042
1750927190561764600,1.1517646484375,0.004276053514331579,0.026572618633508682,-0.035735588520765305
1750927190580589000,1.170589111328125,0.001832594396546483,0.015729768201708794,-0.021227551624178886
1750927190599413200,1.189413330078125,-0.017715077847242355,0.005955931730568409,-0.013744457624852657
1750927190618237400,1.208237548828125,-0.039706211537122726,0.03756818547844887,-0.03695731982588768
1750927190637062000,1.227061767578125,-0.017715077847242355,0.05100720748305321,-0.06994401663541794
1750927190655886000,1.245885986328125,0.014049889519810677,0.05345066636800766,-0.07971785217523575
1750927190674710500,1.26471044921875,0.017715077847242355,0.0412333719432354,-0.03817904740571976
1750927190693534700,1.28353466796875,0.025045456364750862,0.01206457894295454,0.0007635809597559273
1750927190712359200,1.302359130859375,0.01893680728971958,0.002290742937475443,0.004428769461810589
1750927190731183400,1.321183349609375,0.004276053514331579,-0.0013744457392022014,-0.03222311660647392
1750927190750007800,1.3400078125,-0.006719512399286032,0.008399390615522861,-0.0565049909055233
1750927190768832000,1.35883203125,-0.0054977829568088055,0.02779434807598591,-0.023518294095993042
1750927190787656400,1.377656494140625,-0.010384701192378998,0.04245510324835777,0.005650499369949102
1750927190806480600,1.396480712890625,0.0054977829568088055,0.048563748598098755,0.006872228812426329
1750927190825305000,1.41530517578125,0.009162971749901772,0.029016077518463135,-0.013744457624852657
1750927190844129300,1.43412939453125,0.000610864779446274,0.03390299528837204,-0.057726722210645676
1750927190862953500,1.452953369140625,-0.01649334840476513,0.03527744114398956,-0.09437860548496246
1750927190881778000,1.47177783203125,-0.021380268037319183,0.04245510324835777,-0.09804379940032959
1750927190900602000,1.49060205078125,0.000610864779446274,0.018173227086663246,-0.057726722210645676
1750927190919426600,1.509426513671875,0.01282816007733345,0.015729768201708794,-0.03451386094093323
1750927190938250800,1.528250732421875,0.009162971749901772,0.015729768201708794,-0.05283980444073677
1750927190957075200,1.5470751953125,-0.014049889519810677,0.03634645417332649,-0.06872228533029556
1750927190975899400,1.5658994140625,-0.027488915249705315,0.025503603741526604,-0.061391908675432205
1750927190994723800,1.584723876953125,-0.004276053514331579,-0.007483093533664942,-0.04306596517562866
1750927191013548000,1.603548095703125,0.017715077847242355,-0.01359174121171236,-0.03695731982588768
1750927191032372500,1.62237255859375,0.03481929376721382,-0.009926552884280682,-0.0565049909055233
1750927191051196700,1.64119677734375,0.020158538594841957,0.0206166859716177,-0.09071341902017593
1750927191070021000,1.660021240234375,0.009162971749901772,0.004734201822429895,-0.07849612087011337
1750927191088845300,1.67884521484375,-0.0054977829568088055,0.0010690133785828948,-0.05406153202056885
1750927191107669800,1.697669677734375,-0.0030543238390237093,0.01206457894295454,-0.031001387163996696
1750927191126494000,1.716493896484375,-0.01893680728971958,0.0412333719432354,-0.02611446939408779
1750927191145318400,1.735318359375,-0.011606430634856224,0.030390523374080658,-0.06017018109560013
1750927191164142600,1.754142578125,0.000610864779446274,0.02779434807598591,-0.07238747924566269
1750927191182966800,1.772966796875,-0.001832594396546483,0.007177661173045635,-0.02611446939408779
1750927191201791200,1.791791259765625,-0.0054977829568088055,-0.009926552884280682,0.03741546720266342
1750927191220615400,1.810615478515625,0.025045456364750862,-0.014813470654189587,0.04718930274248123
1750927191239440000,1.82943994140625,0.01893680728971958,0.004734201822429895,0.03497200831770897
1750927191258264000,1.84826416015625,-0.023823726922273636,0.02306014485657215,0.030085090547800064
1750927191277088500,1.867088623046875,-0.029932374134659767,0.004734201822429895,0.02764163166284561
1750927191295912700,1.88591259765625,-0.0360410213470459,-0.007483093533664942,0.017867794260382652
1750927191314737200,1.904737060546875,-0.03481929376721382,0.009621120058000088,-0.011453714221715927
1750927191333561300,1.923561279296875,0.001832594396546483,0.018173227086663246,-0.028405211865901947
1750927191352385800,1.9423857421875,0.0054977829568088055,0.025503603741526604,-0.03940077871084213
1750927191371210000,1.9612099609375,0.001832594396546483,0.03527744114398956,-0.024740023538470268
1750927191390034400,1.980034423828125,-0.015271619893610477,0.02306014485657215,-0.004123337101191282
1750927191408858600,1.998858642578125,-0.01893680728971958,0.019394956529140472,-0.004123337101191282
1750927191427683000,2.01768310546875,-0.007941242307424545,0.0010690133785828948,-0.005345067009329796
1750927191446507300,2.03650732421875,-0.010384701192378998,0.010842849500477314,0.006872228812426329
1750927191465331700,2.055331787109375,0.015271619893610477,0.025503603741526604,0.023976443335413933
1750927191484156000,2.074156005859375,0.001832594396546483,0.03527744114398956,0.02153298258781433
1750927191502980400,2.09298046875,-0.0030543238390237093,0.03390299528837204,0.012980876490473747
1750927191521804500,2.111804443359375,0.000610864779446274,0.010842849500477314,0.030085090547800064
1750927191540628700,2.130628662109375,-0.01893680728971958,0.008399390615522861,0.01908952370285988
1750927191559453200,2.149453125,-0.021380268037319183,0.02306014485657215,-0.005345067009329796
1750927191578277400,2.16827734375,-0.009162971749901772,0.009621120058000088,-0.024740023538470268
1750927191597101800,2.187101806640625,-0.007941242307424545,0.0010690133785828948,-0.019853105768561363
1750927191615926000,2.205926025390625,-0.0054977829568088055,0.007177661173045635,-0.0102319847792387
1750927191634750500,2.22475048828125,0.007941242307424545,0.013286309316754341,0.004428769461810589
1750927191653574700,2.24357470703125,-0.0030543238390237093,0.02306014485657215,0.016646064817905426
1750927191672399000,2.262399169921875,-0.02871064469218254,0.04734202101826668,-0.005345067009329796
1750927191691223300,2.281223388671875,-0.04214967042207718,0.0717766135931015,-0.009010255336761475
1750927191710047700,2.3000478515625,-0.04581485688686371,0.05100720748305321,-0.01740964688360691
1750927191728872000,2.318871826171875,-0.010384701192378998,0.032681263983249664,-0.022296564653515816
1750927191747696400,2.3376962890625,0.0054977829568088055,0.04245510324835777,-0.024740023538470268
1750927191766520600,2.3565205078125,-0.021380268037319183,0.05589412897825241,-0.0102319847792387
1750927191785345000,2.375344970703125,-0.02871064469218254,0.05345066636800766,-0.006566796451807022
1750927191804169200,2.394169189453125,-0.03237583488225937,0.0412333719432354,-0.018631376326084137
1750927191822993400,2.412993408203125,-0.02260199747979641,0.029016077518463135,-0.029626941308379173
1750927191841817900,2.43181787109375,-0.006719512399286032,0.005955931730568409,-0.011453714221715927
1750927191860642000,2.45064208984375,0.004276053514331579,0.002290742937475443,-0.004123337101191282
1750927191879466500,2.469466552734375,0.027488915249705315,-0.0062613640911877155,-0.002901607658714056
1750927191898290700,2.488290771484375,0.0054977829568088055,-0.009926552884280682,0.011759147047996521
1750927191917115100,2.507115234375,-0.02260199747979641,0.013286309316754341,0.011759147047996521
1750927191935939300,2.525939208984375,-0.02260199747979641,0.029016077518463135,0.005650499369949102
1750927191954763800,2.544763671875,-0.025045456364750862,0.03145953640341759,-0.007788525894284248
1750927191973588000,2.563587890625,-0.037262752652168274,0.04367683082818985,-0.021227551624178886
1750927191992412400,2.582412353515625,-0.007941242307424545,0.025503603741526604,-0.005345067009329796
1750927192011236600,2.601236572265625,0.021380268037319183,-0.005039634648710489,0.01908952370285988
1750927192030061000,2.62006103515625,0.015271619893610477,0.003512472379952669,0.012980876490473747
1750927192048885200,2.63888525390625,0.01893680728971958,0.013286309316754341,0.005650499369949102
1750927192067709400,2.65770947265625,-0.01282816007733345,0.0412333719432354,-0.0102319847792387
1750927192086534000,2.676533935546875,-0.021380268037319183,0.038789913058280945,-0.02718348242342472
1750927192105358000,2.695358154296875,-0.020158538594841957,0.004734201822429895,-0.022296564653515816
1750927192124182500,2.7141826171875,-0.004276053514331579,0.002290742937475443,-0.001679878099821508
1750927192143006700,2.7330068359375,0.006719512399286032,-0.0025961752980947495,0.01908952370285988
1750927192161831200,2.7518310546875,0.004276053514331579,0.008399390615522861,0.036193739622831345
1750927192180655400,2.7706552734375,0.006719512399286032,0.019394956529140472,0.0435241162776947
1750927192199479800,2.789479736328125,0.006719512399286032,0.007177661173045635,0.036193739622831345
1750927192218304000,2.808303955078125,-0.006719512399286032,0.005955931730568409,-0.001679878099821508
1750927192237128400,2.82712841796875,-0.009162971749901772,0.01206457894295454,-0.03329212963581085
1750927192255952600,2.84595263671875,-0.015271619893610477,-0.0038179049734026194,-0.012675444595515728
1750927192274777000,2.864777099609375,-0.007941242307424545,-0.03191768378019333,0.004428769461810589
1750927192293601300,2.883601318359375,0.021380268037319183,-0.03558287397027016,-0.009010255336761475
1750927192312425500,2.902425537109375,0.02871064469218254,-0.020922118797898293,-0.009010255336761475
1750927192340662000,2.930662109375,-0.01282816007733345,0.009621120058000088,0.008093958720564842
1750927192359486500,2.949486572265625,-0.014049889519810677,-0.0038179049734026194,-0.006566796451807022
1750927192378310700,2.968310546875,-0.009162971749901772,-0.02825249545276165,-0.009010255336761475
1750927192397135000,2.987135009765625,-0.010384701192378998,-0.011148282326757908,-0.022296564653515816
1750927192415959300,3.005959228515625,-0.021380268037319183,0.014508038759231567,-0.018631376326084137
1750927192434783700,3.02478369140625,-0.01282816007733345,0.0206166859716177,-0.0102319847792387
1750927192453608000,3.04360791015625,-0.0030543238390237093,0.009621120058000088,-0.00045814859913662076
1750927192472432400,3.062432373046875,0.004276053514331579,-0.0025961752980947495,0.0435241162776947
1750927192491256600,3.081256591796875,0.009162971749901772,-0.007483093533664942,0.05451968312263489
1750927192510080800,3.100080810546875,-0.0030543238390237093,0.010842849500477314,0.006872228812426329
1750927192528905200,3.1189052734375,-0.025045456364750862,0.029016077518463135,-0.02718348242342472
1750927192547729400,3.1377294921875,-0.01893680728971958,0.024281874299049377,-0.011453714221715927
1750927192566553900,3.156553955078125,-0.001832594396546483,-0.0013744457392022014,0.020311253145337105
1750927192585378000,3.1753779296875,0.01649334840476513,-0.009926552884280682,0.026419902220368385
1750927192604202500,3.194202392578125,0.020158538594841957,-0.008704823441803455,0.012980876490473747
1750927192623026700,3.213026611328125,-0.0030543238390237093,0.003512472379952669,-0.005345067009329796
1750927192641851100,3.23185107421875,-0.014049889519810677,0.010842849500477314,-0.005345067009329796
1750927192660675300,3.25067529296875,-0.03237583488225937,0.019394956529140472,-0.004123337101191282
1750927192679499800,3.269499755859375,-0.033597562462091446,0.018173227086663246,-0.0102319847792387
1750927192698324000,3.288323974609375,-0.015271619893610477,-0.007483093533664942,-0.028405211865901947
1750927192717148200,3.307148193359375,0.017715077847242355,-0.016035201027989388,-0.031001387163996696
1750927192735972600,3.32597265625,0.023823726922273636,-0.014813470654189587,-0.029626941308379173
1750927192754796800,3.344796875,-0.000610864779446274,0.002290742937475443,-0.009010255336761475
1750927192773621200,3.363621337890625,-0.03237583488225937,0.018173227086663246,-0.0102319847792387
1750927192792445400,3.382445556640625,-0.025045456364750862,0.007177661173045635,-0.012675444595515728
1750927192811270000,3.401269775390625,-0.004276053514331579,-0.01359174121171236,-0.022296564653515816
1750927192830094000,3.420093994140625,0.004276053514331579,-0.012370011769235134,-0.03222311660647392
1750927192848918500,3.43891845703125,-0.0054977829568088055,0.009621120058000088,0.006872228812426329
1750927192867742700,3.45774267578125,0.01282816007733345,0.009621120058000088,0.030085090547800064
1750927192886567200,3.476567138671875,0.01649334840476513,-0.005039634648710489,0.028863361105322838
1750927192905391400,3.495391357421875,-0.000610864779446274,-0.0001527161948615685,0.0154243353754282
1750927192924215600,3.514215576171875,-0.011606430634856224,0.0010690133785828948,-0.005345067009329796
1750927192943040000,3.5330400390625,-0.006719512399286032,-0.0013744457392022014,-0.002901607658714056
1750927192961864200,3.5518642578125,0.0054977829568088055,-0.011148282326757908,0.004428769461810589
1750927192980688600,3.570688720703125,0.011606430634856224,-0.005039634648710489,-0.016340631991624832
1750927192999512800,3.589512939453125,-0.001832594396546483,0.014508038759231567,-0.021227551624178886
1750927193018337300,3.608337158203125,-0.017715077847242355,0.01206457894295454,-0.007788525894284248
1750927193037161500,3.627161376953125,-0.02260199747979641,0.018173227086663246,-0.006566796451807022
1750927193065398000,3.65539794921875,0.000610864779446274,0.004734201822429895,-0.021227551624178886
1750927193084222200,3.67422216796875,0.001832594396546483,0.003512472379952669,-0.02611446939408779
1750927193103046700,3.693046630859375,0.0054977829568088055,0.003512472379952669,-0.01740964688360691
1750927193121870800,3.711870849609375,-0.017715077847242355,0.005955931730568409,-0.002901607658714056
1750927193140695300,3.7306953125,-0.01893680728971958,0.009621120058000088,-0.00045814859913662076
1750927193159519500,3.74951953125,-0.0054977829568088055,0.003512472379952669,0.004428769461810589
1750927193178344000,3.768343994140625,0.000610864779446274,-0.0001527161948615685,-0.005345067009329796
1750927193197168000,3.787168212890625,-0.007941242307424545,0.004734201822429895,-0.013744457624852657
1750927193215992600,3.80599267578125,-0.011606430634856224,0.007177661173045635,-0.01740964688360691
1750927193234816800,3.824816650390625,-0.007941242307424545,-0.0038179049734026194,-0.01511890348047018
1750927193253641000,3.843640869140625,-0.001832594396546483,-0.0013744457392022014,0.0019853105768561363
1750927193272465400,3.86246533203125,-0.0030543238390237093,0.01206457894295454,0.012980876490473747
1750927193291289600,3.88128955078125,0.0054977829568088055,-0.0038179049734026194,0.0154243353754282
1750927193310114000,3.900114013671875,-0.009162971749901772,-0.0025961752980947495,0.009315688163042068
1750927193328938200,3.918938232421875,-0.01649334840476513,0.008399390615522861,-0.006566796451807022
1750927193347762700,3.9377626953125,0.006719512399286032,-0.0001527161948615685,0.006872228812426329
1750927193366587000,3.9565869140625,-0.007941242307424545,0.007177661173045635,-0.004123337101191282
1750927193385411300,3.975411376953125,-0.011606430634856224,0.025503603741526604,-0.02718348242342472
1750927193423060000,4.01306005859375,-0.014049889519810677,0.015729768201708794,-0.023518294095993042
1750927193441884200,4.03188427734375,-0.011606430634856224,0.010842849500477314,-0.006566796451807022
1750927193460708400,4.050708251953125,-0.004276053514331579,0.0010690133785828948,-0.02611446939408779
1750927193479532800,4.06953271484375,-0.01282816007733345,0.007177661173045635,-0.021227551624178886
1750927193498357000,4.08835693359375,-0.02260199747979641,0.008399390615522861,0.008093958720564842
1750927193517181400,4.107181396484375,-0.0054977829568088055,-0.0038179049734026194,0.010537417605519295
1750927193536005600,4.126005615234375,-0.0054977829568088055,-0.011148282326757908,0.02764163166284561
1750927193554830000,4.144830078125,0.006719512399286032,-0.0001527161948615685,0.0435241162776947
1750927193573654300,4.163654296875,-0.0030543238390237093,0.007177661173045635,0.020311253145337105
1750927193592478700,4.182478759765625,-0.015271619893610477,0.024281874299049377,0.0019853105768561363
1750927193611303000,4.201302978515625,-0.014049889519810677,0.0206166859716177,0.009315688163042068
1750927193630127000,4.220127197265625,-0.01649334840476513,0.019394956529140472,-0.002901607658714056
1750927193648951600,4.23895166015625,-0.014049889519810677,0.01695149764418602,-0.0102319847792387
1750927193667775700,4.257775634765625,0.0030543238390237093,0.009621120058000088,0.009315688163042068
1750927193686600200,4.27660009765625,0.009162971749901772,0.013286309316754341,0.005650499369949102
1750927193705424400,4.29542431640625,-0.007941242307424545,0.026572618633508682,-0.007788525894284248
1750927193724248800,4.314248779296875,-0.006719512399286032,0.015729768201708794,-0.002901607658714056
1750927193743073000,4.333072998046875,-0.0030543238390237093,0.007177661173045635,0.009315688163042068
1750927193761897500,4.3518974609375,-0.014049889519810677,0.013286309316754341,0.008093958720564842
1750927193780721700,4.3707216796875,-0.02260199747979641,0.021838415414094925,-0.004123337101191282
1750927193799545900,4.3895458984375,-0.014049889519810677,0.008399390615522861,0.006872228812426329
1750927193818370300,4.408370361328125,0.004276053514331579,-0.009926552884280682,-0.013744457624852657
1750927193837194500,4.427194580078125,0.007941242307424545,-0.01847865991294384,-0.021227551624178886
1750927193856019000,4.44601904296875,-0.011606430634856224,-0.020922118797898293,0.0007635809597559273
1750927193874843100,4.464843017578125,-0.01282816007733345,-0.005039634648710489,0.01908952370285988
1750927193893667600,4.48366748046875,-0.0054977829568088055,0.010842849500477314,0.020311253145337105
1750927193912491800,4.50249169921875,0.001832594396546483,0.005955931730568409,0.010537417605519295
1750927193931316200,4.521316162109375,0.0030543238390237093,0.0010690133785828948,-0.012675444595515728
1750927193950140400,4.540140380859375,-0.009162971749901772,-0.0062613640911877155,-0.006566796451807022
1750927193968964900,4.55896484375,-0.01282816007733345,-0.0001527161948615685,-0.001679878099821508
1750927193987789000,4.5777890625,0.0054977829568088055,-0.0038179049734026194,0.010537417605519295
1750927194006613200,4.59661328125,0.01282816007733345,-0.0038179049734026194,0.005650499369949102
1750927194025437700,4.615437744140625,0.000610864779446274,0.007177661173045635,0.0032070400193333626
1750927194044262000,4.634261962890625,-0.02260199747979641,0.013286309316754341,-0.00045814859913662076
1750927194063086300,4.65308642578125,-0.023823726922273636,0.010842849500477314,-0.005345067009329796
1750927194081910500,4.67191064453125,0.01282816007733345,-0.005039634648710489,-0.004123337101191282
1750927194100735000,4.69073486328125,0.014049889519810677,-0.0062613640911877155,0.008093958720564842
1750927194119559200,4.70955908203125,0.000610864779446274,-0.0062613640911877155,0.030085090547800064
1750927194138383600,4.728383544921875,-0.020158538594841957,0.002290742937475443,0.010537417605519295
1750927194157207800,4.747207763671875,-0.021380268037319183,0.008399390615522861,-0.01740964688360691
1750927194176032000,4.766031982421875,-0.01282816007733345,-0.0013744457392022014,0.0032070400193333626
1750927194194856400,4.7848564453125,0.021380268037319183,-0.019700389355421066,-0.002901607658714056
1750927194213680600,4.8036806640625,0.009162971749901772,-0.017256930470466614,-0.001679878099821508
1750927194232505000,4.822505126953125,-0.007941242307424545,0.004734201822429895,0.012980876490473747
1750927194251329300,4.841329345703125,-0.000610864779446274,0.004734201822429895,0.02764163166284561
1750927194270153700,4.86015380859375,-0.010384701192378998,0.002290742937475443,0.02519817277789116
1750927194288978000,4.87897802734375,-0.01282816007733345,0.007177661173045635,0.023976443335413933
1750927194307802400,4.89780224609375,-0.007941242307424545,0.004734201822429895,0.0154243353754282
1750927194326626600,4.91662646484375,-0.0054977829568088055,0.004734201822429895,0.0019853105768561363
1750927194345450800,4.93545068359375,-0.000610864779446274,0.002290742937475443,-0.002901607658714056
1750927194364275200,4.954275146484375,0.007941242307424545,-0.01847865991294384,0.0019853105768561363
1750927194383099400,4.973099365234375,0.015271619893610477,-0.025809036567807198,-0.006566796451807022
1750927194401923800,4.991923828125,-0.000610864779446274,-0.012370011769235134,-0.007788525894284248
1750927194420748000,5.010748046875,-0.02260199747979641,0.004734201822429895,0.011759147047996521
1750927194439572500,5.029572509765625,-0.02626718580722809,0.008399390615522861,0.012980876490473747
1750927194458396700,5.048396728515625,-0.014049889519810677,0.007177661173045635,-0.007788525894284248
1750927194477221000,5.06722119140625,-0.0030543238390237093,0.0010690133785828948,-0.011453714221715927
1750927194496045300,5.08604541015625,0.009162971749901772,-0.0001527161948615685,-0.004123337101191282
1750927194514869500,5.104869384765625,0.004276053514331579,-0.009926552884280682,0.0019853105768561363
1750927194533694000,5.12369384765625,-0.017715077847242355,-0.0025961752980947495,0.011759147047996521
1750927194552518100,5.14251806640625,-0.025045456364750862,0.002290742937475443,0.0154243353754282
1750927194571342600,5.161342529296875,-0.02626718580722809,0.015729768201708794,0.005650499369949102
1750927194590166800,5.180166748046875,-0.0030543238390237093,0.008399390615522861,-0.013744457624852657
1750927194608991200,5.1989912109375,0.01282816007733345,0.007177661173045635,-0.021227551624178886
1750927194627815400,5.2178154296875,0.0054977829568088055,-0.0038179049734026194,0.004428769461810589
1750927194646639900,5.236639892578125,-0.009162971749901772,0.002290742937475443,-0.006566796451807022
1750927194665464000,5.255464111328125,-0.009162971749901772,0.002290742937475443,-0.029626941308379173
1750927194684288300,5.274288330078125,-0.001832594396546483,0.005955931730568409,-0.01511890348047018
1750927194703112700,5.29311279296875,0.000610864779446274,0.007177661173045635,0.012980876490473747
1750927194721937000,5.31193701171875,-0.0030543238390237093,0.005955931730568409,-0.00045814859913662076
1750927194740761300,5.33076123046875,-0.006719512399286032,-0.0001527161948615685,-0.011453714221715927
1750927194759585500,5.34958544921875,-0.004276053514331579,-0.007483093533664942,-0.02611446939408779
1750927194778410000,5.368409912109375,-0.001832594396546483,-0.0025961752980947495,-0.04673115536570549
1750927194797234200,5.387234130859375,0.0030543238390237093,-0.0001527161948615685,-0.05406153202056885
1750927194816058600,5.40605859375,-0.0054977829568088055,0.008399390615522861,-0.051618073135614395
1750927194834882800,5.4248828125,-0.0054977829568088055,0.009621120058000088,-0.06017018109560013
1750927194853707000,5.44370703125,-0.0054977829568088055,0.007177661173045635,-0.08338304609060287
1750927194872531500,5.462531494140625,0.000610864779446274,0.002290742937475443,-0.09071341902017593
1750927194891355600,5.481355712890625,-0.0030543238390237093,-0.0062613640911877155,-0.10048725455999374
1750927194910180000,5.50018017578125,-0.01282816007733345,-0.0025961752980947495,-0.11392628401517868
1750927194929004300,5.51900439453125,-0.006719512399286032,0.010842849500477314,-0.10170898586511612
1750927194947828700,5.537828857421875,0.004276053514331579,0.003512472379952669,-0.031001387163996696
1750927194966653000,5.55665283203125,0.017715077847242355,-0.023365577682852745,0.08139773458242416
1750927194985477400,5.575477294921875,0.031154103577136993,-0.05757400393486023,0.23044873774051666
1750927195004301600,5.594301513671875,0.000610864779446274,-0.10766492038965225,0.4430296719074249
1750927195023125800,5.613125732421875,-0.023823726922273636,-0.16264274716377258,0.7008146047592163
1750927195041950200,5.6319501953125,-0.02871064469218254,-0.21639885008335114,0.9036217331886292
1750927195060774400,5.6507744140625,-0.04459312930703163,-0.24327689409255981,1.057559609413147
1750927195079598800,5.669598876953125,-0.07024945318698883,-0.24205516278743744,1.1858412027359009
1750927195098423000,5.688423095703125,-0.09590577334165573,-0.26648977398872375,1.2835795879364014
1750927195117247500,5.70724755859375,-0.11178825795650482,-0.2652680277824402,1.2970186471939087
1750927195136071700,5.72607177734375,-0.1130099818110466,-0.22006404399871826,1.2212713956832886
1750927195154896100,5.744896240234375,-0.15088360011577606,-0.21029019355773926,1.1516327857971191
1750927195173720300,5.76372021484375,-0.17287473380565643,-0.2738201320171356,1.1504111289978027
1750927195192544500,5.78254443359375,-0.20830489695072174,-0.24816381931304932,1.1406372785568237
1750927195211369000,5.801368896484375,-0.27550002932548523,-0.15531237423419952,1.1394155025482178
1750927195230193200,5.820193115234375,-0.33169957995414734,-0.09666935354471207,1.1748456954956055
1750927195249017600,5.839017578125,-0.3439168632030487,-0.06612611562013626,1.3544399738311768
1750927195267841800,5.857841796875,-0.31459537148475647,-0.08078686892986298,1.5865685939788818
1750927195286666200,5.876666259765625,-0.2816086709499359,-0.10155627131462097,1.7734931707382202
1750927195305490400,5.895490478515625,-0.19364413619041443,-0.12232567369937897,1.8577924966812134
1750927195324314600,5.914314697265625,-0.0616973415017128,-0.1980729103088379,1.8382447957992554
1750927195343139000,5.93313916015625,-0.03481929376721382,-0.2078467458486557,1.7649410963058472
1750927195361963300,5.95196337890625,-0.06536252796649933,-0.13454297184944153,1.5572470426559448
1750927195380787700,5.97078759765625,-0.08368847519159317,-0.07101303339004517,1.3067924976348877
1750927195399612000,5.98961181640625,-0.10323614627122879,-0.029474224895238876,1.1271982192993164
1750927195418436400,6.008436279296875,-0.12767073512077332,0.029016077518463135,1.0001384019851685
1750927195437260500,6.027260498046875,-0.10934479534626007,-0.03558287397027016,0.8498656153678894
1750927195456085000,6.0460849609375,-0.053145237267017365,-0.0746782198548317,0.5810851454734802
1750927195474909200,6.0649091796875,0.010384701192378998,-0.014813470654189587,0.20601414144039154
1750927195493733400,6.0837333984375,0.03481929376721382,0.06200277432799339,-0.27030766010284424
1750927195512557800,6.102557861328125,0.007941242307424545,0.16218459606170654,-0.7712168097496033
1750927195531382000,6.121382080078125,-0.07391463965177536,0.2257145345211029,-1.1695005893707275
1750927195550206500,6.14020654296875,-0.0665842592716217,0.2000582218170166,-1.462715744972229
1750927195569030700,6.15903076171875,-0.05436696484684944,0.13775001466274261,-1.7327179908752441
1750927195587854800,6.177854736328125,-0.021380268037319183,0.18295399844646454,-1.996611475944519
1750927195606679300,6.19667919921875,0.020158538594841957,0.2159406989812851,-2.218966245651245
1750927195625503700,6.215503662109375,0.05803215503692627,0.17562362551689148,-2.2397356033325195
1750927195644328000,6.234327880859375,0.09468404203653336,0.0717766135931015,-2.082132577896118
1750927195663152000,6.253152099609375,0.05925388261675835,-0.007483093533664942,-1.9294164180755615
1750927195681976600,6.2719765625,0.04581485688686371,-0.03436114266514778,-1.9624030590057373
1750927195700800800,6.29080078125,0.07880155742168427,0.0412333719432354,-2.0491459369659424
1750927195719625200,6.309625244140625,0.10690133273601532,0.04505127668380737,-2.0418155193328857
1750927195738449400,6.328449462890625,0.1496618688106537,-0.011148282326757908,-1.9257512092590332
1750927195757273600,6.347273681640625,0.16065743565559387,0.02306014485657215,-1.8646647930145264
1750927195776098000,6.36609814453125,0.09834922850131989,-0.08811724185943604,-1.8976514339447021
1750927195794922200,6.384922119140625,0.05925388261675835,-0.22495095431804657,-1.908647060394287
1750927195813746700,6.40374658203125,0.05558869615197182,-0.15897755324840546,-1.8964296579360962
1750927195832571000,6.42257080078125,0.031154103577136993,-0.07834340631961823,-1.9025382995605469
1750927195851395300,6.441395263671875,0.03481929376721382,-0.11377356201410294,-1.9000948667526245
1750927195870219500,6.460219482421875,0.05436696484684944,-0.11377356201410294,-1.8487823009490967
1750927195889044000,6.4790439453125,0.06902772188186646,-0.07101303339004517,-1.8072434663772583
1750927195907868200,6.4978681640625,0.06780599057674408,-0.039248060435056686,-1.736383080482483
1750927195926692400,6.5166923828125,-0.006719512399286032,-0.01359174121171236,-1.5946625471115112
1750927195945516800,6.535516845703125,-0.07880155742168427,0.04245510324835777,-1.4297289848327637
1750927195964341000,6.554341064453125,-0.09101885557174683,0.08399390429258347,-1.2537999153137207
1750927195983165400,6.57316552734375,-0.015271619893610477,0.04367683082818985,-1.112079381942749
1750927196001989600,6.59198974609375,0.04825831577181816,-0.012370011769235134,-0.9190460443496704
1750927196020814000,6.61081396484375,0.06780599057674408,-0.04169152304530144,-0.6368265151977539
1750927196039638300,6.62963818359375,0.053145237267017365,-0.05635227635502815,-0.314289927482605
1750927196058462500,6.64846240234375,0.0360410213470459,-0.02825249545276165,-0.001679878099821508
1750927196077287000,6.667286865234375,-0.004276053514331579,0.0412333719432354,0.33918267488479614
1750927196096111000,6.686111083984375,0.01649334840476513,0.08399390429258347,0.7338013052940369
1750927196114935600,6.704935546875,0.05070177838206291,0.12675444781780243,1.1027636528015137
1750927196133759700,6.723759765625,0.03237583488225937,0.15241076052188873,1.43873929977417
1750927196152584200,6.742584228515625,-0.006719512399286032,0.0974329337477684,1.7539454698562622
1750927196171408400,6.761408447265625,-0.02626718580722809,0.0668896958231926,2.039830207824707
1750927196190232800,6.78023291015625,0.007941242307424545,0.02306014485657215,2.254854679107666
1750927196209057000,6.79905712890625,-0.020158538594841957,0.04505127668380737,2.4295618534088135
1750927196227881200,6.817881103515625,-0.08124501258134842,0.05833758786320686,2.5602869987487793
1750927196246705700,6.83670556640625,-0.11911863088607788,0.013286309316754341,2.565173864364624
1750927196265529900,6.85552978515625,-0.14477495849132538,0.002290742937475443,2.43689227104187
1750927196284354300,6.874354248046875,-0.14477495849132538,0.01206457894295454,2.2511894702911377
1750927196303178500,6.893178466796875,-0.12767073512077332,0.019394956529140472,2.0752604007720947
1750927196322003000,6.9120029296875,-0.12156209349632263,0.0010690133785828948,1.9115486145019531
1750927196340827100,6.9308271484375,-0.12034036219120026,-0.011148282326757908,1.7905974388122559
1750927196359651300,6.9496513671875,-0.14110976457595825,-0.03558287397027016,1.7453933954238892
1750927196378475800,6.968475830078125,-0.19608759880065918,-0.030695954337716103,1.7197370529174805
1750927196397300000,6.987300048828125,-0.19364413619041443,0.005955931730568409,1.6672027111053467
1750927196416124400,7.00612451171875,-0.1484401375055313,0.015729768201708794,1.6158900260925293
1750927196434948600,7.024948486328125,-0.09346231073141098,-0.06979130208492279,1.5914554595947266
1750927196453773000,7.04377294921875,-0.037262752652168274,-0.07834340631961823,1.5694643259048462
1750927196472597200,7.06259716796875,-0.0409279391169548,-0.07712167501449585,1.5205951929092407
1750927196491421700,7.081421630859375,-0.07635809481143951,-0.08811724185943604,1.4692825078964233
1750927196510246000,7.100245849609375,-0.08613193035125732,-0.0539088174700737,1.3739875555038452
1750927196529070000,7.119070068359375,-0.04581485688686371,0.014508038759231567,1.1638500690460205
1750927196547894500,7.13789453125,-0.0616973415017128,0.060781046748161316,0.8950695991516113
1750927196566718700,7.15671875,-0.08491020649671555,0.021838415414094925,0.6165152788162231
1750927196585543200,7.175543212890625,-0.05558869615197182,-0.033139415085315704,0.31841325759887695
1750927196604367400,7.194367431640625,-0.01893680728971958,-0.005039634648710489,-0.024740023538470268
1750927196623191800,7.21319189453125,0.014049889519810677,0.03390299528837204,-0.4120282828807831
1750927196642016000,7.23201611328125,0.01649334840476513,0.054672397673130035,-0.8396336436271667
1750927196660840200,7.250840087890625,0.029932374134659767,0.06444623321294785,-1.2269219160079956
1750927196679664600,7.26966455078125,0.043371398001909256,0.08888082206249237,-1.5372412204742432
1750927196698488800,7.28848876953125,0.007941242307424545,0.14263692498207092,-1.7986913919448853
1750927196717313300,7.307313232421875,0.004276053514331579,0.17195843160152435,-2.0662500858306885
1750927196736137500,7.326137451171875,0.06780599057674408,0.17806708812713623,-2.3203699588775635
1750927196754962000,7.3449619140625,0.12522727251052856,0.15607595443725586,-2.475529432296753
1750927196773786000,7.3637861328125,0.1386663019657135,0.12186752259731293,-2.490190267562866
1750927196792610600,7.382610595703125,0.14110976457595825,0.07299833744764328,-2.455981731414795
1750927196811434800,7.401434814453125,0.13500112295150757,-0.02214384824037552,-2.386343240737915
1750927196830259000,7.420259033203125,0.11178825795650482,-0.07345648854970932,-2.288604974746704
1750927196849083400,7.43908349609375,0.0873536616563797,-0.11988221108913422,-2.110232353210449
1750927196867907600,7.457907470703125,0.10445787757635117,-0.16508620977401733,-1.9905028343200684
1750927196886732000,7.47673193359375,0.11545344442129135,-0.1614210158586502,-1.9587379693984985
1750927196905556200,7.49555615234375,0.12644900381565094,-0.1614210158586502,-1.9391902685165405
1750927196924380700,7.514380615234375,0.10690133273601532,-0.1406516134738922,-1.870773434638977
1750927196943204900,7.533204833984375,0.07757982611656189,-0.11255183815956116,-1.7437134981155396
1750927196962029000,7.552029052734375,0.06414080411195755,-0.11743875592947006,-1.580001711845398
1750927196980853500,7.570853515625,0.04459312930703163,-0.11255183815956116,-1.4749330282211304
1750927196999677700,7.589677734375,0.02626718580722809,-0.09544762223958969,-1.3845250606536865
1750927197018502100,7.608502197265625,0.01282816007733345,-0.09911280870437622,-1.2318087816238403
1750927197037326300,7.627326416015625,0.01649334840476513,-0.12110394239425659,-1.0949751138687134
1750927197056150500,7.646150634765625,0.027488915249705315,-0.06979130208492279,-0.9923498630523682
1750927197074975000,7.66497509765625,0.056810423731803894,-0.09911280870437622,-0.8347467184066772
1750927197093799200,7.683799072265625,0.04459312930703163,-0.09666935354471207,-0.6441569328308105
1750927197112623600,7.70262353515625,0.01282816007733345,-0.052687086164951324,-0.435241162776947
1750927197131447800,7.72144775390625,-0.0030543238390237093,-0.016035201027989388,-0.19089524447917938
1750927197150272300,7.740272216796875,-0.007941242307424545,-0.005039634648710489,0.13271036744117737
1750927197169096400,7.759096435546875,0.010384701192378998,-0.02458730712532997,0.48212501406669617
1750927197187921000,7.7779208984375,0.04825831577181816,-0.011148282326757908,0.7875574231147766
1750927197206745000,7.7967451171875,0.06536252796649933,0.048563748598098755,1.0331250429153442
1750927197225569300,7.8155693359375,0.06414080411195755,0.08277218043804169,1.2774709463119507
1750927197244393700,7.834393798828125,0.03237583488225937,0.09987638890743256,1.4973822832107544
1750927197263218000,7.853218017578125,-0.0054977829568088055,0.10109812021255493,1.6977459192276
1750927197282042400,7.87204248046875,-0.021380268037319183,0.03145953640341759,1.9005529880523682
1750927197300866600,7.890866455078125,-0.053145237267017365,-0.0025961752980947495,2.0605995655059814
1750927197319691000,7.90969091796875,-0.10445787757635117,0.0206166859716177,2.098625898361206
1750927197338515200,7.92851513671875,-0.1533270627260208,0.04505127668380737,2.014173984527588
1750927197357339400,7.94733935546875,-0.16310089826583862,0.021838415414094925,1.873674988746643
1750927197376163800,7.966163818359375,-0.19364413619041443,-0.05024362727999687,1.778380036354065
1750927197394988000,7.984988037109375,-0.2009745091199875,-0.0539088174700737,1.7466151714324951
1750927197413812500,8.0038125,-0.20219624042510986,-0.05635227635502815,1.6904155015945435
1750927197432636700,8.02263671875,-0.2315177470445633,-0.06001746281981468,1.6488767862319946
1750927197451461000,8.041461181640624,-0.25350889563560486,-0.03802633285522461,1.6366595029830933
1750927197470285300,8.060285400390624,-0.2620609998703003,-0.020922118797898293,1.7234022617340088
1750927197489109500,8.079109619140626,-0.2461785078048706,-0.09422589093446732,1.8687881231307983
1750927197507934000,8.097933837890626,-0.23273947834968567,-0.10888664424419403,1.9372049570083618
1750927197526758100,8.116758056640625,-0.20952661335468292,-0.14431680738925934,1.9115486145019531
1750927197545582600,8.13558251953125,-0.16676609218120575,-0.08200860023498535,1.8480186462402344
1750927197564406800,8.15440673828125,-0.10567960888147354,-0.07834340631961823,1.779601812362671
1750927197583231200,8.173231201171875,-0.0922405794262886,-0.08323032408952713,1.641546368598938
1750927197602055400,8.192055419921875,-0.09468404203653336,-0.030695954337716103,1.3776527643203735
1750927197630292000,8.2202919921875,-0.09346231073141098,-0.009926552884280682,1.0111339092254639
1750927197649116200,8.2391162109375,-0.08124501258134842,-0.009926552884280682,0.8865175247192383
1750927197667940600,8.257940673828125,-0.06536252796649933,-0.027030766010284424,0.8071050643920898
1750927197686764800,8.276764892578125,-0.0616973415017128,-0.02825249545276165,0.6397281289100647
1750927197705589000,8.295589111328125,-0.0360410213470459,-0.020922118797898293,0.3452913165092468
1750927197724413400,8.314413330078125,-0.02260199747979641,-0.01359174121171236,-0.05039634555578232
1750927197743237600,8.333237548828125,-0.014049889519810677,0.03634645417332649,-0.4633409380912781
1750927197762062000,8.35206201171875,-0.020158538594841957,0.11331541836261749,-0.8494074940681458
1750927197780886300,8.37088623046875,-0.0030543238390237093,0.11087195575237274,-1.2183698415756226
1750927197799710700,8.389710693359374,0.05436696484684944,0.1340848207473755,-1.5470150709152222
1750927197818535000,8.408534912109374,0.05925388261675835,0.14630211889743805,-1.8451170921325684
1750927197837359400,8.427359375,0.014049889519810677,0.1389717310667038,-2.082132577896118
1750927197856183600,8.44618359375,-0.02871064469218254,0.1389717310667038,-2.291048288345337
1750927197875007700,8.4650078125,-0.015271619893610477,0.17684535682201385,-2.45109486579895
1750927197893832200,8.483832275390625,0.03481929376721382,0.06566796451807022,-2.4486515522003174
1750927197912656400,8.502656494140625,0.06536252796649933,-0.05635227635502815,-2.3435826301574707
1750927197931480800,8.521480712890625,0.047036588191986084,-0.0062613640911877155,-2.2482879161834717
1750927197950305000,8.540304931640625,0.000610864779446274,0.038789913058280945,-2.1383321285247803
1750927197969129500,8.55912939453125,-0.06536252796649933,0.005955931730568409,-2.0809109210968018
1750927197987953700,8.57795361328125,-0.1496618688106537,-0.0038179049734026194,-2.1163411140441895
1750927198006777900,8.59677783203125,-0.08857539296150208,-0.036804601550102234,-2.0186026096343994
1750927198025602300,8.615602294921874,0.06291907280683517,-0.16386447846889496,-1.7339396476745605
1750927198044426500,8.634426513671874,0.10323614627122879,-0.3019199073314667,-1.4468332529067993
1750927198063251000,8.6532509765625,0.03481929376721382,-0.24083344638347626,-1.305112600326538
1750927198082075100,8.6720751953125,-0.05192350596189499,-0.06856957077980042,-1.3283255100250244
1750927198100899300,8.6908994140625,-0.0922405794262886,-0.030695954337716103,-1.3686425685882568
1750927198119723800,8.709723876953126,-0.020158538594841957,-0.06368265300989151,-1.2880083322525024
1750927198138548000,8.7285478515625,0.07269290834665298,-0.10399972647428513,-1.0974185466766357
1750927198157372400,8.747372314453125,0.12034036219120026,-0.08323032408952713,-0.9495893120765686
1750927198176196600,8.766196533203125,0.0665842592716217,-0.020922118797898293,-0.8335250020027161
1750927198195021000,8.78502099609375,-0.025045456364750862,0.0412333719432354,-0.7284562587738037
1750927198213845200,8.80384521484375,-0.043371398001909256,0.0668896958231926,-0.6527090072631836
1750927198232669400,8.82266943359375,-0.0409279391169548,0.032681263983249664,-0.5635227560997009
1750927198251494000,8.841493896484375,0.02260199747979641,-0.005039634648710489,-0.4108065664768219
1750927198270318000,8.860318115234374,0.04825831577181816,-0.009926552884280682,-0.13713914155960083
1750927198289142500,8.879142578125,0.05558869615197182,-0.016035201027989388,0.21090106666088104
1750927198307966700,8.897966796875,0.02871064469218254,0.019394956529140472,0.541989803314209
1750927198326791200,8.916791259765626,-0.009162971749901772,0.05222893878817558,0.837648332118988
1750927198345615400,8.935615478515626,-0.05558869615197182,0.09621120244264603,1.0648900270462036
1750927198364439600,8.954439453125,-0.03237583488225937,0.0925460159778595,1.3055707216262817
1750927198383264000,8.973263916015625,-0.001832594396546483,0.09132428467273712,1.5560252666473389
1750927198402088200,8.992088134765625,-0.01893680728971958,0.0766635313630104,1.78937566280365
1750927198420912600,9.01091259765625,-0.1081230640411377,0.038789913058280945,1.9811872243881226
1750927198439736800,9.02973681640625,-0.16554436087608337,-0.005039634648710489,2.076482057571411
1750927198458561300,9.048561279296875,-0.1484401375055313,-0.029474224895238876,2.0827434062957764
1750927198477385500,9.067385498046875,-0.13622283935546875,-0.04657844081521034,2.096029758453369
1750927198496209700,9.086209716796875,-0.13622283935546875,-0.07101303339004517,2.1558945178985596
1750927198515034000,9.1050341796875,-0.1484401375055313,-0.09911280870437622,2.1778857707977295
1750927198533858300,9.1238583984375,-0.16798780858516693,-0.11255183815956116,2.050825834274292
1750927198552682800,9.142682861328124,-0.15699224174022675,-0.07345648854970932,1.8529056310653687
1750927198571507000,9.1615068359375,-0.12644900381565094,-0.052687086164951324,1.6904155015945435
1750927198590331400,9.180331298828126,-0.10079269111156464,-0.06612611562013626,1.6476550102233887
1750927198609155600,9.199155517578125,-0.13011419773101807,-0.07223475724458694,1.6537636518478394
1750927198627979800,9.217979736328125,-0.17043127119541168,-0.04657844081521034,1.6549854278564453
1750927198646804200,9.23680419921875,-0.15699224174022675,-0.025809036567807198,1.631772518157959
1750927198665628400,9.25562841796875,-0.12278381735086441,-0.019700389355421066,1.6085597276687622
1750927198684452900,9.274452880859375,-0.06047561392188072,-0.027030766010284424,1.5890120267868042
1750927198703277000,9.293277099609375,-0.01282816007733345,-0.05513054504990578,1.5633556842803955
1750927198722101500,9.3121015625,-0.027488915249705315,-0.07223475724458694,1.504712700843811
1750927198740925700,9.33092578125,-0.08124501258134842,-0.06979130208492279,1.4411827325820923
1750927198759750000,9.34975,-0.12156209349632263,-0.049021899700164795,1.3581050634384155
1750927198778574300,9.36857421875,-0.09346231073141098,-0.039248060435056686,1.1516327857971191
1750927198797398500,9.3873984375,-0.009162971749901772,-0.03802633285522461,0.8462004065513611
1750927198816223000,9.406222900390626,0.053145237267017365,-0.027030766010284424,0.5664243698120117
1750927198835047200,9.425047119140626,0.03237583488225937,0.005955931730568409,0.2903134822845459
1750927198853871400,9.443871337890625,0.0030543238390237093,0.0206166859716177,-0.04306596517562866
1750927198872695800,9.46269580078125,0.000610864779446274,0.021838415414094925,-0.4266890585422516
1750927198891520000,9.48152001953125,0.03848448023200035,0.03634645417332649,-0.8029817342758179
1750927198910344400,9.500344482421875,0.06414080411195755,0.10476330667734146,-1.1462877988815308
1750927198929168600,9.519168701171875,0.07880155742168427,0.15241076052188873,-1.4309507608413696
1750927198947993000,9.5379931640625,0.08979712426662445,0.15485422313213348,-1.6410882472991943
1750927198966817300,9.5568173828125,0.12522727251052856,0.13775001466274261,-1.76570463180542
1750927198985641500,9.575641357421874,0.15821397304534912,0.12431098520755768,-1.8573343753814697
1750927199004466000,9.5944658203125,0.14110976457595825,0.14141519367694855,-1.9428554773330688
1750927199023290000,9.6132900390625,0.13744457066059113,0.17073670029640198,-1.9672900438308716
1750927199042114600,9.632114501953126,0.14477495849132538,0.14263692498207092,-1.9929463863372803
1750927199060938800,9.650938720703126,0.1692095398902893,0.048563748598098755,-2.0882413387298584
1750927199079763200,9.66976318359375,0.18875721096992493,-0.07223475724458694,-2.1358888149261475
1750927199098587400,9.68858740234375,0.09834922850131989,-0.1357647031545639,-2.0857977867126465
1750927199117411600,9.70741162109375,-0.004276053514331579,-0.09422589093446732,-2.006385326385498
1750927199136236000,9.726236083984375,-0.0360410213470459,0.019394956529140472,-1.9562944173812866
1750927199155060200,9.745060302734375,0.015271619893610477,0.03390299528837204,-1.898873209953308
1750927199173884700,9.763884765625,0.07635809481143951,-0.017256930470466614,-1.830456256866455
1750927199192708900,9.782708984375,0.08979712426662445,-0.009926552884280682,-1.7180571556091309
1750927199211533300,9.801533203125,0.10690133273601532,-0.033139415085315704,-1.59832763671875
1750927199230357500,9.820357421875,0.10567960888147354,-0.06979130208492279,-1.5128066539764404
1750927199249181700,9.839181640625,0.12767073512077332,-0.10644318908452988,-1.462715744972229
1750927199268006100,9.858006103515624,0.18142683804035187,-0.09666935354471207,-1.4199551343917847
1750927199286830300,9.876830322265626,0.15088360011577606,-0.09178243577480316,-1.3393210172653198
1750927199305654800,9.89565478515625,0.07147117704153061,-0.15042544901371002,-1.2745693922042847
1750927199324479000,9.91447900390625,0.006719512399286032,-0.08567378669977188,-1.2928953170776367
1750927199343303400,9.933303466796875,-0.029932374134659767,-0.05024362727999687,-1.2818996906280518
1750927199362127600,9.952127685546875,-0.01893680728971958,-0.020922118797898293,-1.2232567071914673
1750927199380951800,9.970951904296875,0.03237583488225937,-0.007483093533664942,-1.1902700662612915
1750927199399776300,9.9897763671875,0.06414080411195755,-0.009926552884280682,-1.2171480655670166
1750927199418600400,10.008600341796875,0.09834922850131989,-0.005039634648710489,-1.2000439167022705
1750927199437425000,10.0274248046875,0.056810423731803894,-0.025809036567807198,-1.0571014881134033
1750927199456249000,10.0462490234375,-0.015271619893610477,0.008399390615522861,-0.8090903759002686
1750927199475073500,10.065073486328124,-0.04581485688686371,0.0412333719432354,-0.5354229807853699
1750927199493897700,10.083897705078124,-0.05192350596189499,0.02306014485657215,-0.2813032269477844
1750927199512722000,10.102721923828126,-0.053145237267017365,0.014508038759231567,-0.04428769648075104
1750927199531546400,10.12154638671875,0.000610864779446274,0.003512472379952669,0.21090106666088104
1750927199550370600,10.14037060546875,0.04459312930703163,-0.01359174121171236,0.5114465355873108
1750927199569195000,10.159195068359375,0.02260199747979641,-0.033139415085315704,0.8657481074333191
1750927199588019200,10.178019287109375,0.000610864779446274,0.004734201822429895,1.2689188718795776
1750927199606843400,10.196843505859375,-0.017715077847242355,0.029016077518463135,1.642768144607544
1750927199625667800,10.215667724609375,-0.05803215503692627,0.03756818547844887,1.9347615242004395
1750927199644492000,10.234491943359375,-0.11545344442129135,0.01695149764418602,2.0642647743225098
1750927199663316500,10.25331640625,-0.13622283935546875,-0.0038179049734026194,2.1693334579467773
1750927199682140700,10.272140625,-0.16676609218120575,0.008399390615522861,2.260963201522827
1750927199700965000,10.290965087890624,-0.17287473380565643,0.014508038759231567,2.2560763359069824
1750927199719789300,10.309789306640624,-0.16187916696071625,0.07544180005788803,2.1998767852783203
1750927199738613500,10.328613525390624,-0.1594357043504715,0.10720676928758621,2.131459951400757
1750927199757438000,10.34743798828125,-0.18387030065059662,0.09010255336761475,2.065486431121826
1750927199776262100,10.36626220703125,-0.21319180727005005,0.04505127668380737,2.061821460723877
1750927199795086600,10.385086669921876,-0.22907429933547974,0.0717766135931015,2.037386655807495
1750927199813910800,10.403910888671875,-0.2364046722650528,0.11575887352228165,1.9970697164535522
1750927199832735200,10.4227353515625,-0.2364046722650528,0.11575887352228165,1.9201006889343262
1750927199851559400,10.441559326171875,-0.22174391150474548,0.09498947113752365,1.8394665718078613
1750927199870383600,10.460383544921875,-0.1594357043504715,0.03756818547844887,1.7490586042404175
1750927199889208000,10.4792080078125,-0.13255766034126282,-0.0025961752980947495,1.6647592782974243
1750927199908032300,10.4980322265625,-0.1130099818110466,-0.011148282326757908,1.5816816091537476
1750927199926856700,10.516856689453125,-0.09834922850131989,0.008399390615522861,1.47661292552948
1750927199945681000,10.535680908203124,-0.1178968995809555,0.04245510324835777,1.3727658987045288
1750927199964505300,10.55450537109375,-0.1337793916463852,0.04505127668380737,1.3055707216262817
1750927199983329500,10.57332958984375,-0.14110976457595825,0.03634645417332649,1.2713623046875
1750927200002154000,10.592154052734376,-0.11178825795650482,0.06811141967773438,1.1980586051940918
1750927200020978200,10.610978271484376,-0.0616973415017128,0.0974329337477684,1.0661118030548096
1750927200039802400,10.62980224609375,-0.009162971749901772,0.10354158282279968,0.9182825088500977
1750927200058626800,10.648626708984375,-0.001832594396546483,0.08765909820795059,0.7973312735557556
1750927200077451000,10.667450927734375,0.0665842592716217,-0.016035201027989388,0.6543889045715332
1750927200096275500,10.686275390625,0.10934479534626007,-0.07834340631961823,0.4381427764892578
1750927200115099600,10.705099609375,0.13500112295150757,-0.0844520553946495,0.11682789027690887
1750927200133924000,10.723924072265625,0.13133592903614044,-0.030695954337716103,-0.2971857190132141
1750927200152748300,10.742748291015625,0.09468404203653336,0.013286309316754341,-0.7370083332061768
1750927200171572500,10.761572509765625,0.06536252796649933,0.003512472379952669,-1.1511746644973755
1750927200190397000,10.78039697265625,0.09957095980644226,-0.012370011769235134,-1.5494585037231445
1750927200209221000,10.79922119140625,0.13011419773101807,-0.0013744457392022014,-1.8353432416915894
1750927200228045600,10.818045654296874,0.13133592903614044,0.025503603741526604,-2.050367593765259
1750927200246869800,10.836869873046876,0.143553227186203,0.008399390615522861,-2.254396438598633
1750927200265694200,10.855694091796876,0.1545487940311432,-0.08078686892986298,-2.469420909881592
1750927200284518400,10.874518310546875,0.1802051067352295,-0.0746782198548317,-2.595258951187134
1750927200303342600,10.893342529296875,0.15699224174022675,-0.030695954337716103,-2.534172534942627
1750927200322167000,10.9121669921875,0.143553227186203,-0.049021899700164795,-2.282496213912964
1750927200340991200,10.9309912109375,0.14110976457595825,-0.07101303339004517,-1.9672900438308716
1750927200359815700,10.949815673828125,0.18631376326084137,-0.12354740500450134,-1.7913609743118286
1750927200378640000,10.968639892578125,0.1899789422750473,-0.11133010685443878,-1.821904182434082
1750927200397464300,10.98746435546875,0.1130099818110466,-0.05635227635502815,-1.9660682678222656
1750927200435112700,11.02511279296875,0.0030543238390237093,-0.07345648854970932,-1.8878775835037231
1750927200453937200,11.043937255859374,0.031154103577136993,-0.0795651376247406,-1.8157955408096313
1750927200472761300,11.06276123046875,0.09957095980644226,-0.09056070446968079,-1.7730350494384766
1750927200491585800,11.081585693359376,0.15577052533626556,-0.09666935354471207,-1.7510439157485962
1750927200510410000,11.100409912109376,0.18387030065059662,-0.11743875592947006,-1.7058398723602295
1750927200529234200,11.119234130859375,0.15577052533626556,-0.09178243577480316,-1.6594141721725464
1750927200548058600,11.13805859375,0.143553227186203,-0.08323032408952713,-1.5958842039108276
1750927200566882800,11.1568828125,0.18753549456596375,-0.11255183815956116,-1.510363221168518
1750927200585707300,11.175707275390625,0.2205221801996231,-0.11133010685443878,-1.3869684934616089
1750927200604531500,11.194531494140625,0.17043127119541168,-0.04535670951008797,-1.2085959911346436
1750927200623356000,11.21335595703125,0.06536252796649933,-0.008704823441803455,-1.0571014881134033
1750927200642180000,11.23218017578125,-0.0030543238390237093,0.01206457894295454,-0.9007201194763184
1750927200661004300,11.25100439453125,-0.0054977829568088055,0.02306014485657215,-0.7040216326713562
1750927200679828700,11.269828857421874,-0.007941242307424545,0.05100720748305321,-0.4682278633117676
1750927200698653000,11.28865283203125,0.011606430634856224,0.05589412897825241,-0.2153298407793045
1750927200717477400,11.307477294921876,0.014049889519810677,0.07910698652267456,0.0948367565870285
1750927200736301600,11.326301513671876,0.0030543238390237093,0.0668896958231926,0.4943423271179199
1750927200755126000,11.3451259765625,-0.001832594396546483,0.048563748598098755,0.8767436742782593
1750927200773950200,11.3639501953125,-0.006719512399286032,0.019394956529140472,1.2224931716918945
1750927200792774400,11.3827744140625,-0.011606430634856224,-0.008704823441803455,1.5706861019134521
1750927200811598800,11.401598876953125,0.004276053514331579,-0.06123919412493706,1.9310963153839111
1750927200830423000,11.420423095703125,0.01282816007733345,-0.13942988216876984,2.263406753540039
1750927200849247500,11.43924755859375,-0.09468404203653336,-0.17852523922920227,2.55051326751709
1750927200868071700,11.45807177734375,-0.18753549456596375,-0.212733656167984,2.741102933883667
1750927200886896000,11.476896240234375,-0.1948658674955368,-0.17852523922920227,2.8229589462280273
1750927200905720300,11.49572021484375,-0.1533270627260208,-0.12476912885904312,2.821737051010132
1750927200924544500,11.51454443359375,-0.13500112295150757,-0.1308777779340744,2.877936601638794
1750927200943369000,11.533368896484374,-0.16554436087608337,-0.1406516134738922,2.9512405395507812
1750927200962193200,11.552193115234376,-0.18753549456596375,-0.1406516134738922,2.8596107959747314
1750927200981017600,11.571017578125,-0.17898337543010712,-0.11133010685443878,2.593273639678955
1750927200999841800,11.589841796875,-0.15821397304534912,-0.06246092543005943,2.324493169784546
1750927201018666200,11.608666259765625,-0.16065743565559387,-0.033139415085315704,2.14612078666687
1750927201037490400,11.627490478515625,-0.1594357043504715,-0.03802633285522461,2.0583088397979736
1750927201056314600,11.646314697265625,-0.13500112295150757,-0.04169152304530144,1.9310963153839111
1750927201075139000,11.66513916015625,-0.1337793916463852,-0.042913250625133514,1.7771583795547485
1750927201093963300,11.68396337890625,-0.12278381735086441,-0.03436114266514778,1.5902336835861206
1750927201112787700,11.70278759765625,-0.09101885557174683,0.009621120058000088,1.380096197128296
1750927201131612000,11.72161181640625,-0.10201441496610641,0.0206166859716177,1.0661118030548096
1750927201150436400,11.740436279296874,-0.07513637095689774,0.021838415414094925,0.7912226319313049
1750927201169260500,11.759260498046874,-0.07147117704153061,0.018173227086663246,0.6507236957550049
1750927201188084700,11.778084716796876,-0.0824667438864708,0.02779434807598591,0.5835285782814026
1750927201206909200,11.7969091796875,-0.06902772188186646,0.05589412897825241,0.490677148103714
1750927201225733400,11.8157333984375,-0.04581485688686371,0.021838415414094925,0.26099199056625366
1750927201244557800,11.834557861328125,0.0054977829568088055,0.005955931730568409,-0.07116574794054031
1750927201263382000,11.853382080078125,0.015271619893610477,0.04016435891389847,-0.34238970279693604
1750927201282206200,11.872206298828125,0.014049889519810677,0.048563748598098755,-0.5623010396957397
1750927201301030700,11.89103076171875,0.03237583488225937,0.03527744114398956,-0.85918128490448
1750927201319854800,11.909854736328125,0.047036588191986084,0.08277218043804169,-1.239139199256897
1750927201338679300,11.92867919921875,0.03237583488225937,0.14508038759231567,-1.617875337600708
1750927201357503500,11.94750341796875,0.007941242307424545,0.1902843713760376,-1.898873209953308
1750927201376328000,11.966327880859374,0.02626718580722809,0.18295399844646454,-2.1248931884765625
1750927201395152100,11.985152099609374,0.03237583488225937,0.13530655205249786,-2.310595989227295
1750927201413976300,12.003976318359374,0.04825831577181816,0.17684535682201385,-2.37534761428833
1750927201432800800,12.02280078125,0.07635809481143951,0.1366809904575348,-2.30570912361145
1750927201451625000,12.041625,0.0873536616563797,0.08643736690282822,-2.204305648803711
1750927201470449400,12.060449462890626,0.08613193035125732,0.11453714966773987,-2.1419973373413086
1750927201489273600,12.079273681640625,0.08368847519159317,0.09498947113752365,-2.110232353210449
1750927201508098000,12.09809814453125,0.10934479534626007,0.07788526266813278,-2.07846736907959
1750927201526922200,12.116922119140625,0.0922405794262886,0.0461202897131443,-1.9770638942718506
1750927201545746400,12.135746337890625,0.08002328872680664,0.03756818547844887,-1.84145188331604
1750927201564571000,12.15457080078125,0.10201441496610641,-0.0025961752980947495,-1.7070616483688354
1750927201583395000,12.17339501953125,0.0873536616563797,0.009621120058000088,-1.6264275312423706
1750927201602219500,12.192219482421875,0.07880155742168427,0.03527744114398956,-1.6313143968582153
1750927201621043700,12.211043701171874,0.07635809481143951,0.03756818547844887,-1.6325361728668213
1750927201639868200,12.2298681640625,0.043371398001909256,0.03390299528837204,-1.571449637413025
1750927201658692400,12.2486923828125,0.017715077847242355,-0.005039634648710489,-1.4309507608413696
1750927201677516500,12.2675166015625,0.025045456364750862,-0.011148282326757908,-1.3405427932739258
1750927201696341000,12.286341064453126,0.04459312930703163,0.0010690133785828948,-1.2928953170776367
1750927201715165200,12.305165283203126,0.05192350596189499,0.010842849500477314,-1.248913049697876
1750927201733989600,12.32398974609375,0.049480047076940536,0.04245510324835777,-1.130405306816101
1750927201752813800,12.342813720703125,0.05803215503692627,0.009621120058000088,-0.926376461982727
1750927201771638300,12.36163818359375,0.039706211537122726,0.01695149764418602,-0.7089085578918457
1750927201790462500,12.38046240234375,0.007941242307424545,0.002290742937475443,-0.5439751148223877
1750927201809286700,12.39928662109375,-0.001832594396546483,0.005955931730568409,-0.43890634179115295
1750927201828111000,12.418111083984375,0.001832594396546483,0.02306014485657215,-0.282524973154068
1750927201846935300,12.436935302734375,-0.017715077847242355,0.03145953640341759,-0.051618073135614395
1750927201865759500,12.455759521484374,-0.017715077847242355,0.013286309316754341,0.2292270064353943
1750927201884584000,12.474583984375,-0.010384701192378998,0.0010690133785828948,0.5383245944976807
1750927201903408000,12.493408203125,-0.01282816007733345,-0.01359174121171236,0.819322407245636
1750927201922232600,12.512232666015626,-0.011606430634856224,-0.05635227635502815,1.08810293674469
1750927201941056800,12.531056884765626,-0.031154103577136993,-0.06123919412493706,1.3532181978225708
1750927201959881200,12.549881103515625,-0.047036588191986084,-0.0746782198548317,1.5694643259048462
1750927201978705400,12.568705322265625,-0.05803215503692627,-0.10155627131462097,1.727067470550537
1750927201997529600,12.587529541015625,-0.053145237267017365,-0.12232567369937897,1.8516838550567627
1750927202016354000,12.60635400390625,-0.049480047076940536,-0.12721258401870728,1.8956661224365234
1750927202035178200,12.62517822265625,-0.043371398001909256,-0.12843431532382965,1.8895574808120728
1750927202054002700,12.644002685546875,-0.05558869615197182,-0.11988221108913422,1.8675663471221924
1750927202072827000,12.662826904296875,-0.0922405794262886,-0.11133010685443878,1.8590142726898193
1750927202091651300,12.6816513671875,-0.15577052533626556,-0.08200860023498535,1.8663445711135864
1750927202110475500,12.7004755859375,-0.2364046722650528,-0.009926552884280682,1.835801362991333
1750927202129299700,12.7192998046875,-0.29016077518463135,0.030390523374080658,1.7527238130569458
1750927202148124200,12.738124267578126,-0.2205221801996231,0.004734201822429895,1.698967695236206
1750927202166948400,12.7569482421875,-0.09346231073141098,-0.04169152304530144,1.7038545608520508
1750927202185772800,12.775772705078126,-0.07635809481143951,-0.06123919412493706,1.7221804857254028
1750927202204597000,12.794596923828125,-0.11911863088607788,-0.049021899700164795,1.6965242624282837
1750927202223421400,12.81342138671875,-0.14477495849132538,-0.023365577682852745,1.5755729675292969
1750927202242245600,12.83224560546875,-0.13988803327083588,0.002290742937475443,1.409417748451233
1750927202261069800,12.85106982421875,-0.12644900381565094,-0.014813470654189587,1.2652536630630493
1750927202279894300,12.869894287109375,-0.10567960888147354,-0.01847865991294384,1.2017236948013306
1750927202298718500,12.888718505859375,-0.1130099818110466,-0.017256930470466614,1.182176113128662
1750927202317543000,12.90754296875,-0.1130099818110466,-0.011148282326757908,1.1687370538711548
1750927202336367000,12.9263671875,-0.08857539296150208,-0.04046979174017906,1.1614066362380981
1750927202355191600,12.945191650390624,-0.04459312930703163,-0.09422589093446732,1.1113157272338867
1750927202374015700,12.964015625,0.004276053514331579,-0.11499529331922531,0.975703775882721
1750927202392840000,12.98283984375,0.01649334840476513,-0.09911280870437622,0.8205441236495972
1750927202411664400,13.001664306640626,-0.0054977829568088055,-0.06612611562013626,0.754570722579956
1750927202430488600,13.020488525390626,0.010384701192378998,-0.03802633285522461,0.7203623056411743
1750927202449313000,13.03931298828125,0.010384701192378998,-0.025809036567807198,0.6519454121589661
1750927202468137200,13.05813720703125,-0.01893680728971958,-0.04413498193025589,0.5273290276527405
1750927202486961700,13.076961669921875,-0.020158538594841957,-0.03436114266514778,0.36972591280937195
1750927202505785900,13.095785888671875,-0.03481929376721382,-0.012370011769235134,0.15592323243618011
1750927202524610000,13.114610107421875,-0.039706211537122726,0.03634645417332649,-0.1640172004699707
1750927202543434500,13.1334345703125,-0.006719512399286032,0.0766635313630104,-0.5293143391609192
1750927202562258700,13.1522587890625,-0.009162971749901772,0.09010255336761475,-0.8836159110069275
1750927202581083100,13.171083251953124,-0.03481929376721382,0.09987638890743256,-1.1633919477462769
1750927202599907300,13.1899072265625,-0.031154103577136993,0.129197895526886,-1.4456114768981934
1750927202618731500,13.2087314453125,-0.03848448023200035,0.17195843160152435,-1.7986913919448853
1750927202637556000,13.227555908203126,-0.015271619893610477,0.19639302790164948,-2.1444408893585205
1750927202656380200,13.246380126953126,0.03848448023200035,0.14263692498207092,-2.3814563751220703
1750927202675204600,13.26520458984375,0.07513637095689774,0.06811141967773438,-2.470642566680908
1750927202694028800,13.28402880859375,0.07269290834665298,0.08765909820795059,-2.455981731414795
1750927202712853200,13.302853271484375,0.02871064469218254,0.08888082206249237,-2.3533565998077393
1750927202741089500,13.331089599609374,-0.05070177838206291,0.11087195575237274,-2.1725406646728516
1750927202759914000,13.3499140625,-0.08857539296150208,0.14752385020256042,-2.1505494117736816
1750927202778738200,13.36873828125,-0.047036588191986084,0.1585194170475006,-2.112675905227661
1750927202797562400,13.387562255859375,-0.020158538594841957,0.1230892539024353,-1.9379684925079346
1750927202816386800,13.40638671875,0.007941242307424545,0.07422006875276566,-1.7229441404342651
1750927202835211000,13.4252109375,0.07880155742168427,0.02779434807598591,-1.5922189950942993
1750927202854035500,13.444035400390625,0.12400554865598679,0.0010690133785828948,-1.571449637413025
1750927202872859600,13.462859619140625,0.13744457066059113,-0.02214384824037552,-1.551901936531067
1750927202891684000,13.48168408203125,0.13133592903614044,-0.039248060435056686,-1.471267819404602
1750927202910508300,13.50050830078125,0.11056652665138245,-0.008704823441803455,-1.3258819580078125
1750927202929332500,13.51933251953125,0.0665842592716217,0.014508038759231567,-1.1511746644973755
1750927202948157000,13.538156982421874,0.06536252796649933,0.03527744114398956,-0.9984585046768188
1750927202966981000,13.556981201171874,0.05925388261675835,0.013286309316754341,-0.8738420605659485
1750927202985805600,13.5758056640625,0.03481929376721382,-0.019700389355421066,-0.8078686594963074
1750927203004629800,13.594629638671876,0.025045456364750862,-0.020922118797898293,-0.7480039000511169
1750927203023454200,13.6134541015625,0.02626718580722809,-0.016035201027989388,-0.664926290512085
1750927203042278400,13.6322783203125,0.01282816007733345,0.008399390615522861,-0.4828886091709137
1750927203061102600,13.6511025390625,-0.001832594396546483,0.032681263983249664,-0.23732095956802368
1750927203079927000,13.669927001953125,-0.0054977829568088055,0.013286309316754341,0.02519817277789116
1750927203098751200,13.688751220703125,-0.011606430634856224,-0.005039634648710489,0.2952004075050354
1750927203117575400,13.707575439453125,-0.010384701192378998,-0.029474224895238876,0.5688678026199341
1750927203136400000,13.72639990234375,0.006719512399286032,-0.049021899700164795,0.8217658400535583
1750927203155224300,13.745224365234375,-0.001832594396546483,-0.06612611562013626,1.0465641021728516
1750927203174048500,13.764048583984374,-0.03848448023200035,-0.06612611562013626,1.3153445720672607
1750927203192872700,13.782872802734374,-0.0665842592716217,-0.06612611562013626,1.6293290853500366
1750927203211697200,13.801697265625,-0.06414080411195755,-0.06979130208492279,1.8614577054977417
1750927203230521300,13.820521240234376,-0.04459312930703163,-0.09422589093446732,1.9225441217422485
1750927203249345500,13.839345458984376,-0.023823726922273636,-0.10155627131462097,1.8761184215545654
1750927203268170000,13.858169921875,-0.006719512399286032,-0.10766492038965225,1.8394665718078613
1750927203286994200,13.876994140625,-0.02626718580722809,-0.052687086164951324,1.788153886795044
1750927203305818600,13.895818603515625,-0.08002328872680664,0.014508038759231567,1.760054111480713
1750927203324642800,13.914642822265625,-0.14233149588108063,0.09498947113752365,1.7405065298080444
1750927203343467300,13.93346728515625,-0.1545487940311432,0.1487455666065216,1.6928590536117554
1750927203362291500,13.95229150390625,-0.12644900381565094,0.13530655205249786,1.642768144607544
1750927203381115600,13.97111572265625,-0.08613193035125732,-0.02214384824037552,1.6281073093414307
1750927203399940000,13.989940185546875,-0.09834922850131989,-0.10766492038965225,1.7246240377426147
1750927203418764300,14.008764404296874,-0.15088360011577606,-0.06979130208492279,1.8895574808120728
1750927203437588700,14.027588623046874,-0.1899789422750473,-0.06368265300989151,1.9799654483795166
1750927203456413000,14.046412841796876,-0.13255766034126282,-0.05024362727999687,1.9225441217422485
1750927203475237400,14.0652373046875,-0.05070177838206291,-0.09422589093446732,1.7576106786727905
1750927203494061600,14.0840615234375,-0.03237583488225937,-0.07345648854970932,1.5083779096603394
1750927203512885800,14.1028857421875,-0.0360410213470459,-0.03558287397027016,1.2505929470062256
1750927203531710200,14.121710205078125,-0.04459312930703163,-0.033139415085315704,1.077107310295105
1750927203550534400,14.140534423828125,-0.04459312930703163,-0.08200860023498535,1.0661118030548096
1750927203569358800,14.15935888671875,-0.049480047076940536,-0.13332124054431915,1.1418589353561401
1750927203588183000,14.17818310546875,-0.06291907280683517,-0.12110394239425659,1.1711804866790771
1750927203607007500,14.197007568359375,-0.07024945318698883,-0.08323032408952713,1.1174243688583374
1750927203625831700,14.215831787109375,-0.053145237267017365,-0.06001746281981468,1.0282381772994995
1750927203644655900,14.23465576171875,-0.017715077847242355,-0.06490438431501389,0.9720385670661926
1750927203663480300,14.253480224609374,-0.01649334840476513,-0.07223475724458694,0.9915862679481506
1750927203682304500,14.272304443359374,-0.02871064469218254,-0.07589995115995407,1.0538945198059082
1750927203701128700,14.291128662109376,-0.031154103577136993,-0.07712167501449585,1.039233684539795
1750927203719953200,14.309953125,-0.043371398001909256,-0.04413498193025589,0.8938478827476501
1750927203738777600,14.328777587890626,-0.027488915249705315,0.0010690133785828948,0.6739365458488464
1750927203757601800,14.347601806640625,0.0360410213470459,-0.02214384824037552,0.42103853821754456
1750927203776426000,14.366426025390625,0.0873536616563797,-0.05024362727999687,0.10216713696718216
1750927203795250400,14.38525048828125,0.11545344442129135,-0.0062613640911877155,-0.31673339009284973
1750927203814074600,14.40407470703125,0.0922405794262886,0.0766635313630104,-0.7883210182189941
1750927203832898800,14.42289892578125,0.0665842592716217,0.13041962683200836,-1.2599085569381714
1750927203851723300,14.44172314453125,0.023823726922273636,0.11698060482740402,-1.7156137228012085
1750927203870547500,14.46054736328125,-0.03237583488225937,0.14263692498207092,-2.110232353210449
1750927203889372000,14.479371826171874,-0.09346231073141098,0.2098320573568344,-2.3851215839385986
1750927203908196000,14.498196044921874,-0.14721840620040894,0.24770566821098328,-2.5219552516937256
1750927203927020500,14.5170205078125,-0.1288924664258957,0.1279761642217636,-2.5439462661743164
1750927203945844700,14.5358447265625,-0.05436696484684944,0.08399390429258347,-2.5072944164276123
1750927203964669000,14.5546689453125,-0.011606430634856224,0.1536324918270111,-2.4743077754974365
1750927203983493400,14.573493408203126,-0.0054977829568088055,0.14141519367694855,-2.490190267562866
1750927204002317600,14.592317626953125,0.02260199747979641,0.1853974610567093,-2.495077133178711
1750927204021142000,14.61114208984375,0.023823726922273636,0.16340632736682892,-2.411999464035034
1750927204039966200,14.62996630859375,0.015271619893610477,0.15118902921676636,-2.2812745571136475
1750927204058790700,14.648790771484375,0.017715077847242355,0.1328630894422531,-2.2336270809173584
1750927204077614800,14.66761474609375,0.020158538594841957,0.1279761642217636,-2.238513946533203
1750927204096439000,14.68643896484375,0.01893680728971958,0.16096286475658417,-2.1786491870880127
1750927204115263500,14.705263427734375,0.037262752652168274,0.10598503798246384,-2.0271546840667725
1750927204134087700,14.724087646484374,0.03481929376721382,0.08277218043804169,-1.8536691665649414
1750927204152912100,14.742912109375,0.004276053514331579,0.04978547990322113,-1.7192789316177368
1750927204171736300,14.761736328125,-0.006719512399286032,0.04505127668380737,-1.6630793809890747
1750927204190560800,14.780560791015626,0.000610864779446274,0.014508038759231567,-1.5677844285964966
1750927204209385000,14.799385009765626,0.0054977829568088055,0.015729768201708794,-1.3942989110946655
1750927204228209200,14.818209228515625,0.01282816007733345,-0.025809036567807198,-1.2122611999511719
1750927204247033600,14.83703369140625,0.01893680728971958,-0.02458730712532997,-1.0180062055587769
1750927204265857800,14.85585791015625,0.0030543238390237093,0.007177661173045635,-0.767551600933075
1750927204284682000,14.874681884765625,-0.01282816007733345,-0.020922118797898293,-0.5134318470954895
1750927204303506400,14.89350634765625,-0.02260199747979641,-0.036804601550102234,-0.2874118685722351
1750927204322330600,14.91233056640625,-0.02626718580722809,-0.012370011769235134,0.014202605932950974
1750927204341155000,14.931155029296875,-0.039706211537122726,-0.012370011769235134,0.4027126133441925
1750927204359979300,14.949979248046875,-0.03481929376721382,-0.04046979174017906,0.7619010806083679
1750927204378803700,14.9688037109375,-0.014049889519810677,-0.06490438431501389,1.1100940704345703
1750927204397628000,14.9876279296875,-0.01893680728971958,-0.0844520553946495,1.4106395244598389
1750927204416452000,15.0064521484375,-0.015271619893610477,-0.10399972647428513,1.6928590536117554
1750927204435276500,15.025276611328126,0.004276053514331579,-0.10644318908452988,1.9066617488861084
1750927204454100700,15.044100830078126,0.015271619893610477,-0.09544762223958969,2.0434954166412354
1750927204472925200,15.06292529296875,0.01282816007733345,-0.0844520553946495,2.120464324951172
1750927204491749400,15.081749267578125,-0.009162971749901772,-0.06856957077980042,2.204763650894165
1750927204510573800,15.10057373046875,-0.01282816007733345,-0.08811724185943604,2.268293619155884
1750927204529398000,15.11939794921875,-0.021380268037319183,-0.0795651376247406,2.3171627521514893
1750927204548222200,15.13822216796875,-0.02260199747979641,-0.01359174121171236,2.287841320037842
1750927204567046700,15.157046630859375,-0.05070177838206291,-0.0001527161948615685,2.157116174697876
1750927204585870800,15.175870849609375,-0.08491020649671555,-0.009926552884280682,2.033721685409546
1750927204604695300,15.1946953125,-0.07635809481143951,-0.012370011769235134,1.9518656730651855
1750927204632931600,15.222931640625,-0.07513637095689774,-0.011148282326757908,1.8138102293014526
1750927204651756000,15.241756103515625,-0.05070177838206291,-0.007483093533664942,1.6488767862319946
1750927204670580200,15.260580322265625,-0.08002328872680664,0.003512472379952669,1.5022692680358887
1750927204689404700,15.27940478515625,-0.1386663019657135,0.025503603741526604,1.457065224647522
1750927204708228900,15.298228759765625,-0.143553227186203,0.029016077518463135,1.474169373512268
1750927204727053000,15.317052978515624,-0.10323614627122879,0.007177661173045635,1.5022692680358887
1750927204745877500,15.33587744140625,-0.0616973415017128,-0.02214384824037552,1.5462514162063599
1750927204764701700,15.35470166015625,-0.05070177838206291,-0.008704823441803455,1.4998257160186768
1750927204783526100,15.373526123046876,-0.0360410213470459,0.003512472379952669,1.3825397491455078
1750927204802350300,15.392350341796876,-0.031154103577136993,-0.016035201027989388,1.272584080696106
1750927204821174800,15.4111748046875,-0.033597562462091446,-0.05146535858511925,1.223714828491211
1750927204839999000,15.4299990234375,-0.025045456364750862,-0.049021899700164795,1.1907281875610352
1750927204858823200,15.4488232421875,-0.0616973415017128,-0.04413498193025589,1.0990984439849854
1750927204877647600,15.467647705078125,-0.12156209349632263,0.019394956529140472,0.9561560750007629
1750927204896471800,15.486471923828125,-0.14599667489528656,0.1230892539024353,0.7215840220451355
1750927204915296300,15.505296142578125,-0.12644900381565094,0.14019346237182617,0.3013090491294861
1750927204934120400,15.524120361328125,-0.05803215503692627,0.12553271651268005,-0.1957821547985077
1750927204952944600,15.542944580078125,0.011606430634856224,0.10965022444725037,-0.6808087825775146
1750927204971769000,15.56176904296875,0.04459312930703163,0.09132428467273712,-1.112079381942749
1750927204990593300,15.58059326171875,0.03848448023200035,0.10109812021255493,-1.5128066539764404
1750927205009417700,15.599417724609374,-0.031154103577136993,0.15485422313213348,-1.8842123746871948
1750927205028242000,15.618241943359376,-0.11911863088607788,0.20127993822097778,-2.2311835289001465
1750927205047066400,15.63706640625,-0.13011419773101807,0.1646280586719513,-2.4156646728515625
1750927205065890600,15.655890625,-0.07147117704153061,0.048563748598098755,-2.4156646728515625
1750927205084714800,15.67471484375,0.006719512399286032,0.04505127668380737,-2.358243465423584
1750927205103539200,15.693539306640625,0.043371398001909256,0.0766635313630104,-2.3203699588775635
1750927205122363400,15.71236328125,0.0873536616563797,0.08521563559770584,-2.3399174213409424
1750927205141187800,15.731187744140625,0.12400554865598679,0.0668896958231926,-2.355799913406372
1750927205160012000,15.750011962890625,0.12522727251052856,0.015729768201708794,-2.273944139480591
1750927205178836200,15.768836181640625,0.07269290834665298,0.04505127668380737,-2.087019443511963
1750927205197660700,15.78766064453125,-0.0030543238390237093,0.10231985151767731,-1.8744385242462158
1750927205216484900,15.80648486328125,-0.05803215503692627,0.16096286475658417,-1.7351614236831665
1750927205235309300,15.825309326171874,-0.049480047076940536,0.15118902921676636,-1.7449352741241455
1750927205254133500,15.844133544921876,-0.017715077847242355,0.12186752259731293,-1.8206825256347656
1750927205272958000,15.8629580078125,-0.011606430634856224,0.05222893878817558,-1.842673659324646
1750927205291782100,15.8817822265625,0.017715077847242355,0.06444623321294785,-1.8206825256347656
1750927205310606300,15.9006064453125,0.004276053514331579,0.07788526266813278,-1.814573884010315
1750927205329430800,15.9194306640625,-0.027488915249705315,0.08521563559770584,-1.7669264078140259
1750927205348255000,15.9382548828125,-0.03481929376721382,0.07544180005788803,-1.665522813796997
1750927205367079400,15.957079345703125,-0.033597562462091446,0.13164135813713074,-1.4749330282211304
1750927205385903600,15.975903564453125,-0.1130099818110466,0.1597411334514618,-1.3136646747589111
1750927205404728000,15.99472802734375,-0.16554436087608337,0.11209368705749512,-1.1658353805541992
1750927205423552300,16.01355224609375,-0.1081230640411377,0.1389717310667038,-0.878728985786438
1750927205442376400,16.03237646484375,-0.10690133273601532,0.12064579129219055,-0.5537489056587219
1750927205461201000,16.051200927734374,-0.164322629570961,0.1182023361325264,-0.30451610684394836
1750927205480025000,16.070025146484376,-0.205861434340477,0.12064579129219055,0.016646064817905426
1750927205498849500,16.088849609375,-0.17165300250053406,0.06566796451807022,0.24510949850082397
1750927205517673700,16.107673828125,-0.010384701192378998,-0.005039634648710489,0.4589121639728546
1750927205536498000,16.126497802734374,0.15088360011577606,-0.09544762223958969,0.736244797706604
1750927205555322400,16.145322265625,0.23029601573944092,-0.13698641955852509,1.1296416521072388
1750927205574146600,16.164146484375,0.25350889563560486,-0.15531237423419952,1.4326306581497192
1750927205592971000,16.182970947265623,0.2669478952884674,-0.24205516278743744,1.5645774602890015
1750927205611795200,16.201795166015625,0.2254091054201126,-0.20906847715377808,1.7539454698562622
1750927205630619600,16.22061962890625,0.10079269111156464,-0.16508620977401733,1.9469788074493408
1750927205649443800,16.23944384765625,-0.025045456364750862,-0.20173808932304382,2.0996949672698975
1750927205668268000,16.25826806640625,-0.03237583488225937,-0.19074252247810364,2.122907876968384
1750927205687092500,16.277092529296876,0.01893680728971958,-0.1931859850883484,2.072816848754883
1750927205705916700,16.295916748046874,-0.007941242307424545,-0.20906847715377808,2.1277947425842285
1750927205724741000,16.3147412109375,-0.07635809481143951,-0.212733656167984,2.1865904331207275
1750927205743565300,16.3335654296875,-0.03481929376721382,-0.22006404399871826,2.0752604007720947
1750927205762389800,16.3523896484375,0.0409279391169548,-0.21151192486286163,1.7405065298080444
1750927205781214000,16.3712138671875,0.0922405794262886,-0.18952079117298126,1.3959786891937256
1750927205800038100,16.3900380859375,0.05925388261675835,-0.1455385386943817,1.3116793632507324
1750927205818862600,16.408862548828125,0.014049889519810677,-0.1516471803188324,1.466839075088501
1750927205837686800,16.427686767578123,-0.039706211537122726,-0.1614210158586502,1.7258456945419312
1750927205856511200,16.44651123046875,-0.13988803327083588,-0.16019928455352783,1.9115486145019531
1750927205875335400,16.46533544921875,-0.1533270627260208,-0.1724165827035904,2.0557126998901367
1750927205894159600,16.48415966796875,-0.06536252796649933,-0.19074252247810364,2.1339035034179688
1750927205912984000,16.502984130859375,0.06536252796649933,-0.20418155193328857,2.0667083263397217
1750927205931808300,16.521808349609376,0.13744457066059113,-0.1931859850883484,1.9066617488861084
1750927205950632700,16.5406328125,0.15577052533626556,-0.13698641955852509,1.7319543361663818
1750927205969457000,16.559456787109376,0.20830489695072174,-0.1003345400094986,1.614668369293213
1750927205988281300,16.57828125,0.19730933010578156,-0.1455385386943817,1.4448479413986206
1750927206007105500,16.59710546875,0.143553227186203,-0.17974695563316345,1.106428861618042
1750927206025929700,16.6159296875,0.13133592903614044,-0.11255183815956116,0.6739365458488464
1750927206044754200,16.634754150390624,0.164322629570961,-0.02214384824037552,0.23533566296100616
1750927206063578400,16.653578369140625,0.17531819641590118,0.005955931730568409,-0.13713914155960083
1750927206082402800,16.67240283203125,0.1496618688106537,0.06444623321294785,-0.47555822134017944
1750927206101227000,16.69122705078125,0.0922405794262886,0.11453714966773987,-0.868955135345459
1750927206120051200,16.71005126953125,0.07147117704153061,0.15607595443725586,-1.2818996906280518
1750927206138875600,16.728875732421876,0.09468404203653336,0.20616686344146729,-1.6154319047927856
1750927206157699800,16.747699951171874,0.07513637095689774,0.23915356397628784,-1.8060216903686523
1750927206176524300,16.766524169921876,0.031154103577136993,0.19272783398628235,-1.8781037330627441
1750927206195348500,16.785348388671874,0.014049889519810677,0.14019346237182617,-1.988059401512146
1750927206214173000,16.8041728515625,0.031154103577136993,0.14263692498207092,-2.0686936378479004
1750927206232997000,16.8229970703125,-0.0030543238390237093,0.05833758786320686,-2.0748021602630615
1750927206251821300,16.8418212890625,0.025045456364750862,0.09621120244264603,-2.0613632202148438
1750927206270645800,16.860645751953125,0.07147117704153061,0.12064579129219055,-2.0405938625335693
1750927206289470000,16.879469970703123,0.04214967042207718,0.11942406743764877,-2.073580503463745
1750927206308294400,16.89829443359375,0.021380268037319183,0.11087195575237274,-2.1297800540924072
1750927206327118600,16.91711865234375,0.004276053514331579,0.12675444781780243,-2.1114540100097656
1750927206345942800,16.93594287109375,-0.033597562462091446,0.12186752259731293,-2.006385326385498
1750927206364767200,16.954767333984375,-0.09346231073141098,0.10720676928758621,-1.8964296579360962
1750927206393003800,16.983003662109375,-0.06414080411195755,0.08155044913291931,-1.8829907178878784
1750927206411828000,17.001827880859373,0.009162971749901772,0.05100720748305321,-1.87932550907135
1750927206430652200,17.020652099609375,0.07147117704153061,0.02779434807598591,-1.8280128240585327
1750927206449476600,17.0394765625,0.09834922850131989,0.024281874299049377,-1.7339396476745605
1750927206468300800,17.05830078125,0.0873536616563797,-0.008704823441803455,-1.6203187704086304
1750927206487125200,17.077125244140625,0.04214967042207718,-0.02214384824037552,-1.5079196691513062
1750927206505949400,17.095949462890626,-0.017715077847242355,0.005955931730568409,-1.4773764610290527
1750927206524774000,17.11477392578125,-0.039706211537122726,0.024281874299049377,-1.5176935195922852
1750927206543598000,17.13359814453125,-0.015271619893610477,-0.07712167501449585,-1.481041669845581
1750927206562422300,17.15242236328125,0.011606430634856224,-0.10399972647428513,-1.2330305576324463
1750927206581246700,17.171246826171874,0.02626718580722809,-0.029474224895238876,-0.980132520198822
1750927206600071000,17.19007080078125,0.04581485688686371,-0.007483093533664942,-0.8310815095901489
1750927206618895400,17.208895263671874,-0.01893680728971958,0.008399390615522861,-0.6136136651039124
1750927206637719600,17.227719482421875,-0.06536252796649933,0.04367683082818985,-0.26908594369888306
1750927206656544000,17.2465439453125,-0.07024945318698883,0.06200277432799339,0.18402300775051117
1750927206675368200,17.2653681640625,-0.07024945318698883,0.008399390615522861,0.5981893539428711
1750927206694192400,17.2841923828125,-0.049480047076940536,-0.025809036567807198,0.9647082090377808
1750927206713016800,17.303016845703127,-0.027488915249705315,-0.058795735239982605,1.23348867893219
1750927206731841000,17.321841064453125,0.05925388261675835,-0.1259908676147461,1.3910918235778809
1750927206750665200,17.340665283203126,0.07757982611656189,-0.15042544901371002,1.5755729675292969
1750927206769489700,17.35948974609375,0.01893680728971958,-0.09056070446968079,1.82724928855896
1750927206788313900,17.37831396484375,-0.020158538594841957,-0.033139415085315704,1.9995131492614746
1750927206807138300,17.39713818359375,-0.02626718580722809,0.04505127668380737,1.9811872243881226
1750927206825962500,17.41596240234375,-0.039706211537122726,0.0925460159778595,1.8333579301834106
1750927206844787000,17.434786865234376,-0.06291907280683517,0.12553271651268005,1.7062979936599731
1750927206863611100,17.453611083984374,-0.08368847519159317,0.11942406743764877,1.6745331287384033
1750927206882435300,17.472435302734375,-0.09712749719619751,0.060781046748161316,1.7527238130569458
1750927206901259800,17.491259765625,-0.15210533142089844,0.060781046748161316,1.9249876737594604
1750927206920084000,17.510083984375,-0.143553227186203,0.08399390429258347,2.0459389686584473
1750927206938908400,17.528908447265625,-0.04825831577181816,0.09132428467273712,1.973856806755066
1750927206957732600,17.547732666015627,0.039706211537122726,0.11087195575237274,1.6855286359786987
1750927206976557000,17.56655712890625,0.02260199747979641,0.18295399844646454,1.4497348070144653
1750927206995381200,17.58538134765625,0.000610864779446274,0.15241076052188873,1.3727658987045288
1750927207014205400,17.604205322265624,0.010384701192378998,0.04978547990322113,1.399643898010254
1750927207033030000,17.62302978515625,-0.011606430634856224,-0.02458730712532997,1.5303690433502197
1750927207051854000,17.64185400390625,-0.056810423731803894,-0.1003345400094986,1.6439898014068604
1750927207070678500,17.660678466796874,-0.05070177838206291,-0.13454297184944153,1.7026329040527344
1750927207089502700,17.679502685546876,-0.001832594396546483,-0.1259908676147461,1.7014111280441284
1750927207108327000,17.698326904296874,0.014049889519810677,-0.12965604662895203,1.650098443031311
1750927207127151400,17.7171513671875,0.009162971749901772,-0.1406516134738922,1.6830852031707764
1750927207145975600,17.7359755859375,0.0030543238390237093,-0.15409064292907715,1.718515396118164
1750927207164800000,17.754800048828123,0.05925388261675835,-0.16875138878822327,1.5951206684112549
1750927207183624200,17.773624267578125,0.11423171311616898,-0.16997312009334564,1.4118611812591553
1750927207202448400,17.792448486328126,0.09101885557174683,-0.1614210158586502,1.30923593044281
1750927207221272800,17.81127294921875,0.02260199747979641,-0.08933897316455841,1.310457706451416
1750927207240097000,17.830096923828126,-0.033597562462091446,0.03527744114398956,1.2982404232025146
1750927207258921200,17.848921142578124,-0.06902772188186646,0.06444623321294785,1.1662936210632324
1750927207277745700,17.86774560546875,-0.029932374134659767,0.04505127668380737,0.9182825088500977
1750927207296569900,17.88656982421875,0.04214967042207718,0.05345066636800766,0.4857902228832245
1750927207315394300,17.905394287109374,0.08613193035125732,0.0668896958231926,-0.06505709886550903
1750927207334218500,17.924218505859375,0.11911863088607788,0.1279761642217636,-0.6795870661735535
1750927207353042700,17.943042724609374,0.12034036219120026,0.14996729791164398,-1.250134825706482
1750927207371867100,17.9618671875,0.05925388261675835,0.21960589289665222,-1.7547091245651245
1750927207390691300,17.98069140625,-0.0824667438864708,0.2929096519947052,-2.254396438598633
1750927207409515800,17.999515869140627,-0.1533270627260208,0.30024003982543945,-2.685667037963867
1750927207428340000,18.018340087890625,-0.06780599057674408,0.11209368705749512,-2.889695882797241
1750927207447164200,18.0371640625,0.039706211537122726,-0.008704823441803455,-2.8176138401031494
1750927207465988600,18.055988525390624,0.04825831577181816,0.009621120058000088,-2.6563456058502197
1750927207484812800,18.074812744140626,0.023823726922273636,-0.0025961752980947495,-2.5683810710906982
1750927207503637200,18.09363720703125,0.037262752652168274,0.03527744114398956,-2.5158464908599854
1750927207522461400,18.11246142578125,0.08491020649671555,0.04978547990322113,-2.4987423419952393
1750927207541285600,18.13128564453125,0.11667517572641373,0.09987638890743256,-2.506072759628296
1750927207560110000,18.150110107421874,0.07635809481143951,0.11698060482740402,-2.4413211345672607
1750927207578934300,18.168934326171875,0.053145237267017365,0.0717766135931015,-2.2678353786468506
1750927207597758700,18.1877587890625,0.07513637095689774,-0.030695954337716103,-2.0662500858306885
1750927207616583000,18.2065830078125,0.0665842592716217,-0.06368265300989151,-1.9379684925079346
1750927207635407400,18.225407470703125,0.05803215503692627,-0.020922118797898293,-1.8524473905563354
1750927207654231600,18.2442314453125,0.05436696484684944,-0.019700389355421066,-1.804800033569336
1750927207673055700,18.2630556640625,0.05192350596189499,0.03390299528837204,-1.7437134981155396
1750927207701292300,18.291292236328125,0.1081230640411377,0.06200277432799339,-1.6264275312423706
1750927207720116500,18.310116455078123,0.13622283935546875,-0.008704823441803455,-1.4834851026535034
1750927207738941000,18.32894091796875,0.12156209349632263,-0.049021899700164795,-1.3478730916976929
1750927207757765000,18.34776513671875,0.04214967042207718,-0.03558287397027016,-1.277012825012207
1750927207776589600,18.366589599609377,-0.001832594396546483,0.009621120058000088,-1.1866048574447632
1750927207795413800,18.385413818359375,0.017715077847242355,0.01695149764418602,-1.0241148471832275
1750927207814238200,18.40423828125,0.023823726922273636,0.025503603741526604,-0.7944296598434448
1750927207833062400,18.4230625,0.014049889519810677,0.05100720748305321,-0.4780016839504242
1750927207851886600,18.441886474609376,0.02260199747979641,0.060781046748161316,-0.12003492563962936
1750927207870711000,18.4607109375,0.004276053514331579,0.04505127668380737,0.2084576040506363
1750927207889535200,18.47953515625,0.0030543238390237093,0.0010690133785828948,0.49189886450767517
1750927207908359700,18.498359619140626,0.03237583488225937,-0.019700389355421066,0.736244797706604
1750927207927184000,18.517183837890624,0.05558869615197182,-0.06979130208492279,1.0013600587844849
1750927207946008300,18.53600830078125,0.053145237267017365,-0.09422589093446732,1.3055707216262817
1750927207964832500,18.55483251953125,0.04214967042207718,-0.09666935354471207,1.5804599523544312
1750927207983656700,18.57365673828125,0.033597562462091446,-0.11133010685443878,1.7710497379302979
1750927208002481200,18.592481201171875,0.01649334840476513,-0.14309507608413696,1.8577924966812134
1750927208021305300,18.611305419921877,-0.0030543238390237093,-0.19074252247810364,1.912770390510559
1750927208049542000,18.6395419921875,-0.02626718580722809,-0.1418733447790146,2.04838228225708
1750927208068366000,18.658365966796875,-0.017715077847242355,-0.09300415962934494,2.0777037143707275
1750927208087190500,18.6771904296875,-0.04459312930703163,-0.02458730712532997,2.0972514152526855
1750927208106014700,18.6960146484375,-0.0873536616563797,-0.02214384824037552,2.1534509658813477
1750927208124839000,18.7148388671875,-0.08002328872680664,-0.036804601550102234,2.118021011352539
1750927208143663400,18.733663330078127,-0.029932374134659767,-0.0025961752980947495,1.9384266138076782
1750927208162487600,18.752487548828125,0.009162971749901772,-0.012370011769235134,1.7050763368606567
1750927208181312000,18.77131201171875,0.031154103577136993,-0.08689551800489426,1.5902336835861206
1750927208200136200,18.79013623046875,0.04459312930703163,-0.1406516134738922,1.6195552349090576
1750927208218960400,18.80896044921875,0.010384701192378998,-0.06368265300989151,1.7234022617340088
1750927208237784800,18.827784912109376,-0.03848448023200035,-0.06123919412493706,1.844353437423706
1750927208256609000,18.846609130859374,-0.05925388261675835,-0.0539088174700737,1.856570839881897
1750927208275433500,18.86543359375,-0.07269290834665298,-0.05146535858511925,1.6745331287384033
1750927208294257700,18.884257568359374,-0.07757982611656189,-0.023365577682852745,1.4253002405166626
1750927208313082000,18.90308203125,-0.10567960888147354,-0.05024362727999687,1.327561855316162
1750927208331906300,18.92190625,-0.1178968995809555,-0.1308777779340744,1.3691006898880005
1750927208350730500,18.94073046875,-0.1081230640411377,-0.1516471803188324,1.475391149520874
1750927208369555000,18.959554931640625,-0.06780599057674408,-0.13698641955852509,1.5303690433502197
1750927208388379100,18.978379150390627,-0.004276053514331579,-0.12843431532382965,1.4509565830230713
1750927208407203600,18.99720361328125,0.02260199747979641,-0.08200860023498535,1.3348922729492188
1750927208426027800,19.01602783203125,-0.021380268037319183,-0.10766492038965225,1.2322670221328735
1750927208444852000,19.03485205078125,-0.049480047076940536,-0.1308777779340744,1.2017236948013306
1750927208463676400,19.053676513671874,-0.01282816007733345,-0.11866047978401184,1.1687370538711548
1750927208482500600,19.07250048828125,0.03848448023200035,-0.06490438431501389,1.0099122524261475
1750927208501325000,19.091324951171874,0.07757982611656189,-0.027030766010284424,0.653167188167572
1750927208520149200,19.110149169921876,0.1178968995809555,0.01206457894295454,0.10705405473709106
1750927208538973400,19.128973388671874,0.13133592903614044,0.0766635313630104,-0.4841103255748749
1750927208557798000,19.1477978515625,0.11423171311616898,0.1328630894422531,-0.989906370639801
1750927208576622000,19.1666220703125,0.06780599057674408,0.17806708812713623,-1.4382811784744263
1750927208595446500,19.185446533203127,-0.031154103577136993,0.22937972843647003,-1.8206825256347656
1750927208614270700,19.204270751953125,-0.07269290834665298,0.2415970265865326,-2.089462995529175
1750927208633095200,19.22309521484375,-0.04214967042207718,0.0925460159778595,-2.255618095397949
1750927208651919400,19.24191943359375,-0.015271619893610477,0.14263692498207092,-2.3313653469085693
1750927208670743600,19.26074365234375,-0.05558869615197182,0.16096286475658417,-2.3264784812927246
1750927208689568000,19.279568115234376,-0.09468404203653336,0.15485422313213348,-2.240957498550415
1750927208708392200,19.29839208984375,-0.0665842592716217,0.1366809904575348,-2.1688754558563232
1750927208727216600,19.317216552734376,-0.01893680728971958,0.11453714966773987,-2.1664319038391113
1750927208746040800,19.336040771484374,0.014049889519810677,0.13164135813713074,-2.2116358280181885
1750927208764865000,19.354864990234375,0.0824667438864708,0.08765909820795059,-2.199418544769287
1750927208783689500,19.373689453125,0.10201441496610641,0.06200277432799339,-2.165210247039795
1750927208802513700,19.392513671875,0.06047561392188072,0.08521563559770584,-2.126114845275879
1750927208821338000,19.411338134765625,0.049480047076940536,0.08032871782779694,-2.0552544593811035
1750927208840162300,19.430162353515627,0.09712749719619751,0.08643736690282822,-1.8927645683288574
1750927208858986800,19.44898681640625,0.10079269111156464,0.05100720748305321,-1.7131702899932861
1750927208877811000,19.46781103515625,0.06902772188186646,0.08888082206249237,-1.775478482246399
1750927208896635100,19.48663525390625,0.021380268037319183,0.08277218043804169,-1.996611475944519
1750927208915459600,19.50545947265625,-0.10201441496610641,0.0974329337477684,-2.050367593765259
1750927208934283800,19.52428369140625,-0.17898337543010712,0.15118902921676636,-1.870773434638977
1750927208953108200,19.543108154296874,-0.12278381735086441,0.1646280586719513,-1.6044363975524902
1750927208971932400,19.561932373046876,-0.0922405794262886,0.1366809904575348,-1.444389820098877
1750927208990756900,19.5807568359375,-0.05558869615197182,0.07910698652267456,-1.4749330282211304
1750927209009581000,19.5995810546875,-0.04214967042207718,0.018173227086663246,-1.4773764610290527
1750927209028405200,19.6184052734375,-0.06902772188186646,0.005955931730568409,-1.3258819580078125
1750927209047229700,19.637229736328123,-0.07513637095689774,0.018173227086663246,-0.9532544612884521
1750927209066054000,19.656053955078125,-0.04459312930703163,0.029016077518463135,-0.48044514656066895
1750927209084878000,19.674878173828127,-0.04581485688686371,-0.0001527161948615685,-0.1493564397096634
1750927209103702500,19.69370263671875,-0.031154103577136993,-0.017256930470466614,-0.028405211865901947
1750927209122526700,19.712526611328126,0.04214967042207718,-0.08200860023498535,0.11438442766666412
1750927209141351200,19.73135107421875,0.07635809481143951,-0.10644318908452988,0.3000873327255249
1750927209160175400,19.75017529296875,0.07513637095689774,-0.09056070446968079,0.5810851454734802
1750927209178999800,19.768999755859376,0.04581485688686371,-0.07589995115995407,0.9866993427276611
1750927209197824000,19.787823974609374,0.01893680728971958,-0.06490438431501389,1.4521782398223877
1750927209216648200,19.806648193359376,0.01893680728971958,-0.04657844081521034,1.8406883478164673
1750927209235472600,19.82547265625,0.017715077847242355,-0.09666935354471207,1.992182731628418
1750927209254296800,19.844296875,0.02871064469218254,-0.11988221108913422,1.9115486145019531
1750927209273121300,19.863121337890625,0.06536252796649933,-0.14431680738925934,1.873674988746643
1750927209291945500,19.881945556640623,0.03481929376721382,-0.11377356201410294,2.0605995655059814
1750927209310770000,19.90077001953125,-0.05070177838206291,-0.058795735239982605,2.355036497116089
1750927209329594000,19.919593994140627,-0.11423171311616898,-0.02458730712532997,2.5358524322509766
1750927209348418300,19.938418212890625,-0.08857539296150208,-0.04780016839504242,2.4711008071899414
1750927209367242800,19.95724267578125,0.001832594396546483,-0.10155627131462097,2.241415500640869
1750927209386067000,19.97606689453125,0.053145237267017365,-0.1357647031545639,2.1167991161346436
1750927209404891400,19.994891357421874,0.011606430634856224,-0.1357647031545639,2.131459951400757
1750927209423715600,20.013715576171876,-0.02260199747979641,-0.10766492038965225,2.176663875579834
1750927209442539800,20.032539794921874,-0.0360410213470459,-0.10399972647428513,2.1522293090820312
1750927209461364200,20.0513642578125,-0.033597562462091446,-0.11133010685443878,1.9946261644363403
1750927209480188400,20.0701884765625,0.001832594396546483,-0.1101083755493164,1.8028147220611572
1750927209499012900,20.089012939453124,0.004276053514331579,-0.13698641955852509,1.6953024864196777
1750927209517837000,20.107837158203125,-0.02626718580722809,-0.15531237423419952,1.6965242624282837
1750927209536661200,20.1266611328125,-0.05925388261675835,-0.1565341055393219,1.7246240377426147
1750927209555485700,20.145485595703125,-0.053145237267017365,-0.1455385386943817,1.6623157262802124
1750927209574310000,20.164309814453127,0.001832594396546483,-0.1418733447790146,1.5120429992675781
1750927209593134300,20.18313427734375,0.05192350596189499,-0.1357647031545639,1.3972004652023315
1750927209611958500,20.20195849609375,0.04825831577181816,-0.15042544901371002,1.3910918235778809
1750927209630783000,20.220782958984376,0.02871064469218254,-0.1516471803188324,1.427743673324585
1750927209649607200,20.239607177734374,-0.027488915249705315,-0.1565341055393219,1.448513150215149
1750927209668431400,20.258431396484376,-0.056810423731803894,-0.13454297184944153,1.419191598892212
1750927209687255800,20.277255859375,-0.037262752652168274,-0.11499529331922531,1.2982404232025146
1750927209706080000,20.296080078125,-0.027488915249705315,-0.11133010685443878,1.1406372785568237
1750927209724904400,20.314904541015625,-0.039706211537122726,-0.11743875592947006,0.9549343585968018
1750927209743728600,20.333728759765624,-0.05070177838206291,-0.11866047978401184,0.7118101716041565
1750927209762553000,20.352552978515625,0.033597562462091446,-0.06979130208492279,0.3611738085746765
1750927209781377300,20.371377197265623,0.11423171311616898,-0.0001527161948615685,-0.057726722210645676
1750927209800201500,20.390201416015625,0.08491020649671555,0.0461202897131443,-0.4731147587299347
1750927209819026000,20.40902587890625,0.049480047076940536,0.0668896958231926,-0.9141591191291809
1750927209837850000,20.42785009765625,0.006719512399286032,0.1340848207473755,-1.3319905996322632
1750927209856674600,20.446674560546874,-0.029932374134659767,0.18661919236183167,-1.637423038482666
1750927209875498800,20.465498779296876,-0.04825831577181816,0.19150610268115997,-1.7974696159362793
1750927209894323000,20.484322998046874,-0.05558869615197182,0.1951712965965271,-1.8585560321807861
1750927209913147400,20.5031474609375,-0.047036588191986084,0.1805105358362198,-1.9147557020187378
1750927209931971600,20.5219716796875,-0.056810423731803894,0.17562362551689148,-1.950185775756836
1750927209950796000,20.540796142578124,-0.07757982611656189,0.10109812021255493,-1.9550727605819702
1750927209969620200,20.5596201171875,-0.0409279391169548,0.06933315098285675,-2.030819892883301
1750927209988444700,20.578444580078123,0.009162971749901772,0.11698060482740402,-2.1310017108917236
1750927210007268900,20.597268798828125,0.031154103577136993,0.12675444781780243,-2.1896448135375977
1750927210026093000,20.616093017578127,0.039706211537122726,0.15485422313213348,-2.1969752311706543
1750927210044917500,20.63491748046875,0.027488915249705315,0.18661919236183167,-2.2030837535858154
1750927210063741700,20.65374169921875,-0.004276053514331579,0.19639302790164948,-2.2250750064849854
1750927210082566100,20.672566162109376,-0.017715077847242355,0.2159406989812851,-2.255618095397949
1750927210101390300,20.691390380859374,-0.049480047076940536,0.24281874299049377,-2.266613721847534
1750927210120214500,20.710214599609376,-0.06902772188186646,0.2367101013660431,-2.2091925144195557
1750927210139039000,20.7290390625,-0.010384701192378998,0.1744018942117691,-2.089462995529175
1750927210157863200,20.74786328125,0.0054977829568088055,0.1340848207473755,-2.00882887840271
1750927210176687600,20.7666875,0.01282816007733345,0.11331541836261749,-2.0271546840667725
1750927210195511800,20.78551171875,0.05436696484684944,0.0974329337477684,-2.014937400817871
1750927210214336000,20.8043359375,0.047036588191986084,0.09132428467273712,-1.9428554773330688
1750927210233160400,20.823160400390623,0.021380268037319183,0.09987638890743256,-1.793804407119751
1750927210251984600,20.841984619140625,0.001832594396546483,0.08643736690282822,-1.6349796056747437
1750927210270809000,20.86080908203125,-0.023823726922273636,0.07544180005788803,-1.4688243865966797
1750927210289633300,20.87963330078125,-0.043371398001909256,0.0461202897131443,-1.3527600765228271
1750927210308457700,20.898457763671875,-0.03237583488225937,0.06566796451807022,-1.3380992412567139
1750927210327282000,20.917281982421876,-0.053145237267017365,0.060781046748161316,-1.2709041833877563
1750927210346106000,20.936106201171874,-0.07757982611656189,0.03634645417332649,-1.0680971145629883
1750927210364930600,20.9549306640625,-0.031154103577136993,0.01695149764418602,-0.7308996915817261
1750927210383754800,20.973754638671874,-0.017715077847242355,0.03145953640341759,-0.3594939112663269
1750927210402579200,20.9925791015625,-0.049480047076940536,0.06444623321294785,-0.02718348242342472
1750927210421403400,21.0114033203125,-0.029932374134659767,0.05589412897825241,0.263435423374176
1750927210440227800,21.030227783203124,0.03237583488225937,-0.009926552884280682,0.5590940117835999
1750927210459052000,21.049052001953125,0.047036588191986084,-0.03558287397027016,0.8559742569923401
1750927210477876200,21.067876220703123,0.05192350596189499,-0.06979130208492279,1.1467459201812744
1750927210496700700,21.08670068359375,0.039706211537122726,-0.06856957077980042,1.389870047569275
1750927210515524900,21.10552490234375,0.033597562462091446,-0.058795735239982605,1.5181516408920288
1750927210534349300,21.124349365234377,0.03848448023200035,-0.06734783947467804,1.5963424444198608
1750927210553173500,21.143173583984375,0.02871064469218254,-0.06856957077980042,1.6733113527297974
1750927210571998000,21.161998046875,0.001832594396546483,-0.058795735239982605,1.680641770362854
1750927210590822100,21.180822265625,-0.043371398001909256,-0.03558287397027016,1.642768144607544
1750927210609646300,21.199646240234376,-0.07880155742168427,-0.04535670951008797,1.632994294166565
1750927210628470800,21.218470703125,-0.07269290834665298,-0.08200860023498535,1.7062979936599731
1750927210647295000,21.237294921875,-0.06047561392188072,-0.05513054504990578,1.846796989440918
1750927210666119200,21.256119140625,-0.0616973415017128,-0.05024362727999687,1.873674988746643
1750927210684943600,21.274943603515624,-0.06536252796649933,-0.05024362727999687,1.8223623037338257
1750927210703767800,21.293767822265625,-0.06780599057674408,-0.030695954337716103,1.78937566280365
1750927210722592300,21.31259228515625,-0.06780599057674408,-0.04413498193025589,1.8113667964935303
1750927210741416400,21.33141650390625,-0.05925388261675835,-0.06001746281981468,1.893222689628601
1750927210760241000,21.350240966796875,-0.07269290834665298,-0.06979130208492279,1.9286528825759888
1750927210779065000,21.369065185546877,-0.06414080411195755,-0.06368265300989151,1.884670615196228
1750927210797889300,21.38788916015625,-0.0409279391169548,-0.07345648854970932,1.826027512550354
1750927210816713700,21.406713623046876,-0.01893680728971958,-0.08567378669977188,1.837023138999939
1750927210835538000,21.425537841796874,-0.014049889519810677,-0.11255183815956116,1.8871140480041504
1750927210854362400,21.4443623046875,-0.027488915249705315,-0.13820815086364746,1.8687881231307983
1750927210873186600,21.4631865234375,-0.025045456364750862,-0.13454297184944153,1.7062979936599731
1750927210892011000,21.482010986328124,-0.009162971749901772,-0.10644318908452988,1.4301871061325073
1750927210910835200,21.500835205078126,0.021380268037319183,-0.09056070446968079,1.133306860923767
1750927210929659400,21.519659423828124,0.02626718580722809,-0.08323032408952713,0.9048434495925903
1750927210948483800,21.53848388671875,-0.021380268037319183,-0.036804601550102234,0.6934842467308044
1750927210967308000,21.55730810546875,-0.05192350596189499,-0.0062613640911877155,0.44180795550346375
1750927210986132500,21.576132568359377,-0.05070177838206291,0.007177661173045635,0.18402300775051117
1750927211004956700,21.594956787109375,-0.049480047076940536,0.008399390615522861,-0.06627883017063141
1750927211023780900,21.61378076171875,-0.053145237267017365,0.03390299528837204,-0.3692677617073059
1750927211042605300,21.632605224609375,-0.01893680728971958,0.0668896958231926,-0.6380482912063599
1750927211061429500,21.651429443359376,0.000610864779446274,0.06566796451807022,-0.7883210182189941
1750927211080254000,21.67025390625,-0.014049889519810677,0.04367683082818985,-0.8506292104721069
1750927211099078100,21.689078125,-0.01893680728971958,0.032681263983249664,-0.9532544612884521
1750927211117902600,21.707902587890626,0.0054977829568088055,0.04245510324835777,-1.1792744398117065
1750927211136726800,21.726726806640624,0.0665842592716217,0.05833758786320686,-1.4859285354614258
1750927211155551000,21.745551025390625,0.09712749719619751,0.06566796451807022,-1.7302744388580322
1750927211174375400,21.76437548828125,0.04825831577181816,0.013286309316754341,-1.814573884010315
1750927211193199600,21.78319970703125,-0.014049889519810677,0.05955931544303894,-1.7962478399276733
1750927211212024000,21.802024169921875,-0.04214967042207718,0.06566796451807022,-1.7437134981155396
1750927211230848300,21.82084814453125,-0.03481929376721382,0.07544180005788803,-1.7217223644256592
1750927211249672400,21.83967236328125,-0.001832594396546483,0.08277218043804169,-1.8353432416915894
1750927211268497000,21.858496826171876,0.017715077847242355,0.11942406743764877,-2.0100505352020264
1750927211287321000,21.877321044921874,0.017715077847242355,0.1585194170475006,-2.065028429031372
1750927211306145500,21.8961455078125,0.02626718580722809,0.10842850059270859,-1.9819507598876953
1750927211324969700,21.9149697265625,0.037262752652168274,0.07910698652267456,-1.842673659324646
1750927211343794200,21.933794189453124,0.011606430634856224,0.09498947113752365,-1.7339396476745605
1750927211362618400,21.952618408203126,-0.029932374134659767,0.07788526266813278,-1.645975112915039
1750927211381442600,21.971442626953124,-0.04581485688686371,0.04978547990322113,-1.617875337600708
1750927211400267000,21.99026708984375,0.0054977829568088055,0.002290742937475443,-1.656970739364624
1750927211419091200,22.00909130859375,0.08124501258134842,-0.03191768378019333,-1.694844365119934
1750927211437915600,22.02791552734375,0.07635809481143951,-0.023365577682852745,-1.6508620977401733
1750927211456739800,22.04673974609375,0.004276053514331579,-0.019700389355421066,-1.4590505361557007
1750927211475564000,22.06556396484375,-0.0409279391169548,0.003512472379952669,-1.1633919477462769
1750927211494388500,22.084388427734375,-0.05192350596189499,0.026572618633508682,-0.926376461982727
1750927211513212700,22.103212646484376,0.000610864779446274,-0.008704823441803455,-0.8994984030723572
1750927211532037000,22.122037109375,0.05803215503692627,-0.06001746281981468,-0.952032744884491
1750927211550861300,22.140861328125,0.0409279391169548,-0.0539088174700737,-0.8567378520965576
1750927211569685800,22.159685791015626,0.02626718580722809,-0.027030766010284424,-0.5781835317611694
1750927211588510000,22.178510009765624,0.0054977829568088055,0.013286309316754341,-0.22388194501399994
1750927211607334100,22.197334228515626,-0.02260199747979641,0.04367683082818985,0.10583232343196869
1750927211626158600,22.21615869140625,-0.027488915249705315,0.03390299528837204,0.41126471757888794
1750927211644982800,22.234982666015625,-0.03848448023200035,-0.0001527161948615685,0.5896372199058533
1750927211663807200,22.25380712890625,-0.023823726922273636,-0.04169152304530144,0.5847502946853638
1750927211682631400,22.27263134765625,0.01649334840476513,-0.06246092543005943,0.615293562412262
1750927211701456000,22.291455810546875,0.039706211537122726,-0.07223475724458694,0.8510873317718506
1750927211720280000,22.310280029296877,0.04825831577181816,-0.09300415962934494,1.1846195459365845
1750927211739104300,22.329104248046875,0.02260199747979641,-0.06368265300989151,1.4130829572677612
1750927211757928700,22.3479287109375,-0.017715077847242355,-0.027030766010284424,1.4497348070144653
1750927211776753000,22.3667529296875,-0.04214967042207718,0.005955931730568409,1.3727658987045288
1750927211795577000,22.3855771484375,-0.05070177838206291,-0.0062613640911877155,1.328783631324768
1750927211814401500,22.404401611328126,-0.07513637095689774,-0.025809036567807198,1.4008656740188599
1750927211833225700,22.423225830078124,-0.09957095980644226,-0.036804601550102234,1.5376993417739868
1750927211852050200,22.44205029296875,-0.13500112295150757,0.005955931730568409,1.6452115774154663
1750927211870874400,22.460874267578124,-0.1081230640411377,0.01695149764418602,1.6342159509658813
1750927211889698800,22.47969873046875,-0.06414080411195755,-0.0062613640911877155,1.5376993417739868
1750927211908523000,22.49852294921875,-0.033597562462091446,-0.04169152304530144,1.5389211177825928
1750927211927347200,22.51734716796875,-0.05558869615197182,-0.04046979174017906,1.632994294166565
1750927211946171600,22.536171630859375,-0.07024945318698883,-0.05146535858511925,1.7319543361663818
1750927211964995800,22.554995849609377,-0.049480047076940536,-0.052687086164951324,1.8150320053100586
1750927211983820300,22.5738203125,-0.025045456364750862,-0.05757400393486023,1.7967060804367065
1750927212002644500,22.59264453125,-0.006719512399286032,-0.05024362727999687,1.6195552349090576
1750927212021469000,22.611468994140626,0.0054977829568088055,-0.03802633285522461,1.3959786891937256
1750927212040293000,22.630293212890624,0.0054977829568088055,-0.06856957077980042,1.2640318870544434
1750927212059117300,22.649117431640626,-0.02871064469218254,-0.08323032408952713,1.2689188718795776
1750927212077941800,22.667941650390624,-0.05558869615197182,-0.05024362727999687,1.3605486154556274
1750927212096766000,22.686765869140626,-0.05436696484684944,-0.06368265300989151,1.3764311075210571
1750927212115590400,22.70559033203125,-0.07757982611656189,-0.07345648854970932,1.2041672468185425
1750927212134414600,22.72441455078125,-0.08857539296150208,-0.05513054504990578,1.0025818347930908
1750927212153238800,22.74323876953125,-0.01649334840476513,-0.042913250625133514,0.8791871070861816
1750927212172063200,22.762063232421873,0.0665842592716217,-0.06734783947467804,0.8840740323066711
1750927212190887400,22.780887451171875,0.07147117704153061,-0.07345648854970932,0.9952514171600342
1750927212209711900,22.7997119140625,0.0360410213470459,-0.08078686892986298,1.077107310295105
1750927212228536000,22.8185361328125,0.015271619893610477,-0.08689551800489426,1.0807725191116333
1750927212247360300,22.8373603515625,0.000610864779446274,-0.07223475724458694,0.9585995674133301
1750927212266184700,22.856184814453126,0.01282816007733345,-0.04657844081521034,0.7606793642044067
1750927212285009000,22.8750087890625,0.010384701192378998,-0.04046979174017906,0.5480984449386597
1750927212303833300,22.893833251953126,0.031154103577136993,-0.0025961752980947495,0.26221370697021484
1750927212322657500,22.912657470703124,0.031154103577136993,0.048563748598098755,-0.1383608728647232
1750927212341482000,22.93148193359375,0.009162971749901772,0.08032871782779694,-0.5671879649162292
1750927212360306200,22.95030615234375,0.000610864779446274,0.09987638890743256,-0.9361502528190613
1750927212379130400,22.96913037109375,0.04459312930703163,0.11575887352228165,-1.2562434673309326
1750927212397954800,22.987954833984375,0.09590577334165573,0.11698060482740402,-1.5238021612167358
1750927212416779000,23.006779052734377,0.043371398001909256,0.129197895526886,-1.7070616483688354
1750927212435603500,23.025603515625,-0.056810423731803894,0.14752385020256042,-1.8194607496261597
1750927212454427600,23.044427734375,-0.07147117704153061,0.13164135813713074,-1.898873209953308
1750927212473251800,23.063251953125,-0.039706211537122726,0.08643736690282822,-1.941633701324463
1750927212492076300,23.082076171875,-0.02260199747979641,-0.011148282326757908,-1.9355250597000122
1750927212510900500,23.100900390625,-0.004276053514331579,0.05833758786320686,-1.9025382995605469
1750927212529725000,23.119724853515624,-0.006719512399286032,0.06322450190782547,-1.8756603002548218
