time,seconds_elapsed,z,y,x
1750927189554664200,0.144664306640625,0.0565049909055233,0.2545779049396515,-0.3643808364868164
1750927189573488600,0.163488525390625,-0.05833758786320686,0.23991714417934418,-0.43401941657066345
1750927189601725000,0.191724853515625,-0.281914085149765,0.22525638341903687,-0.4413498044013977
1750927189629961500,0.21996142578125,-0.27091851830482483,0.16905683279037476,-0.2971857190132141
1750927189648785700,0.23878564453125,-0.035124726593494415,0.1519526094198227,-0.231212317943573
1750927189667609900,0.25760986328125,-0.007024944759905338,0.11774418503046036,-0.21288637816905975
1750927189686434300,0.276434326171875,-0.032681263983249664,0.09086613357067108,-0.23732095956802368
1750927189705258500,0.295258544921875,0.15302163362503052,0.0102319847792387,-0.22266021370887756
1750927189724083000,0.3140830078125,0.07849612087011337,0.06154462695121765,-0.18723005056381226
1750927189742907100,0.3329072265625,-0.16584978997707367,0.12018764764070511,-0.035735588520765305
1750927189761731600,0.351731689453125,-0.21349723637104034,0.0591011680662632,0.1805105358362198
1750927189780555800,0.3705556640625,-0.05833758786320686,-0.10949750989675522,0.37354379892349243
1750927189799380200,0.389380126953125,0.07971785217523575,-0.21212279796600342,0.5739074349403381
1750927189818204400,0.408204345703125,0.09926552325487137,-0.3355174660682678,0.6618719696998596
1750927189837028600,0.427028564453125,0.20922118425369263,-0.5725330114364624,0.6973021626472473
1750927189855853000,0.44585302734375,0.2837466895580292,-0.5090031027793884,0.7046325206756592
1750927189884089300,0.47408935546875,0.0821613147854805,-0.24266603589057922,0.40286532044410706
1750927189902913800,0.492913818359375,-0.004581485874950886,-0.13271036744117737,0.10965022444725037
1750927189921738000,0.511738037109375,-0.06200277432799339,-0.0642935186624527,-0.010079269297420979
1750927189940562400,0.5305625,-0.129197895526886,-0.061850059777498245,0.04978547990322113
1750927189959386600,0.54938671875,-0.14630211889743805,-0.11927134543657303,0.10109812021255493
1750927189978211000,0.568211181640625,-0.011911863461136818,-0.12293653935194016,0.10109812021255493
1750927189997035300,0.58703515625,0.05894844979047775,-0.12904518842697144,0.048563748598098755
1750927190015859700,0.605859619140625,0.08826996386051178,-0.0691804364323616,-0.06872228533029556
1750927190034684000,0.624683837890625,0.08338304609060287,-0.020311253145337105,-0.13225223124027252
1750927190053508000,0.643508056640625,0.03695731982588768,0.02611446939408779,-0.11026109009981155
1750927190072332500,0.66233251953125,-0.022907428443431854,-0.05451968312263489,-0.03451386094093323
1750927190091156700,0.68115673828125,-0.03390299528837204,-0.08139773458242416,0.010690134018659592
1750927190109981200,0.699981201171875,0.003970621153712273,-0.052076224237680435,0.00946840364485979
1750927190128805400,0.718805419921875,0.06994401663541794,0.00045814859913662076,-0.047952886670827866
1750927190147629800,0.7376298828125,0.08338304609060287,0.02977965772151947,-0.08460476994514465
1750927190166454000,0.7564541015625,0.007635809946805239,0.0639880821108818,-0.11636973917484283
1750927190185278500,0.775278564453125,-0.054672397673130035,0.07376192510128021,-0.10170898586511612
1750927190204102700,0.7941025390625,-0.0717766135931015,-0.010537417605519295,-0.019853105768561363
1750927190222927000,0.812927001953125,-0.03023780696094036,0.017562363296747208,0.016798781231045723
1750927190241751300,0.831751220703125,0.007635809946805239,0.04932733252644539,0.0009162971982732415
1750927190260575500,0.850575439453125,0.008857538923621178,0.02000582218170166,-0.014966187067329884
1750927190279400000,0.86939990234375,0.012522728182375431,-0.028863361105322838,-0.0027488914784044027
1750927190298224000,0.88822412109375,0.022296564653515816,-0.03497200831770897,-0.006414080038666725
1750927190317048600,0.907048583984375,-0.01435532234609127,-0.01908952370285988,-0.05283980444073677
1750927190335872800,0.925872802734375,-0.022907428443431854,0.013897174037992954,-0.0772743970155716
1750927190354697200,0.944697265625,-0.0204639695584774,0.018784092739224434,-0.047952886670827866
1750927190373521400,0.963521484375,-0.019242240116000175,0.012675444595515728,-0.03940077871084213
1750927190392345900,0.982345947265625,-0.007024944759905338,-0.03130681812763214,-0.03451386094093323
1750927190411170000,1.001170166015625,0.008857538923621178,-0.05696314200758934,-0.05528326332569122
1750927190429994500,1.019994384765625,0.0027488914784044027,-0.02764163166284561,-0.04428769648075104
1750927190448818700,1.038818603515625,-0.015577051788568497,0.009010255336761475,-0.028405211865901947
1750927190467643100,1.05764306640625,-0.016798781231045723,0.031001387163996696,-0.03940077871084213
1750927190486467300,1.07646728515625,-0.026572618633508682,0.02000582218170166,-0.04428769648075104
1750927190505291500,1.09529150390625,-0.0461202897131443,0.004123337101191282,-0.0308486707508564
1750927190524116000,1.114115966796875,-0.019242240116000175,-0.020311253145337105,-0.014966187067329884
1750927190542940200,1.132940185546875,0.003970621153712273,-0.004428769461810589,-0.02718348242342472
1750927190561764600,1.1517646484375,0.007635809946805239,0.02367101050913334,-0.03940077871084213
1750927190580589000,1.170589111328125,0.005192350596189499,0.012675444595515728,-0.024740023538470268
1750927190599413200,1.189413330078125,-0.01435532234609127,0.002901607658714056,-0.01740964688360691
1750927190618237400,1.208237548828125,-0.03634645417332649,0.034666575491428375,-0.04062250629067421
1750927190637062000,1.227061767578125,-0.01435532234609127,0.04810560122132301,-0.07360920310020447
1750927190655886000,1.245885986328125,0.01740964688360691,0.050549060106277466,-0.08338304609060287
1750927190674710500,1.26471044921875,0.02107483521103859,0.0383317656815052,-0.041844237595796585
1750927190693534700,1.28353466796875,0.028405211865901947,0.009010255336761475,-0.0027488914784044027
1750927190712359200,1.302359130859375,0.022296564653515816,-0.0007635809597559273,0.0009162971982732415
1750927190731183400,1.321183349609375,0.007635809946805239,-0.004428769461810589,-0.035735588520765305
1750927190750007800,1.3400078125,-0.003359756199643016,0.005345067009329796,-0.06017018109560013
1750927190768832000,1.35883203125,-0.0021380267571657896,0.024892739951610565,-0.02718348242342472
1750927190787656400,1.377656494140625,-0.007024944759905338,0.03955349326133728,0.0021380267571657896
1750927190806480600,1.396480712890625,0.008857538923621178,0.04566214233636856,0.003359756199643016
1750927190825305000,1.41530517578125,0.012522728182375431,0.02611446939408779,-0.01740964688360691
1750927190844129300,1.43412939453125,0.003970621153712273,0.031001387163996696,-0.061391908675432205
1750927190862953500,1.452953369140625,-0.013133592903614044,0.03222311660647392,-0.09804379940032959
1750927190881778000,1.47177783203125,-0.01802051067352295,0.03955349326133728,-0.10170898586511612
1750927190900602000,1.49060205078125,0.003970621153712273,0.01511890348047018,-0.061391908675432205
1750927190919426600,1.509426513671875,0.016187917441129684,0.012675444595515728,-0.03817904740571976
1750927190938250800,1.528250732421875,0.012522728182375431,0.012675444595515728,-0.0565049909055233
1750927190957075200,1.5470751953125,-0.010690134018659592,0.0334448479115963,-0.07238747924566269
1750927190975899400,1.5658994140625,-0.02412915788590908,0.022449281066656113,-0.06505709886550903
1750927190994723800,1.584723876953125,-0.0009162971982732415,-0.010537417605519295,-0.04673115536570549
1750927191013548000,1.603548095703125,0.02107483521103859,-0.016646064817905426,-0.04062250629067421
1750927191032372500,1.62237255859375,0.03817904740571976,-0.012980876490473747,-0.06017018109560013
1750927191051196700,1.64119677734375,0.023518294095993042,0.017562363296747208,-0.09437860548496246
1750927191070021000,1.660021240234375,0.012522728182375431,0.001679878099821508,-0.0821613147854805
1750927191088845300,1.67884521484375,-0.0021380267571657896,-0.0019853105768561363,-0.057726722210645676
1750927191107669800,1.697669677734375,0.000305432389723137,0.009010255336761475,-0.03451386094093323
1750927191126494000,1.716493896484375,-0.015577051788568497,0.0383317656815052,-0.029626941308379173
1750927191145318400,1.735318359375,-0.008246674202382565,0.027336198836565018,-0.06383536756038666
1750927191164142600,1.754142578125,0.003970621153712273,0.024892739951610565,-0.07605266571044922
1750927191182966800,1.772966796875,0.0015271619195118546,0.004123337101191282,-0.029626941308379173
1750927191201791200,1.791791259765625,-0.0021380267571657896,-0.012980876490473747,0.03390299528837204
1750927191220615400,1.810615478515625,0.028405211865901947,-0.017867794260382652,0.04367683082818985
1750927191239440000,1.82943994140625,0.022296564653515816,0.001679878099821508,0.03145953640341759
1750927191258264000,1.84826416015625,-0.0204639695584774,0.02000582218170166,0.026572618633508682
1750927191277088500,1.867088623046875,-0.026572618633508682,0.001679878099821508,0.02412915788590908
1750927191295912700,1.88591259765625,-0.032681263983249664,-0.010537417605519295,0.01435532234609127
1750927191314737200,1.904737060546875,-0.03145953640341759,0.006566796451807022,-0.014966187067329884
1750927191333561300,1.923561279296875,0.005192350596189499,0.01511890348047018,-0.032070402055978775
1750927191352385800,1.9423857421875,0.008857538923621178,0.022449281066656113,-0.04306596517562866
1750927191371210000,1.9612099609375,0.005192350596189499,0.03222311660647392,-0.028405211865901947
1750927191390034400,1.980034423828125,-0.011911863461136818,0.02000582218170166,-0.007635809946805239
1750927191408858600,1.998858642578125,-0.015577051788568497,0.016340631991624832,-0.007635809946805239
1750927191427683000,2.01768310546875,-0.004581485874950886,-0.0019853105768561363,-0.008857538923621178
1750927191446507300,2.03650732421875,-0.007024944759905338,0.007788525894284248,0.003359756199643016
1750927191465331700,2.055331787109375,0.018631376326084137,0.022449281066656113,0.0204639695584774
1750927191484156000,2.074156005859375,0.005192350596189499,0.03222311660647392,0.01802051067352295
1750927191502980400,2.09298046875,0.000305432389723137,0.031001387163996696,0.00946840364485979
1750927191521804500,2.111804443359375,0.003970621153712273,0.007788525894284248,0.026572618633508682
1750927191540628700,2.130628662109375,-0.015577051788568497,0.005345067009329796,0.015577051788568497
1750927191559453200,2.149453125,-0.01802051067352295,0.02000582218170166,-0.008857538923621178
1750927191578277400,2.16827734375,-0.005803215317428112,0.006566796451807022,-0.028405211865901947
1750927191597101800,2.187101806640625,-0.004581485874950886,-0.0019853105768561363,-0.023518294095993042
1750927191615926000,2.205926025390625,-0.0021380267571657896,0.004123337101191282,-0.013744457624852657
1750927191634750500,2.22475048828125,0.011300998739898205,0.0102319847792387,0.0009162971982732415
1750927191653574700,2.24357470703125,0.000305432389723137,0.02000582218170166,0.013133592903614044
1750927191672399000,2.262399169921875,-0.025350889191031456,0.044440411031246185,-0.008857538923621178
1750927191691223300,2.281223388671875,-0.038789913058280945,0.06887500733137131,-0.012522728182375431
1750927191710047700,2.3000478515625,-0.04245510324835777,0.04810560122132301,-0.02107483521103859
1750927191728872000,2.318871826171875,-0.007024944759905338,0.02977965772151947,-0.025961752980947495
1750927191747696400,2.3376962890625,0.008857538923621178,0.03955349326133728,-0.028405211865901947
1750927191766520600,2.3565205078125,-0.01802051067352295,0.05299251899123192,-0.013744457624852657
1750927191785345000,2.375344970703125,-0.025350889191031456,0.050549060106277466,-0.010079269297420979
1750927191804169200,2.394169189453125,-0.029016077518463135,0.0383317656815052,-0.022296564653515816
1750927191822993400,2.412993408203125,-0.019242240116000175,0.02611446939408779,-0.03329212963581085
1750927191841817900,2.43181787109375,-0.003359756199643016,0.002901607658714056,-0.014966187067329884
1750927191860642000,2.45064208984375,0.007635809946805239,-0.0007635809597559273,-0.007635809946805239
1750927191879466500,2.469466552734375,0.0308486707508564,-0.009315688163042068,-0.006414080038666725
1750927191898290700,2.488290771484375,0.008857538923621178,-0.012980876490473747,0.008246674202382565
1750927191917115100,2.507115234375,-0.019242240116000175,0.0102319847792387,0.008246674202382565
1750927191935939300,2.525939208984375,-0.019242240116000175,0.02611446939408779,0.0021380267571657896
1750927191954763800,2.544763671875,-0.021685699000954628,0.028557928279042244,-0.011300998739898205
1750927191973588000,2.563587890625,-0.03390299528837204,0.040775224566459656,-0.024740023538470268
1750927191992412400,2.582412353515625,-0.004581485874950886,0.022449281066656113,-0.008857538923621178
1750927192011236600,2.601236572265625,0.024740023538470268,-0.008093958720564842,0.015577051788568497
1750927192030061000,2.62006103515625,0.018631376326084137,0.00045814859913662076,0.00946840364485979
1750927192048885200,2.63888525390625,0.022296564653515816,0.0102319847792387,0.0021380267571657896
1750927192067709400,2.65770947265625,-0.00946840364485979,0.0383317656815052,-0.013744457624852657
1750927192086534000,2.676533935546875,-0.01802051067352295,0.03588830679655075,-0.0308486707508564
1750927192105358000,2.695358154296875,-0.016798781231045723,0.001679878099821508,-0.025961752980947495
1750927192124182500,2.7141826171875,-0.0009162971982732415,-0.0007635809597559273,-0.005192350596189499
1750927192143006700,2.7330068359375,0.010079269297420979,-0.005650499369949102,0.015577051788568497
1750927192161831200,2.7518310546875,0.007635809946805239,0.005345067009329796,0.032681263983249664
1750927192180655400,2.7706552734375,0.010079269297420979,0.016340631991624832,0.04001164436340332
1750927192199479800,2.789479736328125,0.010079269297420979,0.004123337101191282,0.032681263983249664
1750927192218304000,2.808303955078125,-0.003359756199643016,0.002901607658714056,-0.005192350596189499
1750927192237128400,2.82712841796875,-0.005803215317428112,0.009010255336761475,-0.03695731982588768
1750927192255952600,2.84595263671875,-0.011911863461136818,-0.006872228812426329,-0.016187917441129684
1750927192274777000,2.864777099609375,-0.004581485874950886,-0.03497200831770897,0.0009162971982732415
1750927192293601300,2.883601318359375,0.024740023538470268,-0.0386371985077858,-0.012522728182375431
1750927192312425500,2.902425537109375,0.032070402055978775,-0.023976443335413933,-0.012522728182375431
1750927192331250000,2.92125,0.0027488914784044027,-0.0032070400193333626,0.0021380267571657896
1750927192350074400,2.940074462890625,-0.01435532234609127,0.002901607658714056,-0.0015271619195118546
1750927192368898600,2.958898681640625,-0.008246674202382565,-0.022754713892936707,-0.011300998739898205
1750927192387722800,2.97772265625,-0.003359756199643016,-0.023976443335413933,-0.01740964688360691
1750927192425371400,3.015371337890625,-0.01435532234609127,0.017562363296747208,-0.012522728182375431
1750927192444195800,3.03419580078125,-0.003359756199643016,0.013897174037992954,-0.014966187067329884
1750927192463020000,3.05302001953125,0.0027488914784044027,-0.0019853105768561363,0.019242240116000175
1750927192481844500,3.071844482421875,0.011300998739898205,-0.009315688163042068,0.05222893878817558
1750927192500668700,3.090668701171875,0.010079269297420979,-0.006872228812426329,0.03145953640341759
1750927192519493000,3.1094931640625,-0.013133592903614044,0.017562363296747208,-0.02107483521103859
1750927192538317300,3.1283173828125,-0.0204639695584774,0.027336198836565018,-0.02718348242342472
1750927192557141800,3.147141845703125,-0.005803215317428112,0.0102319847792387,0.0021380267571657896
1750927192575966000,3.165966064453125,0.008857538923621178,-0.011759147047996521,0.025350889191031456
1750927192594790400,3.184790283203125,0.02718348242342472,-0.012980876490473747,0.01802051067352295
1750927192613614600,3.203614501953125,0.011300998739898205,-0.005650499369949102,-0.0015271619195118546
1750927192632438800,3.222438720703125,-0.004581485874950886,0.004123337101191282,-0.010079269297420979
1750927192651263200,3.24126318359375,-0.0204639695584774,0.012675444595515728,-0.007635809946805239
1750927192670087400,3.26008740234375,-0.035124726593494415,0.021227551624178886,-0.011300998739898205
1750927192688912000,3.278911865234375,-0.021685699000954628,-0.0007635809597559273,-0.022296564653515816
1750927192707736000,3.297736083984375,0.003970621153712273,-0.014202605932950974,-0.03451386094093323
1750927192726560500,3.316560546875,0.0308486707508564,-0.023976443335413933,-0.035735588520765305
1750927192745384700,3.335384765625,0.01740964688360691,-0.008093958720564842,-0.023518294095993042
1750927192764209200,3.354209228515625,-0.01435532234609127,0.004123337101191282,-0.010079269297420979
1750927192783033300,3.373033447265625,-0.03145953640341759,0.017562363296747208,-0.016187917441129684
1750927192801857800,3.39185791015625,-0.010690134018659592,-0.009315688163042068,-0.01740964688360691
1750927192820682000,3.410681884765625,0.007635809946805239,-0.01908952370285988,-0.035735588520765305
1750927192839506200,3.429506103515625,0.0015271619195118546,-0.005650499369949102,-0.02107483521103859
1750927192858330600,3.44833056640625,0.0027488914784044027,0.013897174037992954,0.021685699000954628
1750927192877154800,3.46715478515625,0.023518294095993042,-0.004428769461810589,0.029016077518463135
1750927192895979300,3.485979248046875,0.012522728182375431,-0.008093958720564842,0.019242240116000175
1750927192914803500,3.504803466796875,-0.004581485874950886,-0.0019853105768561363,0.0021380267571657896
1750927192933628000,3.5236279296875,-0.008246674202382565,-0.0019853105768561363,-0.011300998739898205
1750927192952452000,3.5424521484375,0.0027488914784044027,-0.008093958720564842,0.0009162971982732415
1750927192971276500,3.561276611328125,0.012522728182375431,-0.014202605932950974,-0.007635809946805239
1750927192990100700,3.580100830078125,0.011300998739898205,-0.0007635809597559273,-0.02718348242342472
1750927193008925200,3.59892529296875,-0.008246674202382565,0.012675444595515728,-0.01740964688360691
1750927193027749400,3.617749267578125,-0.01802051067352295,0.012675444595515728,-0.010079269297420979
1750927193046573600,3.636573486328125,-0.013133592903614044,0.012675444595515728,-0.016187917441129684
1750927193065398000,3.65539794921875,0.003970621153712273,0.001679878099821508,-0.024740023538470268
1750927193084222200,3.67422216796875,0.005192350596189499,0.00045814859913662076,-0.029626941308379173
1750927193103046700,3.693046630859375,0.008857538923621178,0.00045814859913662076,-0.02107483521103859
1750927193121870800,3.711870849609375,-0.01435532234609127,0.002901607658714056,-0.006414080038666725
1750927193140695300,3.7306953125,-0.015577051788568497,0.006566796451807022,-0.003970621153712273
1750927193159519500,3.74951953125,-0.0021380267571657896,0.00045814859913662076,0.0009162971982732415
1750927193178344000,3.768343994140625,0.003970621153712273,-0.0032070400193333626,-0.008857538923621178
1750927193197168000,3.787168212890625,-0.004581485874950886,0.001679878099821508,-0.01740964688360691
1750927193215992600,3.80599267578125,-0.008246674202382565,0.004123337101191282,-0.02107483521103859
1750927193234816800,3.824816650390625,-0.004581485874950886,-0.006872228812426329,-0.018631376326084137
1750927193253641000,3.843640869140625,0.0015271619195118546,-0.004428769461810589,-0.0015271619195118546
1750927193272465400,3.86246533203125,0.000305432389723137,0.009010255336761475,0.00946840364485979
1750927193291289600,3.88128955078125,0.008857538923621178,-0.006872228812426329,0.011911863461136818
1750927193310114000,3.900114013671875,-0.005803215317428112,-0.005650499369949102,0.005803215317428112
1750927193328938200,3.918938232421875,-0.013133592903614044,0.005345067009329796,-0.010079269297420979
1750927193347762700,3.9377626953125,0.010079269297420979,-0.0032070400193333626,0.003359756199643016
1750927193366587000,3.9565869140625,-0.004581485874950886,0.004123337101191282,-0.007635809946805239
1750927193385411300,3.975411376953125,-0.008246674202382565,0.022449281066656113,-0.0308486707508564
1750927193404235500,3.994235595703125,-0.00946840364485979,0.01511890348047018,-0.032070402055978775
1750927193423060000,4.01306005859375,-0.010690134018659592,0.012675444595515728,-0.02718348242342472
1750927193441884200,4.03188427734375,-0.008246674202382565,0.007788525894284248,-0.010079269297420979
1750927193460708400,4.050708251953125,-0.0009162971982732415,-0.0019853105768561363,-0.029626941308379173
1750927193479532800,4.06953271484375,-0.00946840364485979,0.004123337101191282,-0.024740023538470268
1750927193498357000,4.08835693359375,-0.019242240116000175,0.005345067009329796,0.004581485874950886
1750927193517181400,4.107181396484375,-0.0021380267571657896,-0.006872228812426329,0.007024944759905338
1750927193536005600,4.126005615234375,-0.0021380267571657896,-0.014202605932950974,0.02412915788590908
1750927193554830000,4.144830078125,0.010079269297420979,-0.0032070400193333626,0.04001164436340332
1750927193573654300,4.163654296875,0.000305432389723137,0.004123337101191282,0.016798781231045723
1750927193592478700,4.182478759765625,-0.011911863461136818,0.021227551624178886,-0.0015271619195118546
1750927193611303000,4.201302978515625,-0.010690134018659592,0.017562363296747208,0.005803215317428112
1750927193630127000,4.220127197265625,-0.013133592903614044,0.016340631991624832,-0.006414080038666725
1750927193648951600,4.23895166015625,-0.010690134018659592,0.013897174037992954,-0.013744457624852657
1750927193667775700,4.257775634765625,0.006414080038666725,0.006566796451807022,0.005803215317428112
1750927193686600200,4.27660009765625,0.012522728182375431,0.0102319847792387,0.0021380267571657896
1750927193705424400,4.29542431640625,-0.004581485874950886,0.02367101050913334,-0.011300998739898205
1750927193724248800,4.314248779296875,-0.003359756199643016,0.012675444595515728,-0.006414080038666725
1750927193743073000,4.333072998046875,0.000305432389723137,0.004123337101191282,0.005803215317428112
1750927193761897500,4.3518974609375,-0.010690134018659592,0.0102319847792387,0.004581485874950886
1750927193780721700,4.3707216796875,-0.019242240116000175,0.018784092739224434,-0.007635809946805239
1750927193799545900,4.3895458984375,-0.010690134018659592,0.005345067009329796,0.003359756199643016
1750927193818370300,4.408370361328125,0.007635809946805239,-0.012980876490473747,-0.01740964688360691
1750927193837194500,4.427194580078125,0.011300998739898205,-0.02153298258781433,-0.024740023538470268
1750927193856019000,4.44601904296875,-0.008246674202382565,-0.023976443335413933,-0.0027488914784044027
1750927193874843100,4.464843017578125,-0.00946840364485979,-0.008093958720564842,0.015577051788568497
1750927193893667600,4.48366748046875,-0.0021380267571657896,0.007788525894284248,0.016798781231045723
1750927193912491800,4.50249169921875,0.005192350596189499,0.002901607658714056,0.007024944759905338
1750927193931316200,4.521316162109375,0.006414080038666725,-0.0019853105768561363,-0.016187917441129684
1750927193950140400,4.540140380859375,-0.005803215317428112,-0.009315688163042068,-0.010079269297420979
1750927193968964900,4.55896484375,-0.00946840364485979,-0.0032070400193333626,-0.005192350596189499
1750927193987789000,4.5777890625,0.008857538923621178,-0.006872228812426329,0.007024944759905338
1750927194006613200,4.59661328125,0.016187917441129684,-0.006872228812426329,0.0021380267571657896
1750927194025437700,4.615437744140625,0.003970621153712273,0.004123337101191282,-0.000305432389723137
1750927194044262000,4.634261962890625,-0.019242240116000175,0.0102319847792387,-0.003970621153712273
1750927194063086300,4.65308642578125,-0.0204639695584774,0.007788525894284248,-0.008857538923621178
1750927194081910500,4.67191064453125,0.016187917441129684,-0.008093958720564842,-0.007635809946805239
1750927194100735000,4.69073486328125,0.01740964688360691,-0.009315688163042068,0.004581485874950886
1750927194119559200,4.70955908203125,0.003970621153712273,-0.009315688163042068,0.026572618633508682
1750927194138383600,4.728383544921875,-0.016798781231045723,-0.0007635809597559273,0.007024944759905338
1750927194157207800,4.747207763671875,-0.01802051067352295,0.005345067009329796,-0.02107483521103859
1750927194176032000,4.766031982421875,-0.00946840364485979,-0.004428769461810589,-0.000305432389723137
1750927194194856400,4.7848564453125,0.024740023538470268,-0.022754713892936707,-0.006414080038666725
1750927194213680600,4.8036806640625,0.012522728182375431,-0.020311253145337105,-0.005192350596189499
1750927194232505000,4.822505126953125,-0.004581485874950886,0.001679878099821508,0.00946840364485979
1750927194251329300,4.841329345703125,0.0027488914784044027,0.001679878099821508,0.02412915788590908
1750927194270153700,4.86015380859375,-0.007024944759905338,-0.0007635809597559273,0.021685699000954628
1750927194288978000,4.87897802734375,-0.00946840364485979,0.004123337101191282,0.0204639695584774
1750927194307802400,4.89780224609375,-0.004581485874950886,0.001679878099821508,0.011911863461136818
1750927194326626600,4.91662646484375,-0.0021380267571657896,0.001679878099821508,-0.0015271619195118546
1750927194345450800,4.93545068359375,0.0027488914784044027,-0.0007635809597559273,-0.006414080038666725
1750927194364275200,4.954275146484375,0.011300998739898205,-0.02153298258781433,-0.0015271619195118546
1750927194383099400,4.973099365234375,0.018631376326084137,-0.028863361105322838,-0.010079269297420979
1750927194401923800,4.991923828125,0.0027488914784044027,-0.0154243353754282,-0.011300998739898205
1750927194420748000,5.010748046875,-0.019242240116000175,0.001679878099821508,0.008246674202382565
1750927194439572500,5.029572509765625,-0.022907428443431854,0.005345067009329796,0.00946840364485979
1750927194458396700,5.048396728515625,-0.010690134018659592,0.004123337101191282,-0.011300998739898205
1750927194477221000,5.06722119140625,0.000305432389723137,-0.0019853105768561363,-0.014966187067329884
1750927194496045300,5.08604541015625,0.012522728182375431,-0.0032070400193333626,-0.007635809946805239
1750927194514869500,5.104869384765625,0.007635809946805239,-0.012980876490473747,-0.0015271619195118546
1750927194533694000,5.12369384765625,-0.01435532234609127,-0.005650499369949102,0.008246674202382565
1750927194552518100,5.14251806640625,-0.021685699000954628,-0.0007635809597559273,0.011911863461136818
1750927194571342600,5.161342529296875,-0.022907428443431854,0.012675444595515728,0.0021380267571657896
1750927194590166800,5.180166748046875,0.000305432389723137,0.005345067009329796,-0.01740964688360691
1750927194608991200,5.1989912109375,0.016187917441129684,0.004123337101191282,-0.024740023538470268
1750927194627815400,5.2178154296875,0.008857538923621178,-0.006872228812426329,0.0009162971982732415
1750927194646639900,5.236639892578125,-0.005803215317428112,-0.0007635809597559273,-0.010079269297420979
1750927194665464000,5.255464111328125,-0.005803215317428112,-0.0007635809597559273,-0.03329212963581085
1750927194684288300,5.274288330078125,0.0015271619195118546,0.002901607658714056,-0.018631376326084137
1750927194703112700,5.29311279296875,0.003970621153712273,0.004123337101191282,0.00946840364485979
1750927194721937000,5.31193701171875,0.000305432389723137,0.002901607658714056,-0.003970621153712273
1750927194740761300,5.33076123046875,-0.003359756199643016,-0.0032070400193333626,-0.014966187067329884
1750927194759585500,5.34958544921875,-0.0009162971982732415,-0.010537417605519295,-0.029626941308379173
1750927194778410000,5.368409912109375,0.0015271619195118546,-0.005650499369949102,-0.05039634555578232
1750927194797234200,5.387234130859375,0.006414080038666725,-0.0032070400193333626,-0.057726722210645676
1750927194816058600,5.40605859375,-0.0021380267571657896,0.005345067009329796,-0.05528326332569122
1750927194834882800,5.4248828125,-0.0021380267571657896,0.006566796451807022,-0.06383536756038666
1750927194853707000,5.44370703125,-0.0021380267571657896,0.004123337101191282,-0.0870482325553894
1750927194872531500,5.462531494140625,0.003970621153712273,-0.0007635809597559273,-0.09437860548496246
1750927194891355600,5.481355712890625,0.000305432389723137,-0.009315688163042068,-0.10415244847536087
1750927194910180000,5.50018017578125,-0.00946840364485979,-0.005650499369949102,-0.11759147047996521
1750927194929004300,5.51900439453125,-0.003359756199643016,0.007788525894284248,-0.10537417232990265
1750927194947828700,5.537828857421875,0.007635809946805239,0.00045814859913662076,-0.03451386094093323
1750927194966653000,5.55665283203125,0.02107483521103859,-0.026419902220368385,0.07788526266813278
1750927194985477400,5.575477294921875,0.03451386094093323,-0.06062832847237587,0.22693626582622528
1750927195004301600,5.594301513671875,0.003970621153712273,-0.1107192412018776,0.43951719999313354
1750927195023125800,5.613125732421875,-0.0204639695584774,-0.16569706797599792,0.6973021626472473
1750927195041950200,5.6319501953125,-0.025350889191031456,-0.21945317089557648,0.9001092314720154
1750927195060774400,5.6507744140625,-0.0412333719432354,-0.24633121490478516,1.0540472269058228
1750927195079598800,5.669598876953125,-0.0668896958231926,-0.24510949850082397,1.1823288202285767
1750927195098423000,5.688423095703125,-0.0925460159778595,-0.2695440948009491,1.2800670862197876
1750927195117247500,5.70724755859375,-0.10842850059270859,-0.2683223485946655,1.293506145477295
1750927195136071700,5.72607177734375,-0.10965022444725037,-0.2231183648109436,1.2177588939666748
1750927195154896100,5.744896240234375,-0.14752385020256042,-0.2133445292711258,1.148120403289795
1750927195173720300,5.76372021484375,-0.1695149689912796,-0.27687445282936096,1.146898627281189
1750927195192544500,5.78254443359375,-0.2049451321363449,-0.25121814012527466,1.13712477684021
1750927195211369000,5.801368896484375,-0.2721402645111084,-0.15836669504642487,1.135903000831604
1750927195230193200,5.820193115234375,-0.3283398151397705,-0.09972367435693741,1.1713331937789917
1750927195249017600,5.839017578125,-0.34055712819099426,-0.0691804364323616,1.350927472114563
1750927195267841800,5.857841796875,-0.31123560667037964,-0.08384118974208832,1.583056092262268
1750927195286666200,5.876666259765625,-0.2782489061355591,-0.10461059212684631,1.7699806690216064
1750927195305490400,5.895490478515625,-0.1902843713760376,-0.1253799945116043,1.8542799949645996
1750927195324314600,5.914314697265625,-0.05833758786320686,-0.20112723112106323,1.8347324132919312
1750927195343139000,5.93313916015625,-0.03145953640341759,-0.21090106666088104,1.7614285945892334
1750927195361963300,5.95196337890625,-0.06200277432799339,-0.13759729266166687,1.553734540939331
1750927195380787700,5.97078759765625,-0.08032871782779694,-0.07406735420227051,1.303279995918274
1750927195399612000,5.98961181640625,-0.09987638890743256,-0.03252854943275452,1.1236857175827026
1750927195418436400,6.008436279296875,-0.12431098520755768,0.02611446939408779,0.9966259002685547
1750927195437260500,6.027260498046875,-0.10598503798246384,-0.0386371985077858,0.8463531732559204
1750927195456085000,6.0460849609375,-0.04978547990322113,-0.07773254066705704,0.5775726437568665
1750927195474909200,6.0649091796875,0.013744457624852657,-0.017867794260382652,0.20250166952610016
1750927195493733400,6.0837333984375,0.03817904740571976,0.0591011680662632,-0.27397283911705017
1750927195512557800,6.102557861328125,0.011300998739898205,0.15928299725055695,-0.7748819589614868
1750927195531382000,6.121382080078125,-0.07055488228797913,0.2228129357099533,-1.1731657981872559
1750927195550206500,6.14020654296875,-0.06322450190782547,0.1971566081047058,-1.4663809537887573
1750927195569030700,6.15903076171875,-0.05100720748305321,0.13484840095043182,-1.736383080482483
1750927195587854800,6.177854736328125,-0.01802051067352295,0.18005239963531494,-2.000276803970337
1750927195606679300,6.19667919921875,0.023518294095993042,0.2130390852689743,-2.2226314544677734
1750927195625503700,6.215503662109375,0.061391908675432205,0.1727220118045807,-2.243400812149048
1750927195644328000,6.234327880859375,0.09804379940032959,0.06887500733137131,-2.0857977867126465
1750927195663152000,6.253152099609375,0.06261363625526428,-0.010537417605519295,-1.9330816268920898
1750927195681976600,6.2719765625,0.04917461425065994,-0.03741546720266342,-1.9660682678222656
1750927195700800800,6.29080078125,0.0821613147854805,0.0383317656815052,-2.0528111457824707
1750927195719625200,6.309625244140625,0.11026109009981155,0.04199695214629173,-2.045480728149414
1750927195738449400,6.328449462890625,0.15302163362503052,-0.014202605932950974,-1.9294164180755615
1750927195757273600,6.347273681640625,0.1640172004699707,0.02000582218170166,-1.8683298826217651
1750927195776098000,6.36609814453125,0.10170898586511612,-0.09117157012224197,-1.9013166427612305
1750927195794922200,6.384922119140625,0.06261363625526428,-0.2280052751302719,-1.9123121500015259
1750927195813746700,6.40374658203125,0.05894844979047775,-0.162031888961792,-1.9000948667526245
1750927195832571000,6.42257080078125,0.03451386094093323,-0.08139773458242416,-1.9062035083770752
1750927195851395300,6.441395263671875,0.03817904740571976,-0.11682789027690887,-1.9037600755691528
1750927195870219500,6.460219482421875,0.057726722210645676,-0.11682789027690887,-1.8524473905563354
1750927195889044000,6.4790439453125,0.07238747924566269,-0.07406735420227051,-1.8109086751937866
1750927195907868200,6.4978681640625,0.07116574794054031,-0.04230238497257233,-1.7400482892990112
1750927195926692400,6.5166923828125,-0.003359756199643016,-0.016646064817905426,-1.59832763671875
1750927195945516800,6.535516845703125,-0.07544180005788803,0.03955349326133728,-1.433394193649292
1750927195964341000,6.554341064453125,-0.08765909820795059,0.08109229803085327,-1.257465124130249
1750927195983165400,6.57316552734375,-0.011911863461136818,0.040775224566459656,-1.1157444715499878
1750927196001989600,6.59198974609375,0.051618073135614395,-0.0154243353754282,-0.9227112531661987
1750927196020814000,6.61081396484375,0.07116574794054031,-0.04474584385752678,-0.6404917240142822
1750927196039638300,6.62963818359375,0.0565049909055233,-0.05940660089254379,-0.3179551064968109
1750927196058462500,6.64846240234375,0.03940077871084213,-0.03130681812763214,-0.005192350596189499
1750927196077287000,6.667286865234375,-0.0009162971982732415,0.0383317656815052,0.33567020297050476
1750927196096111000,6.686111083984375,0.019853105768561363,0.08109229803085327,0.7302888631820679
1750927196114935600,6.704935546875,0.05406153202056885,0.12385283410549164,1.0992511510849
1750927196133759700,6.723759765625,0.035735588520765305,0.14950916171073914,1.4352267980575562
1750927196152584200,6.742584228515625,-0.003359756199643016,0.09453132748603821,1.7504329681396484
1750927196171408400,6.761408447265625,-0.022907428443431854,0.0639880821108818,2.036317825317383
1750927196190232800,6.78023291015625,0.011300998739898205,0.02000582218170166,2.2513420581817627
1750927196209057000,6.79905712890625,-0.016798781231045723,0.04199695214629173,2.4260494709014893
1750927196227881200,6.817881103515625,-0.07788526266813278,0.05543597787618637,2.556774616241455
1750927196246705700,6.83670556640625,-0.11575887352228165,0.0102319847792387,2.5616614818573
1750927196265529900,6.85552978515625,-0.14141519367694855,-0.0007635809597559273,2.433379888534546
1750927196284354300,6.874354248046875,-0.14141519367694855,0.009010255336761475,2.2476768493652344
1750927196303178500,6.893178466796875,-0.12431098520755768,0.016340631991624832,2.0717480182647705
1750927196322003000,6.9120029296875,-0.1182023361325264,-0.0019853105768561363,1.9080361127853394
1750927196340827100,6.9308271484375,-0.11698060482740402,-0.014202605932950974,1.787084937095642
1750927196359651300,6.9496513671875,-0.13775001466274261,-0.0386371985077858,1.7418808937072754
1750927196378475800,6.968475830078125,-0.19272783398628235,-0.03375028073787689,1.7162245512008667
1750927196397300000,6.987300048828125,-0.1902843713760376,0.002901607658714056,1.663690209388733
1750927196416124400,7.00612451171875,-0.14508038759231567,0.012675444595515728,1.612377643585205
1750927196434948600,7.024948486328125,-0.09010255336761475,-0.07284562289714813,1.5879429578781128
1750927196453773000,7.04377294921875,-0.03390299528837204,-0.08139773458242416,1.5659518241882324
1750927196472597200,7.06259716796875,-0.03756818547844887,-0.08017600327730179,1.517082691192627
1750927196491421700,7.081421630859375,-0.07299833744764328,-0.09117157012224197,1.4657700061798096
1750927196510246000,7.100245849609375,-0.08277218043804169,-0.05696314200758934,1.370475172996521
1750927196529070000,7.119070068359375,-0.04245510324835777,0.011453714221715927,1.1603376865386963
1750927196547894500,7.13789453125,-0.05833758786320686,0.05787943676114082,0.8915571570396423
1750927196566718700,7.15671875,-0.08155044913291931,0.018784092739224434,0.6130027770996094
1750927196585543200,7.175543212890625,-0.05222893878817558,-0.036193739622831345,0.31490078568458557
1750927196604367400,7.194367431640625,-0.015577051788568497,-0.008093958720564842,-0.028405211865901947
1750927196623191800,7.21319189453125,0.01740964688360691,0.031001387163996696,-0.4156934916973114
1750927196642016000,7.23201611328125,0.019853105768561363,0.05177079141139984,-0.8432988524436951
1750927196660840200,7.250840087890625,0.03329212963581085,0.06154462695121765,-1.230587124824524
1750927196679664600,7.26966455078125,0.04673115536570549,0.08597921580076218,-1.5409064292907715
1750927196698488800,7.28848876953125,0.011300998739898205,0.13973531126976013,-1.802356481552124
1750927196717313300,7.307313232421875,0.007635809946805239,0.16905683279037476,-2.069915294647217
1750927196736137500,7.326137451171875,0.07116574794054031,0.17516547441482544,-2.324035167694092
1750927196754962000,7.3449619140625,0.1285870373249054,0.15317434072494507,-2.4791946411132812
1750927196773786000,7.3637861328125,0.14202606678009033,0.11896591633558273,-2.4938554763793945
1750927196792610600,7.382610595703125,0.1444695144891739,0.07009673118591309,-2.4596469402313232
1750927196811434800,7.401434814453125,0.1383608728647232,-0.02519817277789116,-2.3900084495544434
1750927196830259000,7.420259033203125,0.11514800786972046,-0.07651081681251526,-2.2922701835632324
1750927196849083400,7.43908349609375,0.09071341902017593,-0.12293653935194016,-2.1138975620269775
1750927196867907600,7.457907470703125,0.1078176349401474,-0.16814053058624268,-1.9941680431365967
1750927196886732000,7.47673193359375,0.11881320178508759,-0.16447533667087555,-1.9624030590057373
1750927196905556200,7.49555615234375,0.12980876863002777,-0.16447533667087555,-1.9428554773330688
1750927196924380700,7.514380615234375,0.11026109009981155,-0.14370593428611755,-1.8744385242462158
1750927196943204900,7.533204833984375,0.08093958348035812,-0.1156061589717865,-1.7473787069320679
1750927196962029000,7.552029052734375,0.06750056147575378,-0.1204930767416954,-1.5836669206619263
1750927196980853500,7.570853515625,0.047952886670827866,-0.1156061589717865,-1.4785982370376587
1750927196999677700,7.589677734375,0.029626941308379173,-0.09850194305181503,-1.3881902694702148
1750927197018502100,7.608502197265625,0.016187917441129684,-0.10216713696718216,-1.2354739904403687
1750927197037326300,7.627326416015625,0.019853105768561363,-0.12415826320648193,-1.0986403226852417
1750927197056150500,7.646150634765625,0.0308486707508564,-0.07284562289714813,-0.9960150122642517
1750927197074975000,7.66497509765625,0.06017018109560013,-0.10216713696718216,-0.8384119272232056
1750927197093799200,7.683799072265625,0.047952886670827866,-0.09972367435693741,-0.6478220820426941
1750927197112623600,7.70262353515625,0.016187917441129684,-0.055741410702466965,-0.43890634179115295
1750927197131447800,7.72144775390625,0.000305432389723137,-0.01908952370285988,-0.1945604383945465
1750927197150272300,7.740272216796875,-0.004581485874950886,-0.008093958720564842,0.129197895526886
1750927197169096400,7.759096435546875,0.013744457624852657,-0.02764163166284561,0.4786125421524048
1750927197187921000,7.7779208984375,0.051618073135614395,-0.014202605932950974,0.7840449213981628
1750927197206745000,7.7967451171875,0.06872228533029556,0.04566214233636856,1.0296125411987305
1750927197225569300,7.8155693359375,0.06750056147575378,0.0798705667257309,1.273958444595337
1750927197244393700,7.834393798828125,0.035735588520765305,0.09697478264570236,1.4938697814941406
1750927197263218000,7.853218017578125,-0.0021380267571657896,0.09819651395082474,1.6942334175109863
1750927197282042400,7.87204248046875,-0.01802051067352295,0.028557928279042244,1.897040605545044
1750927197300866600,7.890866455078125,-0.04978547990322113,-0.005650499369949102,2.0570871829986572
1750927197319691000,7.90969091796875,-0.10109812021255493,0.017562363296747208,2.0949606895446777
1750927197338515200,7.92851513671875,-0.14996729791164398,0.04199695214629173,2.0106613636016846
1750927197357339400,7.94733935546875,-0.1597411334514618,0.018784092739224434,1.8701624870300293
1750927197376163800,7.966163818359375,-0.1902843713760376,-0.05329795181751251,1.7748676538467407
1750927197394988000,7.984988037109375,-0.19761475920677185,-0.05696314200758934,1.7431026697158813
1750927197413812500,8.0038125,-0.19883649051189423,-0.05940660089254379,1.6869031190872192
1750927197432636700,8.02263671875,-0.22815799713134766,-0.06307178735733032,1.6453642845153809
1750927197451461000,8.041461181640624,-0.250149130821228,-0.04108065739274025,1.6331470012664795
1750927197470285300,8.060285400390624,-0.25870123505592346,-0.023976443335413933,1.719889760017395
1750927197489109500,8.079109619140626,-0.24281874299049377,-0.09728021919727325,1.8652756214141846
1750927197507934000,8.097933837890626,-0.22937972843647003,-0.11194097250699997,1.933692455291748
1750927197526758100,8.116758056640625,-0.20616686344146729,-0.14737112820148468,1.9080361127853394
1750927197545582600,8.13558251953125,-0.16340632736682892,-0.0850629210472107,1.8445061445236206
1750927197564406800,8.15440673828125,-0.10231985151767731,-0.08139773458242416,1.7760893106460571
1750927197583231200,8.173231201171875,-0.08888082206249237,-0.08628465235233307,1.6380338668823242
1750927197602055400,8.192055419921875,-0.09132428467273712,-0.03375028073787689,1.3741402626037598
1750927197630292000,8.2202919921875,-0.09010255336761475,-0.012980876490473747,1.00762140750885
1750927197649116200,8.2391162109375,-0.07788526266813278,-0.012980876490473747,0.8830050230026245
1750927197667940600,8.257940673828125,-0.06200277432799339,-0.030085090547800064,0.8035926222801208
1750927197686764800,8.276764892578125,-0.05833758786320686,-0.03130681812763214,0.6362156867980957
1750927197705589000,8.295589111328125,-0.032681263983249664,-0.023976443335413933,0.34177884459495544
1750927197724413400,8.314413330078125,-0.019242240116000175,-0.016646064817905426,-0.05406153202056885
1750927197743237600,8.333237548828125,-0.010690134018659592,0.0334448479115963,-0.467006117105484
1750927197762062000,8.35206201171875,-0.016798781231045723,0.1104138121008873,-0.8530726432800293
1750927197780886300,8.37088623046875,0.000305432389723137,0.10797034949064255,-1.2220350503921509
1750927197799710700,8.389710693359374,0.057726722210645676,0.1311832070350647,-1.5506802797317505
1750927197818535000,8.408534912109374,0.06261363625526428,0.14340050518512726,-1.8487823009490967
1750927197837359400,8.427359375,0.01740964688360691,0.1360701322555542,-2.0857977867126465
1750927197856183600,8.44618359375,-0.025350889191031456,0.1360701322555542,-2.2947134971618652
1750927197875007700,8.4650078125,-0.011911863461136818,0.17394374310970306,-2.4547600746154785
1750927197893832200,8.483832275390625,0.03817904740571976,0.06276635825634003,-2.4523167610168457
1750927197912656400,8.502656494140625,0.06872228533029556,-0.05940660089254379,-2.347247838973999
1750927197931480800,8.521480712890625,0.05039634555578232,-0.009315688163042068,-2.251953125
1750927197950305000,8.540304931640625,0.003970621153712273,0.03588830679655075,-2.1419973373413086
1750927197969129500,8.55912939453125,-0.06200277432799339,0.002901607658714056,-2.08457612991333
1750927197987953700,8.57795361328125,-0.14630211889743805,-0.006872228812426329,-2.1200063228607178
1750927198006777900,8.59677783203125,-0.08521563559770584,-0.039858926087617874,-2.0222678184509277
1750927198025602300,8.615602294921874,0.06627883017063141,-0.1669187992811203,-1.7376048564910889
1750927198044426500,8.634426513671874,0.10659590363502502,-0.304974228143692,-1.4504984617233276
1750927198063251000,8.6532509765625,0.03817904740571976,-0.2438877671957016,-1.3087778091430664
1750927198082075100,8.6720751953125,-0.048563748598098755,-0.07162389904260635,-1.3319905996322632
1750927198100899300,8.6908994140625,-0.08888082206249237,-0.03375028073787689,-1.3723077774047852
1750927198119723800,8.709723876953126,-0.016798781231045723,-0.06673697382211685,-1.2916735410690308
1750927198138548000,8.7285478515625,0.07605266571044922,-0.10705405473709106,-1.101083755493164
1750927198157372400,8.747372314453125,0.12370011955499649,-0.08628465235233307,-0.9532544612884521
1750927198176196600,8.766196533203125,0.06994401663541794,-0.023976443335413933,-0.8371901512145996
1750927198195021000,8.78502099609375,-0.021685699000954628,0.0383317656815052,-0.732121467590332
1750927198213845200,8.80384521484375,-0.04001164436340332,0.0639880821108818,-0.6563742160797119
1750927198232669400,8.82266943359375,-0.03756818547844887,0.02977965772151947,-0.5671879649162292
1750927198251494000,8.841493896484375,0.025961752980947495,-0.008093958720564842,-0.41447174549102783
1750927198270318000,8.860318115234374,0.051618073135614395,-0.012980876490473747,-0.14080433547496796
1750927198289142500,8.879142578125,0.05894844979047775,-0.01908952370285988,0.20738859474658966
1750927198307966700,8.897966796875,0.032070402055978775,0.016340631991624832,0.5384773015975952
1750927198326791200,8.916791259765626,-0.005803215317428112,0.04932733252644539,0.8341358304023743
1750927198345615400,8.935615478515626,-0.05222893878817558,0.09330959618091583,1.0613775253295898
1750927198364439600,8.954439453125,-0.029016077518463135,0.0896444097161293,1.302058219909668
1750927198383264000,8.973263916015625,0.0015271619195118546,0.08842267841100693,1.5525128841400146
1750927198402088200,8.992088134765625,-0.015577051788568497,0.07376192510128021,1.7858631610870361
1750927198420912600,9.01091259765625,-0.10476330667734146,0.03588830679655075,1.9776747226715088
1750927198439736800,9.02973681640625,-0.16218459606170654,-0.008093958720564842,2.072969675064087
1750927198458561300,9.048561279296875,-0.14508038759231567,-0.03252854943275452,2.079078197479248
1750927198477385500,9.067385498046875,-0.1328630894422531,-0.049632761627435684,2.092517375946045
1750927198496209700,9.086209716796875,-0.1328630894422531,-0.07406735420227051,2.1523821353912354
1750927198515034000,9.1050341796875,-0.14508038759231567,-0.10216713696718216,2.174373149871826
1750927198533858300,9.1238583984375,-0.1646280586719513,-0.1156061589717865,2.0473132133483887
1750927198552682800,9.142682861328124,-0.1536324918270111,-0.07651081681251526,1.8493931293487549
1750927198571507000,9.1615068359375,-0.1230892539024353,-0.055741410702466965,1.6869031190872192
1750927198590331400,9.180331298828126,-0.0974329337477684,-0.0691804364323616,1.644142508506775
1750927198609155600,9.199155517578125,-0.12675444781780243,-0.07528908550739288,1.6502511501312256
1750927198627979800,9.217979736328125,-0.16707152128219604,-0.049632761627435684,1.6514729261398315
1750927198646804200,9.23680419921875,-0.1536324918270111,-0.028863361105322838,1.6282600164413452
1750927198665628400,9.25562841796875,-0.11942406743764877,-0.022754713892936707,1.6050472259521484
1750927198684452900,9.274452880859375,-0.05711585655808449,-0.030085090547800064,1.5854995250701904
1750927198703277000,9.293277099609375,-0.00946840364485979,-0.05818486958742142,1.5598431825637817
1750927198722101500,9.3121015625,-0.02412915788590908,-0.07528908550739288,1.5012001991271973
1750927198740925700,9.33092578125,-0.07788526266813278,-0.07284562289714813,1.4376702308654785
1750927198759750000,9.34975,-0.1182023361325264,-0.052076224237680435,1.3545926809310913
1750927198778574300,9.36857421875,-0.09010255336761475,-0.04230238497257233,1.148120403289795
1750927198797398500,9.3873984375,-0.005803215317428112,-0.04108065739274025,0.8426879644393921
1750927198816223000,9.406222900390626,0.0565049909055233,-0.030085090547800064,0.562911868095398
1750927198835047200,9.425047119140626,0.035735588520765305,0.002901607658714056,0.2868010103702545
1750927198853871400,9.443871337890625,0.006414080038666725,0.017562363296747208,-0.04673115536570549
1750927198872695800,9.46269580078125,0.003970621153712273,0.018784092739224434,-0.4303542375564575
1750927198891520000,9.48152001953125,0.041844237595796585,0.0334448479115963,-0.8066469430923462
1750927198910344400,9.500344482421875,0.06750056147575378,0.10186170041561127,-1.1499528884887695
1750927198929168600,9.519168701171875,0.0821613147854805,0.14950916171073914,-1.434615969657898
1750927198947993000,9.5379931640625,0.09315688163042068,0.1519526094198227,-1.6447534561157227
1750927198966817300,9.5568173828125,0.1285870373249054,0.13484840095043182,-1.7693698406219482
1750927198985641500,9.575641357421874,0.16157373785972595,0.12140937149524689,-1.860999584197998
1750927199004466000,9.5944658203125,0.1444695144891739,0.13851359486579895,-1.9465205669403076
1750927199023290000,9.6132900390625,0.14080433547496796,0.16783510148525238,-1.9709552526474
1750927199042114600,9.632114501953126,0.14813470840454102,0.13973531126976013,-1.996611475944519
1750927199060938800,9.650938720703126,0.17256930470466614,0.04566214233636856,-2.0919065475463867
1750927199079763200,9.66976318359375,0.19211697578430176,-0.07528908550739288,-2.1395537853240967
1750927199098587400,9.68858740234375,0.10170898586511612,-0.13881902396678925,-2.089462995529175
1750927199117411600,9.70741162109375,-0.0009162971982732415,-0.09728021919727325,-2.0100505352020264
1750927199136236000,9.726236083984375,-0.032681263983249664,0.016340631991624832,-1.959959626197815
1750927199155060200,9.745060302734375,0.018631376326084137,0.031001387163996696,-1.9025382995605469
1750927199173884700,9.763884765625,0.07971785217523575,-0.020311253145337105,-1.8341214656829834
1750927199192708900,9.782708984375,0.09315688163042068,-0.012980876490473747,-1.7217223644256592
1750927199211533300,9.801533203125,0.11026109009981155,-0.036193739622831345,-1.6019928455352783
1750927199230357500,9.820357421875,0.10903936624526978,-0.07284562289714813,-1.5164718627929688
1750927199249181700,9.839181640625,0.13103049993515015,-0.10949750989675522,-1.4663809537887573
1750927199268006100,9.858006103515624,0.1847866028547287,-0.09972367435693741,-1.423620343208313
1750927199286830300,9.876830322265626,0.1542433500289917,-0.0948367565870285,-1.3429862260818481
1750927199305654800,9.89565478515625,0.07483093440532684,-0.15347976982593536,-1.278234601020813
1750927199324479000,9.91447900390625,0.010079269297420979,-0.08872810751199722,-1.296560525894165
1750927199343303400,9.933303466796875,-0.026572618633508682,-0.05329795181751251,-1.28556489944458
1750927199362127600,9.952127685546875,-0.015577051788568497,-0.023976443335413933,-1.2269219160079956
1750927199380951800,9.970951904296875,0.035735588520765305,-0.010537417605519295,-1.1939351558685303
1750927199399776300,9.9897763671875,0.06750056147575378,-0.012980876490473747,-1.220813274383545
1750927199418600400,10.008600341796875,0.10170898586511612,-0.008093958720564842,-1.2037090063095093
1750927199437425000,10.0274248046875,0.06017018109560013,-0.028863361105322838,-1.0607666969299316
1750927199456249000,10.0462490234375,-0.011911863461136818,0.005345067009329796,-0.8127555847167969
1750927199475073500,10.065073486328124,-0.04245510324835777,0.0383317656815052,-0.5390881896018982
1750927199493897700,10.083897705078124,-0.048563748598098755,0.02000582218170166,-0.28496840596199036
1750927199512722000,10.102721923828126,-0.04978547990322113,0.011453714221715927,-0.047952886670827866
1750927199531546400,10.12154638671875,0.003970621153712273,0.00045814859913662076,0.20738859474658966
1750927199550370600,10.14037060546875,0.047952886670827866,-0.016646064817905426,0.5079340934753418
1750927199569195000,10.159195068359375,0.025961752980947495,-0.036193739622831345,0.8622356653213501
1750927199588019200,10.178019287109375,0.003970621153712273,0.001679878099821508,1.2654063701629639
1750927199606843400,10.196843505859375,-0.01435532234609127,0.02611446939408779,1.6392556428909302
1750927199625667800,10.215667724609375,-0.054672397673130035,0.034666575491428375,1.9312490224838257
1750927199644492000,10.234491943359375,-0.11209368705749512,0.013897174037992954,2.0607523918151855
1750927199663316500,10.25331640625,-0.1328630894422531,-0.006872228812426329,2.165821075439453
1750927199682140700,10.272140625,-0.16340632736682892,0.005345067009329796,2.257450819015503
1750927199700965000,10.290965087890624,-0.1695149689912796,0.011453714221715927,2.252563953399658
1750927199719789300,10.309789306640624,-0.1585194170475006,0.07254019379615784,2.196364402770996
1750927199738613500,10.328613525390624,-0.15607595443725586,0.10430516302585602,2.1279475688934326
1750927199757438000,10.34743798828125,-0.1805105358362198,0.08720094710588455,2.061974048614502
1750927199776262100,10.36626220703125,-0.2098320573568344,0.04199695214629173,2.0583088397979736
1750927199795086600,10.385086669921876,-0.2257145345211029,0.06887500733137131,2.033874273300171
1750927199813910800,10.403910888671875,-0.23304490745067596,0.11285726726055145,1.9935572147369385
1750927199832735200,10.4227353515625,-0.23304490745067596,0.11285726726055145,1.9165881872177124
1750927199851559400,10.441559326171875,-0.21838416159152985,0.09208786487579346,1.8359540700912476
1750927199870383600,10.460383544921875,-0.15607595443725586,0.034666575491428375,1.7455461025238037
1750927199889208000,10.4792080078125,-0.129197895526886,-0.005650499369949102,1.6612467765808105
1750927199908032300,10.4980322265625,-0.10965022444725037,-0.014202605932950974,1.5781691074371338
1750927199926856700,10.516856689453125,-0.09498947113752365,0.005345067009329796,1.4731004238128662
1750927199945681000,10.535680908203124,-0.11453714966773987,0.03955349326133728,1.369253396987915
1750927199964505300,10.55450537109375,-0.13041962683200836,0.04199695214629173,1.302058219909668
1750927199983329500,10.57332958984375,-0.13775001466274261,0.0334448479115963,1.2678498029708862
1750927200002154000,10.592154052734376,-0.10842850059270859,0.06520981341600418,1.194546103477478
1750927200020978200,10.610978271484376,-0.05833758786320686,0.09453132748603821,1.0625993013381958
1750927200039802400,10.62980224609375,-0.005803215317428112,0.10063996911048889,0.9147700071334839
1750927200058626800,10.648626708984375,0.0015271619195118546,0.0847574844956398,0.7938187718391418
1750927200077451000,10.667450927734375,0.06994401663541794,-0.01908952370285988,0.6508764028549194
1750927200096275500,10.686275390625,0.1127045527100563,-0.08139773458242416,0.43463030457496643
1750927200115099600,10.705099609375,0.1383608728647232,-0.08750637620687485,0.11331541836261749
1750927200133924000,10.723924072265625,0.13469567894935608,-0.03375028073787689,-0.30085089802742004
1750927200152748300,10.742748291015625,0.09804379940032959,0.0102319847792387,-0.7406735420227051
1750927200171572500,10.761572509765625,0.06872228533029556,0.00045814859913662076,-1.1548398733139038
1750927200190397000,10.78039697265625,0.1029307171702385,-0.0154243353754282,-1.5531237125396729
1750927200209221000,10.79922119140625,0.1334739476442337,-0.004428769461810589,-1.8390084505081177
1750927200228045600,10.818045654296874,0.13469567894935608,0.022449281066656113,-2.054032802581787
1750927200246869800,10.836869873046876,0.14691297709941864,0.005345067009329796,-2.258061647415161
1750927200265694200,10.855694091796876,0.15790854394435883,-0.08384118974208832,-2.47308611869812
1750927200284518400,10.874518310546875,0.18356487154960632,-0.07773254066705704,-2.598924160003662
1750927200303342600,10.893342529296875,0.16035200655460358,-0.03375028073787689,-2.5378377437591553
1750927200322167000,10.9121669921875,0.14691297709941864,-0.052076224237680435,-2.286161422729492
1750927200340991200,10.9309912109375,0.1444695144891739,-0.07406735420227051,-1.9709552526474
1750927200359815700,10.949815673828125,0.189673513174057,-0.12660172581672668,-1.795026183128357
1750927200378640000,10.968639892578125,0.19333870708942413,-0.11438442766666412,-1.8255693912506104
1750927200397464300,10.98746435546875,0.11636973917484283,-0.05940660089254379,-1.969733476638794
1750927200416288500,11.00628857421875,0.04673115536570549,-0.0642935186624527,-1.9733986854553223
1750927200435112700,11.02511279296875,0.006414080038666725,-0.07651081681251526,-1.8915427923202515
1750927200453937200,11.043937255859374,0.03451386094093323,-0.08261945843696594,-1.8194607496261597
1750927200472761300,11.06276123046875,0.1029307171702385,-0.09361502528190613,-1.7767002582550049
1750927200491585800,11.081585693359376,0.1591302752494812,-0.09972367435693741,-1.7547091245651245
1750927200510410000,11.100409912109376,0.18723005056381226,-0.1204930767416954,-1.7095050811767578
1750927200529234200,11.119234130859375,0.1591302752494812,-0.0948367565870285,-1.6630793809890747
1750927200548058600,11.13805859375,0.14691297709941864,-0.08628465235233307,-1.599549412727356
1750927200566882800,11.1568828125,0.19089524447917938,-0.1156061589717865,-1.5140283107757568
1750927200585707300,11.175707275390625,0.22388194501399994,-0.11438442766666412,-1.3906337022781372
1750927200604531500,11.194531494140625,0.1737910360097885,-0.04841103404760361,-1.2122611999511719
1750927200623356000,11.21335595703125,0.06872228533029556,-0.011759147047996521,-1.0607666969299316
1750927200642180000,11.23218017578125,0.000305432389723137,0.009010255336761475,-0.9043853282928467
1750927200661004300,11.25100439453125,-0.0021380267571657896,0.02000582218170166,-0.7076868414878845
1750927200679828700,11.269828857421874,-0.004581485874950886,0.04810560122132301,-0.4718930423259735
1750927200698653000,11.28865283203125,0.014966187067329884,0.05299251899123192,-0.21899501979351044
1750927200717477400,11.307477294921876,0.01740964688360691,0.07620538026094437,0.09132428467273712
1750927200736301600,11.326301513671876,0.006414080038666725,0.0639880821108818,0.49082985520362854
1750927200755126000,11.3451259765625,0.0015271619195118546,0.04566214233636856,0.8732311725616455
1750927200773950200,11.3639501953125,-0.003359756199643016,0.016340631991624832,1.2189806699752808
1750927200792774400,11.3827744140625,-0.008246674202382565,-0.011759147047996521,1.5671736001968384
1750927200811598800,11.401598876953125,0.007635809946805239,-0.0642935186624527,1.9275838136672974
1750927200830423000,11.420423095703125,0.016187917441129684,-0.14248420298099518,2.2598941326141357
1750927200849247500,11.43924755859375,-0.09132428467273712,-0.1815795600414276,2.5470006465911865
1750927200868071700,11.45807177734375,-0.18417572975158691,-0.21578797698020935,2.7375905513763428
1750927200886896000,11.476896240234375,-0.19150610268115997,-0.1815795600414276,2.819446325302124
1750927200905720300,11.49572021484375,-0.14996729791164398,-0.12782345712184906,2.8182246685028076
1750927200924544500,11.51454443359375,-0.13164135813713074,-0.13393209874629974,2.8744242191314697
1750927200943369000,11.533368896484374,-0.16218459606170654,-0.14370593428611755,2.947727918624878
1750927200962193200,11.552193115234376,-0.18417572975158691,-0.14370593428611755,2.856098175048828
1750927200981017600,11.571017578125,-0.17562362551689148,-0.11438442766666412,2.589761257171631
1750927200999841800,11.589841796875,-0.15485422313213348,-0.06551524996757507,2.3209807872772217
1750927201018666200,11.608666259765625,-0.15729768574237823,-0.036193739622831345,2.142608165740967
1750927201037490400,11.627490478515625,-0.15607595443725586,-0.04108065739274025,2.0546436309814453
1750927201056314600,11.646314697265625,-0.13164135813713074,-0.04474584385752678,1.9275838136672974
1750927201075139000,11.66513916015625,-0.13041962683200836,-0.045967575162649155,1.7736458778381348
1750927201093963300,11.68396337890625,-0.11942406743764877,-0.03741546720266342,1.5867213010787964
1750927201112787700,11.70278759765625,-0.08765909820795059,0.006566796451807022,1.3765838146209717
1750927201131612000,11.72161181640625,-0.09865466505289078,0.017562363296747208,1.0625993013381958
1750927201150436400,11.740436279296874,-0.0717766135931015,0.018784092739224434,0.7877101302146912
1750927201169260500,11.759260498046874,-0.06811141967773438,0.01511890348047018,0.6472112536430359
1750927201188084700,11.778084716796876,-0.07910698652267456,0.024892739951610565,0.5800161361694336
1750927201206909200,11.7969091796875,-0.06566796451807022,0.05299251899123192,0.4871646761894226
1750927201235145500,11.8251455078125,-0.01435532234609127,0.001679878099821508,0.0925460159778595
1750927201253970000,11.843969970703125,0.018631376326084137,0.017562363296747208,-0.22266021370887756
1750927201272794000,11.862794189453124,0.014966187067329884,0.04810560122132301,-0.4535670876502991
1750927201291618600,11.88161865234375,0.024740023538470268,0.03588830679655075,-0.7015781998634338
1750927201310442800,11.90044287109375,0.04673115536570549,0.04932733252644539,-1.0473276376724243
1750927201329267000,11.919266845703126,0.04673115536570549,0.11652245372533798,-1.4395028352737427
1750927201348091400,11.93809130859375,0.022296564653515816,0.16539163887500763,-1.7730350494384766
1750927201366915600,11.95691552734375,0.016187917441129684,0.208152174949646,-2.0210461616516113
1750927201385740000,11.975739990234375,0.03817904740571976,0.13240493834018707,-2.2311835289001465
1750927201404564200,11.994564208984375,0.03695731982588768,0.15806126594543457,-2.3655738830566406
1750927201442212900,12.032212890625,0.08582650125026703,0.09453132748603821,-2.2568399906158447
1750927201461037000,12.051037109375,0.09193515032529831,0.09697478264570236,-2.1700971126556396
1750927201479861500,12.069861572265625,0.08582650125026703,0.11163553595542908,-2.1248931884765625
1750927201498685700,12.088685791015624,0.09926552325487137,0.08231402933597565,-2.104123830795288
1750927201517510100,12.10751025390625,0.11148282140493393,0.05543597787618637,-2.0418155193328857
1750927201536334300,12.126334228515624,0.0821613147854805,0.0383317656815052,-1.9110904932022095
1750927201555158800,12.14515869140625,0.09560033679008484,0.011453714221715927,-1.7779219150543213
1750927201573983000,12.16398291015625,0.10415244847536087,-0.006872228812426329,-1.6581923961639404
1750927201592807200,12.18280712890625,0.0821613147854805,0.02367101050913334,-1.6264275312423706
1750927201611631600,12.201631591796875,0.0821613147854805,0.031001387163996696,-1.6410882472991943
1750927201630455800,12.220455810546875,0.06627883017063141,0.034666575491428375,-1.617875337600708
1750927201649280300,12.2392802734375,0.029626941308379173,0.013897174037992954,-1.5079196691513062
1750927201668104400,12.2581044921875,0.022296564653515816,-0.014202605932950974,-1.3808598518371582
1750927201686929000,12.276928955078125,0.03940077871084213,-0.011759147047996521,-1.3185516595840454
1750927201705753000,12.295753173828125,0.05283980444073677,0.00045814859913662076,-1.278234601020813
1750927201724577300,12.314577392578125,0.05406153202056885,0.03222311660647392,-1.2061525583267212
1750927201743401700,12.333401611328124,0.057726722210645676,0.016340631991624832,-1.0375537872314453
1750927201762226000,12.352225830078124,0.05528326332569122,0.012675444595515728,-0.8188642263412476
1750927201781050400,12.37105029296875,0.02718348242342472,0.005345067009329796,-0.619722306728363
1750927201799874600,12.38987451171875,0.0015271619195118546,-0.0019853105768561363,-0.49510589241981506
1750927201818698800,12.40869873046875,0.006414080038666725,0.012675444595515728,-0.37293294072151184
1750927201837523200,12.427523193359375,-0.004581485874950886,0.02611446939408779,-0.17867794632911682
1750927201856347400,12.446347412109375,-0.019242240116000175,0.022449281066656113,0.07788526266813278
1750927201875171800,12.465171875,-0.005803215317428112,0.001679878099821508,0.38209593296051025
1750927201893996000,12.48399609375,-0.011911863461136818,-0.0032070400193333626,0.6801979541778564
1750927201912820500,12.502820556640625,-0.005803215317428112,-0.04230238497257233,0.9502001404762268
1750927201931644700,12.521644775390625,-0.015577051788568497,-0.06551524996757507,1.2202024459838867
1750927201950468900,12.54046875,-0.03756818547844887,-0.06795870512723923,1.4669917821884155
1750927201969293300,12.559293212890625,-0.048563748598098755,-0.09361502528190613,1.6502511501312256
1750927201988117500,12.578117431640624,-0.054672397673130035,-0.11438442766666412,1.7919718027114868
1750927202006942000,12.59694189453125,-0.044898562133312225,-0.1302669197320938,1.8811581134796143
1750927202025766100,12.61576611328125,-0.044898562133312225,-0.12782345712184906,1.8921536207199097
1750927202044590600,12.634590576171876,-0.04245510324835777,-0.12660172581672668,1.87627112865448
1750927202063414800,12.653414794921876,-0.06933315098285675,-0.1156061589717865,1.8567235469818115
1750927202082239000,12.672239013671875,-0.11575887352228165,-0.10949750989675522,1.8616104125976562
1750927202101063400,12.6910634765625,-0.19394956529140472,-0.049632761627435684,1.8530583381652832
1750927202119887600,12.7098876953125,-0.2672533392906189,0.01511890348047018,1.796858787536621
1750927202138712000,12.728712158203125,-0.2721402645111084,0.02611446939408779,1.711337685585022
1750927202157536300,12.747536376953125,-0.14508038759231567,-0.02764163166284561,1.6954551935195923
1750927202176360700,12.766360595703125,-0.06933315098285675,-0.05451968312263489,1.7076724767684937
1750927202195185000,12.785184814453125,-0.09376774728298187,-0.06062832847237587,1.7174463272094727
1750927202214009000,12.804009033203124,-0.1328630894422531,-0.04230238497257233,1.6416990756988525
1750927202232833500,12.82283349609375,-0.1438586562871933,-0.009315688163042068,1.488982915878296
1750927202251657700,12.84165771484375,-0.129197895526886,-0.005650499369949102,1.3277145624160767
1750927202270482200,12.860482177734376,-0.11331541836261749,-0.02153298258781433,1.2177588939666748
1750927202289306400,12.879306396484376,-0.10231985151767731,-0.020311253145337105,1.1872156858444214
1750927202308130800,12.898130859375,-0.11209368705749512,-0.017867794260382652,1.1701115369796753
1750927202326955000,12.916955078125,-0.10231985151767731,-0.023976443335413933,1.1615593433380127
1750927202345779200,12.935779296875,-0.06444623321294785,-0.06795870512723923,1.1420117616653442
1750927202364603600,12.954603759765625,-0.015577051788568497,-0.11194097250699997,1.0516036748886108
1750927202383427800,12.973427734375,0.022296564653515816,-0.11194097250699997,0.8866702318191528
1750927202402252300,12.992252197265625,0.008857538923621178,-0.08750637620687485,0.7730493545532227
1750927202421076500,13.011076416015625,0.000305432389723137,-0.052076224237680435,0.7363975048065186
1750927202439900700,13.029900634765625,0.018631376326084137,-0.028863361105322838,0.6899717450141907
1750927202458725000,13.04872509765625,-0.0021380267571657896,-0.03741546720266342,0.592233419418335
1750927202477549300,13.06754931640625,-0.021685699000954628,-0.045967575162649155,0.448069304227829
1750927202496373800,13.086373779296874,-0.01802051067352295,-0.028863361105322838,0.27091851830482483
1750927202515198000,13.105197998046876,-0.04001164436340332,0.005345067009329796,0.003359756199643016
1750927202534022100,13.124022216796876,-0.019242240116000175,0.056657709181308746,-0.34727662801742554
1750927202552846600,13.1428466796875,0.0015271619195118546,0.08231402933597565,-0.7174606919288635
1750927202571670800,13.1616708984375,-0.021685699000954628,0.0896444097161293,-1.036332130432129
1750927202590495200,13.1804951171875,-0.032681263983249664,0.11163553595542908,-1.2977821826934814
1750927202609319400,13.1993193359375,-0.029016077518463135,0.14340050518512726,-1.6215405464172363
1750927202628143900,13.218143798828125,-0.03145953640341759,0.18982623517513275,-1.980729103088379
1750927202646968000,13.236968017578125,0.016187917441129684,0.18005239963531494,-2.2873830795288086
1750927202665792300,13.255792236328125,0.06261363625526428,0.0798705667257309,-2.4413211345672607
1750927202684616700,13.27461669921875,0.08582650125026703,0.06643154472112656,-2.4804165363311768
1750927202703441000,13.29344091796875,0.0565049909055233,0.09086613357067108,-2.416886568069458
1750927202722265300,13.312265380859374,0.003970621153712273,0.08597921580076218,-2.286161422729492
1750927202741089500,13.331089599609374,-0.04734202101826668,0.10797034949064255,-2.17620587348938
1750927202759914000,13.3499140625,-0.08521563559770584,0.14462223649024963,-2.15421462059021
1750927202778738200,13.36873828125,-0.04367683082818985,0.15561780333518982,-2.1163411140441895
1750927202797562400,13.387562255859375,-0.016798781231045723,0.12018764764070511,-1.941633701324463
1750927202816386800,13.40638671875,0.011300998739898205,0.07131846249103546,-1.7266093492507935
1750927202835211000,13.4252109375,0.0821613147854805,0.024892739951610565,-1.5958842039108276
1750927202854035500,13.444035400390625,0.12736530601978302,-0.0019853105768561363,-1.5751148462295532
1750927202872859600,13.462859619140625,0.14080433547496796,-0.02519817277789116,-1.5555671453475952
1750927202891684000,13.48168408203125,0.13469567894935608,-0.04230238497257233,-1.4749330282211304
1750927202910508300,13.50050830078125,0.11392628401517868,-0.011759147047996521,-1.3295471668243408
1750927202929332500,13.51933251953125,0.06994401663541794,0.011453714221715927,-1.1548398733139038
1750927202948157000,13.538156982421874,0.06872228533029556,0.03222311660647392,-1.0021237134933472
1750927202966981000,13.556981201171874,0.06261363625526428,0.0102319847792387,-0.8775072693824768
1750927202985805600,13.5758056640625,0.03817904740571976,-0.022754713892936707,-0.8115338683128357
1750927203004629800,13.594629638671876,0.028405211865901947,-0.023976443335413933,-0.7516691088676453
1750927203023454200,13.6134541015625,0.029626941308379173,-0.01908952370285988,-0.6685914993286133
1750927203042278400,13.6322783203125,0.016187917441129684,0.005345067009329796,-0.48655378818511963
1750927203061102600,13.6511025390625,0.0015271619195118546,0.02977965772151947,-0.2409861534833908
1750927203079927000,13.669927001953125,-0.0021380267571657896,0.0102319847792387,0.021685699000954628
1750927203098751200,13.688751220703125,-0.008246674202382565,-0.008093958720564842,0.291687935590744
1750927203117575400,13.707575439453125,-0.007024944759905338,-0.03252854943275452,0.5653553605079651
1750927203136400000,13.72639990234375,0.010079269297420979,-0.052076224237680435,0.8182533979415894
1750927203155224300,13.745224365234375,0.0015271619195118546,-0.0691804364323616,1.0430516004562378
1750927203174048500,13.764048583984374,-0.035124726593494415,-0.0691804364323616,1.311832070350647
1750927203192872700,13.782872802734374,-0.06322450190782547,-0.0691804364323616,1.6258165836334229
1750927203211697200,13.801697265625,-0.060781046748161316,-0.07284562289714813,1.857945203781128
1750927203230521300,13.820521240234376,-0.0412333719432354,-0.09728021919727325,1.9190317392349243
1750927203249345500,13.839345458984376,-0.0204639695584774,-0.10461059212684631,1.8726060390472412
1750927203268170000,13.858169921875,-0.003359756199643016,-0.1107192412018776,1.8359540700912476
1750927203286994200,13.876994140625,-0.022907428443431854,-0.055741410702466965,1.7846415042877197
1750927203305818600,13.895818603515625,-0.0766635313630104,0.011453714221715927,1.7565417289733887
1750927203324642800,13.914642822265625,-0.1389717310667038,0.09208786487579346,1.7369940280914307
1750927203343467300,13.93346728515625,-0.15118902921676636,0.145843967795372,1.6893465518951416
1750927203362291500,13.95229150390625,-0.1230892539024353,0.13240493834018707,1.6392556428909302
1750927203381115600,13.97111572265625,-0.08277218043804169,-0.02519817277789116,1.6245949268341064
1750927203399940000,13.989940185546875,-0.09498947113752365,-0.1107192412018776,1.721111536026001
1750927203418764300,14.008764404296874,-0.14752385020256042,-0.07284562289714813,1.886044979095459
1750927203437588700,14.027588623046874,-0.18661919236183167,-0.06673697382211685,1.9764529466629028
1750927203456413000,14.046412841796876,-0.129197895526886,-0.05329795181751251,1.9190317392349243
1750927203475237400,14.0652373046875,-0.04734202101826668,-0.09728021919727325,1.7540981769561768
1750927203494061600,14.0840615234375,-0.029016077518463135,-0.07651081681251526,1.5048654079437256
1750927203512885800,14.1028857421875,-0.032681263983249664,-0.0386371985077858,1.2470804452896118
1750927203531710200,14.121710205078125,-0.0412333719432354,-0.036193739622831345,1.0735948085784912
1750927203550534400,14.140534423828125,-0.0412333719432354,-0.0850629210472107,1.0625993013381958
1750927203569358800,14.15935888671875,-0.0461202897131443,-0.1363755613565445,1.138346552848816
1750927203588183000,14.17818310546875,-0.05955931544303894,-0.12415826320648193,1.1676679849624634
1750927203607007500,14.197007568359375,-0.0668896958231926,-0.08628465235233307,1.1139118671417236
1750927203625831700,14.215831787109375,-0.04978547990322113,-0.06307178735733032,1.0247256755828857
1750927203644655900,14.23465576171875,-0.01435532234609127,-0.06795870512723923,0.9685261249542236
1750927203663480300,14.253480224609374,-0.013133592903614044,-0.07528908550739288,0.9880737662315369
1750927203682304500,14.272304443359374,-0.025350889191031456,-0.07895427197217941,1.0503820180892944
1750927203701128700,14.291128662109376,-0.02779434807598591,-0.08017600327730179,1.0357211828231812
1750927203719953200,14.309953125,-0.04001164436340332,-0.04718930274248123,0.8903354406356812
1750927203738777600,14.328777587890626,-0.02412915788590908,-0.0019853105768561363,0.6704241037368774
1750927203757601800,14.347601806640625,0.03940077871084213,-0.02519817277789116,0.4175260663032532
1750927203776426000,14.366426025390625,0.09071341902017593,-0.05329795181751251,0.09865466505289078
1750927203795250400,14.38525048828125,0.11881320178508759,-0.009315688163042068,-0.32039856910705566
1750927203814074600,14.40407470703125,0.09560033679008484,0.07376192510128021,-0.7919861674308777
1750927203832898800,14.42289892578125,0.06994401663541794,0.12751802802085876,-1.2635737657546997
1750927203851723300,14.44172314453125,0.02718348242342472,0.11407899856567383,-1.7192789316177368
1750927203870547500,14.46054736328125,-0.029016077518463135,0.13973531126976013,-2.1138975620269775
1750927203889372000,14.479371826171874,-0.09010255336761475,0.20693044364452362,-2.388786792755127
1750927203908196000,14.498196044921874,-0.1438586562871933,0.24480405449867249,-2.525620460510254
1750927203927020500,14.5170205078125,-0.12553271651268005,0.125074565410614,-2.5476114749908447
1750927203945844700,14.5358447265625,-0.05100720748305321,0.08109229803085327,-2.5109596252441406
1750927203964669000,14.5546689453125,-0.008246674202382565,0.15073087811470032,-2.477972984313965
1750927203983493400,14.573493408203126,-0.0021380267571657896,0.13851359486579895,-2.4938554763793945
1750927204002317600,14.592317626953125,0.025961752980947495,0.1824958473443985,-2.4987423419952393
1750927204021142000,14.61114208984375,0.02718348242342472,0.16050471365451813,-2.4156646728515625
1750927204039966200,14.62996630859375,0.018631376326084137,0.14828743040561676,-2.284939765930176
1750927204058790700,14.648790771484375,0.02107483521103859,0.12996147572994232,-2.2372922897338867
1750927204077614800,14.66761474609375,0.023518294095993042,0.125074565410614,-2.2421791553497314
1750927204096439000,14.68643896484375,0.022296564653515816,0.15806126594543457,-2.182314395904541
1750927204115263500,14.705263427734375,0.04062250629067421,0.10308343172073364,-2.030819892883301
1750927204134087700,14.724087646484374,0.03817904740571976,0.0798705667257309,-1.8573343753814697
1750927204152912100,14.742912109375,0.007635809946805239,0.046883873641490936,-1.7229441404342651
1750927204171736300,14.761736328125,-0.003359756199643016,0.04199695214629173,-1.666744589805603
1750927204190560800,14.780560791015626,0.003970621153712273,0.011453714221715927,-1.571449637413025
1750927204209385000,14.799385009765626,0.008857538923621178,0.012675444595515728,-1.3979640007019043
1750927204228209200,14.818209228515625,0.016187917441129684,-0.028863361105322838,-1.2159262895584106
1750927204247033600,14.83703369140625,0.022296564653515816,-0.02764163166284561,-1.0216712951660156
1750927204265857800,14.85585791015625,0.006414080038666725,0.004123337101191282,-0.7712168097496033
1750927204284682000,14.874681884765625,-0.00946840364485979,-0.023976443335413933,-0.5170970559120178
1750927204303506400,14.89350634765625,-0.019242240116000175,-0.039858926087617874,-0.2910770773887634
1750927204322330600,14.91233056640625,-0.022907428443431854,-0.0154243353754282,0.010690134018659592
1750927204341155000,14.931155029296875,-0.03634645417332649,-0.0154243353754282,0.3992001414299011
1750927204359979300,14.949979248046875,-0.03145953640341759,-0.0435241162776947,0.7583886384963989
1750927204378803700,14.9688037109375,-0.010690134018659592,-0.06795870512723923,1.1065815687179565
1750927204397628000,14.9876279296875,-0.015577051788568497,-0.08750637620687485,1.407127022743225
1750927204416452000,15.0064521484375,-0.011911863461136818,-0.10705405473709106,1.6893465518951416
1750927204435276500,15.025276611328126,0.007635809946805239,-0.10949750989675522,1.9031492471694946
1750927204454100700,15.044100830078126,0.018631376326084137,-0.09850194305181503,2.039983034133911
1750927204472925200,15.06292529296875,0.016187917441129684,-0.08750637620687485,2.1169519424438477
1750927204491749400,15.081749267578125,-0.005803215317428112,-0.07162389904260635,2.201251268386841
1750927204510573800,15.10057373046875,-0.00946840364485979,-0.09117157012224197,2.2647812366485596
1750927204529398000,15.11939794921875,-0.01802051067352295,-0.08261945843696594,2.313650369644165
1750927204548222200,15.13822216796875,-0.019242240116000175,-0.016646064817905426,2.2843289375305176
1750927204567046700,15.157046630859375,-0.04734202101826668,-0.0032070400193333626,2.1536037921905518
1750927204585870800,15.175870849609375,-0.08155044913291931,-0.012980876490473747,2.0302090644836426
1750927204604695300,15.1946953125,-0.07299833744764328,-0.0154243353754282,1.9483531713485718
1750927204623519500,15.21351953125,-0.06566796451807022,-0.02153298258781433,1.8726060390472412
1750927204642344000,15.232343994140624,-0.05589412897825241,-0.016646064817905426,1.7321070432662964
1750927204661168000,15.251168212890626,-0.05833758786320686,-0.005650499369949102,1.562286615371704
1750927204679992300,15.269992431640626,-0.10720676928758621,0.009010255336761475,1.4633265733718872
1750927204698816800,15.288816650390626,-0.14630211889743805,0.0334448479115963,1.4584397077560425
1750927204717641000,15.307640869140625,-0.12186752259731293,0.016340631991624832,1.4816524982452393
1750927204736465400,15.32646533203125,-0.0766635313630104,-0.017867794260382652,1.5219695568084717
1750927204755289600,15.34528955078125,-0.048563748598098755,-0.02153298258781433,1.534186840057373
1750927204774114000,15.364114013671875,-0.0412333719432354,-0.0007635809597559273,1.4425572156906128
1750927204792938200,15.382938232421875,-0.025350889191031456,-0.005650499369949102,1.3179407119750977
1750927204811762400,15.401762451171875,-0.03390299528837204,-0.03741546720266342,1.2373065948486328
1750927204830587000,15.4205869140625,-0.022907428443431854,-0.05329795181751251,1.2079850435256958
1750927204849411000,15.4394111328125,-0.032681263983249664,-0.04841103404760361,1.1517854928970337
1750927204868235300,15.4582353515625,-0.09132428467273712,-0.030085090547800064,1.028390884399414
1750927204887059700,15.477059814453124,-0.13775001466274261,0.07009673118591309,0.8549052476882935
1750927204905884000,15.4958837890625,-0.1389717310667038,0.145843967795372,0.527481734752655
1750927204924708400,15.514708251953126,-0.09376774728298187,0.1262962967157364,0.04978547990322113
1750927204943532500,15.533532470703125,-0.013133592903614044,0.12018764764070511,-0.44379326701164246
1750927204962357000,15.55235693359375,0.03451386094093323,0.09086613357067108,-0.906828761100769
1750927204981181200,15.57118115234375,0.05283980444073677,0.08842267841100693,-1.3197733163833618
1750927205000005400,15.59000537109375,0.016187917441129684,0.12140937149524689,-1.704618215560913
1750927205018829800,15.608829833984375,-0.0766635313630104,0.1776089370250702,-2.0686936378479004
1750927205037654000,15.627654052734375,-0.1328630894422531,0.20204351842403412,-2.3594651222229004
1750927205056478500,15.646478515625,-0.10354158282279968,0.06765327602624893,-2.431547164916992
1750927205075302700,15.665302734375,-0.026572618633508682,0.03955349326133728,-2.394895315170288
1750927205094127000,15.684127197265624,0.032070402055978775,0.0591011680662632,-2.3350305557250977
1750927205112951300,15.702951416015624,0.06627883017063141,0.0798705667257309,-2.327700138092041
1750927205131775500,15.721775390625,0.11148282140493393,0.07742711156606674,-2.3594651222229004
1750927205150600000,15.740599853515626,0.13469567894935608,0.03588830679655075,-2.3350305557250977
1750927205169424100,15.759424072265626,0.10903936624526978,0.017562363296747208,-2.1920883655548096
1750927205188248600,15.77824853515625,0.03695731982588768,0.07009673118591309,-1.9819507598876953
1750927205207072800,15.79707275390625,-0.03390299528837204,0.12996147572994232,-1.793804407119751
1750927205225897200,15.815897216796875,-0.05833758786320686,0.16294817626476288,-1.7253875732421875
1750927205244721400,15.834721435546875,-0.029016077518463135,0.13729186356067657,-1.7901391983032227
1750927205263545600,15.853545654296875,-0.011911863461136818,0.08231402933597565,-1.8475605249404907
1750927205282370000,15.8723701171875,0.006414080038666725,0.044440411031246185,-1.8341214656829834
1750927205301194200,15.8911943359375,0.02107483521103859,0.06887500733137131,-1.823125958442688
1750927205320018700,15.910018798828125,-0.007024944759905338,0.08353576064109802,-1.7999130487442017
1750927205338843000,15.9288427734375,-0.03145953640341759,0.07376192510128021,-1.7266093492507935
1750927205357667300,15.947667236328124,-0.026572618633508682,0.09697478264570236,-1.5848886966705322
1750927205376491500,15.966491455078126,-0.06200277432799339,0.15439607203006744,-1.385746717453003
1750927205395315700,15.985315673828126,-0.1487455666065216,0.1311832070350647,-1.2537999153137207
1750927205414140200,16.00414013671875,-0.14508038759231567,0.09697478264570236,-1.0558797121047974
1750927205432964400,16.02296435546875,-0.08155044913291931,0.145843967795372,-0.6856957077980042
1750927205451788800,16.041788818359375,-0.13530655205249786,0.1104138121008873,-0.4535670876502991
1750927205470613000,16.060613037109373,-0.18661919236183167,0.125074565410614,-0.14202606678009033
1750927205489437200,16.079437255859375,-0.19761475920677185,0.0896444097161293,0.1389717310667038
1750927205508261600,16.09826171875,-0.10109812021255493,0.0334448479115963,0.34788748621940613
1750927205527085800,16.1170859375,0.0821613147854805,-0.06062832847237587,0.5787943601608276
1750927205545910300,16.13591015625,0.20311254262924194,-0.1204930767416954,0.9221003651618958
1750927205564734500,16.154734375,0.25320345163345337,-0.15836669504642487,1.3069452047348022
1750927205583558700,16.17355859375,0.26419901847839355,-0.20357069373130798,1.4963133335113525
1750927205602383000,16.192383056640626,0.2617555558681488,-0.24266603589057922,1.6502511501312256
1750927205621207300,16.211207275390624,0.1737910360097885,-0.17058399319648743,1.8493931293487549
1750927205640031700,16.23003173828125,0.0308486707508564,-0.18890993297100067,2.031430721282959
1750927205658856000,16.24885595703125,-0.04001164436340332,-0.20357069373130798,2.1242823600769043
1750927205677680400,16.267680419921874,-0.004581485874950886,-0.18035782873630524,2.0937390327453613
1750927205696504600,16.286504638671875,0.023518294095993042,-0.21456626057624817,2.0803000926971436
1750927205715328800,16.305328857421873,-0.044898562133312225,-0.20357069373130798,2.1670427322387695
1750927205734153200,16.3241533203125,-0.06566796451807022,-0.23167046904563904,2.154825448989868
1750927205752977400,16.342977294921877,0.010079269297420979,-0.21090106666088104,1.9288055896759033
1750927205771801900,16.3618017578125,0.07605266571044922,-0.21456626057624817,1.5402956008911133
1750927205790626000,16.3806259765625,0.09071341902017593,-0.16325360536575317,1.3179407119750977
1750927205809450500,16.399450439453126,0.035735588520765305,-0.15347976982593536,1.3570361137390137
1750927205828274700,16.418274658203124,-0.0009162971982732415,-0.15470150113105774,1.5977168083190918
1750927205847099000,16.437098876953126,-0.09010255336761475,-0.16447533667087555,1.8237367868423462
1750927205865923300,16.45592333984375,-0.1585194170475006,-0.1766926348209381,1.9825615882873535
1750927205884747500,16.47474755859375,-0.11331541836261749,-0.18280129134655,2.1059563159942627
1750927205903572000,16.493572021484376,0.0015271619195118546,-0.19868376851081848,2.115730047225952
1750927205922396200,16.512396240234374,0.11759147047996521,-0.20601414144039154,1.9874485731124878
1750927205941220600,16.531220703125,0.14569124579429626,-0.17058399319648743,1.8127412796020508
1750927205960044800,16.550044921875,0.18723005056381226,-0.11804962158203125,1.663690209388733
1750927205978869000,16.568868896484375,0.21899501979351044,-0.11438442766666412,1.546404242515564
1750927205997693400,16.587693359375,0.17256930470466614,-0.17913609743118286,1.2910627126693726
1750927206016517600,16.606517578125,0.1334739476442337,-0.1571449637413025,0.8915571570396423
1750927206035342000,16.625342041015625,0.14813470840454102,-0.06673697382211685,0.4468475878238678
1750927206054166300,16.644166259765626,0.17745621502399445,-0.011759147047996521,0.03634645417332649
1750927206072990700,16.66299072265625,0.17256930470466614,0.02611446939408779,-0.31062474846839905
1750927206091815000,16.68181494140625,0.12492185086011887,0.0896444097161293,-0.664926290512085
1750927206110639000,16.70063916015625,0.07605266571044922,0.13362666964530945,-1.083979606628418
1750927206129463600,16.719463623046874,0.0870482325553894,0.17394374310970306,-1.4651591777801514
1750927206148287700,16.738287841796875,0.09437860548496246,0.22647811472415924,-1.7376048564910889
1750927206167112000,16.75711181640625,0.0565049909055233,0.2240346521139145,-1.8487823009490967
1750927206185936400,16.775936279296875,0.018631376326084137,0.15317434072494507,-1.9306381940841675
1750927206204760600,16.794760498046877,0.0308486707508564,0.14217877388000488,-2.043037176132202
1750927206223585000,16.8135849609375,0.018631376326084137,0.09697478264570236,-2.07846736907959
1750927206242409200,16.8324091796875,0.0015271619195118546,0.06887500733137131,-2.073580503463745
1750927206261233700,16.851233642578126,0.061391908675432205,0.11285726726055145,-2.054032802581787
1750927206280057900,16.870057861328124,0.06261363625526428,0.11407899856567383,-2.051589250564575
1750927206298882000,16.888882080078126,0.03451386094093323,0.1153007298707962,-2.109010696411133
1750927206317706500,16.90770654296875,0.014966187067329884,0.1153007298707962,-2.1358888149261475
1750927206336530700,16.92653076171875,-0.003359756199643016,0.11896591633558273,-2.069915294647217
1750927206355355100,16.945355224609376,-0.06566796451807022,0.1153007298707962,-1.9452989101409912
1750927206374179300,16.964179443359374,-0.09865466505289078,0.10063996911048889,-1.8805471658706665
1750927206393003800,16.983003662109375,-0.060781046748161316,0.07864884287118912,-1.8866559267044067
1750927206411828000,17.001827880859373,0.012522728182375431,0.04810560122132301,-1.8829907178878784
1750927206449476600,17.0394765625,0.10170898586511612,0.021227551624178886,-1.7376048564910889
1750927206468300800,17.05830078125,0.09071341902017593,-0.011759147047996521,-1.6239839792251587
1750927206487125200,17.077125244140625,0.04550942778587341,-0.02519817277789116,-1.5115848779678345
1750927206505949400,17.095949462890626,-0.01435532234609127,0.002901607658714056,-1.481041669845581
1750927206524774000,17.11477392578125,-0.03634645417332649,0.021227551624178886,-1.5213587284088135
1750927206543598000,17.13359814453125,-0.011911863461136818,-0.08017600327730179,-1.4847068786621094
1750927206562422300,17.15242236328125,0.014966187067329884,-0.10705405473709106,-1.2366957664489746
1750927206581246700,17.171246826171874,0.029626941308379173,-0.03252854943275452,-0.9837977290153503
1750927206600071000,17.19007080078125,0.04917461425065994,-0.010537417605519295,-0.8347467184066772
1750927206618895400,17.208895263671874,-0.015577051788568497,0.005345067009329796,-0.6172788739204407
1750927206637719600,17.227719482421875,-0.06200277432799339,0.040775224566459656,-0.272751122713089
1750927206656544000,17.2465439453125,-0.0668896958231926,0.0591011680662632,0.1805105358362198
1750927206675368200,17.2653681640625,-0.0668896958231926,0.005345067009329796,0.5946768522262573
1750927206694192400,17.2841923828125,-0.0461202897131443,-0.028863361105322838,0.961195707321167
1750927206713016800,17.303016845703127,-0.02412915788590908,-0.061850059777498245,1.2299761772155762
1750927206731841000,17.321841064453125,0.06261363625526428,-0.12904518842697144,1.387579321861267
1750927206750665200,17.340665283203126,0.08093958348035812,-0.15347976982593536,1.572060465812683
1750927206769489700,17.35948974609375,0.022296564653515816,-0.09361502528190613,1.8237367868423462
1750927206788313900,17.37831396484375,-0.016798781231045723,-0.036193739622831345,1.9960006475448608
1750927206807138300,17.39713818359375,-0.022907428443431854,0.04199695214629173,1.9776747226715088
1750927206825962500,17.41596240234375,-0.03634645417332649,0.0896444097161293,1.8298454284667969
1750927206844787000,17.434786865234376,-0.05955931544303894,0.12263110280036926,1.702785611152649
1750927206863611100,17.453611083984374,-0.08032871782779694,0.11652245372533798,1.6710206270217896
1750927206882435300,17.472435302734375,-0.09376774728298187,0.05787943676114082,1.749211311340332
1750927206901259800,17.491259765625,-0.1487455666065216,0.05787943676114082,1.9214751720428467
1750927206920084000,17.510083984375,-0.14019346237182617,0.08109229803085327,2.042426347732544
1750927206938908400,17.528908447265625,-0.044898562133312225,0.08842267841100693,1.9703443050384521
1750927206957732600,17.547732666015627,0.04306596517562866,0.10797034949064255,1.682016134262085
1750927206976557000,17.56655712890625,0.025961752980947495,0.18005239963531494,1.4462224245071411
1750927206995381200,17.58538134765625,0.003970621153712273,0.14950916171073914,1.369253396987915
1750927207014205400,17.604205322265624,0.013744457624852657,0.046883873641490936,1.3961313962936401
1750927207033030000,17.62302978515625,-0.008246674202382565,-0.02764163166284561,1.526856541633606
1750927207051854000,17.64185400390625,-0.05345066636800766,-0.10338886082172394,1.6404774188995361
1750927207070678500,17.660678466796874,-0.04734202101826668,-0.13759729266166687,1.6991204023361206
1750927207089502700,17.679502685546876,0.0015271619195118546,-0.12904518842697144,1.6978986263275146
1750927207108327000,17.698326904296874,0.01740964688360691,-0.13271036744117737,1.6465860605239868
1750927207127151400,17.7171513671875,0.012522728182375431,-0.14370593428611755,1.6795727014541626
1750927207145975600,17.7359755859375,0.006414080038666725,-0.1571449637413025,1.7150028944015503
1750927207164800000,17.754800048828123,0.06261363625526428,-0.1718057245016098,1.5916081666946411
1750927207183624200,17.773624267578125,0.11759147047996521,-0.17302745580673218,1.408348798751831
1750927207202448400,17.792448486328126,0.09437860548496246,-0.16447533667087555,1.3057234287261963
1750927207221272800,17.81127294921875,0.025961752980947495,-0.09239330142736435,1.3069452047348022
1750927207240097000,17.830096923828126,-0.03023780696094036,0.03222311660647392,1.2947279214859009
1750927207258921200,17.848921142578124,-0.06566796451807022,0.06154462695121765,1.1627811193466187
1750927207277745700,17.86774560546875,-0.026572618633508682,0.04199695214629173,0.9147700071334839
1750927207296569900,17.88656982421875,0.04550942778587341,0.050549060106277466,0.4822777509689331
1750927207315394300,17.905394287109374,0.08949168771505356,0.0639880821108818,-0.06872228533029556
1750927207334218500,17.924218505859375,0.12247838824987411,0.125074565410614,-0.6832522749900818
1750927207353042700,17.943042724609374,0.12370011955499649,0.14706569910049438,-1.2537999153137207
1750927207371867100,17.9618671875,0.06261363625526428,0.21670427918434143,-1.7583742141723633
1750927207390691300,17.98069140625,-0.07910698652267456,0.2900080680847168,-2.258061647415161
1750927207409515800,17.999515869140627,-0.14996729791164398,0.29733842611312866,-2.6893322467803955
1750927207428340000,18.018340087890625,-0.06444623321294785,0.10919208079576492,-2.8933610916137695
1750927207447164200,18.0371640625,0.04306596517562866,-0.011759147047996521,-2.8212790489196777
1750927207465988600,18.055988525390624,0.051618073135614395,0.006566796451807022,-2.660010576248169
1750927207484812800,18.074812744140626,0.02718348242342472,-0.005650499369949102,-2.5720460414886475
1750927207503637200,18.09363720703125,0.04062250629067421,0.03222311660647392,-2.5195116996765137
1750927207522461400,18.11246142578125,0.08826996386051178,0.046883873641490936,-2.5024075508117676
1750927207541285600,18.13128564453125,0.12003492563962936,0.09697478264570236,-2.509737968444824
1750927207560110000,18.150110107421874,0.07971785217523575,0.11407899856567383,-2.444986343383789
1750927207578934300,18.168934326171875,0.0565049909055233,0.06887500733137131,-2.271500587463379
1750927207597758700,18.1877587890625,0.07849612087011337,-0.03375028073787689,-2.069915294647217
1750927207616583000,18.2065830078125,0.06994401663541794,-0.06673697382211685,-1.941633701324463
1750927207635407400,18.225407470703125,0.061391908675432205,-0.023976443335413933,-1.8561125993728638
1750927207654231600,18.2442314453125,0.057726722210645676,-0.022754713892936707,-1.8084651231765747
1750927207673055700,18.2630556640625,0.05528326332569122,0.031001387163996696,-1.7473787069320679
1750927207701292300,18.291292236328125,0.11148282140493393,0.0591011680662632,-1.6300926208496094
1750927207720116500,18.310116455078123,0.13958260416984558,-0.011759147047996521,-1.4871503114700317
1750927207738941000,18.32894091796875,0.12492185086011887,-0.052076224237680435,-1.3515383005142212
1750927207757765000,18.34776513671875,0.04550942778587341,-0.0386371985077858,-1.2806780338287354
1750927207776589600,18.366589599609377,0.0015271619195118546,0.006566796451807022,-1.1902700662612915
1750927207795413800,18.385413818359375,0.02107483521103859,0.013897174037992954,-1.0277799367904663
1750927207814238200,18.40423828125,0.02718348242342472,0.022449281066656113,-0.7980948090553284
1750927207833062400,18.4230625,0.01740964688360691,0.04810560122132301,-0.4816668927669525
1750927207851886600,18.441886474609376,0.025961752980947495,0.05787943676114082,-0.12370011955499649
1750927207870711000,18.4607109375,0.007635809946805239,0.04199695214629173,0.2049451321363449
1750927207889535200,18.47953515625,0.006414080038666725,-0.0019853105768561363,0.4883863925933838
1750927207908359700,18.498359619140626,0.035735588520765305,-0.022754713892936707,0.7327322959899902
1750927207927184000,18.517183837890624,0.05894844979047775,-0.07284562289714813,0.9978476166725159
1750927207946008300,18.53600830078125,0.0565049909055233,-0.09728021919727325,1.302058219909668
1750927207964832500,18.55483251953125,0.04550942778587341,-0.09972367435693741,1.5769474506378174
1750927207983656700,18.57365673828125,0.03695731982588768,-0.11438442766666412,1.767537236213684
1750927208002481200,18.592481201171875,0.019853105768561363,-0.1461493968963623,1.8542799949645996
1750927208021305300,18.611305419921877,0.000305432389723137,-0.19379685819149017,1.9092578887939453
1750927208049542000,18.6395419921875,-0.022907428443431854,-0.14492766559123993,2.044869899749756
1750927208068366000,18.658365966796875,-0.01435532234609127,-0.09605848789215088,2.0741913318634033
1750927208087190500,18.6771904296875,-0.0412333719432354,-0.02764163166284561,2.0937390327453613
1750927208106014700,18.6960146484375,-0.08399390429258347,-0.02519817277789116,2.1499385833740234
1750927208124839000,18.7148388671875,-0.0766635313630104,-0.039858926087617874,2.1145083904266357
1750927208143663400,18.733663330078127,-0.026572618633508682,-0.005650499369949102,1.934914231300354
1750927208162487600,18.752487548828125,0.012522728182375431,-0.0154243353754282,1.701563835144043
1750927208181312000,18.77131201171875,0.03451386094093323,-0.0899498388171196,1.5867213010787964
1750927208200136200,18.79013623046875,0.047952886670827866,-0.14370593428611755,1.6160427331924438
1750927208218960400,18.80896044921875,0.013744457624852657,-0.06673697382211685,1.719889760017395
1750927208237784800,18.827784912109376,-0.035124726593494415,-0.0642935186624527,1.8408410549163818
1750927208256609000,18.846609130859374,-0.05589412897825241,-0.05696314200758934,1.8530583381652832
1750927208275433500,18.86543359375,-0.06933315098285675,-0.05451968312263489,1.6710206270217896
1750927208294257700,18.884257568359374,-0.07422006875276566,-0.026419902220368385,1.4217877388000488
1750927208313082000,18.90308203125,-0.10231985151767731,-0.05329795181751251,1.3240493535995483
1750927208331906300,18.92190625,-0.11453714966773987,-0.13393209874629974,1.3655881881713867
1750927208350730500,18.94073046875,-0.10476330667734146,-0.15470150113105774,1.4718786478042603
1750927208369555000,18.959554931640625,-0.06444623321294785,-0.14004075527191162,1.526856541633606
1750927208388379100,18.978379150390627,-0.0009162971982732415,-0.1314886510372162,1.4474440813064575
1750927208407203600,18.99720361328125,0.025961752980947495,-0.0850629210472107,1.331379771232605
1750927208426027800,19.01602783203125,-0.01802051067352295,-0.1107192412018776,1.2287545204162598
1750927208444852000,19.03485205078125,-0.0461202897131443,-0.13393209874629974,1.1982113122940063
1750927208463676400,19.053676513671874,-0.00946840364485979,-0.12171480804681778,1.165224552154541
1750927208482500600,19.07250048828125,0.041844237595796585,-0.06795870512723923,1.0063997507095337
1750927208501325000,19.091324951171874,0.08093958348035812,-0.030085090547800064,0.6496546864509583
1750927208520149200,19.110149169921876,0.12125665694475174,0.009010255336761475,0.10354158282279968
1750927208538973400,19.128973388671874,0.13469567894935608,0.07376192510128021,-0.4877755343914032
1750927208557798000,19.1477978515625,0.11759147047996521,0.12996147572994232,-0.9935715794563293
1750927208576622000,19.1666220703125,0.07116574794054031,0.17516547441482544,-1.441946268081665
1750927208595446500,19.185446533203127,-0.02779434807598591,0.22647811472415924,-1.8243476152420044
1750927208614270700,19.204270751953125,-0.06933315098285675,0.2386954128742218,-2.093128204345703
1750927208633095200,19.22309521484375,-0.038789913058280945,0.0896444097161293,-2.2592833042144775
1750927208651919400,19.24191943359375,-0.011911863461136818,0.13973531126976013,-2.3350305557250977
1750927208670743600,19.26074365234375,-0.05222893878817558,0.15806126594543457,-2.330143690109253
1750927208689568000,19.279568115234376,-0.09132428467273712,0.1519526094198227,-2.2446227073669434
1750927208708392200,19.29839208984375,-0.06322450190782547,0.13362666964530945,-2.1725406646728516
1750927208727216600,19.317216552734376,-0.015577051788568497,0.11163553595542908,-2.1700971126556396
1750927208746040800,19.336040771484374,0.01740964688360691,0.12873975932598114,-2.215301036834717
1750927208764865000,19.354864990234375,0.08582650125026703,0.0847574844956398,-2.2030837535858154
1750927208783689500,19.373689453125,0.10537417232990265,0.0591011680662632,-2.1688754558563232
1750927208802513700,19.392513671875,0.06383536756038666,0.08231402933597565,-2.1297800540924072
1750927208821338000,19.411338134765625,0.05283980444073677,0.07742711156606674,-2.058919668197632
1750927208840162300,19.430162353515627,0.10048725455999374,0.08353576064109802,-1.8964296579360962
1750927208858986800,19.44898681640625,0.10415244847536087,0.04810560122132301,-1.7168354988098145
1750927208877811000,19.46781103515625,0.07238747924566269,0.08597921580076218,-1.7791436910629272
1750927208896635100,19.48663525390625,0.024740023538470268,0.0798705667257309,-2.000276803970337
1750927208915459600,19.50545947265625,-0.09865466505289078,0.09453132748603821,-2.054032802581787
1750927208934283800,19.52428369140625,-0.17562362551689148,0.14828743040561676,-1.8744385242462158
1750927208953108200,19.543108154296874,-0.11942406743764877,0.1617264449596405,-1.608101487159729
1750927208971932400,19.561932373046876,-0.08888082206249237,0.13362666964530945,-1.4480549097061157
1750927208990756900,19.5807568359375,-0.05222893878817558,0.07620538026094437,-1.4785982370376587
1750927209009581000,19.5995810546875,-0.038789913058280945,0.01511890348047018,-1.481041669845581
1750927209028405200,19.6184052734375,-0.06566796451807022,0.002901607658714056,-1.3295471668243408
1750927209047229700,19.637229736328123,-0.0717766135931015,0.01511890348047018,-0.9569196701049805
1750927209066054000,19.656053955078125,-0.0412333719432354,0.02611446939408779,-0.4841103255748749
1750927209084878000,19.674878173828127,-0.04245510324835777,-0.0032070400193333626,-0.15302163362503052
1750927209103702500,19.69370263671875,-0.02779434807598591,-0.020311253145337105,-0.032070402055978775
1750927209122526700,19.712526611328126,0.04550942778587341,-0.0850629210472107,0.11087195575237274
1750927209141351200,19.73135107421875,0.07971785217523575,-0.10949750989675522,0.2965748608112335
1750927209160175400,19.75017529296875,0.07849612087011337,-0.09361502528190613,0.5775726437568665
1750927209178999800,19.768999755859376,0.04917461425065994,-0.07895427197217941,0.9831868410110474
1750927209197824000,19.787823974609374,0.022296564653515816,-0.06795870512723923,1.4486658573150635
1750927209216648200,19.806648193359376,0.022296564653515816,-0.049632761627435684,1.8371758460998535
1750927209235472600,19.82547265625,0.02107483521103859,-0.09972367435693741,1.9886702299118042
1750927209254296800,19.844296875,0.032070402055978775,-0.12293653935194016,1.9080361127853394
1750927209273121300,19.863121337890625,0.06872228533029556,-0.14737112820148468,1.8701624870300293
1750927209291945500,19.881945556640623,0.03817904740571976,-0.11682789027690887,2.0570871829986572
1750927209310770000,19.90077001953125,-0.04734202101826668,-0.061850059777498245,2.3515238761901855
1750927209329594000,19.919593994140627,-0.11087195575237274,-0.02764163166284561,2.5323400497436523
1750927209348418300,19.938418212890625,-0.08521563559770584,-0.05085449293255806,2.467588186264038
1750927209367242800,19.95724267578125,0.005192350596189499,-0.10461059212684631,2.237903118133545
1750927209386067000,19.97606689453125,0.0565049909055233,-0.13881902396678925,2.1132867336273193
1750927209404891400,19.994891357421874,0.014966187067329884,-0.13881902396678925,2.1279475688934326
1750927209423715600,20.013715576171876,-0.019242240116000175,-0.1107192412018776,2.1731514930725098
1750927209461364200,20.0513642578125,-0.03023780696094036,-0.11438442766666412,1.9911137819290161
1750927209480188400,20.0701884765625,0.005192350596189499,-0.11316270381212234,1.7993022203445435
1750927209499012900,20.089012939453124,0.007635809946805239,-0.14004075527191162,1.691789984703064
1750927209517837000,20.107837158203125,-0.022907428443431854,-0.15836669504642487,1.69301176071167
1750927209536661200,20.1266611328125,-0.05589412897825241,-0.15958842635154724,1.721111536026001
1750927209555485700,20.145485595703125,-0.04978547990322113,-0.14859285950660706,1.6588033437728882
1750927209574310000,20.164309814453127,0.005192350596189499,-0.14492766559123993,1.508530616760254
1750927209593134300,20.18313427734375,0.05528326332569122,-0.13881902396678925,1.3936879634857178
1750927209611958500,20.20195849609375,0.051618073135614395,-0.15347976982593536,1.387579321861267
1750927209630783000,20.220782958984376,0.032070402055978775,-0.15470150113105774,1.4242312908172607
1750927209649607200,20.239607177734374,-0.02412915788590908,-0.15958842635154724,1.4450006484985352
1750927209668431400,20.258431396484376,-0.05345066636800766,-0.13759729266166687,1.4156790971755981
1750927209687255800,20.277255859375,-0.03390299528837204,-0.11804962158203125,1.2947279214859009
1750927209706080000,20.296080078125,-0.02412915788590908,-0.11438442766666412,1.13712477684021
1750927209724904400,20.314904541015625,-0.03634645417332649,-0.1204930767416954,0.9514219164848328
1750927209743728600,20.333728759765624,-0.04734202101826668,-0.12171480804681778,0.7082977294921875
1750927209762553000,20.352552978515625,0.03695731982588768,-0.07284562289714813,0.35766133666038513
1750927209781377300,20.371377197265623,0.11759147047996521,-0.0032070400193333626,-0.061391908675432205
1750927209800201500,20.390201416015625,0.08826996386051178,0.04321868345141411,-0.476779967546463
1750927209819026000,20.40902587890625,0.05283980444073677,0.0639880821108818,-0.9178243279457092
1750927209837850000,20.42785009765625,0.010079269297420979,0.1311832070350647,-1.3356558084487915
1750927209856674600,20.446674560546874,-0.026572618633508682,0.18371757864952087,-1.6410882472991943
1750927209875498800,20.465498779296876,-0.044898562133312225,0.18860450387001038,-1.8011348247528076
1750927209894323000,20.484322998046874,-0.05222893878817558,0.1922696828842163,-1.8622212409973145
1750927209913147400,20.5031474609375,-0.04367683082818985,0.1776089370250702,-1.9184207916259766
1750927209931971600,20.5219716796875,-0.05345066636800766,0.1727220118045807,-1.9538509845733643
1750927209950796000,20.540796142578124,-0.07422006875276566,0.09819651395082474,-1.9587379693984985
1750927209969620200,20.5596201171875,-0.03756818547844887,0.06643154472112656,-2.034485101699829
1750927209988444700,20.578444580078123,0.012522728182375431,0.11407899856567383,-2.134666919708252
1750927210007268900,20.597268798828125,0.03451386094093323,0.12385283410549164,-2.193310022354126
1750927210026093000,20.616093017578127,0.04306596517562866,0.1519526094198227,-2.2006404399871826
1750927210044917500,20.63491748046875,0.0308486707508564,0.18371757864952087,-2.2067489624023438
1750927210063741700,20.65374169921875,-0.0009162971982732415,0.19349141418933868,-2.2287402153015137
1750927210082566100,20.672566162109376,-0.01435532234609127,0.2130390852689743,-2.2592833042144775
1750927210101390300,20.691390380859374,-0.0461202897131443,0.23991714417934418,-2.2702789306640625
1750927210120214500,20.710214599609376,-0.06566796451807022,0.2338084876537323,-2.212857723236084
1750927210139039000,20.7290390625,-0.007024944759905338,0.1715002804994583,-2.093128204345703
1750927210157863200,20.74786328125,0.008857538923621178,0.1311832070350647,-2.0124940872192383
1750927210176687600,20.7666875,0.016187917441129684,0.1104138121008873,-2.030819892883301
1750927210195511800,20.78551171875,0.057726722210645676,0.09453132748603821,-2.0186026096343994
1750927210214336000,20.8043359375,0.05039634555578232,0.08842267841100693,-1.9465205669403076
1750927210233160400,20.823160400390623,0.024740023538470268,0.09697478264570236,-1.7974696159362793
1750927210251984600,20.841984619140625,0.005192350596189499,0.08353576064109802,-1.638644814491272
1750927210270809000,20.86080908203125,-0.0204639695584774,0.07254019379615784,-1.472489595413208
1750927210289633300,20.87963330078125,-0.04001164436340332,0.04321868345141411,-1.3564252853393555
1750927210308457700,20.898457763671875,-0.029016077518463135,0.06276635825634003,-1.3417644500732422
1750927210327282000,20.917281982421876,-0.04978547990322113,0.05787943676114082,-1.2745693922042847
1750927210346106000,20.936106201171874,-0.07422006875276566,0.0334448479115963,-1.071762204170227
1750927210364930600,20.9549306640625,-0.02779434807598591,0.013897174037992954,-0.7345649003982544
1750927210383754800,20.973754638671874,-0.01435532234609127,0.028557928279042244,-0.3631591200828552
1750927210402579200,20.9925791015625,-0.0461202897131443,0.06154462695121765,-0.0308486707508564
1750927210421403400,21.0114033203125,-0.026572618633508682,0.05299251899123192,0.25992295145988464
1750927210440227800,21.030227783203124,0.035735588520765305,-0.012980876490473747,0.5555815100669861
1750927210459052000,21.049052001953125,0.05039634555578232,-0.0386371985077858,0.8524618148803711
1750927210477876200,21.067876220703123,0.05528326332569122,-0.07284562289714813,1.1432334184646606
1750927210496700700,21.08670068359375,0.04306596517562866,-0.07162389904260635,1.3863576650619507
1750927210515524900,21.10552490234375,0.03695731982588768,-0.061850059777498245,1.5146392583847046
1750927210534349300,21.124349365234377,0.041844237595796585,-0.07040216773748398,1.592829942703247
1750927210553173500,21.143173583984375,0.032070402055978775,-0.07162389904260635,1.6697988510131836
1750927210571998000,21.161998046875,0.005192350596189499,-0.061850059777498245,1.6771292686462402
1750927210590822100,21.180822265625,-0.04001164436340332,-0.0386371985077858,1.6392556428909302
1750927210609646300,21.199646240234376,-0.07544180005788803,-0.04841103404760361,1.6294817924499512
1750927210628470800,21.218470703125,-0.06933315098285675,-0.0850629210472107,1.702785611152649
1750927210647295000,21.237294921875,-0.05711585655808449,-0.05818486958742142,1.8432844877243042
1750927210666119200,21.256119140625,-0.05833758786320686,-0.05329795181751251,1.8701624870300293
1750927210684943600,21.274943603515624,-0.06200277432799339,-0.05329795181751251,1.8188499212265015
1750927210703767800,21.293767822265625,-0.06444623321294785,-0.03375028073787689,1.7858631610870361
1750927210722592300,21.31259228515625,-0.06444623321294785,-0.04718930274248123,1.8078542947769165
1750927210741416400,21.33141650390625,-0.05589412897825241,-0.06307178735733032,1.8897101879119873
1750927210760241000,21.350240966796875,-0.06933315098285675,-0.07284562289714813,1.925140380859375
1750927210779065000,21.369065185546877,-0.060781046748161316,-0.06673697382211685,1.8811581134796143
1750927210797889300,21.38788916015625,-0.03756818547844887,-0.07651081681251526,1.8225150108337402
1750927210816713700,21.406713623046876,-0.015577051788568497,-0.08872810751199722,1.8335106372833252
1750927210835538000,21.425537841796874,-0.010690134018659592,-0.1156061589717865,1.8836015462875366
1750927210854362400,21.4443623046875,-0.02412915788590908,-0.141262486577034,1.8652756214141846
1750927210873186600,21.4631865234375,-0.021685699000954628,-0.13759729266166687,1.702785611152649
1750927210892011000,21.482010986328124,-0.005803215317428112,-0.10949750989675522,1.426674723625183
1750927210910835200,21.500835205078126,0.024740023538470268,-0.09361502528190613,1.1297943592071533
1750927210929659400,21.519659423828124,0.029626941308379173,-0.08628465235233307,0.9013310074806213
1750927210948483800,21.53848388671875,-0.01802051067352295,-0.039858926087617874,0.6899717450141907
1750927210967308000,21.55730810546875,-0.048563748598098755,-0.009315688163042068,0.43829548358917236
1750927210986132500,21.576132568359377,-0.04734202101826668,0.004123337101191282,0.1805105358362198
1750927211004956700,21.594956787109375,-0.0461202897131443,0.005345067009329796,-0.06994401663541794
1750927211023780900,21.61378076171875,-0.04978547990322113,0.031001387163996696,-0.37293294072151184
1750927211042605300,21.632605224609375,-0.015577051788568497,0.0639880821108818,-0.6417134404182434
1750927211061429500,21.651429443359376,0.003970621153712273,0.06276635825634003,-0.7919861674308777
1750927211080254000,21.67025390625,-0.010690134018659592,0.040775224566459656,-0.8542944192886353
1750927211099078100,21.689078125,-0.015577051788568497,0.02977965772151947,-0.9569196701049805
1750927211117902600,21.707902587890626,0.008857538923621178,0.03955349326133728,-1.1829396486282349
1750927211136726800,21.726726806640624,0.06994401663541794,0.05543597787618637,-1.489593744277954
1750927211155551000,21.745551025390625,0.10048725455999374,0.06276635825634003,-1.7339396476745605
1750927211174375400,21.76437548828125,0.051618073135614395,0.0102319847792387,-1.8182389736175537
1750927211193199600,21.78319970703125,-0.010690134018659592,0.056657709181308746,-1.7999130487442017
1750927211212024000,21.802024169921875,-0.038789913058280945,0.06276635825634003,-1.7473787069320679
1750927211230848300,21.82084814453125,-0.03145953640341759,0.07254019379615784,-1.7253875732421875
1750927211249672400,21.83967236328125,0.0015271619195118546,0.0798705667257309,-1.8390084505081177
1750927211268497000,21.858496826171876,0.02107483521103859,0.11652245372533798,-2.0137157440185547
1750927211287321000,21.877321044921874,0.02107483521103859,0.15561780333518982,-2.0686936378479004
1750927211306145500,21.8961455078125,0.029626941308379173,0.1055268943309784,-1.9856159687042236
1750927211324969700,21.9149697265625,0.04062250629067421,0.07620538026094437,-1.8463387489318848
1750927211343794200,21.933794189453124,0.014966187067329884,0.09208786487579346,-1.7376048564910889
1750927211362618400,21.952618408203126,-0.026572618633508682,0.07498364895582199,-1.6496403217315674
1750927211381442600,21.971442626953124,-0.04245510324835777,0.046883873641490936,-1.6215405464172363
1750927211400267000,21.99026708984375,0.008857538923621178,-0.0007635809597559273,-1.6606359481811523
1750927211419091200,22.00909130859375,0.08460476994514465,-0.03497200831770897,-1.6985095739364624
1750927211437915600,22.02791552734375,0.07971785217523575,-0.026419902220368385,-1.6545273065567017
1750927211456739800,22.04673974609375,0.007635809946805239,-0.022754713892936707,-1.462715744972229
1750927211475564000,22.06556396484375,-0.03756818547844887,0.00045814859913662076,-1.1670571565628052
1750927211494388500,22.084388427734375,-0.048563748598098755,0.02367101050913334,-0.9300416111946106
1750927211513212700,22.103212646484376,0.003970621153712273,-0.011759147047996521,-0.9031635522842407
1750927211532037000,22.122037109375,0.061391908675432205,-0.06307178735733032,-0.9556979537010193
1750927211550861300,22.140861328125,0.04428769648075104,-0.05696314200758934,-0.8604030609130859
1750927211569685800,22.159685791015626,0.029626941308379173,-0.030085090547800064,-0.581848680973053
1750927211588510000,22.178510009765624,0.008857538923621178,0.0102319847792387,-0.22754712402820587
1750927211607334100,22.197334228515626,-0.019242240116000175,0.040775224566459656,0.10231985151767731
1750927211626158600,22.21615869140625,-0.02412915788590908,0.031001387163996696,0.40775224566459656
1750927211644982800,22.234982666015625,-0.035124726593494415,-0.0032070400193333626,0.5861247777938843
1750927211663807200,22.25380712890625,-0.0204639695584774,-0.04474584385752678,0.5812378525733948
1750927211682631400,22.27263134765625,0.019853105768561363,-0.06551524996757507,0.6117810606956482
1750927211701456000,22.291455810546875,0.04306596517562866,-0.07528908550739288,0.8475748896598816
1750927211720280000,22.310280029296877,0.051618073135614395,-0.09605848789215088,1.1811070442199707
1750927211739104300,22.329104248046875,0.025961752980947495,-0.06673697382211685,1.4095704555511475
1750927211757928700,22.3479287109375,-0.01435532234609127,-0.030085090547800064,1.4462224245071411
1750927211776753000,22.3667529296875,-0.038789913058280945,0.002901607658714056,1.369253396987915
1750927211795577000,22.3855771484375,-0.04734202101826668,-0.009315688163042068,1.3252711296081543
1750927211814401500,22.404401611328126,-0.0717766135931015,-0.028863361105322838,1.397353172302246
1750927211833225700,22.423225830078124,-0.09621120244264603,-0.039858926087617874,1.534186840057373
1750927211852050200,22.44205029296875,-0.13164135813713074,0.002901607658714056,1.6416990756988525
1750927211870874400,22.460874267578124,-0.10476330667734146,0.013897174037992954,1.6307035684585571
1750927211889698800,22.47969873046875,-0.060781046748161316,-0.009315688163042068,1.534186840057373
1750927211908523000,22.49852294921875,-0.03023780696094036,-0.04474584385752678,1.535408616065979
1750927211927347200,22.51734716796875,-0.05222893878817558,-0.0435241162776947,1.6294817924499512
1750927211946171600,22.536171630859375,-0.0668896958231926,-0.05451968312263489,1.728441834449768
1750927211964995800,22.554995849609377,-0.0461202897131443,-0.055741410702466965,1.8115195035934448
1750927211983820300,22.5738203125,-0.021685699000954628,-0.06062832847237587,1.7931935787200928
1750927212002644500,22.59264453125,-0.003359756199643016,-0.05329795181751251,1.6160427331924438
1750927212021469000,22.611468994140626,0.008857538923621178,-0.04108065739274025,1.3924663066864014
1750927212040293000,22.630293212890624,0.008857538923621178,-0.07162389904260635,1.2605195045471191
1750927212059117300,22.649117431640626,-0.025350889191031456,-0.08628465235233307,1.2654063701629639
1750927212077941800,22.667941650390624,-0.05222893878817558,-0.05329795181751251,1.3570361137390137
1750927212096766000,22.686765869140626,-0.05100720748305321,-0.06673697382211685,1.3729186058044434
1750927212115590400,22.70559033203125,-0.07422006875276566,-0.07651081681251526,1.2006547451019287
1750927212134414600,22.72441455078125,-0.08521563559770584,-0.05818486958742142,0.999069333076477
1750927212153238800,22.74323876953125,-0.013133592903614044,-0.045967575162649155,0.8756746649742126
1750927212172063200,22.762063232421873,0.06994401663541794,-0.07040216773748398,0.8805615901947021
1750927212190887400,22.780887451171875,0.07483093440532684,-0.07651081681251526,0.9917389750480652
1750927212209711900,22.7997119140625,0.03940077871084213,-0.08384118974208832,1.0735948085784912
1750927212228536000,22.8185361328125,0.018631376326084137,-0.0899498388171196,1.0772600173950195
1750927212247360300,22.8373603515625,0.003970621153712273,-0.07528908550739288,0.9550870656967163
1750927212266184700,22.856184814453126,0.016187917441129684,-0.049632761627435684,0.7571669220924377
1750927212285009000,22.8750087890625,0.013744457624852657,-0.0435241162776947,0.5445859432220459
1750927212303833300,22.893833251953126,0.03451386094093323,-0.005650499369949102,0.25870123505592346
1750927212322657500,22.912657470703124,0.03451386094093323,0.04566214233636856,-0.14202606678009033
1750927212341482000,22.93148193359375,0.012522728182375431,0.07742711156606674,-0.5708531141281128
1750927212360306200,22.95030615234375,0.003970621153712273,0.09697478264570236,-0.9398154616355896
1750927212379130400,22.96913037109375,0.047952886670827866,0.11285726726055145,-1.2599085569381714
1750927212397954800,22.987954833984375,0.09926552325487137,0.11407899856567383,-1.5274673700332642
1750927212416779000,23.006779052734377,0.04673115536570549,0.1262962967157364,-1.7107268571853638
1750927212435603500,23.025603515625,-0.05345066636800766,0.14462223649024963,-1.823125958442688
1750927212454427600,23.044427734375,-0.06811141967773438,0.12873975932598114,-1.9025382995605469
1750927212473251800,23.063251953125,-0.03634645417332649,0.08353576064109802,-1.9452989101409912
