time,seconds_elapsed,z,y,x
1750927189563262700,0.1532626953125,-54.67500305175781,8.68125057220459,-6.206250190734863
1750927189573262800,0.163262939453125,-53.868751525878906,9.225000381469727,-6.056250095367432
1750927189583262700,0.1732626953125,-53.906253814697266,9.112500190734863,-6.056250095367432
1750927189603262700,0.1932626953125,-53.531253814697266,9.80625057220459,-6.562500476837158
1750927189633262800,0.223262939453125,-53.343753814697266,9.675000190734863,-6.431250095367432
1750927189663262700,0.2532626953125,-53.118751525878906,10.200000762939453,-6.693750381469727
1750927189673262800,0.263262939453125,-53.118751525878906,10.143750190734863,-6.693750381469727
1750927189683262700,0.2732626953125,-52.968753814697266,10.21875,-6.506250381469727
1750927189693262800,0.283262939453125,-52.91250228881836,10.537500381469727,-6.431250095367432
1750927189703262700,0.2932626953125,-52.85625076293945,10.6875,-6.412500381469727
1750927189713262800,0.303262939453125,-52.98750305175781,10.725000381469727,-6.431250095367432
1750927189723262700,0.3132626953125,-53.08125305175781,10.631250381469727,-6.412500381469727
1750927189733262800,0.323262939453125,-53.04375076293945,10.59375,-6.525000095367432
1750927189743262700,0.3332626953125,-52.89375305175781,10.668750762939453,-6.450000286102295
1750927189753262800,0.343262939453125,-52.687503814697266,10.800000190734863,-6.300000190734863
1750927189763262700,0.3532626953125,-52.81875228881836,10.950000762939453,-6.262500286102295
1750927189773262800,0.363262939453125,-52.81875228881836,10.893750190734863,-6.262500286102295
1750927189783262700,0.3732626953125,-53.08125305175781,10.83750057220459,-6.318750381469727
1750927189793262800,0.383262939453125,-53.04375076293945,10.818750381469727,-6.206250190734863
1750927189803262700,0.3932626953125,-53.10000228881836,10.668750762939453,-6.131250381469727
1750927189813262800,0.403262939453125,-53.00625228881836,10.725000381469727,-6.150000095367432
1750927189823262700,0.4132626953125,-53.00625228881836,10.612500190734863,-6.356250286102295
1750927189833262800,0.423262939453125,-53.41875076293945,10.481250762939453,-6.487500190734863
1750927189843262700,0.4332626953125,-53.625003814697266,10.050000190734863,-6.543750286102295
1750927189853262800,0.443262939453125,-53.75625228881836,9.693750381469727,-6.750000476837158
1750927189863262700,0.4532626953125,-53.587501525878906,9.637500762939453,-6.693750381469727
1750927189873262800,0.463262939453125,-53.73750305175781,9.506250381469727,-6.975000381469727
1750927189883262700,0.4732626953125,-54.056251525878906,9.693750381469727,-7.181250095367432
1750927189893262800,0.483262939453125,-54.30000305175781,9.33750057220459,-7.237500190734863
1750927189903262700,0.4932626953125,-54.243751525878906,9.075000762939453,-7.162500381469727
1750927189913262800,0.503262939453125,-54.13125228881836,8.925000190734863,-7.406250476837158
1750927189923262700,0.5132626953125,-53.962501525878906,8.86875057220459,-7.406250476837158
1750927189933262800,0.523262939453125,-53.75625228881836,8.625,-7.462500095367432
1750927189943262700,0.5332626953125,-53.79375076293945,8.40000057220459,-7.706250190734863
1750927189953262800,0.543262939453125,-53.812503814697266,8.456250190734863,-7.762500286102295
1750927189963262700,0.5532626953125,-53.88750076293945,8.043750762939453,-7.893750190734863
1750927189973262800,0.563262939453125,-53.962501525878906,8.11875057220459,-8.02500057220459
1750927189983262700,0.5732626953125,-53.94375228881836,8.137500762939453,-8.0625
1750927189993262800,0.583262939453125,-53.868751525878906,7.818750381469727,-8.325000762939453
1750927190003262700,0.5932626953125,-53.92500305175781,7.706250190734863,-8.512500762939453
1750927190013262800,0.603262939453125,-54.093753814697266,8.02500057220459,-8.625
1750927190023262700,0.6132626953125,-54.03750228881836,7.950000286102295,-8.8125
1750927190033262800,0.623262939453125,-53.94375228881836,7.968750476837158,-8.756250381469727
1750927190043262700,0.6332626953125,-53.625003814697266,8.081250190734863,-8.737500190734863
1750927190053262800,0.643262939453125,-53.60625076293945,8.081250190734863,-8.606250762939453
1750927190063262700,0.6532626953125,-53.70000076293945,8.100000381469727,-8.53125
1750927190073262800,0.663262939453125,-53.79375076293945,8.362500190734863,-8.193750381469727
1750927190083262700,0.6732626953125,-53.718753814697266,8.418750762939453,-8.0625
1750927190093262800,0.683262939453125,-53.85000228881836,8.30625057220459,-8.11875057220459
1750927190103262700,0.6932626953125,-53.681251525878906,8.40000057220459,-7.987500190734863
1750927190113262800,0.703262939453125,-53.718753814697266,8.231250762939453,-8.02500057220459
1750927190123262700,0.7132626953125,-53.79375076293945,8.11875057220459,-7.837500095367432
1750927190133262800,0.723262939453125,-53.51250076293945,7.968750476837158,-7.968750476837158
1750927190143262700,0.7332626953125,-53.531253814697266,7.931250095367432,-8.137500762939453
1750927190153262800,0.743262939453125,-53.493751525878906,7.706250190734863,-8.475000381469727
1750927190163262700,0.7532626953125,-53.587501525878906,7.781250476837158,-8.40000057220459
1750927190173262800,0.763262939453125,-53.718753814697266,7.818750381469727,-8.287500381469727
1750927190183262700,0.7732626953125,-53.718753814697266,7.650000095367432,-8.25
1750927190193262800,0.783262939453125,-53.681251525878906,7.725000381469727,-8.418750762939453
1750927190203262700,0.7932626953125,-53.47500228881836,7.668750286102295,-8.737500190734863
1750927190213262800,0.803262939453125,-53.681251525878906,7.800000190734863,-8.68125057220459
1750927190223262700,0.8132626953125,-53.79375076293945,7.875000476837158,-8.53125
1750927190233262800,0.823262939453125,-53.812503814697266,7.893750190734863,-8.456250190734863
1750927190243262700,0.8332626953125,-53.775001525878906,7.743750095367432,-8.756250381469727
1750927190253262800,0.843262939453125,-53.531253814697266,7.818750381469727,-8.625
1750927190263262700,0.8532626953125,-53.718753814697266,8.193750381469727,-8.77500057220459
1750927190273262800,0.863262939453125,-53.85000228881836,8.21250057220459,-8.662500381469727
1750927190283262700,0.8732626953125,-54.22500228881836,8.456250190734863,-8.418750762939453
1750927190293262800,0.883262939453125,-54.30000305175781,8.662500381469727,-8.512500762939453
1750927190303262700,0.8932626953125,-54.11250305175781,8.625,-8.49375057220459
1750927190313262800,0.903262939453125,-53.98125076293945,8.662500381469727,-8.550000190734863
1750927190323262700,0.9132626953125,-54.20625305175781,8.737500190734863,-8.4375
1750927190333262800,0.923262939453125,-54.000003814697266,8.643750190734863,-8.49375057220459
1750927190343262700,0.9332626953125,-54.13125228881836,8.550000190734863,-8.475000381469727
1750927190353262800,0.943262939453125,-54.03750228881836,8.30625057220459,-8.418750762939453
1750927190363262700,0.9532626953125,-53.962501525878906,8.30625057220459,-8.512500762939453
1750927190373262800,0.963262939453125,-54.01875305175781,8.193750381469727,-8.381250381469727
1750927190383262700,0.9732626953125,-54.16875076293945,8.21250057220459,-8.53125
1750927190393262800,0.983262939453125,-54.375003814697266,8.40000057220459,-8.381250381469727
1750927190403262700,0.9932626953125,-53.92500305175781,8.268750190734863,-8.49375057220459
1750927190413262800,1.003262939453125,-54.056251525878906,8.231250762939453,-8.381250381469727
1750927190423262700,1.0132626953125,-53.94375228881836,8.11875057220459,-8.418750762939453
1750927190433262800,1.023262939453125,-53.906253814697266,8.193750381469727,-8.606250762939453
1750927190443262700,1.0332626953125,-53.79375076293945,8.081250190734863,-8.71875
1750927190453262800,1.043262939453125,-53.55000305175781,8.11875057220459,-8.831250190734863
1750927190463262700,1.0532626953125,-53.250003814697266,8.15625,-8.793750762939453
1750927190473262800,1.063262939453125,-53.19375228881836,8.15625,-8.756250381469727
1750927190483262700,1.0732626953125,-53.531253814697266,8.193750381469727,-8.737500190734863
1750927190493262800,1.083262939453125,-53.41875076293945,8.40000057220459,-8.700000762939453
1750927190503262700,1.0932626953125,-53.51250076293945,8.49375057220459,-8.49375057220459
1750927190513262800,1.103262939453125,-53.587501525878906,8.606250762939453,-8.568750381469727
1750927190523262700,1.1132626953125,-53.400001525878906,8.568750381469727,-8.475000381469727
1750927190533262800,1.123262939453125,-53.36250305175781,8.512500762939453,-8.381250381469727
1750927190543262700,1.1332626953125,-53.51250076293945,8.49375057220459,-8.362500190734863
1750927190553262800,1.143262939453125,-53.625003814697266,8.58750057220459,-8.193750381469727
1750927190563262700,1.1532626953125,-53.493751525878906,8.625,-8.11875057220459
1750927190573262800,1.163262939453125,-53.66250228881836,8.381250381469727,-8.418750762939453
1750927190583262700,1.1732626953125,-53.56875228881836,8.550000190734863,-8.475000381469727
1750927190593262800,1.183262939453125,-53.38125228881836,8.625,-8.15625
1750927190603262700,1.1932626953125,-53.55000305175781,8.96250057220459,-8.193750381469727
1750927190613262800,1.203262939453125,-53.75625228881836,9.018750190734863,-8.287500381469727
1750927190623262700,1.2132626953125,-53.85000228881836,8.96250057220459,-8.02500057220459
1750927190633262800,1.223262939453125,-53.66250228881836,8.700000762939453,-8.175000190734863
1750927190643262700,1.2332626953125,-53.531253814697266,8.86875057220459,-8.175000190734863
1750927190653262800,1.243262939453125,-53.531253814697266,9.05625057220459,-8.137500762939453
1750927190663262700,1.2532626953125,-53.625003814697266,8.96250057220459,-8.15625
1750927190673262800,1.263262939453125,-53.718753814697266,8.850000381469727,-8.34375
1750927190683262700,1.2732626953125,-53.70000076293945,8.625,-8.325000762939453
1750927190693262800,1.283262939453125,-53.56875228881836,8.4375,-8.21250057220459
1750927190703262700,1.2932626953125,-53.437503814697266,8.512500762939453,-8.4375
1750927190713262800,1.303262939453125,-53.73750305175781,8.625,-8.550000190734863
1750927190723262700,1.3132626953125,-54.03750228881836,8.71875,-8.550000190734863
1750927190733262800,1.323262939453125,-54.150001525878906,8.8125,-8.700000762939453
1750927190743262700,1.3332626953125,-54.281253814697266,8.8125,-8.643750190734863
1750927190753262800,1.343262939453125,-54.281253814697266,8.831250190734863,-8.606250762939453
1750927190763262700,1.3532626953125,-54.39375305175781,8.96250057220459,-8.550000190734863
1750927190773262800,1.363262939453125,-54.26250076293945,9.1875,-8.475000381469727
1750927190783262700,1.3732626953125,-54.45000076293945,9.225000381469727,-8.34375
1750927190793262800,1.383262939453125,-54.13125228881836,9.318750381469727,-8.362500190734863
1750927190803262700,1.3932626953125,-54.056251525878906,9.318750381469727,-8.49375057220459
1750927190813262800,1.403262939453125,-54.01875305175781,9.300000190734863,-8.21250057220459
1750927190823262700,1.4132626953125,-53.868751525878906,9.075000762939453,-8.325000762939453
1750927190833262800,1.423262939453125,-53.812503814697266,9.225000381469727,-8.175000190734863
1750927190843262700,1.4332626953125,-53.775001525878906,9.28125,-8.362500190734863
1750927190853262800,1.443262939453125,-54.11250305175781,9.28125,-8.362500190734863
1750927190863262700,1.4532626953125,-54.03750228881836,9.356250762939453,-8.362500190734863
1750927190873262800,1.463262939453125,-54.20625305175781,9.356250762939453,-8.325000762939453
1750927190883262700,1.4732626953125,-53.98125076293945,9.112500190734863,-8.175000190734863
1750927190893262800,1.483262939453125,-53.85000228881836,9.075000762939453,-8.02500057220459
1750927190903262700,1.4932626953125,-53.625003814697266,9.131250381469727,-8.0625
1750927190913262800,1.503262939453125,-53.681251525878906,9.037500381469727,-8.231250762939453
1750927190923262700,1.5132626953125,-53.493751525878906,9.15000057220459,-8.006250381469727
1750927190933262800,1.523262939453125,-53.118751525878906,9.262500762939453,-8.11875057220459
1750927190943262700,1.5332626953125,-53.156253814697266,9.206250190734863,-8.287500381469727
1750927190953262800,1.543262939453125,-52.931251525878906,9.225000381469727,-8.15625
1750927190963262700,1.5532626953125,-52.85625076293945,9.356250762939453,-7.968750476837158
1750927190973262800,1.563262939453125,-52.72500228881836,9.356250762939453,-8.34375
1750927190983262700,1.5732626953125,-52.837501525878906,9.450000762939453,-8.100000381469727
1750927190993262800,1.583262939453125,-52.85625076293945,9.46875,-8.0625
1750927191003262700,1.5932626953125,-52.72500228881836,9.300000190734863,-7.893750190734863
1750927191013262800,1.603262939453125,-52.85625076293945,9.09375,-7.743750095367432
1750927191023262700,1.6132626953125,-52.63125228881836,9.15000057220459,-7.500000476837158
1750927191033262800,1.623262939453125,-52.81875228881836,9.300000190734863,-7.575000286102295
1750927191043262700,1.6332626953125,-52.91250228881836,9.28125,-7.781250476837158
1750927191053262800,1.643262939453125,-52.91250228881836,9.375,-7.687500476837158
1750927191063262700,1.6532626953125,-52.70625305175781,9.46875,-7.743750095367432
1750927191073262800,1.663262939453125,-52.72500228881836,9.450000762939453,-8.006250381469727
1750927191083262700,1.6732626953125,-53.08125305175781,9.450000762939453,-8.137500762939453
1750927191093262800,1.683262939453125,-53.32500076293945,9.450000762939453,-8.175000190734863
1750927191103262700,1.6932626953125,-53.400001525878906,9.43125057220459,-8.325000762939453
1750927191113262800,1.703262939453125,-53.400001525878906,9.225000381469727,-8.287500381469727
1750927191123262700,1.7132626953125,-53.437503814697266,9.450000762939453,-8.137500762939453
1750927191133262800,1.723262939453125,-53.60625076293945,9.46875,-7.950000286102295
1750927191143262700,1.7332626953125,-54.01875305175781,9.675000190734863,-7.950000286102295
1750927191153262800,1.743262939453125,-54.03750228881836,9.768750190734863,-7.743750095367432
1750927191163262700,1.7532626953125,-53.962501525878906,9.768750190734863,-7.818750381469727
1750927191173262800,1.763262939453125,-53.55000305175781,9.825000762939453,-7.912500381469727
1750927191183262700,1.7732626953125,-53.47500228881836,9.80625057220459,-8.006250381469727
1750927191193262800,1.783262939453125,-53.437503814697266,9.9375,-7.912500381469727
1750927191203262700,1.7932626953125,-53.28750228881836,9.787500381469727,-8.11875057220459
1750927191213262800,1.803262939453125,-53.250003814697266,9.99375057220459,-8.081250190734863
1750927191223262700,1.8132626953125,-53.13750076293945,9.75,-8.34375
1750927191233262800,1.823262939453125,-53.00625228881836,9.80625057220459,-8.25
1750927191243262700,1.8332626953125,-52.89375305175781,9.862500190734863,-8.15625
1750927191253262800,1.843262939453125,-53.23125076293945,9.956250190734863,-8.175000190734863
1750927191263262700,1.8532626953125,-53.38125228881836,9.99375057220459,-8.11875057220459
1750927191273262800,1.863262939453125,-53.306251525878906,10.050000190734863,-8.11875057220459
1750927191283262700,1.8732626953125,-53.51250076293945,9.90000057220459,-7.856250286102295
1750927191293262800,1.883262939453125,-53.56875228881836,9.637500762939453,-7.950000286102295
1750927191303262700,1.8932626953125,-53.45625305175781,9.65625,-7.762500286102295
1750927191313262800,1.903262939453125,-53.493751525878906,9.52500057220459,-7.668750286102295
1750927191323262700,1.9132626953125,-53.36250305175781,9.28125,-7.781250476837158
1750927191333262800,1.923262939453125,-53.19375228881836,9.131250381469727,-7.875000476837158
1750927191343262700,1.9332626953125,-53.10000228881836,9.131250381469727,-7.875000476837158
1750927191353262800,1.943262939453125,-53.156253814697266,9.075000762939453,-7.762500286102295
1750927191363262700,1.9532626953125,-53.28750228881836,9.225000381469727,-7.950000286102295
1750927191373262800,1.963262939453125,-53.156253814697266,9.131250381469727,-7.818750381469727
1750927191383262700,1.9732626953125,-53.10000228881836,9.225000381469727,-7.762500286102295
1750927191393262800,1.983262939453125,-53.08125305175781,9.300000190734863,-8.0625
1750927191403262700,1.9932626953125,-53.212501525878906,9.46875,-8.175000190734863
1750927191413262800,2.003262939453125,-53.343753814697266,9.65625,-7.950000286102295
1750927191423262700,2.0132626953125,-53.19375228881836,9.787500381469727,-7.800000190734863
1750927191433262800,2.023262939453125,-53.36250305175781,9.5625,-7.875000476837158
1750927191443262700,2.0332626953125,-53.025001525878906,9.600000381469727,-7.950000286102295
1750927191453262800,2.043262939453125,-52.98750305175781,9.675000190734863,-7.893750190734863
1750927191463262700,2.0532626953125,-53.08125305175781,9.675000190734863,-7.987500190734863
1750927191473262800,2.063262939453125,-53.08125305175781,9.787500381469727,-7.968750476837158
1750927191483262700,2.0732626953125,-53.23125076293945,9.80625057220459,-7.856250286102295
1750927191493262800,2.083262939453125,-53.19375228881836,10.050000190734863,-7.781250476837158
1750927191503262700,2.0932626953125,-53.681251525878906,10.125,-7.800000190734863
1750927191513262800,2.103262939453125,-53.66250228881836,10.3125,-7.950000286102295
1750927191523262700,2.1132626953125,-53.79375076293945,10.256250381469727,-7.950000286102295
1750927191533262800,2.123262939453125,-53.83125305175781,10.425000190734863,-8.02500057220459
1750927191543262700,2.1332626953125,-53.79375076293945,10.387500762939453,-8.006250381469727
1750927191553262800,2.143262939453125,-53.79375076293945,10.293750762939453,-7.893750190734863
1750927191563262700,2.1532626953125,-53.718753814697266,10.21875,-7.818750381469727
1750927191573262800,2.163262939453125,-53.625003814697266,9.9375,-8.0625
1750927191583262700,2.1732626953125,-53.41875076293945,9.75,-8.175000190734863
1750927191593262800,2.183262939453125,-53.10000228881836,9.75,-8.043750762939453
1750927191603262700,2.1932626953125,-53.118751525878906,9.84375,-7.912500381469727
1750927191613262800,2.203262939453125,-53.17500305175781,9.52500057220459,-8.0625
1750927191623262700,2.2132626953125,-53.212501525878906,9.52500057220459,-8.193750381469727
1750927191633262800,2.223262939453125,-53.08125305175781,9.693750381469727,-7.931250095367432
1750927191643262700,2.2332626953125,-52.89375305175781,9.65625,-8.006250381469727
1750927191653262800,2.243262939453125,-52.76250076293945,9.581250190734863,-7.968750476837158
1750927191663262700,2.2532626953125,-52.80000305175781,9.412500381469727,-7.912500381469727
1750927191673262800,2.263262939453125,-53.23125076293945,9.262500762939453,-8.15625
1750927191683262700,2.2732626953125,-53.26875305175781,9.1875,-8.15625
1750927191693262800,2.283262939453125,-53.306251525878906,9.52500057220459,-7.987500190734863
1750927191703262700,2.2932626953125,-53.156253814697266,9.43125057220459,-7.987500190734863
1750927191713262800,2.303262939453125,-53.28750228881836,9.356250762939453,-8.11875057220459
1750927191723262700,2.3132626953125,-53.493751525878906,9.506250381469727,-8.006250381469727
1750927191733262800,2.323262939453125,-53.75625228881836,9.75,-7.762500286102295
1750927191743262700,2.3332626953125,-53.587501525878906,9.825000762939453,-7.875000476837158
1750927191753262800,2.343262939453125,-53.306251525878906,9.9375,-7.912500381469727
1750927191763262700,2.3532626953125,-53.025001525878906,10.08750057220459,-7.893750190734863
1750927191773262800,2.363262939453125,-52.781253814697266,9.825000762939453,-7.931250095367432
1750927191783262700,2.3732626953125,-52.91250228881836,9.90000057220459,-7.800000190734863
1750927191793262800,2.383262939453125,-52.89375305175781,9.768750190734863,-7.893750190734863
1750927191803262700,2.3932626953125,-52.91250228881836,9.71250057220459,-7.800000190734863
1750927191813262800,2.403262939453125,-52.91250228881836,9.61875057220459,-7.893750190734863
1750927191823262700,2.4132626953125,-52.89375305175781,9.600000381469727,-7.856250286102295
1750927191833262800,2.423262939453125,-52.931251525878906,9.581250190734863,-7.743750095367432
1750927191843262700,2.4332626953125,-53.32500076293945,9.61875057220459,-7.556250095367432
1750927191853262800,2.443262939453125,-53.56875228881836,9.731250762939453,-7.387500286102295
1750927191863262700,2.4532626953125,-53.70000076293945,9.862500190734863,-7.368750095367432
1750927191873262800,2.463262939453125,-53.775001525878906,9.787500381469727,-7.368750095367432
1750927191883262700,2.4732626953125,-53.775001525878906,9.84375,-7.500000476837158
1750927191893262800,2.483262939453125,-53.75625228881836,9.65625,-7.406250476837158
1750927191903262700,2.4932626953125,-54.056251525878906,9.731250762939453,-7.368750095367432
1750927191913262800,2.503262939453125,-53.962501525878906,9.918750762939453,-7.331250190734863
1750927191923262700,2.5132626953125,-53.85000228881836,9.80625057220459,-7.481250286102295
1750927191933262800,2.523262939453125,-53.812503814697266,9.862500190734863,-7.631250381469727
1750927191943262700,2.5332626953125,-53.587501525878906,9.787500381469727,-7.537500381469727
1750927191953262800,2.543262939453125,-53.587501525878906,9.975000381469727,-7.518750190734863
1750927191963262700,2.5532626953125,-53.343753814697266,9.881250381469727,-7.650000095367432
1750927191973262800,2.563262939453125,-53.23125076293945,10.08750057220459,-7.837500095367432
1750927191983262700,2.5732626953125,-53.00625228881836,10.106250762939453,-7.837500095367432
1750927191993262800,2.583262939453125,-53.04375076293945,9.975000381469727,-7.743750095367432
1750927192003262700,2.5932626953125,-53.04375076293945,10.03125,-7.593750476837158
1750927192013262800,2.603262939453125,-53.19375228881836,10.08750057220459,-7.537500381469727
1750927192023262700,2.6132626953125,-53.04375076293945,10.162500381469727,-7.518750190734863
1750927192033262800,2.623262939453125,-52.968753814697266,10.293750762939453,-7.481250286102295
1750927192043262700,2.6332626953125,-53.062503814697266,10.46250057220459,-7.293750286102295
1750927192053262800,2.643262939453125,-53.19375228881836,10.443750381469727,-7.368750095367432
1750927192063262700,2.6532626953125,-53.23125076293945,10.5,-7.387500286102295
1750927192073262800,2.663262939453125,-53.55000305175781,10.46250057220459,-7.387500286102295
1750927192083262700,2.6732626953125,-53.64375305175781,10.518750190734863,-7.575000286102295
1750927192093262800,2.683262939453125,-53.75625228881836,10.518750190734863,-7.631250381469727
1750927192103262700,2.6932626953125,-53.962501525878906,10.537500381469727,-7.631250381469727
1750927192113262800,2.703262939453125,-54.11250305175781,10.5,-7.500000476837158
1750927192123262700,2.7132626953125,-54.375003814697266,10.481250762939453,-7.368750095367432
1750927192133262800,2.723262939453125,-54.375003814697266,10.40625,-7.312500476837158
1750927192143262700,2.7332626953125,-54.375003814697266,10.331250190734863,-7.387500286102295
1750927192153262800,2.743262939453125,-54.07500076293945,10.55625057220459,-7.462500095367432
1750927192163262700,2.7532626953125,-54.13125228881836,10.481250762939453,-7.518750190734863
1750927192173262800,2.763262939453125,-53.868751525878906,10.350000381469727,-7.443750381469727
1750927192183262700,2.7732626953125,-53.79375076293945,10.200000762939453,-7.537500381469727
1750927192193262800,2.783262939453125,-53.625003814697266,10.162500381469727,-7.518750190734863
1750927192203262700,2.7932626953125,-53.437503814697266,10.200000762939453,-7.631250381469727
1750927192213262800,2.803262939453125,-53.38125228881836,10.27500057220459,-7.387500286102295
1750927192223262700,2.8132626953125,-53.41875076293945,10.21875,-7.331250190734863
1750927192233262800,2.823262939453125,-53.437503814697266,10.012500762939453,-7.275000095367432
1750927192243262700,2.8332626953125,-53.23125076293945,10.050000190734863,-7.218750476837158
1750927192253262800,2.843262939453125,-53.437503814697266,9.956250190734863,-7.406250476837158
1750927192263262700,2.8532626953125,-53.400001525878906,9.881250381469727,-7.331250190734863
1750927192273262800,2.863262939453125,-53.718753814697266,9.881250381469727,-7.425000190734863
1750927192283262700,2.8732626953125,-53.775001525878906,9.71250057220459,-7.387500286102295
1750927192293262800,2.883262939453125,-53.88750076293945,9.768750190734863,-7.500000476837158
1750927192303262700,2.8932626953125,-53.88750076293945,9.65625,-7.518750190734863
1750927192313262800,2.903262939453125,-53.75625228881836,9.487500190734863,-7.425000190734863
1750927192323262700,2.9132626953125,-53.73750305175781,9.52500057220459,-7.200000286102295
1750927192333262800,2.923262939453125,-53.64375305175781,9.52500057220459,-7.050000190734863
1750927192343262700,2.9332626953125,-53.64375305175781,9.61875057220459,-6.975000381469727
1750927192353262800,2.943262939453125,-53.32500076293945,9.487500190734863,-6.900000095367432
1750927192363262700,2.9532626953125,-53.156253814697266,9.450000762939453,-6.881250381469727
1750927192373262800,2.963262939453125,-53.118751525878906,9.5625,-6.675000190734863
1750927192383262700,2.9732626953125,-53.118751525878906,9.787500381469727,-6.412500381469727
1750927192393262800,2.983262939453125,-53.343753814697266,9.881250381469727,-6.506250381469727
1750927192403262700,2.9932626953125,-53.625003814697266,9.825000762939453,-6.750000476837158
1750927192413262800,3.003262939453125,-53.531253814697266,9.75,-6.918750286102295
1750927192423262700,3.0132626953125,-53.47500228881836,9.600000381469727,-7.087500095367432
1750927192433262800,3.023262939453125,-53.493751525878906,9.75,-7.218750476837158
1750927192443262700,3.0332626953125,-53.587501525878906,9.825000762939453,-7.293750286102295
1750927192453262800,3.043262939453125,-53.400001525878906,9.65625,-7.650000095367432
1750927192463262700,3.0532626953125,-53.38125228881836,9.71250057220459,-7.931250095367432
1750927192473262800,3.063262939453125,-53.13750076293945,9.581250190734863,-7.762500286102295
1750927192483262700,3.0732626953125,-52.968753814697266,9.506250381469727,-7.893750190734863
1750927192493262800,3.083262939453125,-53.04375076293945,9.862500190734863,-7.631250381469727
1750927192503262700,3.0932626953125,-53.118751525878906,10.068750381469727,-7.293750286102295
1750927192513262800,3.103262939453125,-53.025001525878906,9.90000057220459,-7.237500190734863
1750927192523262700,3.1132626953125,-53.08125305175781,9.84375,-7.050000190734863
1750927192533262800,3.123262939453125,-53.19375228881836,9.71250057220459,-6.825000286102295
1750927192543262700,3.1332626953125,-53.17500305175781,9.581250190734863,-6.881250381469727
1750927192553262800,3.143262939453125,-53.118751525878906,9.693750381469727,-7.087500095367432
1750927192563262700,3.1532626953125,-53.19375228881836,9.84375,-6.918750286102295
1750927192573262800,3.163262939453125,-53.17500305175781,9.84375,-6.993750095367432
1750927192583262700,3.1732626953125,-53.400001525878906,9.918750762939453,-7.050000190734863
1750927192593262800,3.183262939453125,-53.26875305175781,10.068750381469727,-6.956250190734863
1750927192603262700,3.1932626953125,-53.212501525878906,10.27500057220459,-7.050000190734863
1750927192613262800,3.203262939453125,-53.250003814697266,10.293750762939453,-7.181250095367432
1750927192623262700,3.2132626953125,-53.025001525878906,10.36875057220459,-7.125000476837158
1750927192633262800,3.223262939453125,-53.212501525878906,10.481250762939453,-6.993750095367432
1750927192643262700,3.2332626953125,-53.156253814697266,10.46250057220459,-6.825000286102295
1750927192653262800,3.243262939453125,-53.04375076293945,10.387500762939453,-6.693750381469727
1750927192663262700,3.2532626953125,-53.10000228881836,10.200000762939453,-6.937500476837158
1750927192673262800,3.263262939453125,-53.41875076293945,9.9375,-7.143750190734863
1750927192683262700,3.2732626953125,-53.60625076293945,9.862500190734863,-7.162500381469727
1750927192693262800,3.283262939453125,-53.70000076293945,9.9375,-6.993750095367432
1750927192703262700,3.2932626953125,-53.85000228881836,9.918750762939453,-6.956250190734863
1750927192713262800,3.303262939453125,-53.868751525878906,10.03125,-6.937500476837158
1750927192723262700,3.3132626953125,-53.73750305175781,9.918750762939453,-7.200000286102295
1750927192733262800,3.323262939453125,-53.92500305175781,10.08750057220459,-7.500000476837158
1750927192743262700,3.3332626953125,-53.79375076293945,10.143750190734863,-7.425000190734863
1750927192753262800,3.343262939453125,-53.83125305175781,10.668750762939453,-7.331250190734863
1750927192763262700,3.3532626953125,-53.625003814697266,10.5,-7.312500476837158
1750927192773262800,3.363262939453125,-53.36250305175781,10.518750190734863,-7.312500476837158
1750927192783262700,3.3732626953125,-53.41875076293945,10.46250057220459,-7.443750381469727
1750927192793262800,3.383262939453125,-53.343753814697266,10.443750381469727,-7.331250190734863
1750927192803262700,3.3932626953125,-53.28750228881836,10.518750190734863,-7.050000190734863
1750927192813262800,3.403262939453125,-53.062503814697266,10.350000381469727,-6.956250190734863
1750927192823262700,3.4132626953125,-53.062503814697266,10.387500762939453,-6.900000095367432
1750927192833262800,3.423262939453125,-52.98750305175781,10.068750381469727,-6.768750190734863
1750927192843262700,3.4332626953125,-52.95000076293945,10.293750762939453,-6.900000095367432
1750927192853262800,3.443262939453125,-53.04375076293945,10.3125,-6.900000095367432
1750927192863262700,3.4532626953125,-53.062503814697266,10.350000381469727,-6.900000095367432
1750927192873262800,3.463262939453125,-53.212501525878906,10.18125057220459,-6.900000095367432
1750927192883262700,3.4732626953125,-53.51250076293945,10.050000190734863,-7.125000476837158
1750927192893262800,3.483262939453125,-53.681251525878906,10.106250762939453,-7.237500190734863
1750927192903262700,3.4932626953125,-53.55000305175781,10.068750381469727,-7.256250381469727
1750927192913262800,3.503262939453125,-53.625003814697266,9.9375,-7.387500286102295
1750927192923262700,3.5132626953125,-53.83125305175781,9.975000381469727,-7.443750381469727
1750927192933262800,3.523262939453125,-54.03750228881836,10.012500762939453,-7.575000286102295
1750927192943262700,3.5332626953125,-54.01875305175781,10.106250762939453,-7.368750095367432
1750927192953262800,3.543262939453125,-53.92500305175781,10.162500381469727,-7.556250095367432
1750927192963262700,3.5532626953125,-53.92500305175781,10.27500057220459,-7.537500381469727
1750927192973262800,3.563262939453125,-54.000003814697266,10.03125,-7.762500286102295
1750927192983262700,3.5732626953125,-54.093753814697266,10.18125057220459,-7.706250190734863
1750927192993262800,3.583262939453125,-54.11250305175781,10.3125,-7.950000286102295
1750927193003262700,3.5932626953125,-53.906253814697266,10.3125,-7.687500476837158
1750927193013262800,3.603262939453125,-54.000003814697266,10.36875057220459,-7.743750095367432
1750927193023262700,3.6132626953125,-54.000003814697266,10.40625,-7.800000190734863
1750927193033262800,3.623262939453125,-54.150001525878906,10.331250190734863,-7.818750381469727
1750927193043262700,3.6332626953125,-54.16875076293945,10.331250190734863,-7.743750095367432
1750927193053262800,3.643262939453125,-53.94375228881836,10.518750190734863,-7.293750286102295
1750927193073262800,3.663262939453125,-53.51250076293945,10.425000190734863,-7.181250095367432
1750927193083262700,3.6732626953125,-53.587501525878906,10.387500762939453,-7.481250286102295
1750927193093262800,3.683262939453125,-53.26875305175781,10.237500190734863,-7.312500476837158
1750927193103262700,3.6932626953125,-53.26875305175781,10.162500381469727,-7.331250190734863
1750927193113262800,3.703262939453125,-52.968753814697266,10.143750190734863,-7.368750095367432
1750927193123262700,3.7132626953125,-52.781253814697266,10.106250762939453,-7.556250095367432
1750927193133262800,3.723262939453125,-52.89375305175781,10.18125057220459,-7.687500476837158
1750927193143262700,3.7332626953125,-53.23125076293945,10.106250762939453,-7.518750190734863
1750927193153262800,3.743262939453125,-53.19375228881836,10.08750057220459,-7.425000190734863
1750927193163262700,3.7532626953125,-53.212501525878906,10.012500762939453,-7.312500476837158
1750927193173262800,3.763262939453125,-53.32500076293945,10.125,-7.275000095367432
1750927193183262700,3.7732626953125,-53.26875305175781,10.050000190734863,-7.406250476837158
1750927193193262800,3.783262939453125,-53.45625305175781,10.36875057220459,-7.293750286102295
1750927193203262700,3.7932626953125,-53.64375305175781,10.387500762939453,-7.331250190734863
1750927193213262800,3.803262939453125,-53.45625305175781,10.256250381469727,-7.237500190734863
1750927193223262700,3.8132626953125,-53.56875228881836,10.27500057220459,-7.575000286102295
1750927193233262800,3.823262939453125,-53.437503814697266,10.143750190734863,-7.650000095367432
1750927193243262700,3.8332626953125,-53.343753814697266,10.256250381469727,-7.743750095367432
1750927193253262800,3.843262939453125,-53.38125228881836,10.18125057220459,-7.762500286102295
1750927193263262700,3.8532626953125,-53.45625305175781,10.425000190734863,-7.631250381469727
1750927193273262800,3.863262939453125,-53.28750228881836,10.27500057220459,-7.593750476837158
1750927193283262700,3.8732626953125,-52.89375305175781,10.27500057220459,-7.650000095367432
1750927193293262800,3.883262939453125,-53.00625228881836,10.575000762939453,-7.575000286102295
1750927193303262700,3.8932626953125,-52.89375305175781,10.65000057220459,-7.331250190734863
1750927193313262800,3.903262939453125,-52.875003814697266,10.83750057220459,-7.443750381469727
1750927193323262700,3.9132626953125,-52.89375305175781,10.856250762939453,-7.312500476837158
1750927193333262800,3.923262939453125,-52.61250305175781,10.950000762939453,-7.443750381469727
1750927193343262700,3.9332626953125,-52.500003814697266,10.612500190734863,-7.575000286102295
1750927193353262800,3.943262939453125,-52.48125076293945,10.55625057220459,-7.556250095367432
1750927193363262700,3.9532626953125,-52.53750228881836,10.5,-7.293750286102295
1750927193373262800,3.963262939453125,-52.44375228881836,10.331250190734863,-7.218750476837158
1750927193383262700,3.9732626953125,-52.837501525878906,10.293750762939453,-7.087500095367432
1750927193393262800,3.983262939453125,-52.80000305175781,10.293750762939453,-6.975000381469727
1750927193403262700,3.9932626953125,-53.04375076293945,10.256250381469727,-7.087500095367432
1750927193413262800,4.003262939453125,-53.19375228881836,10.21875,-6.975000381469727
1750927193423262700,4.0132626953125,-53.306251525878906,10.46250057220459,-6.843750476837158
1750927193433262800,4.023262939453125,-53.493751525878906,10.387500762939453,-6.843750476837158
1750927193443262700,4.0332626953125,-53.400001525878906,10.40625,-6.806250095367432
1750927193453262800,4.043262939453125,-53.56875228881836,10.293750762939453,-7.012500286102295
1750927193463262700,4.0532626953125,-53.32500076293945,10.125,-7.143750190734863
1750927193473262800,4.063262939453125,-53.55000305175781,10.21875,-7.181250095367432
1750927193483262700,4.0732626953125,-53.437503814697266,10.162500381469727,-7.087500095367432
1750927193493262800,4.083262939453125,-53.55000305175781,10.143750190734863,-7.181250095367432
1750927193503262700,4.0932626953125,-53.41875076293945,10.125,-7.200000286102295
1750927193513262800,4.103262939453125,-53.41875076293945,10.237500190734863,-7.293750286102295
1750927193523262700,4.1132626953125,-53.73750305175781,10.481250762939453,-7.518750190734863
1750927193533262800,4.123262939453125,-53.70000076293945,10.481250762939453,-7.537500381469727
1750927193543262700,4.1332626953125,-53.681251525878906,10.55625057220459,-7.556250095367432
1750927193553262800,4.143262939453125,-53.493751525878906,10.387500762939453,-7.575000286102295
1750927193563262700,4.1532626953125,-53.41875076293945,10.706250190734863,-7.481250286102295
1750927193573262800,4.163262939453125,-53.493751525878906,10.856250762939453,-7.331250190734863
1750927193583262700,4.1732626953125,-53.60625076293945,10.800000190734863,-7.200000286102295
1750927193593262800,4.183262939453125,-53.343753814697266,10.818750381469727,-7.162500381469727
1750927193603262700,4.1932626953125,-53.343753814697266,10.631250381469727,-7.087500095367432
1750927193613262800,4.203262939453125,-53.212501525878906,10.612500190734863,-6.975000381469727
1750927193623262700,4.2132626953125,-53.47500228881836,10.74375057220459,-6.900000095367432
1750927193633262800,4.223262939453125,-53.437503814697266,10.725000381469727,-6.787500381469727
1750927193643262700,4.2332626953125,-53.437503814697266,10.40625,-6.862500190734863
1750927193653262800,4.243262939453125,-53.306251525878906,10.256250381469727,-6.862500190734863
1750927193663262700,4.2532626953125,-53.23125076293945,10.125,-6.918750286102295
1750927193673262800,4.263262939453125,-53.718753814697266,9.9375,-7.068750381469727
1750927193683262700,4.2732626953125,-54.01875305175781,10.068750381469727,-7.068750381469727
1750927193693262800,4.283262939453125,-54.056251525878906,10.012500762939453,-7.275000095367432
1750927193703262700,4.2932626953125,-53.79375076293945,9.99375057220459,-7.425000190734863
1750927193713262800,4.303262939453125,-53.88750076293945,9.918750762939453,-7.668750286102295
1750927193723262700,4.3132626953125,-54.01875305175781,9.975000381469727,-7.743750095367432
1750927193733262800,4.323262939453125,-54.187503814697266,9.80625057220459,-7.856250286102295
1750927193743262700,4.3332626953125,-53.962501525878906,9.99375057220459,-7.875000476837158
1750927193753262800,4.343262939453125,-53.47500228881836,10.162500381469727,-7.818750381469727
1750927193763262700,4.3532626953125,-53.13750076293945,9.975000381469727,-7.762500286102295
1750927193773262800,4.363262939453125,-53.156253814697266,10.050000190734863,-7.612500190734863
1750927193783262700,4.3732626953125,-52.875003814697266,9.9375,-7.687500476837158
1750927193793262800,4.383262939453125,-52.81875228881836,9.99375057220459,-7.593750476837158
1750927193803262700,4.3932626953125,-52.875003814697266,9.956250190734863,-7.593750476837158
1750927193813262800,4.403262939453125,-52.89375305175781,10.106250762939453,-7.612500190734863
1750927193823262700,4.4132626953125,-53.13750076293945,10.106250762939453,-7.443750381469727
1750927193833262800,4.423262939453125,-53.400001525878906,9.975000381469727,-7.368750095367432
1750927193843262700,4.4332626953125,-53.306251525878906,9.99375057220459,-7.293750286102295
1750927193853262800,4.443262939453125,-53.493751525878906,9.918750762939453,-7.256250381469727
1750927193863262700,4.4532626953125,-53.83125305175781,10.08750057220459,-7.162500381469727
1750927193873262800,4.463262939453125,-53.88750076293945,10.293750762939453,-7.200000286102295
1750927193883262700,4.4732626953125,-53.98125076293945,10.27500057220459,-7.181250095367432
1750927193893262800,4.483262939453125,-53.85000228881836,10.143750190734863,-7.293750286102295
1750927193903262700,4.4932626953125,-53.88750076293945,10.03125,-7.481250286102295
1750927193913262800,4.503262939453125,-53.775001525878906,9.975000381469727,-7.668750286102295
1750927193923262700,4.5132626953125,-53.868751525878906,10.162500381469727,-7.743750095367432
1750927193933262800,4.523262939453125,-53.73750305175781,10.143750190734863,-7.931250095367432
1750927193943262700,4.5332626953125,-53.51250076293945,10.012500762939453,-7.800000190734863
1750927193953262800,4.543262939453125,-53.55000305175781,9.918750762939453,-7.762500286102295
1750927193963262700,4.5532626953125,-53.343753814697266,9.9375,-7.837500095367432
1750927193973262800,4.563262939453125,-53.343753814697266,10.03125,-7.743750095367432
1750927193983262700,4.5732626953125,-53.32500076293945,10.256250381469727,-7.631250381469727
1750927193993262800,4.583262939453125,-53.41875076293945,10.612500190734863,-7.462500095367432
1750927194003262700,4.5932626953125,-53.55000305175781,10.5,-7.275000095367432
1750927194013262800,4.603262939453125,-53.60625076293945,10.5,-7.012500286102295
1750927194023262700,4.6132626953125,-53.60625076293945,10.537500381469727,-7.181250095367432
1750927194033262800,4.623262939453125,-53.73750305175781,10.46250057220459,-7.125000476837158
1750927194043262700,4.6332626953125,-53.625003814697266,10.55625057220459,-7.012500286102295
1750927194053262800,4.643262939453125,-53.60625076293945,10.46250057220459,-6.975000381469727
1750927194063262700,4.6532626953125,-53.531253814697266,10.387500762939453,-7.087500095367432
1750927194073262800,4.663262939453125,-53.51250076293945,10.237500190734863,-7.050000190734863
1750927194083262700,4.6732626953125,-53.13750076293945,10.331250190734863,-7.218750476837158
1750927194093262800,4.683262939453125,-53.28750228881836,10.387500762939453,-7.425000190734863
1750927194103262700,4.6932626953125,-53.32500076293945,10.481250762939453,-7.256250381469727
1750927194113262800,4.703262939453125,-53.10000228881836,10.40625,-7.256250381469727
1750927194123262700,4.7132626953125,-53.28750228881836,10.3125,-7.312500476837158
1750927194133262800,4.723262939453125,-53.400001525878906,10.331250190734863,-7.331250190734863
1750927194143262700,4.7332626953125,-53.51250076293945,10.256250381469727,-7.256250381469727
1750927194153262800,4.743262939453125,-53.55000305175781,10.03125,-7.387500286102295
1750927194163262700,4.7532626953125,-53.681251525878906,10.050000190734863,-7.312500476837158
1750927194173262800,4.763262939453125,-53.493751525878906,10.03125,-7.350000381469727
1750927194183262700,4.7732626953125,-53.45625305175781,10.03125,-7.462500095367432
1750927194193262800,4.783262939453125,-53.32500076293945,10.162500381469727,-7.462500095367432
1750927194203262700,4.7932626953125,-53.00625228881836,10.012500762939453,-7.518750190734863
1750927194213262800,4.803262939453125,-53.00625228881836,10.08750057220459,-7.462500095367432
1750927194223262700,4.8132626953125,-52.931251525878906,10.08750057220459,-7.500000476837158
1750927194233262800,4.823262939453125,-52.837501525878906,10.3125,-7.500000476837158
1750927194243262700,4.8332626953125,-52.95000076293945,10.256250381469727,-7.556250095367432
1750927194253262800,4.843262939453125,-53.118751525878906,10.3125,-7.556250095367432
1750927194263262700,4.8532626953125,-53.28750228881836,10.27500057220459,-7.331250190734863
1750927194273262800,4.863262939453125,-53.625003814697266,10.3125,-7.218750476837158
1750927194283262700,4.8732626953125,-53.75625228881836,10.575000762939453,-7.068750381469727
1750927194293262800,4.883262939453125,-53.88750076293945,10.78125,-6.937500476837158
1750927194303262700,4.8932626953125,-53.718753814697266,10.725000381469727,-6.900000095367432
1750927194313262800,4.903262939453125,-53.73750305175781,10.668750762939453,-6.787500381469727
1750927194323262700,4.9132626953125,-53.88750076293945,10.65000057220459,-6.825000286102295
1750927194333262800,4.923262939453125,-53.718753814697266,10.762500762939453,-6.731250286102295
1750927194343262700,4.9332626953125,-53.79375076293945,10.818750381469727,-6.956250190734863
1750927194353262800,4.943262939453125,-53.681251525878906,10.706250190734863,-6.993750095367432
1750927194363262700,4.9532626953125,-53.718753814697266,10.631250381469727,-6.862500190734863
1750927194373262800,4.963262939453125,-53.51250076293945,10.443750381469727,-6.937500476837158
1750927194383262700,4.9732626953125,-53.66250228881836,10.46250057220459,-6.843750476837158
1750927194393262800,4.983262939453125,-53.60625076293945,10.36875057220459,-6.956250190734863
1750927194403262700,4.9932626953125,-53.47500228881836,10.256250381469727,-6.862500190734863
1750927194423262700,5.0132626953125,-53.306251525878906,10.350000381469727,-6.675000190734863
1750927194433262800,5.023262939453125,-53.10000228881836,10.40625,-6.825000286102295
1750927194443262700,5.0332626953125,-53.28750228881836,10.331250190734863,-6.975000381469727
1750927194453262800,5.043262939453125,-53.13750076293945,10.387500762939453,-7.068750381469727
1750927194463262700,5.0532626953125,-53.08125305175781,10.443750381469727,-7.237500190734863
1750927194473262800,5.063262939453125,-53.156253814697266,10.612500190734863,-7.425000190734863
1750927194483262700,5.0732626953125,-53.17500305175781,10.818750381469727,-7.350000381469727
1750927194493262800,5.083262939453125,-53.17500305175781,10.65000057220459,-7.368750095367432
1750927194503262700,5.0932626953125,-53.156253814697266,10.55625057220459,-7.443750381469727
1750927194513262800,5.103262939453125,-53.28750228881836,10.387500762939453,-7.350000381469727
1750927194523262700,5.1132626953125,-53.118751525878906,10.387500762939453,-7.631250381469727
1750927194533262800,5.123262939453125,-53.38125228881836,10.18125057220459,-7.687500476837158
1750927194543262700,5.1332626953125,-53.587501525878906,10.237500190734863,-7.631250381469727
1750927194553262800,5.143262939453125,-53.41875076293945,10.068750381469727,-7.481250286102295
1750927194563262700,5.1532626953125,-53.28750228881836,9.90000057220459,-7.556250095367432
1750927194573262800,5.163262939453125,-53.28750228881836,10.03125,-7.631250381469727
1750927194583262700,5.1732626953125,-53.10000228881836,9.862500190734863,-7.725000381469727
1750927194593262800,5.183262939453125,-53.19375228881836,9.956250190734863,-7.725000381469727
1750927194603262700,5.1932626953125,-53.10000228881836,10.143750190734863,-7.500000476837158
1750927194613262800,5.203262939453125,-52.837501525878906,10.293750762939453,-7.481250286102295
1750927194623262700,5.2132626953125,-52.875003814697266,10.293750762939453,-7.537500381469727
1750927194633262800,5.223262939453125,-53.13750076293945,10.443750381469727,-7.612500190734863
1750927194643262700,5.2332626953125,-53.00625228881836,10.59375,-7.687500476837158
1750927194653262800,5.243262939453125,-53.32500076293945,10.631250381469727,-7.556250095367432
1750927194663262700,5.2532626953125,-53.437503814697266,10.74375057220459,-7.650000095367432
1750927194673262800,5.263262939453125,-53.32500076293945,10.59375,-7.687500476837158
1750927194683262700,5.2732626953125,-53.306251525878906,10.668750762939453,-7.706250190734863
1750927194693262800,5.283262939453125,-53.343753814697266,10.537500381469727,-7.650000095367432
1750927194703262700,5.2932626953125,-53.306251525878906,10.518750190734863,-7.893750190734863
1750927194713262800,5.303262939453125,-53.19375228881836,10.46250057220459,-7.875000476837158
1750927194723262700,5.3132626953125,-53.55000305175781,10.443750381469727,-7.762500286102295
1750927194733262800,5.323262939453125,-53.38125228881836,10.36875057220459,-7.912500381469727
1750927194743262700,5.3332626953125,-53.156253814697266,10.387500762939453,-7.800000190734863
1750927194753262800,5.343262939453125,-53.118751525878906,10.631250381469727,-7.650000095367432
1750927194763262700,5.3532626953125,-52.95000076293945,10.443750381469727,-7.593750476837158
1750927194773262800,5.363262939453125,-53.10000228881836,10.6875,-7.612500190734863
1750927194783262700,5.3732626953125,-53.00625228881836,10.631250381469727,-7.312500476837158
1750927194793262800,5.383262939453125,-52.743751525878906,10.59375,-7.181250095367432
1750927194803262700,5.3932626953125,-52.687503814697266,10.612500190734863,-7.293750286102295
1750927194813262800,5.403262939453125,-52.95000076293945,10.612500190734863,-7.275000095367432
1750927194823262700,5.4132626953125,-53.118751525878906,10.65000057220459,-7.200000286102295
1750927194833262800,5.423262939453125,-53.23125076293945,10.518750190734863,-7.312500476837158
1750927194843262700,5.4332626953125,-53.51250076293945,10.78125,-7.237500190734863
1750927194853262800,5.443262939453125,-53.36250305175781,10.725000381469727,-7.237500190734863
1750927194863262700,5.4532626953125,-53.26875305175781,10.800000190734863,-7.331250190734863
1750927194873262800,5.463262939453125,-53.70000076293945,10.800000190734863,-7.368750095367432
1750927194883262700,5.4732626953125,-53.66250228881836,10.818750381469727,-7.537500381469727
1750927194893262800,5.483262939453125,-53.400001525878906,10.893750190734863,-7.481250286102295
1750927194903262700,5.4932626953125,-53.28750228881836,10.950000762939453,-7.631250381469727
1750927194913262800,5.503262939453125,-53.212501525878906,11.0625,-7.612500190734863
1750927194923262700,5.5132626953125,-53.32500076293945,10.856250762939453,-7.725000381469727
1750927194933262800,5.523262939453125,-53.250003814697266,10.83750057220459,-7.650000095367432
1750927194943262700,5.5332626953125,-53.437503814697266,10.912500381469727,-7.668750286102295
1750927194953262800,5.543262939453125,-53.23125076293945,10.96875,-7.593750476837158
1750927194963262700,5.5532626953125,-53.08125305175781,10.93125057220459,-7.387500286102295
1750927194973262800,5.563262939453125,-53.13750076293945,10.950000762939453,-7.256250381469727
1750927194983262700,5.5732626953125,-53.212501525878906,10.93125057220459,-7.162500381469727
1750927194993262800,5.583262939453125,-53.26875305175781,10.987500190734863,-7.218750476837158
1750927195003262700,5.5932626953125,-53.28750228881836,11.15625,-7.218750476837158
1750927195013262800,5.603262939453125,-53.56875228881836,11.006250381469727,-7.200000286102295
1750927195023262700,5.6132626953125,-53.55000305175781,11.081250190734863,-7.143750190734863
1750927195033262800,5.623262939453125,-53.55000305175781,11.0625,-7.143750190734863
1750927195043262700,5.6332626953125,-53.55000305175781,11.006250381469727,-7.143750190734863
1750927195053262800,5.643262939453125,-53.587501525878906,10.725000381469727,-7.350000381469727
1750927195063262700,5.6532626953125,-53.83125305175781,10.40625,-7.312500476837158
1750927195073262800,5.663262939453125,-53.906253814697266,10.143750190734863,-7.275000095367432
1750927195083262700,5.6732626953125,-53.718753814697266,9.693750381469727,-7.406250476837158
1750927195093262800,5.683262939453125,-53.88750076293945,9.393750190734863,-7.668750286102295
1750927195103262700,5.6932626953125,-53.79375076293945,8.8125,-7.837500095367432
1750927195113262800,5.703262939453125,-53.718753814697266,8.362500190734863,-8.100000381469727
1750927195123262700,5.7132626953125,-54.01875305175781,7.893750190734863,-8.268750190734863
1750927195133262800,5.723262939453125,-53.92500305175781,7.443750381469727,-8.58750057220459
1750927195143262700,5.7332626953125,-54.056251525878906,7.068750381469727,-8.831250190734863
1750927195153262800,5.743262939453125,-54.243751525878906,6.637500286102295,-8.86875057220459
1750927195163262700,5.7532626953125,-54.562503814697266,6.337500095367432,-9.018750190734863
1750927195173262800,5.763262939453125,-54.618751525878906,5.925000190734863,-9.018750190734863
1750927195183262700,5.7732626953125,-54.78750228881836,5.512500286102295,-9.356250762939453
1750927195193262800,5.783262939453125,-55.10625076293945,5.118750095367432,-9.600000381469727
1750927195203262700,5.7932626953125,-55.406253814697266,4.537500381469727,-9.675000190734863
1750927195213262800,5.803262939453125,-55.66875076293945,4.106250286102295,-9.581250190734863
1750927195223262700,5.8132626953125,-55.33125305175781,3.6000001430511475,-9.637500762939453
1750927195233262800,5.823262939453125,-55.462501525878906,2.981250047683716,-10.050000190734863
1750927195243262700,5.8332626953125,-55.687503814697266,2.4000000953674316,-10.125
1750927195253262800,5.843262939453125,-55.593753814697266,1.818750023841858,-10.36875057220459
1750927195263262700,5.8532626953125,-55.687503814697266,1.3687500953674316,-10.143750190734863
1750927195273262800,5.863262939453125,-55.76250076293945,0.7312500476837158,-9.956250190734863
1750927195283262700,5.8732626953125,-55.44375228881836,0.16875000298023224,-10.03125
1750927195293262800,5.883262939453125,-55.406253814697266,-0.35625001788139343,-10.143750190734863
1750927195303262700,5.8932626953125,-55.63125228881836,-1.068750023841858,-9.956250190734863
1750927195313262800,5.903262939453125,-55.781253814697266,-1.6125000715255737,-9.862500190734863
1750927195323262700,5.9132626953125,-55.650001525878906,-2.2687501907348633,-9.731250762939453
1750927195333262800,5.923262939453125,-55.51875305175781,-2.7375001907348633,-9.5625
1750927195343262700,5.9332626953125,-55.368751525878906,-3.637500047683716,-9.84375
1750927195353262800,5.943262939453125,-55.35000228881836,-4.162500381469727,-10.08750057220459
1750927195363262700,5.9532626953125,-55.218753814697266,-4.950000286102295,-9.99375057220459
1750927195373262800,5.963262939453125,-55.23750305175781,-5.643750190734863,-10.068750381469727
1750927195383262700,5.9732626953125,-55.462501525878906,-6.225000381469727,-10.46250057220459
1750927195393262800,5.983262939453125,-54.91875076293945,-6.975000381469727,-10.481250762939453
1750927195403262700,5.9932626953125,-54.69375228881836,-7.725000381469727,-10.856250762939453
1750927195413262800,6.003262939453125,-54.88125228881836,-8.456250190734863,-11.006250381469727
1750927195423262700,6.0132626953125,-55.01250076293945,-8.96250057220459,-10.800000190734863
1750927195433262800,6.023262939453125,-55.06875228881836,-9.46875,-10.59375
1750927195443262700,6.0332626953125,-55.087501525878906,-9.975000381469727,-10.83750057220459
1750927195453262800,6.043262939453125,-55.125003814697266,-10.46250057220459,-10.631250381469727
1750927195463262700,6.0532626953125,-54.82500076293945,-10.856250762939453,-10.443750381469727
1750927195473262800,6.063262939453125,-54.937503814697266,-11.268750190734863,-10.256250381469727
1750927195483262700,6.0732626953125,-55.06875228881836,-11.643750190734863,-10.200000762939453
1750927195493262800,6.083262939453125,-55.01250076293945,-11.850000381469727,-10.012500762939453
1750927195503262700,6.0932626953125,-54.95625305175781,-12,-10.050000190734863
1750927195513262800,6.103262939453125,-54.937503814697266,-12.093750953674316,-10.125
1750927195523262700,6.1132626953125,-55.25625228881836,-11.943750381469727,-9.825000762939453
1750927195533262800,6.123262939453125,-55.14375305175781,-12.018750190734863,-9.693750381469727
1750927195543262700,6.1332626953125,-55.51875305175781,-11.793750762939453,-9.61875057220459
1750927195553262800,6.143262939453125,-55.61250305175781,-11.475000381469727,-9.731250762939453
1750927195563262700,6.1532626953125,-55.63125228881836,-11.081250190734863,-9.581250190734863
1750927195573262800,6.163262939453125,-55.63125228881836,-10.706250190734863,-9.75
1750927195583262700,6.1732626953125,-55.406253814697266,-10.36875057220459,-9.862500190734863
1750927195593262800,6.183262939453125,-55.44375228881836,-9.862500190734863,-9.675000190734863
1750927195603262700,6.1932626953125,-55.218753814697266,-9.131250381469727,-9.600000381469727
1750927195613262800,6.203262939453125,-55.462501525878906,-8.362500190734863,-9.881250381469727
1750927195623262700,6.2132626953125,-55.35000228881836,-7.762500286102295,-9.862500190734863
1750927195633262800,6.223262939453125,-55.44375228881836,-6.768750190734863,-9.71250057220459
1750927195643262700,6.2332626953125,-55.51875305175781,-5.681250095367432,-9.412500381469727
1750927195653262800,6.243262939453125,-55.275001525878906,-4.875,-9.412500381469727
1750927195663262700,6.2532626953125,-55.44375228881836,-3.825000047683716,-9.05625057220459
1750927195673262800,6.263262939453125,-55.368751525878906,-3,-9.168750762939453
1750927195683262700,6.2732626953125,-55.48125076293945,-2.512500047683716,-9.412500381469727
1750927195693262800,6.283262939453125,-55.181251525878906,-1.6687500476837158,-9.33750057220459
1750927195703262700,6.2932626953125,-55.01250076293945,-0.768750011920929,-9.393750190734863
1750927195713262800,6.303262939453125,-54.900001525878906,-0.15000000596046448,-9.33750057220459
1750927195723262700,6.3132626953125,-54.712501525878906,0.4687500298023224,-9.412500381469727
1750927195733262800,6.323262939453125,-54.76875305175781,1.256250023841858,-9.356250762939453
1750927195743262700,6.3332626953125,-54.63750076293945,1.9687501192092896,-9.5625
1750927195753262800,6.343262939453125,-54.63750076293945,2.7375001907348633,-9.43125057220459
1750927195763262700,6.3532626953125,-54.48750305175781,3.656250238418579,-9.43125057220459
1750927195773262800,6.363262939453125,-54.50625228881836,4.5,-9.375
1750927195783262700,6.3732626953125,-54.20625305175781,5.25,-9.24375057220459
1750927195793262800,6.383262939453125,-54.20625305175781,6.037500381469727,-9.450000762939453
1750927195803262700,6.3932626953125,-54.187503814697266,6.768750190734863,-9.318750381469727
1750927195813262800,6.403262939453125,-54.13125228881836,7.443750381469727,-9.506250381469727
1750927195823262700,6.4132626953125,-53.775001525878906,8.193750381469727,-9.600000381469727
1750927195833262800,6.423262939453125,-53.28750228881836,8.887500762939453,-9.75
1750927195843262700,6.4332626953125,-52.781253814697266,9.581250190734863,-9.75
1750927195853262800,6.443262939453125,-52.53750228881836,10.350000381469727,-9.71250057220459
1750927195863262700,6.4532626953125,-52.23750305175781,11.15625,-9.80625057220459
1750927195873262800,6.463262939453125,-51.750003814697266,11.793750762939453,-9.9375
1750927195883262700,6.4732626953125,-51.093753814697266,12.468750953674316,-10.27500057220459
1750927195893262800,6.483262939453125,-50.70000076293945,13.162500381469727,-10.18125057220459
1750927195903262700,6.4932626953125,-50.531253814697266,13.818750381469727,-9.975000381469727
1750927195913262800,6.503262939453125,-50.10000228881836,14.512500762939453,-10.237500190734863
1750927195923262700,6.5132626953125,-49.80000305175781,15.187500953674316,-10.293750762939453
1750927195933262800,6.523262939453125,-49.031253814697266,15.825000762939453,-10.256250381469727
1750927195943262700,6.5332626953125,-48.900001525878906,16.293750762939453,-10.200000762939453
1750927195953262800,6.543262939453125,-48.48750305175781,16.96875,-10.03125
1750927195963262700,6.5532626953125,-48.375003814697266,17.512500762939453,-9.975000381469727
1750927195973262800,6.563262939453125,-47.70000076293945,17.962501525878906,-9.881250381469727
1750927195983262700,6.5732626953125,-47.400001525878906,18.375,-10.050000190734863
1750927195993262800,6.583262939453125,-47.26875305175781,18.900001525878906,-9.956250190734863
1750927196003262700,6.5932626953125,-47.15625,19.537500381469727,-9.90000057220459
1750927196013262800,6.603262939453125,-47.10000228881836,19.875,-10.08750057220459
1750927196023262700,6.6132626953125,-46.53750228881836,20.193750381469727,-10.143750190734863
1750927196033262800,6.623262939453125,-46.462501525878906,20.53125,-10.27500057220459
1750927196043262700,6.6332626953125,-46.29375076293945,20.73750114440918,-10.443750381469727
1750927196053262800,6.643262939453125,-46.38750076293945,21.037500381469727,-10.40625
1750927196063262700,6.6532626953125,-46.33125305175781,21.318750381469727,-10.293750762939453
1750927196073262800,6.663262939453125,-46.33125305175781,21.262500762939453,-10.143750190734863
1750927196083262700,6.6732626953125,-46.29375076293945,21.28125,-10.012500762939453
1750927196093262800,6.683262939453125,-46.16250228881836,21.375,-9.90000057220459
1750927196103262700,6.6932626953125,-46.16250228881836,21.375,-10.03125
1750927196113262800,6.703262939453125,-46.06875228881836,21.150001525878906,-10.012500762939453
1750927196123262700,6.7132626953125,-46.06875228881836,20.92500114440918,-9.9375
1750927196133262800,6.723262939453125,-46.25625228881836,20.90625,-9.90000057220459
1750927196143262700,6.7332626953125,-46.59375,20.568750381469727,-9.9375
1750927196153262800,6.743262939453125,-46.6875,20.400001525878906,-10.08750057220459
1750927196163262700,6.7532626953125,-47.10000228881836,19.950000762939453,-10.068750381469727
1750927196173262800,6.763262939453125,-47.83125305175781,19.33125114440918,-10.106250762939453
1750927196183262700,6.7732626953125,-48.39375305175781,18.95625114440918,-10.125
1750927196193262800,6.783262939453125,-48.69375228881836,18.337501525878906,-10.237500190734863
1750927196203262700,6.7932626953125,-49.23750305175781,18.09375,-10.050000190734863
1750927196213262800,6.803262939453125,-49.38750076293945,17.381250381469727,-10.08750057220459
1750927196223262700,6.8132626953125,-49.80000305175781,16.59375,-10.18125057220459
1750927196233262800,6.823262939453125,-50.32500076293945,15.768750190734863,-9.956250190734863
1750927196243262700,6.8332626953125,-50.70000076293945,15.093750953674316,-10.068750381469727
1750927196253262800,6.843262939453125,-50.83125305175781,14.250000953674316,-10.012500762939453
1750927196263262700,6.8532626953125,-51.20625305175781,13.218750953674316,-9.90000057220459
1750927196273262800,6.863262939453125,-51.63750076293945,12.43125057220459,-9.768750190734863
1750927196283262700,6.8732626953125,-51.843753814697266,11.4375,-9.918750762939453
1750927196293262800,6.883262939453125,-52.500003814697266,10.443750381469727,-9.99375057220459
1750927196303262700,6.8932626953125,-53.08125305175781,9.675000190734863,-9.731250762939453
1750927196313262800,6.903262939453125,-53.38125228881836,8.737500190734863,-9.787500381469727
1750927196323262700,6.9132626953125,-53.70000076293945,7.818750381469727,-9.99375057220459
1750927196333262800,6.923262939453125,-54.16875076293945,7.143750190734863,-9.80625057220459
1750927196343262700,6.9332626953125,-54.618751525878906,6.450000286102295,-9.787500381469727
1750927196353262800,6.943262939453125,-55.01250076293945,5.868750095367432,-9.768750190734863
1750927196363262700,6.9532626953125,-55.462501525878906,4.96875,-9.600000381469727
1750927196373262800,6.963262939453125,-55.593753814697266,4.368750095367432,-9.450000762939453
1750927196383262700,6.9732626953125,-55.44375228881836,3.5812501907348633,-9.71250057220459
1750927196393262800,6.983262939453125,-55.53750228881836,3.1312501430511475,-9.675000190734863
1750927196403262700,6.9932626953125,-55.687503814697266,2.231250047683716,-9.506250381469727
1750927196413262800,7.003262939453125,-55.70625305175781,1.5937501192092896,-9.881250381469727
1750927196423262700,7.0132626953125,-55.72500228881836,0.9187500476837158,-9.956250190734863
1750927196433262800,7.023262939453125,-55.80000305175781,0.1875,-9.84375
1750927196443262700,7.0332626953125,-55.61250305175781,-0.4125000238418579,-9.881250381469727
1750927196453262800,7.043262939453125,-55.593753814697266,-1.256250023841858,-9.956250190734863
1750927196463262700,7.0532626953125,-55.72500228881836,-1.8375000953674316,-10.162500381469727
1750927196473262800,7.063262939453125,-55.781253814697266,-2.6437501907348633,-10.18125057220459
1750927196483262700,7.0732626953125,-55.743751525878906,-3.187500238418579,-10.256250381469727
1750927196493262800,7.083262939453125,-55.80000305175781,-3.8062500953674316,-10.068750381469727
1750927196503262700,7.0932626953125,-56.10000228881836,-4.331250190734863,-10.012500762939453
1750927196513262800,7.103262939453125,-56.08125305175781,-5.081250190734863,-10.18125057220459
1750927196523262700,7.1132626953125,-56.212501525878906,-5.512500286102295,-10.443750381469727
1750927196533262800,7.123262939453125,-56.28750228881836,-6.075000286102295,-10.537500381469727
1750927196543262700,7.1332626953125,-55.931251525878906,-6.750000476837158,-10.27500057220459
1750927196553262800,7.143262939453125,-56.025001525878906,-7.275000095367432,-10.106250762939453
1750927196563262700,7.1532626953125,-55.91250228881836,-7.912500381469727,-10.050000190734863
1750927196573262800,7.163262939453125,-55.593753814697266,-8.4375,-10.068750381469727
1750927196583262700,7.1732626953125,-55.275001525878906,-8.86875057220459,-9.99375057220459
1750927196593262800,7.183262939453125,-55.29375076293945,-9.09375,-10.050000190734863
1750927196603262700,7.1932626953125,-55.181251525878906,-9.412500381469727,-9.956250190734863
1750927196613262800,7.203262939453125,-55.087501525878906,-9.43125057220459,-9.881250381469727
1750927196623262700,7.2132626953125,-55.218753814697266,-9.506250381469727,-9.975000381469727
1750927196633262800,7.223262939453125,-55.33125305175781,-9.46875,-9.918750762939453
1750927196643262700,7.2332626953125,-55.23750305175781,-9.356250762939453,-9.918750762939453
1750927196653262800,7.243262939453125,-55.650001525878906,-9.09375,-9.731250762939453
1750927196663262700,7.2532626953125,-55.85625076293945,-8.86875057220459,-9.675000190734863
1750927196673262800,7.263262939453125,-55.781253814697266,-8.850000381469727,-9.412500381469727
1750927196683262700,7.2732626953125,-55.781253814697266,-8.643750190734863,-9.300000190734863
1750927196693262800,7.283262939453125,-55.968753814697266,-8.4375,-9.43125057220459
1750927196703262700,7.2932626953125,-56.04375076293945,-7.912500381469727,-9.262500762939453
1750927196713262800,7.303262939453125,-55.91250228881836,-7.575000286102295,-9.356250762939453
1750927196723262700,7.3132626953125,-56.08125305175781,-6.806250095367432,-9.206250190734863
1750927196733262800,7.323262939453125,-55.968753814697266,-6.375000476837158,-9.262500762939453
1750927196743262700,7.3332626953125,-55.81875228881836,-5.850000381469727,-9.543750762939453
1750927196753262800,7.343262939453125,-56.00625228881836,-5.043750286102295,-9.600000381469727
1750927196763262700,7.3532626953125,-56.08125305175781,-4.275000095367432,-9.5625
1750927196773262800,7.363262939453125,-55.80000305175781,-3.543750047683716,-9.24375057220459
1750927196783262700,7.3732626953125,-55.89375305175781,-2.71875,-9.206250190734863
1750927196793262800,7.383262939453125,-55.76250076293945,-1.818750023841858,-9.112500190734863
1750927196803262700,7.3932626953125,-55.650001525878906,-1.0125000476837158,-9.1875
1750927196813262800,7.403262939453125,-55.61250305175781,-0.24375000596046448,-9.262500762939453
1750927196823262700,7.4132626953125,-55.51875305175781,0.8250000476837158,-8.981250762939453
1750927196833262800,7.423262939453125,-55.25625228881836,1.7625000476837158,-8.925000190734863
1750927196843262700,7.4332626953125,-55.05000305175781,2.5875000953674316,-8.86875057220459
1750927196853262800,7.443262939453125,-55.05000305175781,3.5062501430511475,-9
1750927196863262700,7.4532626953125,-54.69375228881836,4.462500095367432,-8.850000381469727
1750927196873262800,7.463262939453125,-54.58125305175781,5.34375,-8.96250057220459
1750927196883262700,7.4732626953125,-54.41250228881836,6.150000095367432,-9
1750927196893262800,7.483262939453125,-53.88750076293945,7.143750190734863,-9.112500190734863
1750927196903262700,7.4932626953125,-53.66250228881836,7.912500381469727,-9.225000381469727
1750927196913262800,7.503262939453125,-53.587501525878906,8.8125,-9.375
1750927196923262700,7.5132626953125,-53.343753814697266,9.75,-9.412500381469727
1750927196933262800,7.523262939453125,-52.968753814697266,10.59375,-9.33750057220459
1750927196943262700,7.5332626953125,-52.57500076293945,11.268750190734863,-9.46875
1750927196953262800,7.543262939453125,-52.05000305175781,12.15000057220459,-9.33750057220459
1750927196963262700,7.5532626953125,-51.78750228881836,12.90000057220459,-9.075000762939453
1750927196973262800,7.563262939453125,-51.58125305175781,13.537500381469727,-9.15000057220459
1750927196983262700,7.5732626953125,-51.16875076293945,14.137500762939453,-9.15000057220459
1750927196993262800,7.583262939453125,-50.625003814697266,14.643750190734863,-9.112500190734863
1750927197003262700,7.5932626953125,-50.156253814697266,15.05625057220459,-9.262500762939453
1750927197013262800,7.603262939453125,-49.91250228881836,15.656250953674316,-9.43125057220459
1750927197023262700,7.6132626953125,-49.650001525878906,16.162500381469727,-9.693750381469727
1750927197033262800,7.623262939453125,-49.406253814697266,16.5,-9.956250190734863
1750927197043262700,7.6332626953125,-48.60000228881836,17.043750762939453,-10.36875057220459
1750927197063262700,7.6532626953125,-48.30000305175781,17.793750762939453,-10.36875057220459
1750927197073262800,7.663262939453125,-48,18.243751525878906,-10.425000190734863
1750927197083262700,7.6732626953125,-47.92500305175781,18.731250762939453,-10.331250190734863
1750927197093262800,7.683262939453125,-47.66250228881836,19.200000762939453,-10.331250190734863
1750927197103262700,7.6932626953125,-47.4375,19.537500381469727,-10.200000762939453
1750927197113262800,7.703262939453125,-47.17500305175781,19.575000762939453,-10.293750762939453
1750927197123262700,7.7132626953125,-47.4375,19.61250114440918,-10.46250057220459
1750927197133262800,7.723262939453125,-47.0625,19.950000762939453,-10.425000190734863
1750927197143262700,7.7332626953125,-46.931251525878906,20.17500114440918,-10.46250057220459
1750927197153262800,7.743262939453125,-46.743751525878906,20.306251525878906,-10.481250762939453
1750927197163262700,7.7532626953125,-46.650001525878906,20.36250114440918,-10.518750190734863
1750927197173262800,7.763262939453125,-46.25625228881836,20.25,-10.518750190734863
1750927197183262700,7.7732626953125,-46.125,20.34375,-10.800000190734863
1750927197193262800,7.783262939453125,-46.23750305175781,20.606250762939453,-10.6875
1750927197203262700,7.7932626953125,-46.3125,20.662500381469727,-10.518750190734863
1750927197213262800,7.803262939453125,-46.44375228881836,20.287500381469727,-10.856250762939453
1750927197223262700,7.8132626953125,-46.3125,19.89375114440918,-10.950000762939453
1750927197233262800,7.823262939453125,-46.63125228881836,19.575000762939453,-11.02500057220459
1750927197243262700,7.8332626953125,-46.85625076293945,19.462501525878906,-11.006250381469727
1750927197253262800,7.843262939453125,-47.38125228881836,19.23750114440918,-10.93125057220459
1750927197263262700,7.8532626953125,-47.73750305175781,18.9375,-10.706250190734863
1750927197273262800,7.863262939453125,-47.90625,18.431251525878906,-10.762500762939453
1750927197283262700,7.8732626953125,-48.03750228881836,18,-10.59375
1750927197293262800,7.883262939453125,-48.39375305175781,17.756250381469727,-10.237500190734863
1750927197303262700,7.8932626953125,-49.087501525878906,17.45625114440918,-10.03125
1750927197313262800,7.903262939453125,-49.462501525878906,16.80000114440918,-10.08750057220459
1750927197323262700,7.9132626953125,-49.51875305175781,15.975000381469727,-10.200000762939453
1750927197333262800,7.923262939453125,-49.95000076293945,15.281250953674316,-10.21875
1750927197343262700,7.9332626953125,-50.45625305175781,14.49375057220459,-10.068750381469727
1750927197353262800,7.943262939453125,-51.07500076293945,13.800000190734863,-9.84375
1750927197363262700,7.9532626953125,-51.562503814697266,12.99375057220459,-9.956250190734863
1750927197373262800,7.963262939453125,-52.031253814697266,12.318750381469727,-9.90000057220459
1750927197383262700,7.9732626953125,-52.29375076293945,11.643750190734863,-9.9375
1750927197393262800,7.983262939453125,-52.48125076293945,10.96875,-9.675000190734863
1750927197403262700,7.9932626953125,-53.13750076293945,10.46250057220459,-9.581250190734863
1750927197423262700,8.0132626953125,-53.531253814697266,9.05625057220459,-9.881250381469727
1750927197433262800,8.023262939453126,-53.73750305175781,8.512500762939453,-9.84375
1750927197443262700,8.0332626953125,-53.94375228881836,7.987500190734863,-9.693750381469727
1750927197453262800,8.043262939453125,-54.20625305175781,7.106250286102295,-9.862500190734863
1750927197463262700,8.0532626953125,-54.31875228881836,6.375000476837158,-9.918750762939453
1750927197473262800,8.063262939453125,-54.337501525878906,5.831250190734863,-10.125
1750927197483262700,8.0732626953125,-54.63750076293945,5.0625,-10.125
1750927197493262800,8.083262939453125,-54.937503814697266,4.40625,-10.143750190734863
1750927197503262700,8.0932626953125,-54.900001525878906,3.7687501907348633,-10.106250762939453
1750927197513262800,8.103262939453124,-54.843753814697266,3,-10.443750381469727
1750927197523262700,8.1132626953125,-54.712501525878906,2.2125000953674316,-10.74375057220459
1750927197533262800,8.123262939453125,-54.63750076293945,1.725000023841858,-10.893750190734863
1750927197543262700,8.1332626953125,-54.78750228881836,1.1812500953674316,-11.02500057220459
1750927197553262800,8.143262939453125,-55.14375305175781,0.4312500059604645,-11.0625
1750927197563262700,8.1532626953125,-54.843753814697266,-0.3187500238418579,-11.193750381469727
1750927197573262800,8.163262939453125,-54.91875076293945,-0.956250011920929,-11.268750190734863
1750927197583262700,8.1732626953125,-55.218753814697266,-1.5937501192092896,-11.325000762939453
1750927197593262800,8.183262939453124,-55.275001525878906,-2.418750047683716,-11.381250381469727
1750927197603262700,8.1932626953125,-55.687503814697266,-3.093750238418579,-11.268750190734863
1750927197613262800,8.203262939453126,-55.72500228881836,-3.843750238418579,-11.25
1750927197623262700,8.2132626953125,-55.53750228881836,-4.59375,-11.15625
1750927197633262800,8.223262939453125,-55.462501525878906,-5.193750381469727,-10.950000762939453
1750927197643262700,8.2332626953125,-55.593753814697266,-5.662500381469727,-10.912500381469727
1750927197653262800,8.243262939453125,-55.462501525878906,-6.337500095367432,-10.74375057220459
1750927197663262700,8.2532626953125,-55.42500305175781,-6.918750286102295,-10.987500190734863
1750927197673262800,8.263262939453124,-55.61250305175781,-7.443750381469727,-10.912500381469727
1750927197683262700,8.2732626953125,-55.42500305175781,-7.687500476837158,-10.856250762939453
1750927197693262800,8.283262939453126,-55.51875305175781,-8.231250762939453,-10.800000190734863
1750927197703262700,8.2932626953125,-55.837501525878906,-8.662500381469727,-10.762500762939453
1750927197713262800,8.303262939453125,-55.968753814697266,-9.075000762939453,-11.006250381469727
1750927197723262700,8.3132626953125,-55.837501525878906,-9.33750057220459,-10.800000190734863
1750927197733262800,8.323262939453125,-55.98750305175781,-9.46875,-11.02500057220459
1750927197743262700,8.3332626953125,-55.81875228881836,-9.675000190734863,-10.78125
1750927197753262800,8.343262939453124,-55.76250076293945,-9.637500762939453,-10.800000190734863
1750927197763262700,8.3532626953125,-55.76250076293945,-9.862500190734863,-10.74375057220459
1750927197773262800,8.363262939453126,-55.66875076293945,-9.600000381469727,-10.631250381469727
1750927197783262700,8.3732626953125,-55.35000228881836,-9.46875,-10.668750762939453
1750927197793262800,8.383262939453125,-55.275001525878906,-9.225000381469727,-10.5
1750927197803262700,8.3932626953125,-55.48125076293945,-9.112500190734863,-10.575000762939453
1750927197813262800,8.403262939453125,-55.38750076293945,-8.756250381469727,-10.425000190734863
1750927197823262700,8.4132626953125,-55.593753814697266,-8.25,-10.331250190734863
1750927197833262800,8.423262939453124,-55.556251525878906,-7.912500381469727,-10.18125057220459
1750927197843262700,8.4332626953125,-55.650001525878906,-7.387500286102295,-10.36875057220459
1750927197853262800,8.443262939453126,-55.66875076293945,-6.693750381469727,-10.387500762939453
1750927197863262700,8.4532626953125,-55.81875228881836,-6.018750190734863,-10.21875
1750927197873262800,8.463262939453125,-55.61250305175781,-5.15625,-10.162500381469727
1750927197883262700,8.4732626953125,-55.556251525878906,-4.237500190734863,-10.293750762939453
1750927197893262800,8.483262939453125,-55.57500076293945,-3.5250000953674316,-10.143750190734863
1750927197903262700,8.4932626953125,-55.42500305175781,-2.6625001430511475,-10.200000762939453
1750927197913262800,8.503262939453125,-55.125003814697266,-1.725000023841858,-10.125
1750927197923262700,8.5132626953125,-54.900001525878906,-0.8437500596046448,-10.068750381469727
1750927197933262800,8.523262939453126,-54.806251525878906,-0.13125000894069672,-10.068750381469727
1750927197943262700,8.5332626953125,-54.67500305175781,0.862500011920929,-10.3125
1750927197953262800,8.543262939453125,-54.86250305175781,1.7062500715255737,-10.3125
1750927197963262700,8.5532626953125,-54.73125076293945,2.5875000953674316,-10.237500190734863
1750927197973262800,8.563262939453125,-54.58125305175781,3.5812501907348633,-10.125
1750927197983262700,8.5732626953125,-54.45000076293945,4.40625,-10.162500381469727
1750927197993262800,8.583262939453125,-54.468753814697266,5.34375,-10.3125
1750927198003262700,8.5932626953125,-54.39375305175781,6.243750095367432,-10.03125
1750927198013262800,8.603262939453124,-54.35625076293945,7.125000476837158,-9.975000381469727
1750927198023262700,8.6132626953125,-53.868751525878906,7.968750476837158,-9.75
1750927198033262800,8.623262939453125,-53.493751525878906,8.737500190734863,-9.84375
1750927198043262700,8.6332626953125,-53.118751525878906,9.46875,-9.862500190734863
1750927198053262800,8.643262939453125,-52.687503814697266,10.125,-9.975000381469727
1750927198063262700,8.6532626953125,-52.181251525878906,10.875,-10.143750190734863
1750927198073262800,8.663262939453125,-52.01250076293945,11.49375057220459,-10.125
1750927198083262700,8.6732626953125,-51.843753814697266,12.112500190734863,-10.27500057220459
1750927198093262800,8.683262939453124,-51.39375305175781,12.956250190734863,-10.200000762939453
1750927198103262700,8.6932626953125,-51.11250305175781,13.443750381469727,-10.5
1750927198113262800,8.703262939453126,-50.868751525878906,13.800000190734863,-10.6875
1750927198123262700,8.7132626953125,-50.70000076293945,14.250000953674316,-10.78125
1750927198133262800,8.723262939453125,-50.38125228881836,14.756250381469727,-10.950000762939453
1750927198143262700,8.7332626953125,-50.062503814697266,15.093750953674316,-11.0625
1750927198153262800,8.743262939453125,-49.556251525878906,15.506250381469727,-11.100000381469727
1750927198163262700,8.7532626953125,-49.10625076293945,15.99375057220459,-11.30625057220459
1750927198173262800,8.763262939453124,-48.806251525878906,15.99375057220459,-11.643750190734863
1750927198183262700,8.7732626953125,-48.76875305175781,16.481250762939453,-11.456250190734863
1750927198193262800,8.783262939453126,-48.562503814697266,16.912500381469727,-11.475000381469727
1750927198203262700,8.7932626953125,-48.11250305175781,17.100000381469727,-11.40000057220459
1750927198213262800,8.803262939453125,-48.03750228881836,17.4375,-11.381250381469727
1750927198223262700,8.8132626953125,-48.093753814697266,17.756250381469727,-11.193750381469727
1750927198233262800,8.823262939453125,-47.98125076293945,18.056251525878906,-11.25
1750927198243262700,8.8332626953125,-47.88750076293945,18.243751525878906,-11.100000381469727
1750927198253262800,8.843262939453124,-47.66250228881836,18.637500762939453,-11.006250381469727
1750927198263262700,8.8532626953125,-47.38125228881836,18.67500114440918,-11.006250381469727
1750927198273262800,8.863262939453126,-47.17500305175781,18.918750762939453,-10.93125057220459
1750927198283262700,8.8732626953125,-47.0625,19.181251525878906,-11.0625
1750927198293262800,8.883262939453125,-46.91250228881836,19.275001525878906,-10.950000762939453
1750927198303262700,8.8932626953125,-46.875,19.3125,-10.950000762939453
1750927198313262800,8.903262939453125,-46.80000305175781,19.181251525878906,-10.93125057220459
1750927198323262700,8.9132626953125,-46.650001525878906,18.975000381469727,-11.006250381469727
1750927198333262800,8.923262939453124,-46.81875228881836,18.84375,-11.137500762939453
1750927198343262700,8.9332626953125,-47.118751525878906,18.731250762939453,-11.287500381469727
1750927198353262800,8.943262939453126,-47.13750076293945,18.356250762939453,-11.381250381469727
1750927198363262700,8.9532626953125,-47.41875076293945,18.09375,-11.21250057220459
1750927198373262800,8.963262939453125,-47.70000076293945,17.71875,-11.287500381469727
1750927198383262700,8.9732626953125,-47.8125,17.587501525878906,-11.418750762939453
1750927198393262800,8.983262939453125,-48.22500228881836,17.137500762939453,-11.512500762939453
1750927198403262700,8.9932626953125,-48.468753814697266,17.025001525878906,-11.362500190734863
1750927198413262800,9.003262939453125,-48.73125076293945,16.650001525878906,-11.15625
1750927198423262700,9.0132626953125,-48.900001525878906,16.275001525878906,-10.987500190734863
1750927198433262800,9.023262939453126,-49.500003814697266,16.03125,-10.96875
1750927198443262700,9.0332626953125,-49.81875228881836,15.581250190734863,-10.96875
1750927198453262800,9.043262939453125,-50.32500076293945,15.093750953674316,-10.987500190734863
1750927198463262700,9.0532626953125,-50.79375076293945,14.287500381469727,-10.762500762939453
1750927198473262800,9.063262939453125,-51.093753814697266,13.968750953674316,-10.668750762939453
1750927198483262700,9.0732626953125,-51.60000228881836,13.143750190734863,-10.856250762939453
1750927198493262800,9.083262939453125,-51.91875076293945,12.52500057220459,-10.706250190734863
1750927198503262700,9.0932626953125,-52.38750076293945,11.77500057220459,-10.83750057220459
1750927198513262800,9.103262939453124,-52.687503814697266,10.800000190734863,-10.818750381469727
1750927198523262700,9.1132626953125,-53.17500305175781,9.956250190734863,-10.93125057220459
1750927198533262800,9.123262939453125,-53.36250305175781,9,-10.96875
1750927198543262700,9.1332626953125,-53.56875228881836,8.268750190734863,-11.0625
1750927198553262800,9.143262939453125,-53.94375228881836,7.406250476837158,-11.231250762939453
1750927198563262700,9.1532626953125,-54.093753814697266,6.581250190734863,-11.30625057220459
1750927198573262800,9.163262939453125,-54.39375305175781,5.625,-11.606250762939453
1750927198583262700,9.1732626953125,-54.656253814697266,4.706250190734863,-11.4375
1750927198593262800,9.183262939453124,-54.67500305175781,4.050000190734863,-11.475000381469727
1750927198603262700,9.1932626953125,-54.806251525878906,3.375000238418579,-11.362500190734863
1750927198613262800,9.203262939453126,-54.95625305175781,2.8500001430511475,-11.325000762939453
1750927198623262700,9.2132626953125,-55.312503814697266,2.2875001430511475,-11.25
1750927198633262800,9.223262939453125,-55.38750076293945,1.4625000953674316,-11.15625
1750927198643262700,9.2332626953125,-55.57500076293945,0.9750000238418579,-11.02500057220459
1750927198653262800,9.243262939453125,-55.687503814697266,0.39375001192092896,-10.893750190734863
1750927198663262700,9.2532626953125,-55.72500228881836,-0.16875000298023224,-10.950000762939453
1750927198673262800,9.263262939453124,-56.00625228881836,-0.675000011920929,-10.93125057220459
1750927198683262700,9.2732626953125,-55.968753814697266,-1.2375000715255737,-10.96875
1750927198693262800,9.283262939453126,-55.875003814697266,-1.9500000476837158,-11.081250190734863
1750927198703262700,9.2932626953125,-55.650001525878906,-2.7375001907348633,-11.25
1750927198713262800,9.303262939453125,-55.76250076293945,-3.356250047683716,-11.381250381469727
1750927198723262700,9.3132626953125,-55.89375305175781,-4.3125,-11.625
1750927198733262800,9.323262939453125,-55.98750305175781,-4.78125,-11.606250762939453
1750927198743262700,9.3332626953125,-55.875003814697266,-5.53125,-11.86875057220459
1750927198753262800,9.343262939453124,-55.593753814697266,-6.281250476837158,-11.756250381469727
1750927198763262700,9.3532626953125,-55.57500076293945,-7.106250286102295,-11.96250057220459
1750927198773262800,9.363262939453126,-55.650001525878906,-7.593750476837158,-11.793750762939453
1750927198783262700,9.3732626953125,-55.593753814697266,-8.175000190734863,-11.831250190734863
1750927198793262800,9.383262939453125,-55.63125228881836,-8.606250762939453,-11.550000190734863
1750927198803262700,9.3932626953125,-55.275001525878906,-9.05625057220459,-11.550000190734863
1750927198813262800,9.403262939453125,-54.82500076293945,-9.731250762939453,-11.831250190734863
1750927198823262700,9.4132626953125,-54.78750228881836,-9.99375057220459,-11.756250381469727
1750927198833262800,9.423262939453124,-54.69375228881836,-10.55625057220459,-11.831250190734863
1750927198843262700,9.4332626953125,-54.54375076293945,-10.74375057220459,-11.737500190734863
1750927198853262800,9.443262939453126,-54.50625228881836,-11.02500057220459,-11.793750762939453
1750927198863262700,9.4532626953125,-54.67500305175781,-11.325000762939453,-11.700000762939453
1750927198873262800,9.463262939453125,-54.41250228881836,-11.625,-11.831250190734863
1750927198883262700,9.4732626953125,-54.73125076293945,-11.58750057220459,-11.49375057220459
1750927198893262800,9.483262939453125,-54.58125305175781,-11.737500190734863,-11.381250381469727
1750927198903262700,9.4932626953125,-54.750003814697266,-11.4375,-11.325000762939453
1750927198913262800,9.503262939453125,-54.993751525878906,-11.11875057220459,-11.325000762939453
1750927198923262700,9.5132626953125,-54.937503814697266,-10.800000190734863,-11.30625057220459
1750927198933262800,9.523262939453126,-54.937503814697266,-10.65000057220459,-11.381250381469727
1750927198943262700,9.5332626953125,-54.806251525878906,-10.21875,-11.287500381469727
1750927198953262800,9.543262939453125,-54.91875076293945,-9.61875057220459,-11.325000762939453
1750927198963262700,9.5532626953125,-54.656253814697266,-9,-11.606250762939453
1750927198973262800,9.563262939453125,-54.88125228881836,-8.34375,-11.4375
1750927198983262700,9.5732626953125,-54.54375076293945,-8.11875057220459,-11.34375
1750927198993262800,9.583262939453125,-54.431251525878906,-7.331250190734863,-11.137500762939453
1750927199003262700,9.5932626953125,-54.562503814697266,-6.843750476837158,-11.15625
1750927199013262800,9.603262939453124,-54.618751525878906,-6.225000381469727,-11.15625
1750927199023262700,9.6132626953125,-54.806251525878906,-5.512500286102295,-11.268750190734863
1750927199033262800,9.623262939453125,-54.86250305175781,-4.912500381469727,-11.21250057220459
1750927199043262700,9.6332626953125,-54.993751525878906,-4.162500381469727,-10.856250762939453
1750927199053262800,9.643262939453125,-55.33125305175781,-3.4125001430511475,-11.100000381469727
1750927199063262700,9.6532626953125,-55.63125228881836,-2.4750001430511475,-11.043750762939453
1750927199073262800,9.663262939453125,-55.61250305175781,-1.8750001192092896,-11.137500762939453
1750927199083262700,9.6732626953125,-55.593753814697266,-0.956250011920929,-10.96875
1750927199093262800,9.683262939453124,-55.51875305175781,0.11250000447034836,-11.006250381469727
1750927199103262700,9.6932626953125,-55.51875305175781,0.9187500476837158,-11.043750762939453
1750927199113262800,9.703262939453126,-55.406253814697266,1.7812501192092896,-11.043750762939453
1750927199123262700,9.7132626953125,-55.44375228881836,2.512500047683716,-11.231250762939453
1750927199133262800,9.723262939453125,-55.312503814697266,3.3937501907348633,-11.11875057220459
1750927199143262700,9.7332626953125,-54.97500228881836,4.237500190734863,-11.137500762939453
1750927199153262800,9.743262939453125,-54.67500305175781,5.175000190734863,-11.02500057220459
1750927199163262700,9.7532626953125,-54.375003814697266,5.71875,-11.325000762939453
1750927199173262800,9.763262939453124,-54.093753814697266,6.168750286102295,-11.362500190734863
1750927199183262700,9.7732626953125,-53.73750305175781,7.143750190734863,-11.100000381469727
1750927199193262800,9.783262939453126,-53.28750228881836,8.006250381469727,-10.96875
1750927199203262700,9.7932626953125,-52.95000076293945,8.606250762939453,-10.875
1750927199213262800,9.803262939453125,-52.743751525878906,9.09375,-10.83750057220459
1750927199223262700,9.8132626953125,-52.53750228881836,9.675000190734863,-10.93125057220459
1750927199233262800,9.823262939453125,-52.38750076293945,10.237500190734863,-11.100000381469727
1750927199243262700,9.8332626953125,-52.406253814697266,10.818750381469727,-10.93125057220459
1750927199253262800,9.843262939453124,-52.05000305175781,11.53125,-10.856250762939453
1750927199263262700,9.8532626953125,-51.806251525878906,11.887500762939453,-10.987500190734863
1750927199273262800,9.863262939453126,-51.73125076293945,12.375000953674316,-11.11875057220459
1750927199283262700,9.8732626953125,-51.31875228881836,12.975000381469727,-11.100000381469727
1750927199293262800,9.883262939453125,-50.681251525878906,13.65000057220459,-11.175000190734863
1750927199303262700,9.8932626953125,-50.23125076293945,14.081250190734863,-11.081250190734863
1750927199313262800,9.903262939453125,-49.98750305175781,14.550000190734863,-11.193750381469727
1750927199323262700,9.9132626953125,-49.312503814697266,15.168750762939453,-11.362500190734863
1750927199333262800,9.923262939453124,-49.10625076293945,15.825000762939453,-11.268750190734863
1750927199343262700,9.9332626953125,-48.50625228881836,16.368751525878906,-11.175000190734863
1750927199353262800,9.943262939453126,-48.281253814697266,16.650001525878906,-11.081250190734863
1750927199363262700,9.9532626953125,-47.962501525878906,17.100000381469727,-11.15625
1750927199373262800,9.963262939453125,-47.775001525878906,17.475000381469727,-11.11875057220459
1750927199383262700,9.9732626953125,-47.681251525878906,18,-11.137500762939453
1750927199393262800,9.983262939453125,-47.32500076293945,18.375,-11.0625
1750927199403262700,9.9932626953125,-47.0625,18.918750762939453,-10.875
1750927199413262800,10.003262939453125,-46.59375,19.275001525878906,-10.83750057220459
1750927199433262800,10.023262939453126,-45.97500228881836,20.193750381469727,-11.081250190734863
1750927199443262700,10.0332626953125,-45.86250305175781,20.475000381469727,-11.137500762939453
1750927199453262800,10.043262939453125,-45.60000228881836,20.850000381469727,-11.081250190734863
1750927199463262700,10.0532626953125,-45.22500228881836,21.09375,-11.100000381469727
1750927199473262800,10.063262939453125,-44.92500305175781,21.337501525878906,-11.006250381469727
1750927199483262700,10.0732626953125,-44.83125305175781,21.525001525878906,-11.02500057220459
1750927199493262800,10.083262939453125,-44.83125305175781,21.86250114440918,-10.912500381469727
1750927199503262700,10.0932626953125,-44.73750305175781,22.087501525878906,-10.818750381469727
1750927199513262800,10.103262939453124,-44.34375,22.162500381469727,-10.856250762939453
1750927199523262700,10.1132626953125,-44.118751525878906,22.42500114440918,-10.78125
1750927199533262800,10.123262939453125,-43.96875,22.51875114440918,-10.856250762939453
1750927199543262700,10.1332626953125,-44.13750076293945,22.443750381469727,-10.856250762939453
1750927199553262800,10.143262939453125,-44.17500305175781,22.61250114440918,-10.893750190734863
1750927199563262700,10.1532626953125,-44.36250305175781,22.462501525878906,-11.0625
1750927199573262800,10.163262939453125,-44.41875076293945,22.293750762939453,-11.231250762939453
1750927199583262700,10.1732626953125,-44.55000305175781,22.106250762939453,-11.362500190734863
1750927199593262800,10.183262939453124,-44.681251525878906,22.05000114440918,-11.34375
1750927199603262700,10.1932626953125,-44.625,21.787500381469727,-11.362500190734863
1750927199613262800,10.203262939453126,-44.92500305175781,21.5625,-11.325000762939453
1750927199623262700,10.2132626953125,-45.07500076293945,21.450000762939453,-11.325000762939453
1750927199633262800,10.223262939453125,-45.056251525878906,20.943750381469727,-11.268750190734863
1750927199643262700,10.2332626953125,-45.337501525878906,20.662500381469727,-11.137500762939453
1750927199653262800,10.243262939453125,-45.73125076293945,20.25,-11.175000190734863
1750927199663262700,10.2532626953125,-46.087501525878906,19.78125,-11.231250762939453
1750927199673262800,10.263262939453124,-46.57500076293945,19.21875,-11.30625057220459
1750927199683262700,10.2732626953125,-47.118751525878906,18.600000381469727,-11.475000381469727
1750927199693262800,10.283262939453126,-47.625,17.981250762939453,-11.71875
1750927199703262700,10.2932626953125,-47.92500305175781,17.15625,-11.850000381469727
1750927199713262800,10.303262939453125,-48.843753814697266,16.42500114440918,-12.018750190734863
1750927199723262700,10.3132626953125,-49.25625228881836,15.656250953674316,-12.112500190734863
1750927199733262800,10.323262939453125,-49.781253814697266,14.700000762939453,-12.037500381469727
1750927199743262700,10.3332626953125,-50.32500076293945,13.856250762939453,-12
1750927199753262800,10.343262939453124,-51.03750228881836,13.012500762939453,-12.05625057220459
1750927199763262700,10.3532626953125,-51.712501525878906,12.43125057220459,-11.981250762939453
1750927199773262800,10.363262939453126,-52.10625076293945,11.512500762939453,-11.793750762939453
1750927199783262700,10.3732626953125,-52.687503814697266,10.800000190734863,-11.756250381469727
1750927199793262800,10.383262939453125,-52.687503814697266,10.21875,-11.71875
1750927199803262700,10.3932626953125,-53.04375076293945,9.28125,-11.700000762939453
1750927199813262800,10.403262939453125,-53.56875228881836,8.568750381469727,-11.793750762939453
1750927199823262700,10.4132626953125,-53.906253814697266,7.762500286102295,-11.850000381469727
1750927199833262800,10.423262939453124,-54.000003814697266,6.993750095367432,-11.756250381469727
1750927199843262700,10.4332626953125,-54.243751525878906,5.925000190734863,-11.68125057220459
1750927199853262800,10.443262939453126,-54.39375305175781,5.212500095367432,-11.53125
1750927199863262700,10.4532626953125,-54.656253814697266,4.387500286102295,-11.34375
1750927199873262800,10.463262939453125,-54.937503814697266,3.4875001907348633,-11.287500381469727
1750927199883262700,10.4732626953125,-55.01250076293945,2.8687500953674316,-11.100000381469727
1750927199893262800,10.483262939453125,-55.125003814697266,2.0812501907348633,-11.043750762939453
1750927199903262700,10.4932626953125,-55.14375305175781,1.3875000476837158,-11.02500057220459
1750927199913262800,10.503262939453125,-55.33125305175781,0.862500011920929,-10.818750381469727
1750927199923262700,10.5132626953125,-55.35000228881836,0.24375000596046448,-10.856250762939453
1750927199933262800,10.523262939453126,-55.44375228881836,-0.39375001192092896,-11.02500057220459
1750927199943262700,10.5332626953125,-55.462501525878906,-0.862500011920929,-11.21250057220459
1750927199953262800,10.543262939453125,-55.53750228881836,-1.6125000715255737,-11.11875057220459
1750927199963262700,10.5532626953125,-55.57500076293945,-2.0625,-11.081250190734863
1750927199973262800,10.563262939453125,-55.368751525878906,-2.625,-11.287500381469727
1750927199983262700,10.5732626953125,-55.66875076293945,-2.9437501430511475,-11.02500057220459
1750927199993262800,10.583262939453125,-55.57500076293945,-3.6937501430511475,-11.231250762939453
1750927200003262700,10.5932626953125,-55.70625305175781,-4.143750190734863,-11.193750381469727
1750927200013262800,10.603262939453124,-55.81875228881836,-4.650000095367432,-11.0625
1750927200023262700,10.6132626953125,-55.89375305175781,-5.268750190734863,-10.800000190734863
1750927200033262800,10.623262939453125,-56.025001525878906,-5.8125,-10.856250762939453
1750927200043262700,10.6332626953125,-56.08125305175781,-6.318750381469727,-10.78125
1750927200053262800,10.643262939453125,-56.156253814697266,-6.637500286102295,-10.59375
1750927200063262700,10.6532626953125,-55.81875228881836,-7.031250476837158,-10.83750057220459
1750927200073262800,10.663262939453125,-55.80000305175781,-7.462500095367432,-10.6875
1750927200083262700,10.6732626953125,-55.70625305175781,-7.875000476837158,-10.74375057220459
1750927200093262800,10.683262939453124,-55.593753814697266,-8.34375,-10.800000190734863
1750927200103262700,10.6932626953125,-55.44375228881836,-8.71875,-10.93125057220459
1750927200113262800,10.703262939453126,-55.218753814697266,-8.71875,-10.818750381469727
1750927200123262700,10.7132626953125,-55.01250076293945,-9.075000762939453,-10.818750381469727
1750927200133262800,10.723262939453125,-54.88125228881836,-9.375,-10.800000190734863
1750927200143262700,10.7332626953125,-55.10625076293945,-9.600000381469727,-10.800000190734863
1750927200153262800,10.743262939453125,-55.125003814697266,-9.506250381469727,-10.893750190734863
1750927200163262700,10.7532626953125,-54.806251525878906,-9.52500057220459,-10.950000762939453
1750927200173262800,10.763262939453124,-54.82500076293945,-9.46875,-10.96875
1750927200183262700,10.7732626953125,-54.97500228881836,-9.1875,-10.987500190734863
1750927200193262800,10.783262939453126,-55.05000305175781,-8.981250762939453,-11.0625
1750927200203262700,10.7932626953125,-55.42500305175781,-8.325000762939453,-11.21250057220459
1750927200213262800,10.803262939453125,-55.462501525878906,-7.668750286102295,-11.21250057220459
1750927200223262700,10.8132626953125,-55.42500305175781,-7.275000095367432,-10.987500190734863
1750927200233262800,10.823262939453125,-55.44375228881836,-6.712500095367432,-10.893750190734863
1750927200243262700,10.8332626953125,-55.968753814697266,-6.037500381469727,-10.800000190734863
1750927200253262800,10.843262939453124,-55.72500228881836,-5.006250381469727,-10.537500381469727
1750927200263262700,10.8532626953125,-55.61250305175781,-4.237500190734863,-10.74375057220459
1750927200273262800,10.863262939453126,-55.35000228881836,-3.450000047683716,-10.74375057220459
1750927200283262700,10.8732626953125,-55.181251525878906,-2.9250001907348633,-10.818750381469727
1750927200293262800,10.883262939453125,-55.10625076293945,-2.0812501907348633,-10.78125
1750927200303262700,10.8932626953125,-54.937503814697266,-1.0125000476837158,-10.74375057220459
1750927200313262800,10.903262939453125,-54.618751525878906,-0.13125000894069672,-10.762500762939453
1750927200323262700,10.9132626953125,-54.11250305175781,0.9187500476837158,-10.83750057220459
1750927200333262800,10.923262939453124,-54.243751525878906,1.7812501192092896,-10.93125057220459
1750927200343262700,10.9332626953125,-54.150001525878906,2.9250001907348633,-10.46250057220459
1750927200353262800,10.943262939453126,-54.525001525878906,3.9000000953674316,-10.55625057220459
1750927200363262700,10.9532626953125,-54.35625076293945,5.025000095367432,-10.668750762939453
1750927200373262800,10.963262939453125,-54.20625305175781,5.831250190734863,-10.668750762939453
1750927200383262700,10.9732626953125,-54.07500076293945,6.712500095367432,-10.856250762939453
1750927200393262800,10.983262939453125,-53.94375228881836,7.368750095367432,-10.875
1750927200403262700,10.9932626953125,-53.79375076293945,8.02500057220459,-10.987500190734863
1750927200413262800,11.003262939453125,-53.55000305175781,8.625,-11.15625
1750927200423262700,11.0132626953125,-53.13750076293945,9.09375,-11.287500381469727
1750927200433262800,11.023262939453126,-52.70625305175781,9.862500190734863,-11.25
1750927200443262700,11.0332626953125,-52.181251525878906,10.293750762939453,-11.381250381469727
1750927200453262800,11.043262939453125,-51.712501525878906,10.818750381469727,-11.325000762939453
1750927200463262700,11.0532626953125,-51.22500228881836,11.456250190734863,-11.287500381469727
1750927200473262800,11.063262939453125,-50.83125305175781,12.375000953674316,-11.4375
1750927200493262800,11.083262939453125,-49.95000076293945,13.725000381469727,-11.68125057220459
1750927200503262700,11.0932626953125,-49.85625076293945,14.418750762939453,-11.90625
1750927200513262800,11.103262939453124,-49.57500076293945,15.018750190734863,-12.05625057220459
1750927200523262700,11.1132626953125,-49.29375076293945,15.656250953674316,-11.925000190734863
1750927200533262800,11.123262939453125,-48.88125228881836,16.3125,-12.131250381469727
1750927200543262700,11.1332626953125,-48.39375305175781,16.875,-12.168750762939453
1750927200553262800,11.143262939453125,-47.92500305175781,17.381250381469727,-12.037500381469727
1750927200563262700,11.1532626953125,-47.51250076293945,18.09375,-11.756250381469727
1750927200573262800,11.163262939453125,-47.212501525878906,18.525001525878906,-11.568750381469727
1750927200583262700,11.1732626953125,-46.5,19.181251525878906,-11.568750381469727
1750927200593262800,11.183262939453124,-45.82500076293945,19.70625114440918,-11.325000762939453
1750927200603262700,11.1932626953125,-45.712501525878906,20.26875114440918,-11.4375
1750927200613262800,11.203262939453126,-45.5625,20.681251525878906,-11.30625057220459
1750927200623262700,11.2132626953125,-45.30000305175781,21,-11.21250057220459
1750927200633262800,11.223262939453125,-45.16875076293945,21.450000762939453,-11.25
1750927200643262700,11.2332626953125,-44.73750305175781,21.75,-11.325000762939453
1750927200653262800,11.243262939453125,-44.493751525878906,22.23750114440918,-11.49375057220459
1750927200663262700,11.2532626953125,-44.34375,22.350000381469727,-11.475000381469727
1750927200673262800,11.263262939453124,-44.19375228881836,22.61250114440918,-11.606250762939453
1750927200683262700,11.2732626953125,-43.44375228881836,22.818750381469727,-11.53125
1750927200693262800,11.283262939453126,-42.97500228881836,23.287500381469727,-11.58750057220459
1750927200703262700,11.2932626953125,-42.9375,23.400001525878906,-11.831250190734863
1750927200713262800,11.303262939453125,-42.69375228881836,23.475000381469727,-11.850000381469727
1750927200723262700,11.3132626953125,-42.9375,23.662500381469727,-11.625
1750927200733262800,11.323262939453125,-42.5625,23.53125,-11.606250762939453
1750927200743262700,11.3332626953125,-42.41250228881836,23.568750381469727,-11.475000381469727
1750927200753262800,11.343262939453124,-42.5625,23.4375,-11.418750762939453
1750927200763262700,11.3532626953125,-43.14375305175781,23.587501525878906,-11.381250381469727
1750927200773262800,11.363262939453126,-43.33125305175781,23.381250381469727,-11.4375
1750927200783262700,11.3732626953125,-43.368751525878906,23.306251525878906,-11.381250381469727
1750927200793262800,11.383262939453125,-43.650001525878906,23.08125114440918,-11.4375
1750927200803262700,11.3932626953125,-43.70625305175781,22.762500762939453,-11.643750190734863
1750927200813262800,11.403262939453125,-44.26875305175781,22.481250762939453,-11.512500762939453
1750927200823262700,11.4132626953125,-44.70000076293945,22.106250762939453,-11.68125057220459
1750927200833262800,11.423262939453124,-45.03750228881836,21.58125114440918,-11.887500762939453
1750927200843262700,11.4332626953125,-45.30000305175781,20.887500762939453,-11.887500762939453
1750927200853262800,11.443262939453126,-45.88125228881836,20.26875114440918,-11.887500762939453
1750927200863262700,11.4532626953125,-46.462501525878906,19.668750762939453,-12
1750927200873262800,11.463262939453125,-47.04375076293945,19.087501525878906,-11.887500762939453
1750927200883262700,11.4732626953125,-47.60625076293945,18.28125,-12.05625057220459
1750927200893262800,11.483262939453125,-48.13125228881836,17.700000762939453,-11.981250762939453
1750927200903262700,11.4932626953125,-48.900001525878906,16.89375114440918,-11.96250057220459
1750927200913262800,11.503262939453125,-49.500003814697266,16.200000762939453,-11.850000381469727
1750927200923262700,11.5132626953125,-49.875003814697266,15.318750381469727,-12.018750190734863
1750927200933262800,11.523262939453126,-50.41875076293945,14.40000057220459,-12.037500381469727
1750927200943262700,11.5332626953125,-50.83125305175781,13.387500762939453,-12.075000762939453
1750927200953262800,11.543262939453125,-51.63750076293945,12.300000190734863,-12.225000381469727
1750927200963262700,11.5532626953125,-52.25625228881836,11.625,-12.262500762939453
1750927200973262800,11.563262939453125,-52.743751525878906,10.46250057220459,-12.731250762939453
1750927200983262700,11.5732626953125,-52.85625076293945,9.300000190734863,-12.881250381469727
1750927200993262800,11.583262939453125,-53.08125305175781,8.21250057220459,-12.937500953674316
1750927201003262700,11.5932626953125,-53.587501525878906,7.312500476837158,-12.731250762939453
1750927201013262800,11.603262939453124,-53.906253814697266,6.318750381469727,-12.71250057220459
1750927201023262700,11.6132626953125,-54.26250076293945,5.475000381469727,-12.750000953674316
1750927201033262800,11.623262939453125,-53.962501525878906,4.425000190734863,-12.937500953674316
1750927201043262700,11.6332626953125,-53.92500305175781,3.356250047683716,-12.975000381469727
1750927201053262800,11.643262939453125,-53.906253814697266,2.5875000953674316,-12.787500381469727
1750927201063262700,11.6532626953125,-54.150001525878906,1.8375000953674316,-12.881250381469727
1750927201073262800,11.663262939453125,-54.39375305175781,1.068750023841858,-12.825000762939453
1750927201083262700,11.6732626953125,-54.63750076293945,0.26250001788139343,-13.050000190734863
1750927201093262800,11.683262939453124,-54.750003814697266,-0.5062500238418579,-13.350000381469727
1750927201103262700,11.6932626953125,-54.86250305175781,-1.2750000953674316,-13.218750953674316
1750927201113262800,11.703262939453126,-55.23750305175781,-1.9312500953674316,-13.18125057220459
1750927201123262700,11.7132626953125,-55.406253814697266,-2.5687501430511475,-13.125000953674316
1750927201133262800,11.723262939453125,-55.44375228881836,-3.4125001430511475,-13.125000953674316
1750927201143262700,11.7332626953125,-55.53750228881836,-3.937500238418579,-13.068750381469727
1750927201153262800,11.743262939453125,-55.500003814697266,-4.443750381469727,-13.143750190734863
1750927201163262700,11.7532626953125,-55.06875228881836,-5.006250381469727,-13.200000762939453
1750927201173262800,11.763262939453124,-54.993751525878906,-5.550000190734863,-13.068750381469727
1750927201183262700,11.7732626953125,-54.78750228881836,-6.037500381469727,-13.068750381469727
1750927201193262800,11.783262939453126,-54.63750076293945,-6.393750190734863,-13.050000190734863
1750927201203262700,11.7932626953125,-54.656253814697266,-6.731250286102295,-13.125000953674316
1750927201213262800,11.803262939453125,-54.82500076293945,-6.918750286102295,-13.237500190734863
1750927201223262700,11.8132626953125,-54.562503814697266,-7.031250476837158,-13.068750381469727
1750927201233262800,11.823262939453125,-54.562503814697266,-7.331250190734863,-13.012500762939453
1750927201243262700,11.8332626953125,-54.73125076293945,-7.368750095367432,-12.825000762939453
1750927201253262800,11.843262939453124,-54.82500076293945,-7.537500381469727,-12.750000953674316
1750927201263262700,11.8532626953125,-54.750003814697266,-7.556250095367432,-12.731250762939453
1750927201273262800,11.863262939453126,-54.95625305175781,-7.406250476837158,-12.675000190734863
1750927201283262700,11.8732626953125,-54.95625305175781,-7.481250286102295,-12.600000381469727
1750927201293262800,11.883262939453125,-54.78750228881836,-7.256250381469727,-12.356250762939453
1750927201303262700,11.8932626953125,-55.01250076293945,-7.293750286102295,-12.356250762939453
1750927201313262800,11.903262939453125,-55.01250076293945,-7.012500286102295,-12.52500057220459
1750927201323262700,11.9132626953125,-55.01250076293945,-6.937500476837158,-12.543750762939453
1750927201333262800,11.923262939453124,-54.88125228881836,-6.543750286102295,-12.506250381469727
1750927201343262700,11.9332626953125,-54.97500228881836,-6.150000095367432,-12.562500953674316
1750927201353262800,11.943262939453126,-54.750003814697266,-5.756250381469727,-12.412500381469727
1750927201363262700,11.9532626953125,-54.78750228881836,-5.287500381469727,-12.450000762939453
1750927201373262800,11.963262939453125,-54.86250305175781,-4.818750381469727,-12.487500190734863
1750927201383262700,11.9732626953125,-55.01250076293945,-4.125,-12.412500381469727
1750927201393262800,11.983262939453125,-55.031253814697266,-3.375000238418579,-12.24375057220459
1750927201403262700,11.9932626953125,-55.275001525878906,-2.6625001430511475,-12.318750381469727
1750927201413262800,12.003262939453125,-55.087501525878906,-1.9312500953674316,-12.43125057220459
1750927201423262700,12.0132626953125,-54.97500228881836,-1.1437500715255737,-12.24375057220459
1750927201433262800,12.023262939453126,-55.125003814697266,-0.5062500238418579,-12.300000190734863
1750927201443262700,12.0332626953125,-55.01250076293945,0.5625,-12.075000762939453
1750927201453262800,12.043262939453125,-54.97500228881836,1.4812500476837158,-12.018750190734863
1750927201463262700,12.0532626953125,-54.73125076293945,2.1937501430511475,-12.018750190734863
1750927201473262800,12.063262939453125,-54.67500305175781,3,-11.925000190734863
1750927201483262700,12.0732626953125,-54.31875228881836,4.125,-11.606250762939453
1750927201493262800,12.083262939453125,-54.187503814697266,5.0625,-11.418750762939453
1750927201503262700,12.0932626953125,-54.26250076293945,6.056250095367432,-11.40000057220459
1750927201513262800,12.103262939453124,-53.718753814697266,7.200000286102295,-11.081250190734863
1750927201523262700,12.1132626953125,-53.47500228881836,7.856250286102295,-11.193750381469727
1750927201533262800,12.123262939453125,-53.23125076293945,8.475000381469727,-11.175000190734863
1750927201543262700,12.1332626953125,-52.95000076293945,9.393750190734863,-11.30625057220459
1750927201553262800,12.143262939453125,-52.42500305175781,10.106250762939453,-11.175000190734863
1750927201563262700,12.1532626953125,-52.06875228881836,10.706250190734863,-11.287500381469727
1750927201573262800,12.163262939453125,-51.843753814697266,11.381250381469727,-11.325000762939453
1750927201583262700,12.1732626953125,-51.281253814697266,11.90625,-11.34375
1750927201593262800,12.183262939453124,-51.187503814697266,12.412500381469727,-11.662500381469727
1750927201603262700,12.1932626953125,-50.70000076293945,13.106250762939453,-11.568750381469727
1750927201613262800,12.203262939453126,-50.343753814697266,13.687500953674316,-11.418750762939453
1750927201623262700,12.2132626953125,-50.118751525878906,14.250000953674316,-11.25
1750927201633262800,12.223262939453125,-49.743751525878906,14.77500057220459,-11.268750190734863
1750927201643262700,12.2332626953125,-49.53750228881836,15.24375057220459,-11.137500762939453
1750927201653262800,12.243262939453125,-49.312503814697266,15.843750953674316,-11.006250381469727
1750927201663262700,12.2532626953125,-49.125003814697266,16.275001525878906,-11.15625
1750927201673262800,12.263262939453124,-48.76875305175781,16.725000381469727,-11.100000381469727
1750927201683262700,12.2732626953125,-48.41250228881836,17.043750762939453,-11.137500762939453
1750927201693262800,12.283262939453126,-48.11250305175781,17.71875,-11.100000381469727
1750927201703262700,12.2932626953125,-47.85000228881836,18.150001525878906,-10.912500381469727
1750927201713262800,12.303262939453125,-47.681251525878906,18.600000381469727,-11.11875057220459
1750927201723262700,12.3132626953125,-47.41875076293945,19.125,-11.02500057220459
1750927201733262800,12.323262939453125,-47.15625,19.350000381469727,-11.006250381469727
1750927201743262700,12.3332626953125,-46.6875,19.725000381469727,-10.856250762939453
1750927201753262800,12.343262939453124,-46.40625,20.212501525878906,-10.706250190734863
1750927201763262700,12.3532626953125,-46.06875228881836,20.606250762939453,-10.518750190734863
1750927201773262800,12.363262939453126,-45.91875076293945,20.981250762939453,-10.518750190734863
1750927201783262700,12.3732626953125,-45.337501525878906,21.28125,-10.856250762939453
1750927201793262800,12.383262939453125,-45.243751525878906,21.712501525878906,-10.575000762939453
1750927201803262700,12.3932626953125,-44.85000228881836,21.975000381469727,-10.55625057220459
1750927201813262800,12.403262939453125,-44.60625076293945,22.387500762939453,-10.74375057220459
1750927201823262700,12.4132626953125,-44.8125,22.78125,-10.856250762939453
1750927201833262800,12.423262939453124,-44.681251525878906,22.856250762939453,-10.762500762939453
1750927201843262700,12.4332626953125,-44.71875,22.837501525878906,-10.96875
1750927201853262800,12.443262939453126,-44.28750228881836,22.89375114440918,-11.043750762939453
1750927201863262700,12.4532626953125,-44.400001525878906,23.0625,-10.706250190734863
1750927201873262800,12.463262939453125,-44.32500076293945,22.98750114440918,-10.893750190734863
1750927201883262700,12.4732626953125,-44.34375,22.89375114440918,-11.25
1750927201893262800,12.483262939453125,-44.08125305175781,22.818750381469727,-11.34375
1750927201903262700,12.4932626953125,-44.08125305175781,22.70625114440918,-11.268750190734863
1750927201913262800,12.503262939453125,-44.19375228881836,22.631250381469727,-11.34375
1750927201923262700,12.5132626953125,-44.47500228881836,22.78125,-11.30625057220459
1750927201933262800,12.523262939453126,-44.868751525878906,22.368751525878906,-11.40000057220459
1750927201943262700,12.5332626953125,-44.85000228881836,21.95625114440918,-11.662500381469727
1750927201953262800,12.543262939453125,-44.94375228881836,21.600000381469727,-11.606250762939453
1750927201963262700,12.5532626953125,-45.46875,21.337501525878906,-11.512500762939453
1750927201973262800,12.563262939453125,-45.993751525878906,21.037500381469727,-11.456250190734863
1750927201983262700,12.5732626953125,-46.125,20.625,-11.418750762939453
1750927201993262800,12.583262939453125,-46.38750076293945,20.025001525878906,-11.793750762939453
1750927202003262700,12.5932626953125,-46.5,19.462501525878906,-11.86875057220459
1750927202013262800,12.603262939453124,-46.837501525878906,18.881250381469727,-11.737500190734863
1750927202023262700,12.6132626953125,-47.493751525878906,18.318750381469727,-11.643750190734863
1750927202033262800,12.623262939453125,-47.92500305175781,17.83125114440918,-11.756250381469727
1750927202043262700,12.6332626953125,-48.07500076293945,17.26875114440918,-11.68125057220459
1750927202053262800,12.643262939453125,-48.41250228881836,16.51875114440918,-11.756250381469727
1750927202063262700,12.6532626953125,-48.78750228881836,15.90000057220459,-11.793750762939453
1750927202073262800,12.663262939453125,-49.125003814697266,15.43125057220459,-11.68125057220459
1750927202083262700,12.6732626953125,-49.650001525878906,14.793750762939453,-11.737500190734863
1750927202093262800,12.683262939453124,-50.13750076293945,14.475000381469727,-12.018750190734863
1750927202103262700,12.6932626953125,-50.32500076293945,13.968750953674316,-12.15000057220459
1750927202113262800,12.703262939453126,-50.56875228881836,13.425000190734863,-12.206250190734863
1750927202123262700,12.7132626953125,-50.75625228881836,12.918750762939453,-12.206250190734863
1750927202133262800,12.723262939453125,-50.98125076293945,12.33750057220459,-12.018750190734863
1750927202143262700,12.7332626953125,-51.375003814697266,11.756250381469727,-12.187500953674316
1750927202153262800,12.743262939453125,-51.67500305175781,11.21250057220459,-12.093750953674316
1750927202163262700,12.7532626953125,-52.14375305175781,10.59375,-12.112500190734863
1750927202173262800,12.763262939453124,-52.06875228881836,9.80625057220459,-12.112500190734863
1750927202183262700,12.7732626953125,-52.48125076293945,9.356250762939453,-12.168750762939453
1750927202193262800,12.783262939453126,-52.89375305175781,8.625,-12.112500190734863
1750927202203262700,12.7932626953125,-53.212501525878906,7.912500381469727,-12.168750762939453
1750927202213262800,12.803262939453125,-53.493751525878906,7.218750476837158,-12.43125057220459
1750927202223262700,12.8132626953125,-53.531253814697266,6.431250095367432,-12.43125057220459
1750927202233262800,12.823262939453125,-53.85000228881836,5.568750381469727,-12.468750953674316
1750927202243262700,12.8332626953125,-53.88750076293945,4.893750190734863,-12.33750057220459
1750927202253262800,12.843262939453124,-54.13125228881836,4.462500095367432,-12.15000057220459
1750927202263262700,12.8532626953125,-54.093753814697266,3.843750238418579,-11.981250762939453
1750927202273262800,12.863262939453126,-54.22500228881836,3.262500047683716,-12.05625057220459
1750927202283262700,12.8732626953125,-54.431251525878906,2.7750000953674316,-12.093750953674316
1750927202293262800,12.883262939453125,-54.618751525878906,2.2875001430511475,-11.96250057220459
1750927202303262700,12.8932626953125,-54.86250305175781,1.9500000476837158,-11.77500057220459
1750927202313262800,12.903262939453125,-54.82500076293945,1.6125000715255737,-11.887500762939453
1750927202323262700,12.9132626953125,-54.69375228881836,1.2750000953674316,-12.037500381469727
1750927202333262800,12.923262939453124,-54.95625305175781,0.8437500596046448,-12.018750190734863
1750927202343262700,12.9332626953125,-55.10625076293945,0.28125,-12.187500953674316
1750927202353262800,12.943262939453126,-55.25625228881836,-0.3187500238418579,-12.356250762939453
1750927202363262700,12.9532626953125,-55.368751525878906,-0.8437500596046448,-12.393750190734863
1750927202373262800,12.963262939453125,-55.16250228881836,-1.1437500715255737,-12.506250381469727
1750927202383262700,12.9732626953125,-55.06875228881836,-1.6687500476837158,-12.656250953674316
1750927202393262800,12.983262939453125,-55.05000305175781,-2.2875001430511475,-12.731250762939453
1750927202403262700,12.9932626953125,-55.275001525878906,-2.9625000953674316,-12.731250762939453
1750927202413262800,13.003262939453125,-55.181251525878906,-3.375000238418579,-12.768750190734863
1750927202423262700,13.0132626953125,-55.25625228881836,-3.8062500953674316,-12.675000190734863
1750927202433262800,13.023262939453126,-55.031253814697266,-3.9937500953674316,-12.468750953674316
1750927202443262700,13.0332626953125,-54.900001525878906,-4.256250381469727,-12.52500057220459
1750927202453262800,13.043262939453125,-55.01250076293945,-4.575000286102295,-12.450000762939453
1750927202463262700,13.0532626953125,-55.14375305175781,-5.006250381469727,-12.356250762939453
1750927202473262800,13.063262939453125,-55.05000305175781,-5.175000190734863,-12.375000953674316
1750927202483262700,13.0732626953125,-54.993751525878906,-5.193750381469727,-12.450000762939453
1750927202493262800,13.083262939453125,-54.937503814697266,-5.456250190734863,-12.506250381469727
1750927202503262700,13.0932626953125,-54.73125076293945,-5.775000095367432,-12.731250762939453
1750927202513262800,13.103262939453124,-54.63750076293945,-5.90625,-12.881250381469727
1750927202523262700,13.1132626953125,-54.91875076293945,-6,-12.918750762939453
1750927202533262800,13.123262939453125,-55.16250228881836,-6.300000190734863,-12.90000057220459
1750927202543262700,13.1332626953125,-55.06875228881836,-6.431250095367432,-13.068750381469727
1750927202553262800,13.143262939453125,-55.125003814697266,-6.431250095367432,-12.90000057220459
1750927202563262700,13.1532626953125,-55.218753814697266,-6.506250381469727,-12.80625057220459
1750927202573262800,13.163262939453125,-55.312503814697266,-6.393750190734863,-12.787500381469727
1750927202583262700,13.1732626953125,-55.44375228881836,-6.393750190734863,-12.61875057220459
1750927202593262800,13.183262939453124,-55.48125076293945,-6.075000286102295,-12.637500762939453
1750927202603262700,13.1932626953125,-55.10625076293945,-5.962500095367432,-12.543750762939453
1750927202613262800,13.203262939453126,-54.937503814697266,-5.550000190734863,-12.637500762939453
1750927202623262700,13.2132626953125,-55.218753814697266,-5.268750190734863,-12.543750762939453
1750927202633262800,13.223262939453125,-55.38750076293945,-4.725000381469727,-12.562500953674316
1750927202643262700,13.2332626953125,-55.125003814697266,-4.21875,-12.61875057220459
1750927202653262800,13.243262939453125,-55.031253814697266,-3.8812501430511475,-12.750000953674316
1750927202663262700,13.2532626953125,-54.97500228881836,-2.981250047683716,-12.768750190734863
1750927202673262800,13.263262939453124,-54.88125228881836,-2.3625001907348633,-12.61875057220459
1750927202683262700,13.2732626953125,-54.937503814697266,-1.5750000476837158,-12.656250953674316
1750927202693262800,13.283262939453126,-54.82500076293945,-0.6937500238418579,-12.393750190734863
1750927202703262700,13.2932626953125,-54.525001525878906,0.45000001788139343,-12.412500381469727
1750927202713262800,13.303262939453125,-54.48750305175781,1.2750000953674316,-12.356250762939453
1750927202723262700,13.3132626953125,-54.63750076293945,2.4375,-12.225000381469727
1750927202733262800,13.323262939453125,-54.45000076293945,3.5062501430511475,-12
1750927202743262700,13.3332626953125,-54.26250076293945,4.481250286102295,-11.90625
1750927202753262800,13.343262939453124,-54.150001525878906,5.34375,-11.737500190734863
1750927202763262700,13.3532626953125,-54.13125228881836,6.281250476837158,-11.662500381469727
1750927202773262800,13.363262939453126,-53.98125076293945,7.162500381469727,-11.737500190734863
1750927202783262700,13.3732626953125,-53.66250228881836,8.02500057220459,-11.550000190734863
1750927202793262800,13.383262939453125,-53.32500076293945,8.887500762939453,-11.4375
1750927202803262700,13.3932626953125,-53.00625228881836,9.46875,-11.381250381469727
1750927202813262800,13.403262939453125,-52.687503814697266,10.46250057220459,-11.268750190734863
