time,seconds_elapsed,z,y,x
1750927189575988500,0.165988525390625,9.348159790039062,-0.29850462079048157,0.18544375896453857
1750927189604225000,0.19422509765625,10.066006660461426,0.09870393574237823,0.17108681797981262
1750927189632461300,0.22246142578125,10.018150329589844,0.5581258535385132,-0.45583271980285645
1750927189651285800,0.24128564453125,10.195219039916992,-0.11186445504426956,-0.3888336718082428
1750927189670110000,0.26010986328125,10.13300609588623,-0.16929219663143158,-0.11126625537872314
1750927189688934400,0.278934326171875,10.267004013061523,0.0364905446767807,-0.5994020700454712
1750927189707758600,0.297758544921875,10.03729248046875,-0.24586252868175507,-0.32662028074264526
1750927189726582800,0.316582763671875,10.13300609588623,-0.6478567123413086,0.6783652305603027
1750927189745407200,0.3354072265625,10.697711944580078,-0.08315058797597885,0.5060819983482361
1750927189764231400,0.3542314453125,10.889137268066406,0.3284149169921875,-0.24047867953777313
1750927189783056000,0.373055908203125,11.013564109802246,0.14656038582324982,-0.9152546525001526
1750927189801880000,0.391880126953125,10.616355895996094,-0.16450655460357666,-0.5084748268127441
1750927189820704500,0.41070458984375,10.51107120513916,-0.01615155301988125,-0.2883351147174835
1750927189839528700,0.42952880859375,9.93679428100586,0.649053156375885,-0.06819544732570648
1750927189858353000,0.448352783203125,9.166305541992188,0.1657029688358307,0.15672987699508667
1750927189877177300,0.46717724609375,9.06580638885498,-0.1788634955883026,0.4630111753940582
1750927189896001500,0.48600146484375,9.056235313415527,0.1417747437953949,0.745364248752594
1750927189914826000,0.504825927734375,9.68794059753418,0.4863412082195282,0.50129634141922
1750927189933650200,0.523650146484375,10.190433502197266,0.4815555512905121,0.4055834412574768
1750927189952474600,0.542474609375,9.999007225036621,0.5772684812545776,0.1902294009923935
1750927189971298800,0.561298828125,9.764511108398438,0.768694281578064,-0.08255238085985184
1750927189990123300,0.580123291015625,9.611370086669922,0.49591249227523804,0.3577269911766052
1750927190008947500,0.598947509765625,9.472586631774902,0.4576273262500763,0.4486542344093323
1750927190027771600,0.617771728515625,9.54915714263916,0.46719861030578613,0.6735795736312866
1750927190046596000,0.63659619140625,9.759725570678711,0.5006981492042542,0.7740781307220459
1750927190065420300,0.655420166015625,10.324431419372559,0.4863412082195282,0.6496513485908508
1750927190084244700,0.67424462890625,10.013364791870117,0.615553617477417,0.14715859293937683
1750927190103069000,0.69306884765625,9.731011390686035,0.4911268353462219,0.3290131092071533
1750927190121893400,0.711893310546875,9.477372169494629,0.5102694034576416,0.486939400434494
1750927190140717600,0.730717529296875,9.745368003845215,0.2805584669113159,0.7166503667831421
1750927190159542000,0.7495419921875,9.683155059814453,0.18484555184841156,0.778863787651062
1750927190178366200,0.7683662109375,9.941579818725586,0.3858426511287689,0.5491527915000916
1750927190197190700,0.787190673828125,10.243075370788574,0.4001995921134949,0.41515472531318665
1750927190216014800,0.806014892578125,9.754940032958984,0.41934216022491455,0.381655216217041
1750927190234839000,0.824839111328125,9.726225852966309,0.4097708761692047,0.49172505736351013
1750927190253663500,0.84366357421875,10.003793716430664,0.4863412082195282,0.33379876613616943
1750927190272487700,0.86248779296875,10.104291915893555,0.44805604219436646,0.2763710021972656
1750927190291312000,0.88131201171875,9.88415241241455,0.3762713670730591,0.4486542344093323
1750927190310136300,0.90013623046875,9.673583984375,0.29012975096702576,0.6687939167022705
1750927190328960800,0.918960693359375,9.764511108398438,0.5054838061332703,0.5204389095306396
1750927190347785000,0.937784912109375,9.965508460998535,0.47198426723480225,0.4247260093688965
1750927190366609400,0.956609375,9.989436149597168,0.42412781715393066,0.31465616822242737
1750927190385433600,0.97543359375,10.04686450958252,0.33798620104789734,0.3720839321613312
1750927190404258000,0.994258056640625,9.893723487854004,0.3523431420326233,0.4582255482673645
1750927190423082200,1.013082275390625,9.81236743927002,0.3810569941997528,0.5395814776420593
1750927190441906700,1.03190673828125,9.754940032958984,0.31405797600746155,0.5730810165405273
1750927190460731000,1.05073095703125,9.740582466125488,0.39541393518447876,0.5204389095306396
1750927190479555000,1.06955517578125,9.893723487854004,0.2805584669113159,0.5539384484291077
1750927190498379500,1.088379638671875,9.965508460998535,0.34277185797691345,0.486939400434494
1750927190517203700,1.10720361328125,9.89850902557373,0.3332005441188812,0.41994038224220276
1750927190536028200,1.126028076171875,9.735796928405762,0.24227328598499298,0.3720839321613312
1750927190554852400,1.144852294921875,9.81236743927002,0.24227328598499298,0.381655216217041
1750927190573676800,1.1636767578125,9.903294563293457,0.2805584669113159,0.49172505736351013
1750927190592501000,1.1825009765625,9.865009307861328,0.29012975096702576,0.6113662123680115
1750927190611325400,1.201325439453125,9.726225852966309,0.251844584941864,0.5060819983482361
1750927190630149600,1.220149658203125,9.817152976989746,0.251844584941864,0.3242274820804596
1750927190648974000,1.23897412109375,9.979865074157715,0.24227328598499298,0.3433700501918793
1750927190667798300,1.25779833984375,10.094720840454102,0.18484555184841156,0.39601215720176697
1750927190686622700,1.276622802734375,10.02293586730957,0.17527425289154053,0.36729827523231506
1750927190705447000,1.295447021484375,9.860223770141602,0.20877377688884735,0.486939400434494
1750927190724271400,1.314271240234375,9.726225852966309,0.1944168359041214,0.5682953596115112
1750927190743095600,1.333095458984375,9.759725570678711,0.2949153780937195,0.44386860728263855
1750927190761919700,1.351919677734375,9.869794845581055,0.3188436031341553,0.36251261830329895
1750927190780744200,1.370744140625,9.93679428100586,0.24227328598499298,0.4007977843284607
1750927190799568600,1.389568603515625,9.855438232421875,0.251844584941864,0.30987054109573364
1750927190818392800,1.408392822265625,9.860223770141602,0.18484555184841156,0.36251261830329895
1750927190837217000,1.427217041015625,9.716654777526855,0.18484555184841156,0.4295116662979126
1750927190856041500,1.44604150390625,9.850652694702148,0.07956135272979736,0.4630111753940582
1750927190874865700,1.46486572265625,9.917651176452637,0.18005990982055664,0.4055834412574768
1750927190893690000,1.483690185546875,10.156933784484863,0.20877377688884735,0.31465616822242737
1750927190912514300,1.502514404296875,10.00857925415039,0.26141586899757385,0.26201409101486206
1750927190931338800,1.5213388671875,9.93679428100586,0.18963119387626648,0.39601215720176697
1750927190950163000,1.540162841796875,9.927223205566406,0.04127619042992592,0.4582255482673645
1750927190968987400,1.5589873046875,10.042078018188477,0.1417747437953949,0.3194418251514435
1750927190987811600,1.5778115234375,10.04686450958252,0.13698910176753998,0.17587246000766754
1750927191006636000,1.596635986328125,9.908080101013184,0.09870393574237823,0.33379876613616943
1750927191025460200,1.615460205078125,9.841081619262695,0.012562318705022335,0.4630111753940582
1750927191044284700,1.63428466796875,9.754940032958984,0.022133609279990196,0.4582255482673645
1750927191063108900,1.65310888671875,9.979865074157715,0.07956135272979736,0.3194418251514435
1750927191081933300,1.671933349609375,9.89850902557373,0.10348957777023315,0.3290131092071533
1750927191100757500,1.690757568359375,9.893723487854004,0.07956135272979736,0.49651068449020386
1750927191119581700,1.709581787109375,9.831509590148926,-0.06400800496339798,0.41994038224220276
1750927191138406100,1.72840625,9.850652694702148,0.026919255033135414,0.28115665912628174
1750927191157230300,1.747230224609375,9.903294563293457,-0.020937198773026466,0.3529413342475891
1750927191176054800,1.7660546875,10.152148246765137,0.08434699475765228,0.2476571500301361
1750927191194879000,1.78487890625,10.137791633605957,0.012562318705022335,0.24287149310112
1750927191213703400,1.803703369140625,9.932008743286133,0.022133609279990196,0.2763710021972656
1750927191232527600,1.822527587890625,9.8267240524292,-0.04486542567610741,0.49172505736351013
1750927191251352000,1.84135205078125,9.88415241241455,-0.020937198773026466,0.534795880317688
1750927191270176300,1.86017626953125,9.869794845581055,0.07477571070194244,0.26201409101486206
1750927191289000700,1.879000732421875,9.81236743927002,0.0077766734175384045,0.2715853750705719
1750927191307825000,1.897824951171875,9.750154495239258,-0.025722842663526535,0.25722843408584595
1750927191326649300,1.9166494140625,9.893723487854004,-0.05922235921025276,0.33858439326286316
1750927191345473500,1.9354736328125,9.941579818725586,-0.054436713457107544,0.4247260093688965
1750927191364298000,1.954298095703125,9.946365356445312,0.022133609279990196,0.2955136001110077
1750927191383122200,1.9731220703125,9.951150894165039,0.050847481936216354,0.41994038224220276
1750927191401946400,1.9919462890625,9.8267240524292,0.05563312768936157,0.3529413342475891
1750927191420770800,2.010770751953125,10.003793716430664,0.0077766734175384045,0.2189432680606842
1750927191439595000,2.029594970703125,9.951150894165039,-0.04007977992296219,0.3290131092071533
1750927191458419500,2.04841943359375,9.946365356445312,0.06041877344250679,0.33379876613616943
1750927191477244000,2.067243896484375,9.888937950134277,-0.04486542567610741,0.4007977843284607
1750927191496068000,2.086068115234375,9.93679428100586,0.08434699475765228,0.17587246000766754
1750927191514892300,2.104892333984375,10.032506942749023,0.01734796352684498,0.1663011759519577
1750927191533716700,2.123716796875,9.845867156982422,-0.04486542567610741,0.3577269911766052
1750927191552541000,2.142541015625,9.81236743927002,-0.054436713457107544,0.4007977843284607
1750927191571365400,2.161365478515625,9.903294563293457,-0.020937198773026466,0.2189432680606842
1750927191590189600,2.180189453125,9.970293998718262,-0.030508488416671753,0.2763710021972656
1750927191609014000,2.199013916015625,9.888937950134277,0.01734796352684498,0.36251261830329895
1750927191627838200,2.217838134765625,9.960722923278809,0.06041877344250679,0.2763710021972656
1750927191646662700,2.23666259765625,9.850652694702148,-0.030508488416671753,0.4103690981864929
1750927191665486800,2.25548681640625,9.721440315246582,-0.049651071429252625,0.4534398913383484
1750927191684311300,2.274311279296875,9.77408218383789,-0.01136590726673603,0.4103690981864929
1750927191703135500,2.293135498046875,9.836296081542969,0.0077766734175384045,0.21415762603282928
1750927191721960000,2.3119599609375,9.951150894165039,0.05563312768936157,0.05623133108019829
1750927191740784000,2.3307841796875,9.860223770141602,-0.01615155301988125,0.2667997181415558
1750927191759608300,2.3496083984375,9.989436149597168,-0.006580262444913387,0.30987054109573364
1750927191778432800,2.368432861328125,9.970293998718262,-0.001794616924598813,0.22851456701755524
1750927191797257000,2.387257080078125,9.984650611877441,-0.06400800496339798,0.2189432680606842
1750927191816081400,2.406081298828125,9.960722923278809,0.06041877344250679,0.06580262631177902
1750927191834905600,2.424905517578125,10.123434066772461,-0.001794616924598813,0.02273181453347206
1750927191853730000,2.44372998046875,10.003793716430664,-0.030508488416671753,0.1663011759519577
1750927191872554200,2.46255419921875,10.042078018188477,0.050847481936216354,0.1423729509115219
1750927191891378700,2.481378662109375,10.018150329589844,-0.04486542567610741,0.30508488416671753
1750927191910203000,2.500202880859375,9.89850902557373,-0.04486542567610741,0.3768695592880249
1750927191929027300,2.51902734375,9.845867156982422,-0.01615155301988125,0.23808585107326508
1750927191947851500,2.5378515625,9.831509590148926,-0.09272187948226929,0.2763710021972656
1750927191966676000,2.556676025390625,9.716654777526855,-0.04486542567610741,0.3242274820804596
1750927191985500200,2.575500244140625,9.965508460998535,0.12741780281066895,-0.029910283163189888
1750927192004324600,2.59432470703125,9.994221687316895,-0.07836493849754333,-0.02512463741004467
1750927192023148800,2.613148681640625,9.8267240524292,-0.08793623000383377,0.21415762603282928
1750927192041973000,2.631972900390625,9.78843879699707,-0.08793623000383377,0.3242274820804596
1750927192060797400,2.65079736328125,9.78843879699707,-0.07836493849754333,0.3720839321613312
1750927192079621600,2.66962158203125,9.893723487854004,-0.001794616924598813,0.15194423496723175
1750927192098446000,2.688446044921875,10.070792198181152,0.0029910283628851175,0.08015955984592438
1750927192117270300,2.707270263671875,10.00857925415039,-0.006580262444913387,0.061016976833343506
1750927192136094700,2.7260947265625,9.994221687316895,-0.020937198773026466,0.10887342691421509
1750927192154919000,2.7449189453125,9.946365356445312,-0.054436713457107544,0.26201409101486206
1750927192173743400,2.763743408203125,9.946365356445312,-0.01136590726673603,0.21415762603282928
1750927192192567600,2.782567626953125,10.013364791870117,-0.049651071429252625,0.08973085135221481
1750927192211392000,2.80139208984375,9.836296081542969,-0.10707881301641464,0.21415762603282928
1750927192230216200,2.82021630859375,9.860223770141602,0.0077766734175384045,0.1950150430202484
1750927192249040600,2.83904052734375,10.056435585021973,-0.030508488416671753,0.08015955984592438
1750927192267864800,2.85786474609375,10.042078018188477,0.0077766734175384045,-0.005982056725770235
1750927192286689000,2.87668896484375,9.88415241241455,-0.0687936544418335,0.10408778488636017
1750927192305513500,2.895513427734375,9.89850902557373,-0.049651071429252625,0.30987054109573364
1750927192324337700,2.914337646484375,9.860223770141602,0.022133609279990196,0.4055834412574768
1750927192343162000,2.933162109375,9.817152976989746,0.0364905446767807,0.18065811693668365
1750927192361986300,2.951986328125,9.893723487854004,-0.025722842663526535,0.1136590763926506
1750927192380810800,2.970810791015625,9.783653259277344,-0.09272187948226929,0.25722843408584595
1750927192399635000,2.989635009765625,9.78843879699707,-0.05922235921025276,0.28594231605529785
1750927192418459400,3.00845947265625,9.932008743286133,-0.04007977992296219,0.1902294009923935
1750927192437283600,3.02728369140625,9.908080101013184,-0.020937198773026466,0.09930214285850525
1750927192456108000,3.04610791015625,10.080363273620605,-0.04486542567610741,0.06580262631177902
1750927192474932200,3.06493212890625,10.013364791870117,-0.04007977992296219,0.1663011759519577
1750927192493756700,3.083756591796875,9.778867721557617,-0.13100704550743103,0.3577269911766052
1750927192512580900,3.102580810546875,9.750154495239258,-0.14057832956314087,0.3768695592880249
1750927192531405000,3.121405029296875,9.960722923278809,-0.030508488416671753,0.19980068504810333
1750927192550229500,3.1402294921875,10.13300609588623,0.022133609279990196,0.008374879136681557
1750927192569054000,3.159053955078125,10.051650047302246,-0.05922235921025276,0.013160524889826775
1750927192587878100,3.177878173828125,9.92243766784668,-0.05922235921025276,0.20937198400497437
1750927192606702300,3.196702392578125,9.845867156982422,-0.12143574655056,0.30987054109573364
1750927192625526800,3.21552685546875,9.855438232421875,-0.006580262444913387,0.2907279431819916
1750927192644351000,3.23435107421875,9.88415241241455,-0.030508488416671753,0.2189432680606842
1750927192663175400,3.253175537109375,9.874580383300781,-0.01136590726673603,0.20458634197711945
1750927192681999600,3.27199951171875,9.979865074157715,-0.01615155301988125,0.061016976833343506
1750927192700824000,3.290823974609375,9.927223205566406,-0.05922235921025276,-0.029910283163189888
1750927192719648300,3.309648193359375,9.93679428100586,-0.10229317098855972,0.07537391036748886
1750927192738472700,3.32847265625,9.89850902557373,-0.07357929646968842,0.3433700501918793
1750927192757297000,3.347296875,9.893723487854004,-0.13579268753528595,0.39601215720176697
1750927192776121300,3.366121337890625,9.893723487854004,-0.01136590726673603,0.20458634197711945
1750927192794945500,3.384945556640625,9.984650611877441,-0.0687936544418335,0.06580262631177902
1750927192813769700,3.403769775390625,9.89850902557373,-0.05922235921025276,0.08973085135221481
1750927192832594200,3.42259423828125,10.003793716430664,-0.08793623000383377,0.28115665912628174
1750927192851418400,3.44141845703125,10.003793716430664,-0.04007977992296219,0.2189432680606842
1750927192870242800,3.460242919921875,10.027721405029297,-0.05922235921025276,0.07058826833963394
1750927192889067000,3.47906689453125,9.869794845581055,-0.11665010452270508,0.22851456701755524
1750927192907891500,3.497891357421875,9.783653259277344,-0.07357929646968842,0.2667997181415558
1750927192926715600,3.516715576171875,9.879366874694824,-0.06400800496339798,0.11844471842050552
1750927192945540000,3.5355400390625,9.941579818725586,-0.01615155301988125,0.08015955984592438
1750927192964364300,3.5543642578125,9.874580383300781,-0.08315058797597885,0.2476571500301361
1750927192983188700,3.573188720703125,9.841081619262695,-0.10707881301641464,0.33858439326286316
1750927193002013000,3.592012939453125,9.91286563873291,-0.07836493849754333,0.30508488416671753
1750927193020837000,3.610837158203125,9.93679428100586,-0.07357929646968842,0.15672987699508667
1750927193039661600,3.62966162109375,9.874580383300781,-0.0975075215101242,0.1902294009923935
1750927193067898000,3.657898193359375,9.946365356445312,-0.1453639715909958,0.16151553392410278
1750927193086722300,3.676722412109375,9.932008743286133,-0.07357929646968842,0.15194423496723175
1750927193105546500,3.69554638671875,9.994221687316895,-0.12143574655056,0.2189432680606842
1750927193124371000,3.714370849609375,9.850652694702148,-0.0975075215101242,0.25244277715682983
1750927193143195100,3.733195068359375,9.955936431884766,-0.06400800496339798,0.07537391036748886
1750927193162019600,3.75201953125,9.927223205566406,-0.12622138857841492,0.1423729509115219
1750927193180843800,3.77084375,9.893723487854004,-0.13100704550743103,0.25244277715682983
1750927193199668200,3.789668212890625,9.869794845581055,-0.13100704550743103,0.20458634197711945
1750927193218492400,3.808492431640625,9.955936431884766,-0.10707881301641464,0.18065811693668365
1750927193237316900,3.82731689453125,9.975079536437988,-0.07357929646968842,0.09930214285850525
1750927193256141000,3.84614111328125,9.965508460998535,-0.08793623000383377,0.2763710021972656
1750927193274965500,3.864965576171875,9.92243766784668,-0.049651071429252625,0.20458634197711945
1750927193293789700,3.883789794921875,9.989436149597168,-0.16929219663143158,0.1423729509115219
1750927193312614000,3.90261376953125,9.836296081542969,-0.18364913761615753,0.30508488416671753
1750927193331438300,3.921438232421875,9.836296081542969,-0.03529413416981697,0.22372891008853912
1750927193350262500,3.940262451171875,9.946365356445312,-0.0975075215101242,0.14715859293937683
1750927193369087000,3.9590869140625,9.70229721069336,-0.12622138857841492,0.2476571500301361
1750927193387911200,3.9779111328125,9.951150894165039,-0.11665010452270508,0.20458634197711945
1750927193406735600,3.996735595703125,9.946365356445312,-0.12143574655056,0.10887342691421509
1750927193425559800,4.015559814453125,10.042078018188477,-0.20757736265659332,0.10887342691421509
1750927193444384300,4.03438427734375,9.869794845581055,-0.2027917206287384,0.17108681797981262
1750927193463208400,4.05320849609375,9.879366874694824,-0.1453639715909958,0.1950150430202484
1750927193482033000,4.072032958984375,10.003793716430664,-0.15493527054786682,0.25722843408584595
1750927193500857000,4.090857177734375,9.960722923278809,-0.04486542567610741,0.1136590763926506
1750927193519681300,4.109681396484375,10.042078018188477,-0.16450655460357666,0.04666004329919815
1750927193538505700,4.128505615234375,9.903294563293457,-0.16929219663143158,0.2189432680606842
1750927193557330000,4.147329833984375,9.831509590148926,-0.15972091257572174,0.31465616822242737
1750927193576154400,4.166154296875,9.764511108398438,-0.1501496136188507,0.2667997181415558
1750927193594978600,4.184978515625,9.932008743286133,-0.08793623000383377,0.08973085135221481
1750927193613803000,4.203802978515625,9.908080101013184,-0.1453639715909958,0.12801600992679596
1750927193632627200,4.222627197265625,9.807581901550293,-0.16450655460357666,0.17587246000766754
1750927193651451600,4.24145166015625,9.955936431884766,-0.09272187948226929,0.14715859293937683
1750927193670275800,4.26027587890625,9.979865074157715,-0.10229317098855972,0.1950150430202484
1750927193689100000,4.27910009765625,9.893723487854004,-0.1501496136188507,0.20937198400497437
1750927193707924500,4.297924560546875,9.951150894165039,-0.12622138857841492,0.15672987699508667
1750927193726748700,4.316748779296875,10.013364791870117,-0.11665010452270508,0.05623133108019829
1750927193745573000,4.335572998046875,9.946365356445312,-0.13100704550743103,0.21415762603282928
1750927193764397300,4.354397216796875,9.879366874694824,-0.14057832956314087,0.20458634197711945
1750927193783221800,4.3732216796875,10.013364791870117,-0.0975075215101242,0.037088751792907715
1750927193802046000,4.3920458984375,9.946365356445312,-0.13100704550743103,-0.0011964113218709826
1750927193820870400,4.410870361328125,9.893723487854004,-0.1501496136188507,0.037088751792907715
1750927193839694600,4.429694580078125,10.013364791870117,-0.12622138857841492,0.1902294009923935
1750927193858519000,4.44851904296875,9.941579818725586,-0.11186445504426956,0.2667997181415558
1750927193877343200,4.46734326171875,9.92243766784668,-0.14057832956314087,0.20937198400497437
1750927193896167400,4.48616748046875,9.874580383300781,-0.13100704550743103,0.1950150430202484
1750927193914991900,4.504991943359375,9.888937950134277,-0.15972091257572174,0.1136590763926506
1750927193933816000,4.523816162109375,9.92243766784668,-0.1453639715909958,0.18065811693668365
1750927193952640500,4.542640625,9.91286563873291,-0.14057832956314087,0.24287149310112
1750927193971464700,4.561464599609375,9.91286563873291,-0.03529413416981697,0.10887342691421509
1750927193990289200,4.5802890625,9.965508460998535,-0.10707881301641464,0.05144568532705307
1750927194009113300,4.59911328125,9.917651176452637,-0.16929219663143158,0.16151553392410278
1750927194027937800,4.617937744140625,9.88415241241455,-0.19800607860088348,0.3433700501918793
1750927194046762000,4.636761962890625,9.879366874694824,-0.1788634955883026,0.16151553392410278
1750927194065586200,4.655586181640625,9.88415241241455,-0.10707881301641464,0.013160524889826775
1750927194084410600,4.67441064453125,9.975079536437988,-0.13100704550743103,0.06580262631177902
1750927194103234800,4.69323486328125,9.994221687316895,-0.12143574655056,0.18065811693668365
1750927194122059300,4.712059326171875,9.89850902557373,-0.21236300468444824,0.2667997181415558
1750927194140883500,4.730883544921875,9.754940032958984,-0.21236300468444824,0.2189432680606842
1750927194159708000,4.7497080078125,9.989436149597168,-0.18843477964401245,0.06580262631177902
1750927194178532000,4.768531982421875,9.893723487854004,-0.09272187948226929,0.04666004329919815
1750927194197356500,4.7873564453125,9.989436149597168,-0.1453639715909958,0.09930214285850525
1750927194216180700,4.8061806640625,9.917651176452637,-0.16929219663143158,0.3242274820804596
1750927194235005000,4.8250048828125,9.865009307861328,-0.01615155301988125,0.23808585107326508
1750927194253829400,4.843829345703125,9.946365356445312,-0.11186445504426956,0.02751746028661728
1750927194272653600,4.862653564453125,9.879366874694824,-0.12622138857841492,0.20937198400497437
1750927194291478000,4.88147802734375,9.893723487854004,-0.08315058797597885,0.17108681797981262
1750927194310302200,4.90030224609375,9.91286563873291,-0.19800607860088348,0.10408778488636017
1750927194329126700,4.919126708984375,9.91286563873291,-0.15493527054786682,0.17587246000766754
1750927194347950800,4.937950927734375,9.970293998718262,-0.15493527054786682,0.08015955984592438
1750927194366775300,4.956775390625,9.970293998718262,-0.10707881301641464,0.07537391036748886
1750927194385599500,4.975599609375,9.869794845581055,-0.12143574655056,0.24287149310112
1750927194404423700,4.994423583984375,9.92243766784668,-0.10707881301641464,0.3481557071208954
1750927194423248100,5.013248046875,9.941579818725586,-0.12622138857841492,0.24287149310112
1750927194442072300,5.032072265625,9.850652694702148,-0.13100704550743103,0.17108681797981262
1750927194460896800,5.050896728515625,9.893723487854004,-0.1788634955883026,0.10887342691421509
1750927194479721000,5.069720947265625,9.91286563873291,-0.13100704550743103,0.1136590763926506
1750927194498545400,5.08854541015625,9.951150894165039,-0.12143574655056,0.12323036789894104
1750927194517369600,5.10736962890625,9.88415241241455,-0.12622138857841492,0.23330020904541016
1750927194536194000,5.126194091796875,9.88415241241455,-0.0975075215101242,0.2715853750705719
1750927194555018200,5.145018310546875,9.836296081542969,-0.13100704550743103,0.18544375896453857
1750927194573842400,5.163842529296875,9.89850902557373,-0.15972091257572174,0.10408778488636017
1750927194592667000,5.1826669921875,9.879366874694824,-0.15972091257572174,0.08973085135221481
1750927194611491000,5.201490966796875,9.984650611877441,-0.10229317098855972,0.16151553392410278
1750927194630315500,5.2203154296875,9.917651176452637,-0.13100704550743103,0.25722843408584595
1750927194649139700,5.2391396484375,9.821938514709473,-0.11186445504426956,0.20937198400497437
1750927194667964200,5.257964111328125,9.941579818725586,-0.11665010452270508,0.17587246000766754
1750927194686788400,5.276788330078125,10.018150329589844,-0.11186445504426956,0.15194423496723175
1750927194705612800,5.29561279296875,9.93679428100586,-0.1740778535604477,0.22372891008853912
1750927194724437000,5.31443701171875,9.908080101013184,-0.16450655460357666,0.12323036789894104
1750927194743261200,5.33326123046875,9.89850902557373,-0.11665010452270508,0.1136590763926506
1750927194762085600,5.352085693359375,9.802796363830566,-0.12622138857841492,0.17587246000766754
1750927194780909800,5.370909912109375,9.841081619262695,-0.12622138857841492,0.16151553392410278
1750927194799734300,5.389734375,9.946365356445312,-0.18843477964401245,0.1902294009923935
1750927194818558500,5.408558349609375,9.955936431884766,-0.22193430364131927,0.17587246000766754
1750927194837383000,5.4273828125,9.89850902557373,-0.24107688665390015,0.1663011759519577
1750927194856207000,5.44620703125,9.841081619262695,-0.19322042167186737,0.14715859293937683
1750927194875031600,5.465031494140625,9.91286563873291,-0.19322042167186737,0.137587308883667
1750927194893855700,5.483855712890625,9.908080101013184,-0.19800607860088348,0.18065811693668365
1750927194912680000,5.502679931640625,9.989436149597168,-0.23629122972488403,0.15672987699508667
1750927194931504400,5.52150439453125,10.171290397644043,-0.2027917206287384,0.10408778488636017
1750927194950328600,5.54032861328125,10.415358543395996,-0.2315055876970291,-0.015553346835076809
1750927194969153000,5.559153076171875,10.472786903381348,-0.2745763957500458,0.05623133108019829
1750927194987977200,5.577977294921875,10.64507007598877,-0.21236300468444824,0.2476571500301361
1750927195006801400,5.596801513671875,10.913065910339355,-0.06400800496339798,0.2476571500301361
1750927195025625900,5.6156259765625,10.903494834899902,0.03170489892363548,0.17108681797981262
1750927195044450300,5.6344501953125,10.735997200012207,0.0077766734175384045,0.2715853750705719
1750927195063274500,5.6532744140625,10.362716674804688,0.09391828626394272,0.38644084334373474
1750927195082098700,5.6720986328125,10.319645881652832,0.2566302418708801,0.3720839321613312
1750927195100923100,5.690923095703125,10.042078018188477,0.39062830805778503,0.30508488416671753
1750927195119747300,5.709747314453125,9.530014038085938,0.6346961855888367,0.31465616822242737
1750927195138571800,5.72857177734375,9.539586067199707,0.8979067206382751,0.4486542344093323
1750927195157396000,5.74739599609375,9.544371604919434,1.3046865463256836,0.6305087804794312
1750927195176220200,5.76622021484375,9.486943244934082,1.649253010749817,0.7645068168640137
1750927195195044600,5.785044677734375,9.362516403198242,1.7306089401245117,0.7740781307220459
1750927195213869000,5.803869140625,9.262018203735352,1.9698911905288696,0.6879364848136902
1750927195232693200,5.822693359375,9.70229721069336,2.2953150272369385,0.6544370055198669
1750927195251517400,5.841517333984375,9.932008743286133,2.4771697521209717,0.5970092415809631
1750927195270342000,5.860341796875,9.850652694702148,2.6398816108703613,0.6352944374084473
1750927195289166000,5.879166015625,9.520442962646484,2.9030921459198,0.5730810165405273
1750927195307990500,5.897990478515625,9.33858871459961,3.257229804992676,0.5252245664596558
1750927195326814700,5.916814697265625,9.027522087097168,3.415156126022339,0.6640082597732544
1750927195345639000,5.935638916015625,8.333602905273438,3.7262229919433594,0.6831508874893188
1750927195364463400,5.95446337890625,7.974679470062256,4.233501434326172,0.8793623447418213
1750927195383287600,5.97328759765625,8.094321250915527,4.381856441497803,1.0995019674301147
1750927195402112000,5.992112060546875,8.11824893951416,4.6402812004089355,1.0755738019943237
1750927195420936200,6.010936279296875,8.166105270385742,4.84606409072876,1.0085747241973877
1750927195439760600,6.0297607421875,8.075178146362305,5.018347263336182,0.5874379873275757
1750927195458584800,6.048584716796875,7.491329669952393,5.219344615936279,0.5252245664596558
1750927195477409300,6.0674091796875,7.132406234741211,5.439484119415283,0.6975077986717224
1750927195496233500,6.0862333984375,6.878767013549805,5.5591254234313965,1.0803594589233398
1750927195515057700,6.1050576171875,7.237690448760986,5.152345180511475,1.2143574953079224
1750927195533882000,6.123882080078125,7.840681552886963,4.946562767028809,0.7262216806411743
1750927195552706300,6.142706298828125,8.261817932128906,4.539782524108887,0.5826523303985596
1750927195571530800,6.16153076171875,8.233104705810547,4.314857482910156,0.38644084334373474
1750927195590355000,6.18035498046875,8.438887596130371,4.338785648345947,0.18544375896453857
1750927195609179400,6.199179443359375,9.352945327758789,3.644867181777954,0.2715853750705719
1750927195628003600,6.218003662109375,10.03729248046875,2.874378204345703,0.1423729509115219
1750927195646827800,6.236827880859375,10.42492961883545,2.5010979175567627,0.22372891008853912
1750927195665652200,6.25565234375,9.769296646118164,2.314457654953003,0.2189432680606842
1750927195684476400,6.274476318359375,9.381659507751465,2.108675003051758,0.5635097622871399
1750927195703300900,6.29330078125,9.587442398071289,1.6109678745269775,0.7836494445800781
1750927195722125000,6.312125,10.305289268493652,1.2759727239608765,0.5874379873275757
1750927195740949500,6.330949462890625,9.999007225036621,0.9361918568611145,0.17108681797981262
1750927195759773700,6.349773681640625,9.79801082611084,0.46719861030578613,0.4342973232269287
1750927195778598100,6.36859814453125,10.13300609588623,0.0891326442360878,1.0085747241973877
1750927195797422300,6.38742236328125,9.783653259277344,-0.14057832956314087,1.1425727605819702
1750927195816246500,6.40624658203125,9.486943244934082,-0.389431893825531,0.7645068168640137
1750927195835071000,6.425071044921875,9.888937950134277,-0.8344969153404236,0.5635097622871399
1750927195853895200,6.443895263671875,9.860223770141602,-1.083350419998169,0.39122650027275085
1750927195872719600,6.4627197265625,9.740582466125488,-1.461416482925415,0.5970092415809631
1750927195891543800,6.481543701171875,9.78843879699707,-1.8203397989273071,0.6448656916618347
1750927195910368300,6.5003681640625,10.027721405029297,-2.179263114929199,1.0947163105010986
1750927195929192400,6.5191923828125,10.075577735900879,-2.2989044189453125,0.7645068168640137
1750927195948016600,6.5380166015625,10.113862991333008,-2.499901533126831,0.381655216217041
1750927195966841000,6.556841064453125,9.79801082611084,-2.791825771331787,0.2955136001110077
1750927195985665300,6.575665283203125,9.927223205566406,-2.9449665546417236,0.30987054109573364
1750927196004489700,6.59448974609375,10.104291915893555,-3.13639235496521,0.6687939167022705
1750927196023314000,6.61331396484375,10.290931701660156,-3.1794631481170654,0.7262216806411743
1750927196042138400,6.632138427734375,10.190433502197266,-3.193819999694824,0.7645068168640137
1750927196060962600,6.650962646484375,10.104291915893555,-3.1746773719787598,0.7980063557624817
1750927196079787000,6.669787109375,10.295717239379883,-3.01196551322937,0.6735795736312866
1750927196098611200,6.688611083984375,10.276575088500977,-2.8875386714935303,0.7310073375701904
1750927196117435400,6.707435302734375,10.128219604492188,-3.01196551322937,0.9176474809646606
1750927196136259800,6.726259765625,10.310074806213379,-2.973680257797241,1.0037890672683716
1750927196155084000,6.745083984375,10.453643798828125,-2.705684185028076,0.6496513485908508
1750927196173908500,6.763908447265625,10.252646446228027,-2.4807589054107666,0.17108681797981262
1750927196192732700,6.782732666015625,10.099506378173828,-2.207977056503296,0.38644084334373474
1750927196211557000,6.80155712890625,9.955936431884766,-2.002194404602051,0.7022934556007385
1750927196230381300,6.82038134765625,9.869794845581055,-1.6959130764007568,0.7166503667831421
1750927196249205800,6.839205810546875,9.57787036895752,-1.2891331911087036,0.534795880317688
1750927196268030000,6.858030029296875,9.295517921447754,-0.5856433510780334,0.4342973232269287
1750927196286854100,6.876854248046875,9.233304023742676,0.0029910283628851175,0.381655216217041
1750927196305678600,6.8956787109375,9.271589279174805,0.4289134442806244,0.486939400434494
1750927196324502800,6.914502685546875,9.218947410583496,0.8404789566993713,0.5060819983482361
1750927196343327200,6.9333271484375,9.4390869140625,1.3286148309707642,0.5778666734695435
1750927196362151400,6.9521513671875,9.482157707214355,1.567897081375122,0.5635097622871399
1750927196380975900,6.970975830078125,9.333803176879883,1.960319995880127,0.592223584651947
1750927196399800000,6.989800048828125,9.19023323059082,2.5154547691345215,0.46779683232307434
1750927196418624300,7.008624267578125,9.372088432312012,2.836092948913574,0.5060819983482361
1750927196437448700,7.02744873046875,9.501300811767578,3.0658040046691895,0.6065805554389954
1750927196456273000,7.04627294921875,9.151947975158691,3.329014539718628,0.50129634141922
1750927196475097300,7.065097412109375,9.137591361999512,3.573082447052002,0.625723123550415
1750927196493921500,7.083921630859375,8.802596092224121,3.8123645782470703,0.5491527915000916
1750927196512746000,7.10274609375,8.438887596130371,4.243072986602783,0.6161518096923828
1750927196531570200,7.121570068359375,8.180462837219238,4.606781959533691,0.7357929348945618
1750927196550394600,7.14039453125,8.347960472106934,4.822135925292969,0.7070791125297546
1750927196569218800,7.15921875,8.36710262298584,4.994419097900391,0.3242274820804596
1750927196588043000,7.17804296875,7.99382209777832,4.922634601593018,0.30987054109573364
1750927196606867500,7.196867431640625,7.697112083435059,5.066203594207764,0.5587241053581238
1750927196625691600,7.215691650390625,7.773682594299316,5.13320255279541,0.625723123550415
1750927196644516000,7.23451611328125,7.840681552886963,4.802993297576904,0.5826523303985596
1750927196663340300,7.25334033203125,8.194819450378418,4.4584269523620605,0.6544370055198669
1750927196682164700,7.272164794921875,8.295317649841309,4.06121826171875,0.6640082597732544
1750927196700989000,7.290989013671875,8.50588607788086,3.7022948265075684,0.6113662123680115
1750927196719813000,7.309813232421875,8.668598175048828,3.5300116539001465,0.38644084334373474
1750927196738637600,7.328637451171875,9.180662155151367,3.0035905838012695,0.17108681797981262
1750927196757461800,7.347461669921875,9.731011390686035,2.300100803375244,0.26201409101486206
1750927196776286200,7.3662861328125,9.970293998718262,1.716252088546753,0.28115665912628174
1750927196795110400,7.3851103515625,10.530214309692383,1.3094722032546997,0.4582255482673645
1750927196813934600,7.4039345703125,10.209575653076172,0.9361918568611145,0.38644084334373474
1750927196832759000,7.422759033203125,10.539785385131836,0.5772684812545776,0.44386860728263855
1750927196851583200,7.441583251953125,10.487143516540527,0.3044866919517517,0.19980068504810333
1750927196870407700,7.46040771484375,10.190433502197266,-0.08315058797597885,0.11844471842050552
1750927196889232000,7.47923193359375,9.984650611877441,-0.5521438121795654,0.26201409101486206
1750927196908056300,7.498056396484375,10.013364791870117,-0.9014959335327148,0.4773681163787842
1750927196926880500,7.516880615234375,10.094720840454102,-1.1024930477142334,0.5635097622871399
1750927196945705000,7.535705078125,10.262218475341797,-1.4279168844223022,0.4486542344093323
1750927196964529200,7.554529052734375,10.13300609588623,-1.72941255569458,0.5252245664596558
1750927196983353300,7.573353271484375,9.769296646118164,-1.949552297592163,0.6927221417427063
1750927197002177800,7.592177734375,9.903294563293457,-2.169692039489746,0.6592226624488831
1750927197021002000,7.611001953125,10.085148811340332,-2.428116798400879,0.5635097622871399
1750927197039826400,7.629826416015625,9.640084266662598,-2.743969440460205,0.39601215720176697
1750927197058650600,7.648650634765625,9.654440879821777,-2.8109683990478516,0.4582255482673645
1750927197077475000,7.66747509765625,9.845867156982422,-2.9353952407836914,0.7501499056816101
1750927197096299300,7.68629931640625,9.616155624389648,-3.064607620239258,1.01814603805542
1750927197115123500,7.70512353515625,9.707083702087402,-3.2177481651306152,1.0277173519134521
1750927197133948000,7.723947998046875,9.93679428100586,-3.050250768661499,0.7501499056816101
1750927197152772000,7.742772216796875,10.233504295349121,-2.940180778503418,0.5252245664596558
1750927197171596500,7.761596435546875,10.104291915893555,-3.0789644718170166,0.5108676552772522
1750927197190420700,7.780420654296875,9.716654777526855,-3.184248685836792,0.865005373954773
1750927197209245200,7.7992451171875,9.68794059753418,-3.050250768661499,1.085145115852356
1750927197228069400,7.8180693359375,9.975079536437988,-2.844467878341675,0.9367900490760803
1750927197246893600,7.8368935546875,10.04686450958252,-2.538186550140381,0.7357929348945618
1750927197265718000,7.855718017578125,10.200004577636719,-2.0691933631896973,0.5491527915000916
1750927197284542200,7.874542236328125,10.214361190795898,-1.8729819059371948,0.5443671345710754
1750927197303366700,7.89336669921875,9.731011390686035,-1.6959130764007568,0.7022934556007385
1750927197322190800,7.91219091796875,9.56351375579834,-1.5858432054519653,0.7836494445800781
1750927197341015300,7.931015380859375,9.443872451782227,-1.1168500185012817,0.50129634141922
1750927197359839500,7.949839599609375,9.778867721557617,-0.719641387462616,0.49172505736351013
1750927197378664000,7.968663818359375,9.778867721557617,-0.3128615617752075,0.5060819983482361
1750927197397488000,7.987488037109375,9.587442398071289,0.09391828626394272,0.6783652305603027
1750927197416312300,8.006312255859376,9.611370086669922,0.4911268353462219,0.7932206988334656
1750927197435136800,8.02513671875,9.544371604919434,0.8979067206382751,0.6592226624488831
1750927197453961000,8.0439609375,9.592227935791016,1.165902853012085,0.7740781307220459
1750927197472785400,8.062785400390625,9.984650611877441,1.4482558965682983,0.9846464991569519
1750927197491609600,8.081609619140625,9.917651176452637,1.5822539329528809,0.7740781307220459
1750927197510434000,8.10043408203125,9.568299293518066,1.9555343389511108,0.7501499056816101
1750927197529258200,8.11925830078125,9.281160354614258,2.5776681900024414,0.5635097622871399
1750927197548082400,8.13808251953125,9.084949493408203,2.927020311355591,0.33858439326286316
1750927197566907000,8.156906982421875,9.080163955688477,3.180659532546997,0.6927221417427063
1750927197585731000,8.17573095703125,8.644669532775879,3.5204403400421143,0.7166503667831421
1750927197604555500,8.194555419921874,8.438887596130371,3.9224345684051514,0.7214360237121582
1750927197632791800,8.222791748046875,8.61595630645752,4.5206403732299805,0.5682953596115112
1750927197651616300,8.2416162109375,8.745168685913086,4.515854358673096,0.6927221417427063
1750927197670440400,8.2604404296875,8.553742408752441,4.420141696929932,0.8458628058433533
1750927197689265000,8.279264892578125,8.123034477233887,4.774279594421387,0.6113662123680115
1750927197708089000,8.298089111328125,7.788039684295654,4.975276470184326,0.5730810165405273
1750927197726913500,8.31691357421875,7.5774712562561035,5.13320255279541,0.989432156085968
1750927197745737700,8.33573779296875,7.491329669952393,5.075775146484375,0.9367900490760803
1750927197764562000,8.35456201171875,7.907680511474609,4.6785664558410645,0.6544370055198669
1750927197783386400,8.373386474609376,8.003393173217773,4.530211448669434,0.49651068449020386
1750927197802210600,8.39221044921875,8.223533630371094,4.085146427154541,0.7884350419044495
1750927197821035000,8.411034912109375,8.635098457336426,3.5682966709136963,1.109073281288147
1750927197839859200,8.429859130859375,9.003593444824219,3.2141590118408203,0.989432156085968
1750927197858683400,8.448683349609375,9.161520004272461,2.7595226764678955,0.4103690981864929
1750927197877507800,8.4675078125,9.754940032958984,2.1373889446258545,0.1902294009923935
1750927197896332000,8.48633203125,10.89392375946045,1.6157535314559937,0.5587241053581238
1750927197915156500,8.505156494140625,9.965508460998535,1.2616157531738281,0.486939400434494
1750927197933980700,8.523980712890625,10.056435585021973,0.9984052777290344,0.6161518096923828
1750927197952805000,8.54280517578125,10.377073287963867,0.6969096064567566,0.592223584651947
1750927197971629300,8.56162939453125,10.176076889038086,0.5724828243255615,0.5778666734695435
1750927197990453500,8.58045361328125,10.166504859924316,-0.08315058797597885,0.3194418251514435
1750927198009278000,8.59927783203125,10.826924324035645,-0.4085744619369507,-0.010767702013254166
1750927198028102100,8.61810205078125,10.913065910339355,-0.5760720372200012,0.22372891008853912
1750927198046926600,8.636926513671876,10.841280937194824,-1.0307083129882812,0.7022934556007385
1750927198065750800,8.655750732421875,9.592227935791016,-1.3657035827636719,0.7932206988334656
1750927198084575200,8.6745751953125,9.520442962646484,-1.7676976919174194,1.0803594589233398
1750927198103399400,8.6933994140625,9.635298728942871,-1.6863417625427246,0.6400800347328186
1750927198122223600,8.7122236328125,10.027721405029297,-1.662413477897644,0.18544375896453857
1750927198141048000,8.731048095703125,9.817152976989746,-1.8586249351501465,0.30987054109573364
1750927198159872300,8.749872314453125,9.539586067199707,-2.1122641563415527,0.7549355626106262
1750927198178696700,8.76869677734375,9.42473030090332,-2.2749760150909424,1.2717852592468262
1750927198197521000,8.78752099609375,9.348159790039062,-2.5525436401367188,0.9415757060050964
1750927198216345300,8.806345458984374,9.386445045471191,-2.806182861328125,0.7645068168640137
1750927198235169500,8.82516943359375,9.352945327758789,-2.815753936767578,0.6017948985099792
1750927198253994000,8.843993896484376,9.664012908935547,-2.6769702434539795,0.6783652305603027
1750927198272818200,8.862818115234376,10.223933219909668,-2.6865415573120117,0.8458628058433533
1750927198291642400,8.881642333984376,10.16171932220459,-2.672184705734253,0.9798609018325806
1750927198310466800,8.900466796875,10.14736270904541,-2.729612350463867,1.1617153882980347
1750927198329291000,8.919291015625,9.960722923278809,-2.7726831436157227,1.085145115852356
1750927198348115500,8.938115478515625,10.094720840454102,-2.609971284866333,0.8410771489143372
1750927198366939600,8.956939697265625,10.219147682189941,-2.3228325843811035,0.5682953596115112
1750927198385764000,8.97576416015625,10.281360626220703,-2.1744775772094727,0.7070791125297546
1750927198404588300,8.99458837890625,10.209575653076172,-1.9304096698760986,0.8267202377319336
1750927198423412500,9.01341259765625,10.214361190795898,-1.8011972904205322,0.745364248752594
1750927198442237000,9.03223681640625,9.78843879699707,-1.485344648361206,0.49651068449020386
1750927198461061000,9.05106103515625,9.783653259277344,-1.0450652837753296,0.4486542344093323
1750927198479885600,9.069885498046874,9.951150894165039,-0.5712863802909851,0.50129634141922
1750927198498709800,9.088709716796876,10.042078018188477,-0.25064817070961,0.5491527915000916
1750927198517534200,9.1075341796875,9.716654777526855,0.022133609279990196,0.6927221417427063
1750927198536358400,9.1263583984375,9.32423210144043,0.4576273262500763,0.5491527915000916
1750927198555182600,9.1451826171875,9.266803741455078,0.9840483069419861,0.6065805554389954
1750927198574007000,9.164007080078125,9.482157707214355,1.6013965606689453,0.6831508874893188
1750927198592831200,9.182831298828125,9.644869804382324,1.8550357818603516,0.7740781307220459
1750927198611655700,9.20165576171875,9.544371604919434,2.05603289604187,0.9463613629341125
1750927198630480000,9.22047998046875,9.448657989501953,2.434098720550537,0.9272187948226929
1750927198649304300,9.23930419921875,9.4390869140625,2.764308452606201,0.7357929348945618
1750927198668128500,9.25812841796875,9.367302894592285,3.0658040046691895,0.534795880317688
1750927198686952700,9.27695263671875,9.319445610046387,3.3720853328704834,0.5778666734695435
1750927198705777200,9.295777099609374,9.17587661743164,3.486940860748291,0.7980063557624817
1750927198724601300,9.314601318359376,8.831310272216797,3.9080774784088135,0.9080761671066284
1750927198743425800,9.33342578125,8.697312355041504,4.243072986602783,0.8410771489143372
1750927198762250000,9.35225,8.501100540161133,4.439284324645996,0.6209374666213989
1750927198781074200,9.37107421875,8.041678428649902,4.869992256164551,0.5587241053581238
1750927198799898600,9.389898681640625,7.926823139190674,5.25762939453125,0.711864709854126
1750927198818722800,9.408722900390625,7.792825222015381,5.262415409088135,0.989432156085968
1750927198837547300,9.42754736328125,7.749754428863525,5.1667022705078125,1.0516455173492432
1750927198856371500,9.446371337890625,7.6636128425598145,5.262415409088135,0.8745766878128052
1750927198875196000,9.46519580078125,7.6636128425598145,5.31984281539917,0.7597211599349976
1750927198894020000,9.48402001953125,7.6636128425598145,5.233701229095459,0.8793623447418213
1750927198912844300,9.50284423828125,7.922037601470947,4.960919380187988,0.9272187948226929
1750927198931668700,9.521668701171874,8.371888160705566,4.539782524108887,0.8219345808029175
1750927198950493000,9.540492919921874,8.769096374511719,4.099503517150879,0.7214360237121582
1750927198969317400,9.5593173828125,9.137591361999512,3.802793502807617,0.6735795736312866
1750927198988141600,9.5781416015625,9.06580638885498,3.5395829677581787,0.778863787651062
1750927199006966000,9.596966064453126,9.32423210144043,3.142374277114868,0.7645068168640137
1750927199025790200,9.615790283203125,9.46301555633545,2.7020950317382812,0.7022934556007385
1750927199044614400,9.634614501953125,9.525228500366211,2.032104730606079,0.8745766878128052
1750927199063438800,9.65343896484375,9.874580383300781,1.9028922319412231,0.6975077986717224
1750927199082263000,9.672262939453125,9.893723487854004,1.2855439186096191,0.8793623447418213
1750927199101087500,9.69108740234375,9.850652694702148,1.0223335027694702,1.1856436729431152
1750927199119911700,9.70991162109375,9.635298728942871,0.7208378314971924,1.0037890672683716
1750927199138736000,9.728736083984375,9.79801082611084,0.3332005441188812,0.4630111753940582
1750927199157560300,9.747560302734374,10.324431419372559,0.13698910176753998,0.1902294009923935
1750927199176384500,9.766384521484374,10.152148246765137,-0.2267199456691742,0.3433700501918793
1750927199195209000,9.785208984375,10.204790115356445,-0.6143572330474854,0.5491527915000916
1750927199214033200,9.804033203125,10.180862426757812,-0.8919246196746826,0.625723123550415
1750927199232857600,9.822857666015626,9.946365356445312,-1.2556337118148804,0.6209374666213989
1750927199251681800,9.841681884765626,9.740582466125488,-1.3465609550476074,0.4295116662979126
1750927199270506200,9.86050634765625,9.821938514709473,-1.6241283416748047,0.592223584651947
1750927199289330400,9.879330322265625,9.81236743927002,-2.131406784057617,0.9846464991569519
1750927199308154600,9.898154541015625,9.099306106567383,-2.375474691390991,1.0037890672683716
1750927199326979000,9.91697900390625,9.142376899719238,-2.6386852264404297,1.109073281288147
1750927199345803300,9.93580322265625,9.467801094055176,-2.844467878341675,1.2047861814498901
1750927199364627700,9.954627685546875,9.46301555633545,-2.9353952407836914,0.8458628058433533
1750927199383452000,9.973451904296875,9.415159225463867,-3.2368907928466797,0.5156532526016235
1750927199402276400,9.9922763671875,9.305088996887207,-3.476173162460327,0.5252245664596558
1750927199421100500,10.0111005859375,9.539586067199707,-3.5192439556121826,0.8123632669448853
1750927199439924700,10.0299248046875,9.8267240524292,-3.5575289726257324,0.9990034699440002
1750927199458749200,10.048749267578126,9.89850902557373,-3.538386583328247,0.8554341197013855
1750927199477573400,10.067573486328126,9.960722923278809,-3.6771702766418457,0.8171489238739014
1750927199496397800,10.086397705078125,9.893723487854004,-3.79681134223938,0.8506484627723694
1750927199515222000,10.105221923828125,9.860223770141602,-3.8255252838134766,0.7501499056816101
1750927199534046200,10.124046142578125,9.984650611877441,-3.7489547729492188,0.6352944374084473
1750927199552870700,10.14287060546875,10.104291915893555,-3.614956855773926,0.9559326171875
1750927199571694800,10.16169482421875,10.243075370788574,-3.4139597415924072,0.9080761671066284
1750927199590519300,10.180519287109375,10.156933784484863,-3.270390272140503,0.9320043921470642
1750927199609343500,10.199343505859375,10.099506378173828,-3.1794631481170654,0.9463613629341125
1750927199628168000,10.21816796875,9.78843879699707,-3.3613176345825195,0.9320043921470642
1750927199646992100,10.2369921875,9.673583984375,-3.035893678665161,0.7501499056816101
1750927199665816300,10.25581640625,9.697511672973633,-2.6530420780181885,0.7549355626106262
1750927199684640800,10.274640869140624,9.534799575805664,-2.3228325843811035,0.7166503667831421
1750927199703465000,10.29346484375,9.309874534606934,-1.9351953268051147,0.6017948985099792
1750927199722289400,10.312289306640626,9.348159790039062,-1.5379867553710938,0.8075776696205139
1750927199741113600,10.331113525390625,9.343374252319336,-0.8632107973098755,0.7980063557624817
1750927199759938000,10.34993798828125,9.68794059753418,-0.4612165689468384,0.9750752449035645
1750927199778762200,10.36876220703125,9.525228500366211,-0.1453639715909958,0.9942178130149841
1750927199797586400,10.38758642578125,9.391230583190918,0.22791635990142822,0.8315058946609497
1750927199816411000,10.406410888671875,9.573084831237793,0.5341976284980774,0.865005373954773
1750927199835235000,10.425235107421875,9.553942680358887,0.9744769930839539,0.7932206988334656
1750927199854059500,10.4440595703125,9.683155059814453,1.6109678745269775,0.5826523303985596
1750927199872883700,10.4628837890625,9.54915714263916,1.9555343389511108,0.5730810165405273
1750927199891708200,10.481708251953124,9.453444480895996,2.300100803375244,0.6831508874893188
1750927199910532400,10.500532470703124,9.391230583190918,2.5776681900024414,0.7262216806411743
1750927199929356500,10.5193564453125,9.30030345916748,2.850450038909912,0.7501499056816101
1750927199948181000,10.538180908203126,9.2859468460083,3.228515863418579,0.6592226624488831
1750927199967005200,10.557005126953126,9.415159225463867,3.448655605316162,0.7501499056816101
1750927199985829600,10.57582958984375,9.209376335144043,3.659224033355713,0.6400800347328186
1750927200004653800,10.59465380859375,8.802596092224121,4.022933006286621,0.5682953596115112
1750927200023478300,10.613478271484375,8.745168685913086,4.654638290405273,0.41994038224220276
1750927200042302500,10.632302490234375,8.816953659057617,4.506283283233643,0.39122650027275085
1750927200061126700,10.651126708984375,9.003593444824219,4.424927234649658,0.15672987699508667
1750927200079951000,10.669951171875,8.749954223632812,4.664209365844727,0.13280165195465088
1750927200098775300,10.688775390625,8.199604988098145,4.84606409072876,0.44386860728263855
1750927200117599700,10.707599853515624,7.797610759735107,4.965705394744873,0.711864709854126
1750927200136424000,10.726423828125,7.730611801147461,5.037489891052246,0.9080761671066284
1750927200155248000,10.745248046875,8.003393173217773,4.745565414428711,0.8602197170257568
1750927200174072600,10.764072509765626,8.161319732666016,4.47278356552124,0.6735795736312866
1750927200192896800,10.782896728515626,8.376673698425293,3.99900484085083,0.5060819983482361
1750927200211721200,10.80172119140625,8.61595630645752,3.573082447052002,0.6783652305603027
1750927200230545400,10.82054541015625,8.95095157623291,3.2715866565704346,0.8123632669448853
1750927200249369900,10.839369873046875,9.434301376342773,2.7355945110321045,0.778863787651062
1750927200268194000,10.858194091796875,9.2859468460083,2.18045973777771,0.7645068168640137
1750927200287018200,10.877018310546875,9.721440315246582,1.5104693174362183,0.6975077986717224
1750927200305842700,10.8958427734375,10.468000411987305,0.893121063709259,0.9080761671066284
1750927200324667000,10.9146669921875,10.841280937194824,0.6729813814163208,0.8841479420661926
1750927200343491300,10.9334912109375,10.779067993164062,0.5150550603866577,0.7549355626106262
1750927200362315500,10.9523154296875,10.310074806213379,0.3858426511287689,0.6305087804794312
1750927200381140000,10.971139892578124,9.606584548950195,-0.20757736265659332,0.9607182741165161
1750927200399964200,10.989964111328124,9.534799575805664,-0.6717849373817444,0.8841479420661926
1750927200418788400,11.008788330078126,9.841081619262695,-0.8488538265228271,0.8506484627723694
1750927200437612800,11.02761279296875,9.731011390686035,-1.0689935684204102,0.6496513485908508
1750927200456437000,11.04643701171875,9.601799011230469,-1.389631748199463,0.49651068449020386
1750927200475261400,11.065261474609375,9.46301555633545,-1.700698733329773,0.50129634141922
1750927200494085600,11.084085693359375,9.443872451782227,-2.0787646770477295,0.6544370055198669
1750927200512910000,11.10291015625,9.271589279174805,-2.499901533126831,0.8602197170257568
1750927200531734300,11.121734375,9.276374816894531,-2.7631118297576904,1.046859860420227
1750927200550558500,11.140558349609375,9.238089561462402,-3.0167510509490967,0.9702895879745483
1750927200569383000,11.1593828125,9.290732383728027,-3.2273194789886475,0.7262216806411743
1750927200588207000,11.17820703125,9.530014038085938,-3.452244758605957,1.0803594589233398
1750927200607031600,11.197031494140624,9.271589279174805,-3.820739507675171,1.4775680303573608
1750927200625855700,11.215855712890624,9.252447128295898,-4.079164505004883,1.3818551301956177
1750927200644680200,11.23468017578125,9.266803741455078,-4.0456647872924805,0.9559326171875
1750927200663504400,11.25350439453125,9.333803176879883,-4.17009162902832,0.8841479420661926
1750927200682328600,11.27232861328125,9.405587196350098,-4.17009162902832,1.046859860420227
1750927200701153000,11.291153076171875,9.525228500366211,-4.141377925872803,0.9367900490760803
1750927200719977200,11.309977294921875,10.042078018188477,-3.940380573272705,0.8841479420661926
1750927200738801700,11.3288017578125,10.109077453613281,-3.8733816146850586,0.9750752449035645
1750927200757625900,11.3476259765625,9.999007225036621,-3.9690945148468018,0.9942178130149841
1750927200776450300,11.3664501953125,10.156933784484863,-3.844667673110962,0.778863787651062
1750927200795274500,11.3852744140625,10.310074806213379,-3.7250266075134277,0.5826523303985596
1750927200814098700,11.4040986328125,10.41057300567627,-3.442673683166504,0.5443671345710754
1750927200832923100,11.422923095703124,10.27178955078125,-3.3373894691467285,0.7692924737930298
1750927200851747300,11.441747314453124,10.176076889038086,-3.1411778926849365,0.8937192559242249
1750927200870571800,11.46057177734375,9.754940032958984,-2.7487549781799316,0.7405785918235779
1750927200889396000,11.47939599609375,9.515657424926758,-2.3706889152526855,0.898504912853241
1750927200908220200,11.49822021484375,9.731011390686035,-1.7437695264816284,0.7166503667831421
1750927200927044600,11.517044677734376,10.003793716430664,-1.1455638408660889,0.8027920126914978
1750927200945869000,11.535869140625,9.735796928405762,-0.8009973764419556,0.9415757060050964
1750927200964693200,11.554693359375,9.151947975158691,-0.3128615617752075,1.2574282884597778
1750927200983517400,11.573517333984375,8.907880783081055,0.36670008301734924,1.4344971179962158
1750927201002342000,11.592341796875,8.960522651672363,1.170688509941101,1.4057832956314087
1750927201021166000,11.611166015625,9.276374816894531,1.6875381469726562,1.1330015659332275
1750927201039990300,11.629990234375,9.21416187286377,2.0895323753356934,1.0803594589233398
1750927201058814700,11.648814697265625,8.974879264831543,2.462812662124634,1.2813565731048584
1750927201077639000,11.667638916015624,8.888737678527832,2.6877379417419434,1.2717852592468262
1750927201096463400,11.68646337890625,8.596813201904297,3.1854450702667236,1.1808580160140991
1750927201115287600,11.70528759765625,8.419744491577148,3.6113674640655518,1.2574282884597778
1750927201134112000,11.724112060546876,8.371888160705566,4.190430641174316,1.3148560523986816
1750927201152936200,11.742936279296876,8.649456024169922,4.281357765197754,1.1330015659332275
1750927201171760400,11.761760498046876,8.845666885375977,3.960719585418701,1.171286702156067
1750927201190584800,11.780584716796875,8.70209789276123,4.1521453857421875,1.1808580160140991
1750927201209409000,11.799408935546875,8.544171333312988,4.31007194519043,1.1042876243591309
1750927201228233500,11.8182333984375,8.146963119506836,4.774279594421387,0.9750752449035645
1750927201247057700,11.8370576171875,8.10389232635498,4.72163724899292,1.1042876243591309
1750927201265882000,11.855882080078125,8.25703239440918,4.391427993774414,1.0995019674301147
1750927201284706300,11.874706298828125,8.26660442352295,4.300500392913818,1.0947163105010986
1750927201303530500,11.893530517578125,8.041678428649902,4.195216178894043,1.1617153882980347
1750927201322355000,11.91235498046875,7.950751304626465,4.032504558563232,1.444068431854248
1750927201341179100,11.93117919921875,8.371888160705566,3.5778679847717285,1.353141188621521
1750927201360003600,11.950003662109374,8.678169250488281,3.1232316493988037,1.1521440744400024
1750927201378827800,11.968827880859376,9.242876052856445,2.5250260829925537,1.1617153882980347
1750927201397652200,11.98765234375,9.156734466552734,2.05603289604187,0.9224331378936768
1750927201416476400,12.006476318359375,9.89850902557373,1.677966833114624,0.8410771489143372
1750927201435300600,12.025300537109375,10.300503730773926,1.2041879892349243,0.9224331378936768
1750927201454125000,12.044125,10.070792198181152,0.9266205430030823,0.7645068168640137
1750927201472949200,12.06294921875,10.109077453613281,0.5964110493659973,0.8027920126914978
1750927201491773700,12.081773681640625,10.13300609588623,0.12263216078281403,0.8171489238739014
1750927201510598000,12.100597900390625,10.290931701660156,-0.2315055876970291,0.8410771489143372
1750927201529422300,12.11942236328125,10.267004013061523,-0.5521438121795654,0.7310073375701904
1750927201548246500,12.13824658203125,10.310074806213379,-0.666999340057373,0.625723123550415
1750927201567070700,12.15707080078125,10.104291915893555,-1.0115658044815063,0.8841479420661926
1750927201585895200,12.175895263671874,9.70229721069336,-1.5379867553710938,0.7884350419044495
1750927201604719400,12.19471923828125,9.79801082611084,-1.8299111127853394,0.7310073375701904
1750927201623543800,12.213543701171876,9.731011390686035,-2.1170499324798584,0.7884350419044495
1750927201642368000,12.232367919921876,9.932008743286133,-2.303689956665039,0.8027920126914978
1750927201661192200,12.251192138671875,9.745368003845215,-2.4951157569885254,0.7070791125297546
1750927201680016600,12.2700166015625,9.472586631774902,-2.844467878341675,0.6640082597732544
1750927201698840800,12.2888408203125,9.391230583190918,-3.160320520401001,0.7357929348945618
1750927201717665300,12.307665283203125,9.367302894592285,-3.3708889484405518,0.6879364848136902
1750927201736489500,12.326489501953125,9.783653259277344,-3.4618160724639893,0.7501499056816101
1750927201755314000,12.34531396484375,9.64965534210205,-3.514458179473877,0.7405785918235779
1750927201774138000,12.36413818359375,9.57787036895752,-3.6197423934936523,0.7549355626106262
1750927201792962300,12.38296240234375,9.266803741455078,-3.8781673908233643,0.6831508874893188
1750927201811786800,12.401786865234374,9.305088996887207,-3.930809497833252,0.7214360237121582
1750927201830611000,12.42061083984375,9.520442962646484,-3.940380573272705,0.8602197170257568
1750927201849435400,12.439435302734376,9.821938514709473,-3.820739507675171,0.8937192559242249
1750927201868259600,12.458259521484376,9.91286563873291,-3.696312665939331,0.8027920126914978
1750927201887084000,12.477083984375,9.989436149597168,-3.7010984420776367,0.7645068168640137
1750927201905908200,12.495908203125,9.999007225036621,-3.6532418727874756,0.7884350419044495
1750927201924732400,12.514732421875,9.951150894165039,-3.67238450050354,0.7980063557624817
1750927201943556900,12.533556884765625,9.865009307861328,-3.576671600341797,0.8267202377319336
1750927201962381000,12.552381103515625,9.793225288391113,-3.3134610652923584,0.7262216806411743
1750927201981205500,12.57120556640625,9.79801082611084,-3.026322364807129,0.6065805554389954
1750927202000029700,12.59002978515625,9.64965534210205,-2.8253252506256104,0.5874379873275757
1750927202018854100,12.608854248046875,9.501300811767578,-2.5573291778564453,0.6687939167022705
1750927202037678300,12.62767822265625,9.544371604919434,-2.222334146499634,0.7214360237121582
1750927202056502500,12.64650244140625,9.520442962646484,-1.8299111127853394,0.9702895879745483
1750927202075327000,12.665326904296874,9.587442398071289,-1.5092729330062866,1.0372886657714844
1750927202094151200,12.684151123046876,9.391230583190918,-1.3561322689056396,1.2095718383789062
1750927202112975600,12.7029755859375,9.295517921447754,-0.8727820515632629,1.26699960231781
1750927202131799800,12.7217998046875,9.381659507751465,-0.1740778535604477,1.1521440744400024
1750927202150624300,12.740624267578125,9.778867721557617,0.4336991012096405,0.7692924737930298
1750927202169448400,12.759448486328125,9.745368003845215,0.4815555512905121,0.8745766878128052
1750927202188272600,12.778272705078125,9.778867721557617,0.615553617477417,1.1808580160140991
1750927202207097000,12.79709716796875,9.46301555633545,0.9457631707191467,1.2765709161758423
1750927202225921300,12.81592138671875,9.33858871459961,1.3525429964065552,1.089930772781372
1750927202244745700,12.834745849609375,9.510871887207031,1.7880367040634155,0.9463613629341125
1750927202263570000,12.85356982421875,9.620942115783691,2.2235305309295654,0.8602197170257568
1750927202282394400,12.872394287109374,9.697511672973633,2.3575284481048584,0.9655039310455322
1750927202301218600,12.891218505859374,9.644869804382324,2.4915266036987305,1.01814603805542
1750927202320042800,12.910042724609376,9.630513191223145,2.8313074111938477,0.9846464991569519
1750927202338867200,12.9288671875,9.601799011230469,3.1232316493988037,0.711864709854126
1750927202357691400,12.94769140625,9.386445045471191,3.3098719120025635,0.7262216806411743
1750927202376515800,12.966515869140625,9.013164520263672,3.3242287635803223,0.8745766878128052
1750927202395340000,12.985340087890625,8.989236831665039,3.4821550846099854,1.0516455173492432
1750927202414164200,13.004164306640625,8.994022369384766,3.707080364227295,1.2047861814498901
1750927202432988700,13.02298876953125,8.960522651672363,3.7740795612335205,1.1377872228622437
1750927202451812900,13.041812744140625,8.84088134765625,3.7740795612335205,1.113858938217163
1750927202470637300,13.06063720703125,8.639883995056152,3.8985064029693604,1.2047861814498901
1750927202489461500,13.07946142578125,8.45324420928955,3.8985064029693604,1.2574282884597778
1750927202508285700,13.09828564453125,8.13260555267334,3.951148271560669,1.3196417093276978
1750927202527110100,13.117110107421874,7.95553731918335,4.286143779754639,1.3244273662567139
1750927202545934300,13.135934326171874,8.094321250915527,4.066003799438477,1.26699960231781
1750927202564758800,13.1547587890625,8.386244773864746,3.745365619659424,1.195214867591858
1750927202583583000,13.1735830078125,8.529814720153809,3.525225877761841,1.0325030088424683
1750927202602407400,13.192407470703126,8.414958953857422,3.266801118850708,1.042074203491211
1750927202621231600,13.211231689453125,8.639883995056152,2.960519790649414,1.01814603805542
1750927202640055800,13.230055908203125,9.06580638885498,2.486740827560425,0.8075776696205139
1750927202658880300,13.24888037109375,9.91286563873291,1.811964988708496,0.9463613629341125
1750927202677704400,13.267704345703125,9.616155624389648,1.2999008893966675,0.836291491985321
1750927202696529000,13.28652880859375,9.994221687316895,0.9122636318206787,1.0947163105010986
1750927202715353000,13.30535302734375,10.27178955078125,0.44805604219436646,1.2478569746017456
1750927202743589600,13.333589599609375,10.04686450958252,-0.2027917206287384,1.1665010452270508
1750927202762413800,13.352413818359375,9.903294563293457,-0.26500511169433594,0.7740781307220459
1750927202781238300,13.37123828125,10.362716674804688,-0.5760720372200012,0.5252245664596558
1750927202800062500,13.3900625,10.601999282836914,-0.9349954724311829,0.3481557071208954
1750927202818887000,13.408886962890625,10.386645317077637,-1.236491084098816,0.23808585107326508
1750927202837711000,13.427711181640625,9.946365356445312,-1.6863417625427246,0.3242274820804596
1750927202856535300,13.446535400390625,9.754940032958984,-1.9591234922409058,0.5300102233886719
1750927202875359700,13.46535986328125,9.79801082611084,-2.073979139328003,0.5826523303985596
1750927202894184000,13.484183837890624,9.879366874694824,-2.2031915187835693,0.5491527915000916
1750927202913008000,13.503008056640626,9.879366874694824,-2.5908286571502686,0.8027920126914978
1750927202931832600,13.52183251953125,9.68794059753418,-2.7774689197540283,0.9032905697822571
1750927202950656800,13.54065673828125,9.8267240524292,-2.877967357635498,0.7549355626106262
1750927202969481200,13.559481201171875,9.553942680358887,-3.1268210411071777,0.778863787651062
1750927202988305400,13.578305419921875,9.419944763183594,-3.428316593170166,0.7501499056816101
1750927203007129900,13.5971298828125,9.21416187286377,-3.576671600341797,0.7692924737930298
1750927203025954000,13.6159541015625,9.434301376342773,-3.490530014038086,0.8745766878128052
1750927203044778200,13.6347783203125,9.683155059814453,-3.4570305347442627,0.9272187948226929
1750927203063602700,13.653602783203125,9.802796363830566,-3.452244758605957,0.898504912853241
1750927203082427000,13.672427001953125,9.908080101013184,-3.366103172302246,0.6640082597732544
1750927203101251300,13.691251220703125,9.874580383300781,-3.380460262298584,0.7214360237121582
1750927203120075500,13.710075439453124,9.77408218383789,-3.4331023693084717,0.7310073375701904
1750927203138900000,13.72889990234375,9.707083702087402,-3.552743434906006,0.8315058946609497
1750927203157724200,13.74772412109375,9.845867156982422,-3.2416765689849854,0.8315058946609497
1750927203176548400,13.76654833984375,10.176076889038086,-2.892324447631836,0.8171489238739014
1750927203195372800,13.785372802734376,10.056435585021973,-2.9066812992095947,0.836291491985321
1750927203214197000,13.804197021484375,9.8267240524292,-2.9976086616516113,0.6975077986717224
1750927203233021400,13.823021484375,9.496515274047852,-2.815753936767578,0.5252245664596558
1750927203251845600,13.841845703125,9.553942680358887,-2.318047046661377,0.5108676552772522
1750927203270670000,13.860670166015625,9.515657424926758,-1.906481385231018,0.7310073375701904
1750927203289494300,13.879494384765625,9.501300811767578,-1.6432709693908691,0.9846464991569519
1750927203308318500,13.898318359375,9.453444480895996,-1.3513466119766235,1.109073281288147
1750927203327143000,13.917142822265625,9.458230018615723,-0.8297112584114075,0.8745766878128052
1750927203345967000,13.935967041015624,9.582656860351562,-0.23629122972488403,0.7740781307220459
1750927203364791600,13.95479150390625,10.066006660461426,0.0891326442360878,0.8027920126914978
1750927203383615700,13.97361572265625,10.434501647949219,0.26141586899757385,0.8554341197013855
1750927203402440200,13.992440185546876,10.051650047302246,0.2997010350227356,0.8889335989952087
1750927203421264400,14.011264404296876,10.003793716430664,0.6538388133049011,1.0995019674301147
1750927203440088600,14.030088623046876,9.64965534210205,1.2951152324676514,0.836291491985321
1750927203458913000,14.0489130859375,9.553942680358887,1.74496591091156,0.5778666734695435
1750927203477737200,14.0677373046875,9.386445045471191,1.8406788110733032,0.7022934556007385
1750927203496561700,14.086561767578125,9.003593444824219,2.2091734409332275,0.8027920126914978
1750927203515385900,14.1053857421875,9.099306106567383,2.84087872505188,0.7932206988334656
1750927203534210300,14.124210205078125,9.367302894592285,3.1375887393951416,0.7070791125297546
1750927203553034500,14.143034423828125,9.735796928405762,2.9653055667877197,0.745364248752594
1750927203571858700,14.161858642578125,9.42473030090332,2.984447956085205,1.0803594589233398
1750927203590683100,14.18068310546875,9.070592880249023,3.4103705883026123,1.2861422300338745
1750927203609507300,14.19950732421875,8.850452423095703,3.802793502807617,1.1904292106628418
1750927203628331500,14.21833154296875,8.936594009399414,4.12343168258667,0.8554341197013855
1750927203647156000,14.237156005859376,8.97966480255127,4.113860130310059,0.7692924737930298
1750927203665980200,14.255980224609376,9.0514497756958,4.12343168258667,0.8506484627723694
1750927203684804600,14.2748046875,8.783453941345215,4.314857482910156,1.01814603805542
1750927203703628800,14.29362890625,8.414958953857422,4.6163530349731445,1.1473584175109863
1750927203722453200,14.312453369140625,8.084749221801758,4.841278553009033,1.0755738019943237
1750927203741277400,14.33127734375,8.065607070922852,5.075775146484375,0.7645068168640137
1750927203760101600,14.3501015625,7.998608112335205,5.123631477355957,0.8027920126914978
1750927203778926000,14.368926025390625,7.563114166259766,5.051846981048584,0.9367900490760803
1750927203797750300,14.387750244140625,7.189833641052246,5.252843856811523,1.3627125024795532
1750927203816574700,14.40657470703125,7.256833076477051,5.137988567352295,1.439282774925232
1750927203835399000,14.42539892578125,7.692326545715332,4.697709083557129,1.1665010452270508
1750927203854223400,14.444223388671874,7.859824180603027,4.209573268890381,1.1665010452270508
1750927203873047600,14.463047607421874,8.137392044067383,3.697509288787842,1.2382856607437134
1750927203891871700,14.481871826171876,8.68774127960205,3.0418758392333984,1.2813565731048584
1750927203910696200,14.5006962890625,9.295517921447754,2.6255247592926025,0.9702895879745483
1750927203929520400,14.519520263671875,10.314860343933105,2.2331018447875977,0.865005373954773
1750927203948344800,14.5383447265625,9.367302894592285,1.831107497215271,0.4007977843284607
1750927203967169000,14.5571689453125,9.932008743286133,1.323829174041748,0.8027920126914978
1750927203985993500,14.575993408203125,9.654440879821777,0.9601200819015503,0.9032905697822571
1750927204004817700,14.594817626953125,9.946365356445312,0.5916253924369812,0.8602197170257568
1750927204023641900,14.613641845703125,10.267004013061523,0.20398813486099243,0.6592226624488831
1750927204042466300,14.63246630859375,10.070792198181152,-0.24586252868175507,0.4103690981864929
1750927204061290500,14.65129052734375,9.946365356445312,-0.7579265832901001,0.4534398913383484
1750927204080115000,14.670114990234374,9.874580383300781,-1.1264212131500244,0.6352944374084473
1750927204098939100,14.688939208984374,10.281360626220703,-1.3465609550476074,0.6161518096923828
1750927204117763300,14.707763427734376,10.343574523925781,-1.6719847917556763,0.49172505736351013
1750927204136587800,14.726587890625,10.276575088500977,-2.0069799423217773,0.486939400434494
1750927204155412000,14.745411865234376,9.845867156982422,-2.4185454845428467,0.41994038224220276
1750927204174236400,14.764236328125,9.721440315246582,-2.7391836643218994,0.5204389095306396
1750927204193060600,14.783060546875,9.831509590148926,-2.916252613067627,0.43908295035362244
1750927204211884800,14.801884765625,9.860223770141602,-3.0789644718170166,0.49651068449020386
1750927204230709200,14.820709228515625,9.77408218383789,-3.303889751434326,0.4247260093688965
1750927204249533400,14.839533447265625,9.625727653503418,-3.428316593170166,0.5252245664596558
1750927204268358000,14.85835791015625,9.855438232421875,-3.624528169631958,0.6496513485908508
1750927204287182000,14.87718212890625,9.640084266662598,-3.854238986968994,0.5682953596115112
1750927204306006500,14.896006591796874,9.750154495239258,-3.7489547729492188,0.5443671345710754
1750927204324830700,14.914830810546874,10.099506378173828,-3.552743434906006,0.6065805554389954
1750927204343655000,14.933655029296874,10.152148246765137,-3.5336008071899414,0.7357929348945618
1750927204362479400,14.952479248046876,10.04686450958252,-3.4953157901763916,0.6496513485908508
1750927204381303600,14.971303466796876,9.927223205566406,-3.5431721210479736,0.745364248752594
1750927204400128000,14.9901279296875,9.941579818725586,-3.428316593170166,0.6448656916618347
1750927204418952200,15.0089521484375,9.893723487854004,-3.2416765689849854,0.5156532526016235
1750927204437776600,15.027776611328125,9.711869239807129,-3.035893678665161,0.5970092415809631
1750927204456600800,15.046600830078125,9.635298728942871,-2.8013970851898193,0.6448656916618347
1750927204475425000,15.065425048828125,9.496515274047852,-2.4568307399749756,0.6017948985099792
1750927204494249500,15.08424951171875,9.716654777526855,-1.9256240129470825,0.5300102233886719
1750927204513073700,15.10307373046875,9.778867721557617,-1.4901303052902222,0.5252245664596558
1750927204531898000,15.121898193359375,9.592227935791016,-1.217348575592041,0.711864709854126
1750927204550722300,15.140722412109374,9.33858871459961,-0.8488538265228271,0.898504912853241
1750927204569546800,15.159546630859374,9.568299293518066,-0.4660021960735321,0.9655039310455322
1750927204588371000,15.178370849609376,9.534799575805664,0.14656038582324982,0.7262216806411743
1750927204607195100,15.197195068359376,9.611370086669922,0.5772684812545776,0.7980063557624817
1750927204635431700,15.225431640625,9.448657989501953,1.2855439186096191,0.745364248752594
1750927204654255900,15.244255859375,9.242876052856445,1.3525429964065552,0.9176474809646606
1750927204673080300,15.263080322265624,9.434301376342773,1.8502501249313354,1.1330015659332275
1750927204691904500,15.281904541015624,9.501300811767578,2.2953150272369385,0.9272187948226929
1750927204710729000,15.30072900390625,9.573084831237793,2.71645188331604,0.7022934556007385
1750927204729553200,15.31955322265625,9.678369522094727,2.864806890487671,0.5060819983482361
1750927204748377600,15.338377685546876,9.520442962646484,3.0801608562469482,0.5970092415809631
1750927204767201800,15.357201904296875,9.19023323059082,3.37687087059021,0.6065805554389954
1750927204786026000,15.37602587890625,9.07537841796875,3.668795347213745,0.625723123550415
1750927204804850400,15.394850341796875,9.142376899719238,3.850649833679199,0.6161518096923828
1750927204823674600,15.413674560546875,8.989236831665039,4.2000017166137695,0.5682953596115112
1750927204842499000,15.4324990234375,8.793025016784668,4.2622151374816895,0.7022934556007385
1750927204861323300,15.4513232421875,8.520243644714355,4.252644062042236,0.9176474809646606
1750927204880147500,15.4701474609375,8.247461318969727,4.539782524108887,0.8937192559242249
1750927204898972000,15.488971923828124,7.807182312011719,4.855635166168213,1.042074203491211
1750927204917796000,15.507796142578124,7.467401027679443,5.066203594207764,1.0707881450653076
1750927204936620500,15.52662060546875,7.491329669952393,5.295914649963379,0.6113662123680115
1750927204955444700,15.54544482421875,7.797610759735107,4.812564373016357,0.47258245944976807
1750927204974269000,15.56426904296875,7.984251022338867,4.625924587249756,0.5539384484291077
1750927204993093400,15.58309326171875,8.070392608642578,4.429712772369385,0.8410771489143372
1750927205011917600,15.60191748046875,8.233104705810547,4.037290096282959,0.9990034699440002
1750927205030742000,15.620741943359375,8.749954223632812,3.4055848121643066,0.625723123550415
1750927205049566200,15.639566162109375,10.051650047302246,2.7499513626098633,0.2763710021972656
1750927205068390700,15.658390625,9.654440879821777,2.3958137035369873,-0.10169496387243271
1750927205087214800,15.67721484375,9.831509590148926,2.15653133392334,0.18544375896453857
1750927205106039000,15.6960390625,9.745368003845215,1.7928223609924316,0.4342973232269287
1750927205124863500,15.714863525390625,9.903294563293457,1.323829174041748,0.2476571500301361
1750927205143687700,15.733687744140624,10.214361190795898,0.7495517134666443,0.25244277715682983
1750927205162512100,15.75251220703125,10.228718757629395,0.24227328598499298,0.3720839321613312
1750927205181336300,15.77133642578125,10.085148811340332,-0.0687936544418335,0.6496513485908508
1750927205200160800,15.790160888671876,10.027721405029297,-0.37028929591178894,0.6352944374084473
1750927205218985000,15.80898486328125,9.91286563873291,-0.6382854580879211,0.36729827523231506
1750927205237809200,15.82780908203125,9.711869239807129,-0.8392825126647949,0.1663011759519577
1750927205256633600,15.846633544921875,9.745368003845215,-1.3178470134735107,0.0323031060397625
1750927205275457800,15.865457763671875,9.836296081542969,-1.7629120349884033,0.10887342691421509
1750927205294282200,15.8842822265625,9.539586067199707,-2.107478618621826,0.3194418251514435
1750927205313106400,15.9031064453125,9.568299293518066,-2.404188632965088,0.4007977843284607
1750927205331931000,15.921930908203125,9.683155059814453,-2.633899450302124,0.30987054109573364
1750927205350755000,15.940755126953125,9.668798446655273,-2.7248268127441406,0.3529413342475891
1750927205369579300,15.959579345703125,9.740582466125488,-3.160320520401001,0.5730810165405273
1750927205388403700,15.97840380859375,9.81236743927002,-3.342175006866455,0.534795880317688
1750927205407228000,15.997227783203124,10.042078018188477,-3.404388427734375,-0.020338991656899452
1750927205426052400,16.01605224609375,10.156933784484863,-3.442673683166504,0.003589233849197626
1750927205444876500,16.03487646484375,9.879366874694824,-3.648456335067749,0.33379876613616943
1750927205463700700,16.05370068359375,9.984650611877441,-3.8590247631073,0.26201409101486206
1750927205482525200,16.072525146484374,9.850652694702148,-3.73459792137146,0.1902294009923935
1750927205501349400,16.091349365234375,9.759725570678711,-3.4139597415924072,-0.039481572806835175
1750927205520173800,16.110173828125,9.92243766784668,-3.07417893409729,-0.10648060590028763
1750927205538998000,16.128998046875,10.156933784484863,-3.3134610652923584,-0.13519448041915894
1750927205557822500,16.147822509765625,10.243075370788574,-3.4953157901763916,0.0323031060397625
1750927205576646700,16.166646728515627,9.79801082611084,-3.2608189582824707,0.3242274820804596
1750927205595470800,16.185470947265625,9.778867721557617,-3.232105255126953,0.3194418251514435
1750927205614295300,16.20429541015625,9.659226417541504,-3.184248685836792,0.1950150430202484
1750927205633119500,16.223119384765624,9.960722923278809,-2.758326292037964,0.3577269911766052
1750927205651944000,16.24194384765625,9.817152976989746,-2.4185454845428467,0.11844471842050552
1750927205670768000,16.26076806640625,9.367302894592285,-2.0931215286254883,0.15194423496723175
1750927205689592300,16.27959228515625,9.731011390686035,-1.48055899143219,0.39601215720176697
1750927205708416800,16.298416748046876,9.8267240524292,-1.4279168844223022,0.5730810165405273
1750927205727241000,16.317240966796874,9.510871887207031,-1.0689935684204102,0.5587241053581238
1750927205746065400,16.3360654296875,8.893523216247559,-0.6478567123413086,0.5970092415809631
1750927205764889600,16.3548896484375,8.668598175048828,0.18484555184841156,0.7357929348945618
1750927205783714000,16.373714111328123,9.257232666015625,0.7543373107910156,0.7740781307220459
1750927205802538200,16.392538330078125,10.032506942749023,0.859621524810791,0.8075776696205139
1750927205821362400,16.411362548828127,10.463214874267578,0.9074779748916626,0.7740781307220459
1750927205840187000,16.430186767578125,10.381858825683594,1.165902853012085,0.7357929348945618
1750927205859011000,16.449010986328126,10.310074806213379,1.6444673538208008,0.4103690981864929
1750927205877835500,16.46783544921875,10.214361190795898,2.228316068649292,0.07058826833963394
1750927205896659700,16.48665966796875,9.893723487854004,2.6111676692962646,0.09930214285850525
1750927205915484200,16.505484130859376,9.443872451782227,2.9940192699432373,0.4582255482673645
1750927205934308400,16.524308349609374,9.171091079711914,3.252444267272949,0.9128618240356445
1750927205953132500,16.543132568359376,9.041878700256348,3.534797191619873,0.9415757060050964
1750927205971957000,16.56195703125,9.166305541992188,3.817150354385376,0.836291491985321
1750927205990781200,16.58078125,8.682954788208008,4.0803608894348145,0.9702895879745483
1750927206009605600,16.599605712890625,7.945965766906738,4.453640937805176,1.085145115852356
1750927206028429800,16.618429931640627,7.467401027679443,4.812564373016357,1.2430713176727295
1750927206047254000,16.63725390625,7.596613883972168,4.917848587036133,1.3818551301956177
1750927206066078500,16.656078369140626,7.773682594299316,4.554139614105225,1.573280930519104
1750927206084902700,16.674902587890625,7.72104024887085,4.329214572906494,1.5302101373672485
1750927206103727000,16.69372705078125,7.682755470275879,4.429712772369385,1.2430713176727295
1750927206122551300,16.71255126953125,7.95553731918335,4.223930358886719,0.9511470198631287
1750927206141375700,16.731375732421874,8.376673698425293,3.721437454223633,1.0277173519134521
1750927206160200000,16.750199951171876,9.041878700256348,3.3003005981445312,1.2813565731048584
1750927206179024100,16.769024169921874,9.309874534606934,3.0658040046691895,1.1042876243591309
1750927206197848600,16.7878486328125,9.333803176879883,2.77866530418396,0.5778666734695435
1750927206216672800,16.8066728515625,9.845867156982422,1.9986051321029663,0.6496513485908508
1750927206235497200,16.825497314453123,9.750154495239258,1.5966109037399292,0.6640082597732544
1750927206254321400,16.8443212890625,9.707083702087402,1.3908281326293945,0.6017948985099792
1750927206273145600,16.8631455078125,9.893723487854004,0.9984052777290344,0.9990034699440002
1750927206291970000,16.881969970703125,9.764511108398438,0.582054078578949,1.0037890672683716
1750927206310794200,16.900794189453126,9.745368003845215,0.10827522724866867,0.9511470198631287
1750927206329618700,16.91961865234375,9.869794845581055,-0.1740778535604477,0.9128618240356445
1750927206348443000,16.93844287109375,10.104291915893555,-0.40378883481025696,0.9176474809646606
1750927206367267300,16.957267333984376,10.027721405029297,-0.7100701332092285,0.7070791125297546
1750927206395503600,16.985503662109377,9.769296646118164,-1.3417752981185913,0.5539384484291077
1750927206414328000,17.004328125,9.951150894165039,-1.485344648361206,0.5443671345710754
1750927206433152300,17.02315234375,9.979865074157715,-1.7533408403396606,0.5539384484291077
1750927206451976700,17.041976806640626,10.085148811340332,-2.217548370361328,0.7166503667831421
1750927206470801000,17.06080078125,9.965508460998535,-2.5190439224243164,0.836291491985321
1750927206489625000,17.079625,9.625727653503418,-2.806182861328125,0.7549355626106262
1750927206508449500,17.098449462890624,9.204590797424316,-3.3613176345825195,0.6448656916618347
1750927206527273700,17.117273681640626,9.357730865478516,-3.524029493331909,0.5108676552772522
1750927206546098000,17.136097900390624,9.970293998718262,-3.490530014038086,0.2763710021972656
1750927206564922400,17.15492236328125,9.845867156982422,-3.624528169631958,0.3577269911766052
1750927206583746600,17.17374658203125,9.381659507751465,-3.906881093978882,0.5874379873275757
1750927206602571000,17.192571044921873,9.266803741455078,-4.0217366218566895,1.1425727605819702
1750927206621395200,17.211395263671875,9.582656860351562,-3.9834516048431396,1.1904292106628418
1750927206640219600,17.2302197265625,10.032506942749023,-3.768097400665283,0.8697910308837891
1750927206659043800,17.2490439453125,10.142577171325684,-3.868596076965332,0.8554341197013855
1750927206677868000,17.267867919921876,10.089935302734375,-3.9116668701171875,0.6831508874893188
1750927206696692500,17.2866923828125,9.81236743927002,-4.064807415008545,0.5300102233886719
1750927206715516700,17.3055166015625,9.659226417541504,-3.8494534492492676,0.36729827523231506
1750927206734341000,17.324341064453126,9.472586631774902,-3.6340994834899902,0.5252245664596558
1750927206753165300,17.343165283203124,9.539586067199707,-3.4618160724639893,0.8602197170257568
1750927206771989800,17.36198974609375,9.415159225463867,-3.279961585998535,0.989432156085968
1750927206790814000,17.38081396484375,9.08973503112793,-3.088535785675049,1.0085747241973877
1750927206809638100,17.39963818359375,8.912666320800781,-2.6530420780181885,0.8219345808029175
1750927206828462600,17.418462646484375,9.142376899719238,-2.2845473289489746,0.5060819983482361
1750927206847286800,17.437286865234373,9.482157707214355,-1.810768485069275,0.5156532526016235
1750927206866111200,17.456111328125,9.707083702087402,-1.5044872760772705,0.7501499056816101
1750927206884935400,17.474935302734377,9.850652694702148,-1.332203984260559,0.9798609018325806
1750927206903759600,17.493759521484375,9.946365356445312,-1.0307083129882812,1.046859860420227
1750927206922584000,17.512583984375,9.821938514709473,-0.4660021960735321,0.8889335989952087
1750927206941408300,17.531408203125,9.41037368774414,-0.10229317098855972,0.8267202377319336
1750927206960232700,17.550232666015624,9.257232666015625,0.1178465187549591,0.8267202377319336
1750927206979057000,17.569056884765626,9.970293998718262,0.37148571014404297,0.6735795736312866
1750927206997881300,17.58788134765625,10.195219039916992,0.6777670383453369,0.5108676552772522
1750927207016705500,17.60670556640625,10.39621639251709,1.0079765319824219,0.30508488416671753
1750927207035529700,17.62552978515625,10.334002494812012,1.2233306169509888,0.4534398913383484
1750927207054354200,17.644354248046874,10.00857925415039,1.7114664316177368,0.41994038224220276
1750927207073178400,17.663178466796875,9.79801082611084,2.1948165893554688,0.4582255482673645
1750927207092002800,17.6820029296875,9.64965534210205,2.424527645111084,0.39601215720176697
1750927207110827000,17.700826904296875,9.568299293518066,2.7212376594543457,0.4007977843284607
1750927207129651200,17.719651123046877,9.70229721069336,2.9078776836395264,0.46779683232307434
1750927207148475600,17.7384755859375,9.238089561462402,3.2333016395568848,0.5491527915000916
1750927207167299800,17.7572998046875,8.71645450592041,3.8362929821014404,0.6209374666213989
1750927207186124300,17.776124267578126,8.582456588745117,4.2000017166137695,0.8841479420661926
1750927207204948500,17.794948486328124,8.668598175048828,4.056432723999023,1.109073281288147
1750927207223772700,17.813772705078126,8.515457153320312,4.075575351715088,1.1377872228622437
1750927207242597000,17.83259716796875,8.362317085266113,4.429712772369385,1.1904292106628418
1750927207261421300,17.85142138671875,8.328817367553711,4.975276470184326,1.0325030088424683
1750927207280245500,17.87024560546875,7.70668363571167,5.248058319091797,0.8554341197013855
1750927207299070000,17.889070068359374,7.098906517028809,5.267200946807861,1.1425727605819702
1750927207317894100,17.90789404296875,6.864409923553467,5.252843856811523,1.3244273662567139
1750927207336718600,17.926718505859377,7.0271220207214355,5.0949177742004395,1.2335001230239868
1750927207355542800,17.945542724609375,7.266404151916504,4.769493579864502,1.200000524520874
1750927207374367000,17.964366943359376,7.5535430908203125,4.362713813781738,1.200000524520874
1750927207393191400,17.98319140625,7.917252063751221,3.855435371398926,1.042074203491211
1750927207412015600,18.002015625,8.903095245361328,3.4534413814544678,0.4630111753940582
1750927207430840000,18.020840087890626,10.195219039916992,2.7260231971740723,0.0849452018737793
1750927207449664300,18.039664306640624,10.00857925415039,1.4865410327911377,0.36729827523231506
1750927207468488400,18.058488525390626,9.93679428100586,1.7736797332763672,0.6305087804794312
1750927207487313000,18.07731298828125,10.118648529052734,1.5248262882232666,0.3768695592880249
1750927207506137000,18.09613720703125,10.137791633605957,0.8691928386688232,0.26201409101486206
1750927207524961500,18.11496142578125,9.965508460998535,0.3188436031341553,0.31465616822242737
1750927207543785700,18.13378564453125,9.927223205566406,-0.26500511169433594,0.5204389095306396
1750927207562610200,18.152610107421875,10.310074806213379,-0.7435696125030518,0.8506484627723694
1750927207581434400,18.171434326171877,10.53499984741211,-0.8297112584114075,0.7597211599349976
1750927207600258600,18.190258544921875,10.453643798828125,-1.0498509407043457,0.745364248752594
1750927207619083000,18.2090830078125,9.78843879699707,-1.2795618772506714,0.5300102233886719
1750927207637907200,18.2279072265625,9.908080101013184,-1.7437695264816284,0.4821537733078003
1750927207656731600,18.246731689453124,9.640084266662598,-2.1505494117736816,0.6161518096923828
1750927207675555800,18.265555908203126,9.434301376342773,-2.2510478496551514,0.7549355626106262
1750927207703792400,18.29379248046875,9.764511108398438,-2.6673989295959473,0.7262216806411743
1750927207722616600,18.312616455078125,9.664012908935547,-3.232105255126953,0.5204389095306396
1750927207741441000,18.33144091796875,9.405587196350098,-3.614956855773926,0.6065805554389954
1750927207760265200,18.35026513671875,9.142376899719238,-3.7633118629455566,0.43908295035362244
1750927207779089400,18.36908935546875,9.458230018615723,-3.73459792137146,0.4821537733078003
1750927207797913900,18.387913818359376,9.587442398071289,-3.710669755935669,0.6400800347328186
1750927207816738000,18.406738037109374,9.644869804382324,-3.8781673908233643,0.9176474809646606
1750927207835562500,18.4255625,9.769296646118164,-3.9978084564208984,0.6831508874893188
1750927207854386700,18.44438671875,9.81236743927002,-4.117449760437012,0.5395814776420593
1750927207873211000,18.4632109375,9.855438232421875,-4.203591346740723,0.36251261830329895
1750927207892035300,18.482035400390625,9.68794059753418,-4.165306091308594,0.1950150430202484
1750927207910859500,18.500859619140623,9.611370086669922,-4.103092670440674,0.3577269911766052
1750927207929684000,18.51968408203125,9.836296081542969,-3.9260237216949463,0.6496513485908508
1750927207948508200,18.538508056640627,9.697511672973633,-3.758526086807251,0.6400800347328186
1750927207967332400,18.557332275390625,9.587442398071289,-3.6293137073516846,0.5395814776420593
1750927207986156800,18.57615673828125,9.391230583190918,-3.5096726417541504,0.41515472531318665
1750927208004981000,18.59498095703125,9.472586631774902,-3.040679454803467,0.39601215720176697
1750927208023805400,18.613805419921874,9.625727653503418,-2.5908286571502686,0.4342973232269287
1750927208042629600,18.632629638671876,9.707083702087402,-2.4711875915527344,0.4295116662979126
1750927208061454000,18.6514541015625,9.616155624389648,-2.2989044189453125,0.6113662123680115
1750927208080278300,18.6702783203125,9.654440879821777,-1.949552297592163,0.9224331378936768
1750927208099102500,18.6891025390625,9.81236743927002,-1.4422738552093506,1.0947163105010986
1750927208117927000,18.707927001953124,9.64965534210205,-0.8153542876243591,0.6975077986717224
1750927208136751000,18.726751220703125,9.405587196350098,-0.4325026869773865,0.5682953596115112
1750927208155575600,18.745575439453123,9.372088432312012,-0.13100704550743103,0.7645068168640137
1750927208174399700,18.764399658203125,9.932008743286133,0.28534409403800964,0.8506484627723694
1750927208193224200,18.78322412109375,9.994221687316895,0.5054838061332703,0.7262216806411743
1750927208212048400,18.80204833984375,9.692726135253906,0.6969096064567566,0.8123632669448853
1750927208230872600,18.82087255859375,9.979865074157715,1.1371889114379883,0.8267202377319336
1750927208249697000,18.839697021484376,9.721440315246582,1.414756417274475,0.6161518096923828
1750927208268521200,18.858521240234374,9.31466007232666,2.0416758060455322,0.745364248752594
1750927208287345700,18.877345703125,9.151947975158691,2.596810817718506,0.7501499056816101
1750927208306169900,18.896169921875,9.544371604919434,2.668595552444458,0.9032905697822571
1750927208324994000,18.914994140625,9.850652694702148,2.7451658248901367,0.8745766878128052
1750927208343818500,18.933818603515626,9.683155059814453,3.0562326908111572,0.7692924737930298
1750927208362642700,18.952642578125,9.290732383728027,3.3720853328704834,0.7501499056816101
1750927208381467100,18.971467041015625,8.970093727111816,3.9702908992767334,0.7645068168640137
1750927208400291300,18.990291259765623,8.807381629943848,4.1760735511779785,0.8602197170257568
1750927208419115500,19.009115478515625,8.845666885375977,4.238286972045898,1.0803594589233398
1750927208437940000,19.02793994140625,8.931808471679688,4.238286972045898,0.9559326171875
1750927208456764200,19.04676416015625,8.726025581359863,4.530211448669434,0.8793623447418213
1750927208475588600,19.065588623046875,8.075178146362305,4.6785664558410645,1.0947163105010986
1750927208494412800,19.084412841796876,7.476972579956055,5.176273345947266,1.200000524520874
1750927208513237000,19.103237060546874,7.0462646484375,5.544768333435059,1.1473584175109863
1750927208532061400,19.1220615234375,7.017550468444824,5.396413326263428,1.2526426315307617
1750927208550885600,19.1408857421875,7.328617572784424,4.999204635620117,1.3866406679153442
1750927208569710000,19.1597099609375,7.587042331695557,4.625924587249756,1.3674981594085693
1750927208588534300,19.1785341796875,7.941180229187012,4.343571186065674,1.3722838163375854
1750927208607358700,19.197358642578124,8.496315002441406,4.166502475738525,1.176072359085083
1750927208626183000,19.216182861328125,9.477372169494629,3.5300116539001465,1.0085747241973877
1750927208645007000,19.235007080078127,9.022735595703125,2.998805046081543,0.625723123550415
1750927208663831600,19.25383154296875,9.606584548950195,2.400599241256714,0.8315058946609497
1750927208682655700,19.27265576171875,9.817152976989746,2.0129621028900146,0.7645068168640137
1750927208701480200,19.291480224609376,9.89850902557373,1.8598214387893677,0.5395814776420593
1750927208720304400,19.310304443359374,9.850652694702148,1.5583257675170898,0.486939400434494
1750927208739128800,19.32912890625,9.711869239807129,0.9888339638710022,0.49651068449020386
1750927208757953000,19.347953125,10.166504859924316,0.6107679605484009,0.4534398913383484
1750927208776777200,19.366777099609376,9.946365356445312,0.08434699475765228,0.5252245664596558
1750927208795601700,19.3856015625,9.989436149597168,-0.2602194547653198,0.6400800347328186
1750927208823838000,19.413837890625,9.975079536437988,-0.5952146053314209,0.778863787651062
1750927208842662400,19.432662353515624,10.104291915893555,-0.877567708492279,0.7884350419044495
1750927208861486600,19.451486572265626,9.802796363830566,-1.2699905633926392,0.778863787651062
1750927208880311000,19.47031103515625,9.242876052856445,-1.6815561056137085,0.745364248752594
1750927208899135200,19.48913525390625,9.329017639160156,-2.3706889152526855,0.745364248752594
1750927208917959400,19.50795947265625,9.707083702087402,-2.5764718055725098,0.7310073375701904
1750927208936784000,19.526783935546874,9.989436149597168,-2.428116798400879,0.5491527915000916
1750927208955608000,19.545608154296875,9.932008743286133,-2.7774689197540283,0.5443671345710754
1750927208974432500,19.5644326171875,9.482157707214355,-3.3134610652923584,0.30508488416671753
1750927208993256700,19.583256591796875,9.4390869140625,-3.720241069793701,0.1902294009923935
1750927209012081000,19.602080810546877,9.534799575805664,-3.8590247631073,0.33379876613616943
1750927209030905300,19.6209052734375,9.932008743286133,-3.8015968799591064,0.4055834412574768
1750927209049729500,19.6397294921875,10.123434066772461,-3.6915271282196045,0.3290131092071533
1750927209068554000,19.658553955078126,10.094720840454102,-3.8255252838134766,0.5060819983482361
1750927209087378200,19.677378173828124,9.386445045471191,-4.222733974456787,0.5252245664596558
1750927209106202600,19.69620263671875,9.396016120910645,-4.3280181884765625,0.18544375896453857
1750927209125026800,19.71502685546875,9.429515838623047,-4.284946918487549,0.33379876613616943
1750927209143851000,19.73385107421875,9.539586067199707,-4.141377925872803,0.625723123550415
1750927209162675500,19.752675537109376,9.692726135253906,-3.988237142562866,0.8602197170257568
1750927209181499600,19.771499755859374,9.888937950134277,-3.9355950355529785,0.8745766878128052
1750927209200324000,19.790323974609375,9.946365356445312,-3.73459792137146,0.6640082597732544
1750927209219148300,19.809148193359373,9.745368003845215,-3.782454490661621,0.486939400434494
1750927209237972700,19.82797265625,9.33858871459961,-3.720241069793701,0.2907279431819916
1750927209256797000,19.846796875,9.218947410583496,-3.1746773719787598,0.4342973232269287
1750927209275621000,19.86562109375,9.597013473510742,-2.710469961166382,0.7166503667831421
1750927209294445600,19.884445556640625,10.013364791870117,-2.3563320636749268,1.0277173519134521
1750927209313269800,19.903269775390626,10.00857925415039,-2.083550214767456,0.989432156085968
1750927209332094000,19.922093994140624,9.860223770141602,-1.7533408403396606,0.5204389095306396
1750927209350918400,19.94091845703125,9.539586067199707,-1.0498509407043457,0.061016976833343506
1750927209369742600,19.95974267578125,9.56351375579834,-0.5952146053314209,0.18065811693668365
1750927209388567000,19.978567138671874,9.611370086669922,-0.4085744619369507,0.745364248752594
1750927209407391200,19.99739111328125,9.783653259277344,-0.05922235921025276,0.9415757060050964
1750927209426215700,20.016215576171874,9.711869239807129,0.39062830805778503,0.9415757060050964
1750927209445039900,20.035039794921875,9.510871887207031,0.8979067206382751,1.046859860420227
1750927209463864000,20.053864013671873,9.257232666015625,1.5296118259429932,0.7980063557624817
1750927209482688500,20.0726884765625,9.434301376342773,1.960319995880127,0.7501499056816101
1750927209501512700,20.0915126953125,9.625727653503418,2.237887382507324,0.9080761671066284
1750927209520337200,20.110337158203127,9.678369522094727,2.3958137035369873,0.9942178130149841
1750927209539161300,20.129161376953125,9.415159225463867,2.7116663455963135,0.9032905697822571
1750927209557985800,20.14798583984375,9.06580638885498,3.3960134983062744,0.7980063557624817
1750927209576810000,20.16681005859375,8.831310272216797,3.9559340476989746,0.8267202377319336
1750927209595634200,20.18563427734375,9.003593444824219,4.032504558563232,1.0995019674301147
1750927209614458600,20.204458740234376,8.994022369384766,3.9798622131347656,1.2957134246826172
1750927209633282800,20.22328271484375,8.84088134765625,3.99900484085083,1.2813565731048584
1750927209652107300,20.242107177734376,8.726025581359863,4.243072986602783,1.2287144660949707
1750927209670931500,20.260931396484374,8.371888160705566,4.688137531280518,0.9750752449035645
1750927209689755600,20.279755615234375,8.170890808105469,5.267200946807861,1.0947163105010986
1750927209708580000,20.298580078125,8.036892890930176,5.472983360290527,1.0947163105010986
1750927209727404300,20.317404296875,7.864609718322754,5.472983360290527,1.2574282884597778
1750927209746228700,20.336228759765625,7.524828910827637,5.6069817543029785,1.0995019674301147
1750927209765053000,20.355052978515626,7.118049144744873,5.889334678649902,1.0516455173492432
1750927209783877400,20.37387744140625,7.079763889312744,5.846263885498047,1.4297115802764893
1750927209802701600,20.39270166015625,7.146762847900391,5.688337802886963,1.6402798891067505
1750927209821525800,20.41152587890625,7.127620220184326,5.602196216583252,1.6785650253295898
1750927209840350200,20.43035009765625,7.448258876800537,5.228915691375732,1.3866406679153442
1750927209859174400,20.44917431640625,8.156534194946289,4.654638290405273,1.1808580160140991
1750927209877998800,20.467998779296874,8.659027099609375,4.209573268890381,1.1617153882980347
1750927209896823000,20.486822998046875,8.850452423095703,4.027718544006348,1.0803594589233398
1750927209915647500,20.5056474609375,9.046664237976074,3.793222188949585,0.8745766878128052
1750927209934471700,20.5244716796875,9.357730865478516,3.3003005981445312,0.8075776696205139
1750927209953296000,20.5432958984375,9.745368003845215,2.8791637420654297,0.9702895879745483
1750927209972120300,20.562120361328127,8.989236831665039,2.7020950317382812,0.8458628058433533
1750927209990944500,20.580944580078125,9.281160354614258,2.3910279273986816,0.9846464991569519
1750927210009768700,20.599768798828126,9.467801094055176,1.8406788110733032,0.9320043921470642
1750927210028593200,20.61859326171875,9.539586067199707,1.3525429964065552,0.9320043921470642
1750927210047417300,20.637417236328126,9.635298728942871,0.8979067206382751,1.0277173519134521
1750927210066241800,20.65624169921875,9.611370086669922,0.5676971673965454,0.9702895879745483
1750927210085066000,20.67506591796875,9.721440315246582,0.20877377688884735,0.9176474809646606
1750927210103890400,20.693890380859376,9.850652694702148,-0.25064817070961,0.9032905697822571
1750927210122714600,20.712714599609374,10.16171932220459,-0.50907301902771,0.5300102233886719
1750927210141538800,20.731538818359375,10.228718757629395,-0.8344969153404236,0.4055834412574768
1750927210160363300,20.75036328125,9.960722923278809,-1.389631748199463,0.4773681163787842
1750927210179187500,20.7691875,9.807581901550293,-1.7676976919174194,0.5108676552772522
1750927210198012000,20.788011962890625,9.893723487854004,-2.0309081077575684,0.5874379873275757
1750927210216836000,20.806836181640627,9.989436149597168,-2.318047046661377,0.5587241053581238
1750927210235660500,20.82566064453125,9.960722923278809,-2.696112871170044,0.534795880317688
1750927210254484700,20.844484619140626,9.836296081542969,-2.954537868499756,0.5970092415809631
1750927210273309000,20.863308837890624,9.8267240524292,-3.122035264968872,0.6161518096923828
1750927210292133400,20.88213330078125,9.32423210144043,-3.4139597415924072,0.3433700501918793
1750927210310957600,20.90095751953125,9.242876052856445,-3.830310821533203,0.38644084334373474
1750927210329782000,20.919781982421874,9.391230583190918,-3.9738802909851074,0.5060819983482361
1750927210348606200,20.938606201171876,9.740582466125488,-3.8590247631073,0.3002992272377014
1750927210367430700,20.9574306640625,9.831509590148926,-3.8781673908233643,0.3242274820804596
1750927210386254800,20.9762548828125,9.735796928405762,-4.0695929527282715,0.625723123550415
1750927210405079000,20.9950791015625,9.673583984375,-4.079164505004883,0.625723123550415
1750927210423903500,21.013903564453123,9.711869239807129,-4.0695929527282715,0.49172505736351013
1750927210461551900,21.0515517578125,9.716654777526855,-4.036093711853027,0.5491527915000916
1750927210480376300,21.070376220703125,9.678369522094727,-3.906881093978882,0.5300102233886719
1750927210499200500,21.089200439453126,9.558728218078613,-3.73459792137146,0.486939400434494
1750927210518025000,21.10802490234375,9.496515274047852,-3.5718860626220703,0.4007977843284607
1750927210536849200,21.12684912109375,9.530014038085938,-3.4809587001800537,0.3720839321613312
1750927210555673600,21.145673583984376,9.448657989501953,-3.2368907928466797,0.4055834412574768
1750927210574497800,21.164497802734374,9.31466007232666,-2.8875386714935303,0.6496513485908508
1750927210593322000,21.183322021484376,9.4390869140625,-2.490330219268799,0.7405785918235779
1750927210612146400,21.202146484375,9.721440315246582,-2.0165512561798096,0.5635097622871399
1750927210630970600,21.220970703125,10.027721405029297,-1.8059829473495483,0.39601215720176697
1750927210649795000,21.239795166015625,9.879366874694824,-1.5379867553710938,0.43908295035362244
1750927210668619300,21.258619384765623,9.731011390686035,-1.236491084098816,0.7070791125297546
1750927210687443700,21.277443603515625,9.635298728942871,-0.7818548083305359,0.8458628058433533
1750927210706268000,21.296267822265627,9.865009307861328,-0.29850462079048157,0.7932206988334656
1750927210725092000,21.315092041015625,10.123434066772461,0.0077766734175384045,0.5730810165405273
1750927210743916500,21.33391650390625,10.056435585021973,0.14656038582324982,0.5539384484291077
1750927210762740700,21.35274072265625,9.88415241241455,0.5629115104675293,0.49172505736351013
1750927210781565200,21.371565185546874,9.802796363830566,1.0271191596984863,0.5491527915000916
1750927210800389400,21.390389404296876,9.745368003845215,1.4530415534973145,0.7022934556007385
1750927210819213600,21.409213623046874,9.869794845581055,1.7258232831954956,0.7549355626106262
1750927210838038000,21.4280380859375,9.707083702087402,1.9172492027282715,0.8027920126914978
1750927210856862200,21.4468623046875,9.290732383728027,2.328814744949341,0.711864709854126
1750927210875686700,21.465686767578124,8.970093727111816,2.898306369781494,0.5730810165405273
1750927210894510800,21.4845107421875,8.68774127960205,3.391227960586548,0.7022934556007385
1750927210913335300,21.503335205078123,8.730812072753906,3.582653760910034,0.865005373954773
1750927210932159500,21.522159423828125,8.682954788208008,3.5156545639038086,1.0085747241973877
1750927210950983700,21.540983642578126,8.486743927001953,3.659224033355713,1.109073281288147
1750927210969808100,21.55980810546875,8.4771728515625,3.8841493129730225,1.0660024881362915
1750927210988632300,21.57863232421875,8.61595630645752,3.951148271560669,0.9320043921470642
1750927211007456800,21.597456787109376,8.515457153320312,3.965505361557007,0.9942178130149841
1750927211026281000,21.616281005859374,8.486743927001953,3.9702908992767334,0.9415757060050964
1750927211045105200,21.635105224609376,8.893523216247559,3.8458642959594727,0.836291491985321
1750927211063929600,21.6539296875,9.242876052856445,3.4917263984680176,0.8602197170257568
1750927211082753800,21.67275390625,9.319445610046387,3.266801118850708,0.7262216806411743
1750927211101578200,21.691578125,8.994022369384766,3.2763724327087402,0.6879364848136902
1750927211120402400,21.71040234375,8.769096374511719,3.386442184448242,0.6352944374084473
1750927211139227000,21.729226806640625,8.998807907104492,2.984447956085205,0.7166503667831421
1750927211158051000,21.748051025390627,9.357730865478516,2.242672920227051,0.8793623447418213
1750927211176875300,21.766875244140625,9.57787036895752,1.7593228816986084,0.9846464991569519
1750927211195699700,21.78569970703125,9.601799011230469,1.4817553758621216,0.865005373954773
1750927211214524000,21.80452392578125,9.759725570678711,1.2616157531738281,0.7692924737930298
1750927211233348400,21.823348388671874,9.606584548950195,1.0606186389923096,0.7070791125297546
1750927211252172500,21.842172607421876,9.458230018615723,0.7543373107910156,0.6927221417427063
1750927211270996700,21.860996826171874,9.534799575805664,0.15613168478012085,0.7214360237121582
1750927211289821200,21.8798212890625,9.975079536437988,-0.29850462079048157,0.6927221417427063
1750927211308645400,21.898645263671874,10.238289833068848,-0.5952146053314209,0.5300102233886719
1750927211327469800,21.9174697265625,10.042078018188477,-0.8871390223503113,0.5635097622871399
1750927211346294000,21.9362939453125,10.089935302734375,-1.1694921255111694,0.711864709854126
1750927211365118500,21.955118408203123,10.03729248046875,-1.4470595121383667,0.5970092415809631
1750927211383942700,21.973942626953125,9.88415241241455,-1.724626898765564,0.30508488416671753
1750927211402766800,21.992766845703127,9.597013473510742,-2.145763635635376,0.003589233849197626
1750927211421591300,22.01159130859375,9.654440879821777,-2.5286152362823486,0.22851456701755524
1750927211440415500,22.03041552734375,9.888937950134277,-2.7631118297576904,0.7884350419044495
1750927211459240000,22.049239990234376,10.099506378173828,-2.8636105060577393,0.8458628058433533
1750927211478064000,22.068064208984374,10.099506378173828,-2.9353952407836914,0.6783652305603027
1750927211496888600,22.086888671875,9.70229721069336,-3.256033420562744,0.4295116662979126
1750927211515712800,22.105712646484374,9.156734466552734,-3.4570305347442627,0.3720839321613312
1750927211534537000,22.124536865234376,9.33858871459961,-3.6340994834899902,0.7166503667831421
1750927211553361400,22.143361328125,9.659226417541504,-3.538386583328247,0.7692924737930298
1750927211572185600,22.162185546875,9.874580383300781,-3.5814573764801025,0.7597211599349976
1750927211591009800,22.181009765625,9.745368003845215,-3.720241069793701,0.8793623447418213
1750927211609834200,22.199834228515623,9.77408218383789,-3.7058839797973633,0.7740781307220459
1750927211628658400,22.218658447265625,9.721440315246582,-3.6580276489257812,0.5060819983482361
1750927211647483000,22.23748291015625,9.343374252319336,-3.830310821533203,0.381655216217041
1750927211666307000,22.25630712890625,9.094520568847656,-3.758526086807251,0.44386860728263855
1750927211685131500,22.275131591796875,9.429515838623047,-3.5431721210479736,0.5826523303985596
1750927211703955700,22.293955810546876,9.955936431884766,-3.356531858444214,0.6065805554389954
1750927211722780000,22.31277978515625,9.79801082611084,-3.3613176345825195,0.592223584651947
1750927211741604400,22.331604248046876,9.458230018615723,-3.2895328998565674,0.6975077986717224
1750927211760428500,22.350428466796874,9.19980525970459,-3.0550363063812256,0.7645068168640137
1750927211779253000,22.3692529296875,9.305088996887207,-2.7726831436157227,0.7070791125297546
1750927211798077200,22.3880771484375,9.568299293518066,-2.437688112258911,0.7166503667831421
1750927211816901600,22.406901611328124,9.917651176452637,-2.160120725631714,0.6687939167022705
1750927211835725800,22.425725830078125,9.865009307861328,-1.8921245336532593,0.7884350419044495
1750927211854550000,22.444550048828123,9.740582466125488,-1.5906288623809814,0.711864709854126
1750927211873374500,22.46337451171875,9.664012908935547,-1.1407781839370728,0.49651068449020386
1750927211892198700,22.48219873046875,9.932008743286133,-0.7339983582496643,0.4534398913383484
1750927211911023000,22.501023193359377,10.152148246765137,-0.6047859191894531,0.5587241053581238
1750927211929847300,22.519847412109375,10.109077453613281,-0.494716078042984,0.8123632669448853
1750927211948671700,22.538671630859376,10.0612211227417,-0.11186445504426956,0.7214360237121582
1750927211967496000,22.557495849609374,9.970293998718262,0.2231307178735733,0.6113662123680115
1750927211986320100,22.576320068359376,9.673583984375,0.7016952633857727,0.6113662123680115
1750927212005144600,22.59514453125,9.333803176879883,1.0893324613571167,0.7597211599349976
1750927212023968800,22.61396875,9.467801094055176,1.3525429964065552,0.9272187948226929
1750927212042793200,22.632793212890626,9.635298728942871,1.5343974828720093,0.9846464991569519
1750927212061617400,22.651617431640624,9.793225288391113,1.7114664316177368,0.8793623447418213
1750927212080441600,22.670441650390625,9.793225288391113,1.965105652809143,0.7310073375701904
1750927212099266000,22.68926611328125,9.357730865478516,2.3431715965270996,0.7980063557624817
1750927212118090200,22.70809033203125,9.10409164428711,2.8217360973358154,0.8506484627723694
1750927212136914700,22.726914794921875,9.123234748840332,3.1519455909729004,0.745364248752594
1750927212155739000,22.74573876953125,9.506086349487305,3.204587697982788,0.6161518096923828
1750927212174563000,22.76456298828125,9.692726135253906,3.032304525375366,0.745364248752594
1750927212193387500,22.783387451171876,9.534799575805664,2.922234535217285,1.0277173519134521
1750927212212211700,22.802211669921874,9.381659507751465,3.171088218688965,0.9367900490760803
1750927212231036200,22.8210361328125,8.946166038513184,3.659224033355713,0.9320043921470642
1750927212249860400,22.8398603515625,8.553742408752441,4.109074592590332,0.9415757060050964
1750927212268684800,22.858684814453124,8.534600257873535,4.070789337158203,1.0325030088424683
1750927212287509000,22.877509033203125,8.300103187561035,4.056432723999023,1.1425727605819702
1750927212306333200,22.896333251953124,7.926823139190674,4.190430641174316,1.2861422300338745
1750927212325157600,22.91515771484375,7.898109436035156,4.381856441497803,1.176072359085083
1750927212343981800,22.93398193359375,8.151748657226562,4.305285930633545,1.01814603805542
1750927212362806300,22.95280615234375,8.434102058410645,3.941577196121216,0.8889335989952087
1750927212381630500,22.97163037109375,8.625527381896973,3.5635111331939697,0.8123632669448853
1750927212400454700,22.99045458984375,8.836095809936523,3.3242287635803223,0.9080761671066284
1750927212419279000,23.009279052734374,9.132805824279785,3.204587697982788,1.0660024881362915
1750927212438103300,23.028103271484376,9.525228500366211,2.8791637420654297,0.8937192559242249
1750927212456927700,23.046927734375,9.745368003845215,2.448455810546875,0.625723123550415
1750927212475752000,23.065751953125,10.137791633605957,1.9028922319412231,0.6783652305603027
1750927212494576400,23.084576416015626,9.534799575805664,1.5056836605072021,0.7310073375701904
1750927212513400600,23.103400634765624,9.769296646118164,1.256830096244812,0.8602197170257568
1750927212532224800,23.122224853515625,9.783653259277344,1.0223335027694702,0.7549355626106262
1750927212551049200,23.14104931640625,9.778867721557617,0.6729813814163208,0.5443671345710754
1750927212569873400,23.159873291015625,9.759725570678711,0.15134602785110474,0.5826523303985596
1750927212588697600,23.178697509765627,9.994221687316895,-0.2745763957500458,0.6209374666213989
1750927212607522000,23.19752197265625,10.113862991333008,-0.5952146053314209,0.7405785918235779
1750927212626346200,23.21634619140625,10.075577735900879,-0.8727820515632629,0.7310073375701904
1750927212645170700,23.235170654296876,10.109077453613281,-1.059422254562378,0.6496513485908508
1750927212663995000,23.253994873046874,10.070792198181152,-1.3130614757537842,0.5970092415809631
1750927212682819300,23.2728193359375,9.941579818725586,-1.6289139986038208,0.7070791125297546
1750927212701643500,23.2916435546875,9.783653259277344,-1.9304096698760986,0.745364248752594
1750927212720467700,23.3104677734375,10.00857925415039,-2.1170499324798584,0.8123632669448853
1750927212739292200,23.329292236328126,9.927223205566406,-2.0931215286254883,0.6592226624488831
1750927212758116400,23.348116455078124,9.46301555633545,-2.437688112258911,0.46779683232307434
1750927212776940800,23.36694091796875,9.510871887207031,-2.720041036605835,0.5300102233886719
1750927212795765000,23.385764892578123,9.64965534210205,-2.854039192199707,0.46779683232307434
1750927212814589400,23.40458935546875,9.477372169494629,-3.01196551322937,0.4295116662979126
1750927212833413600,23.42341357421875,9.2859468460083,-3.2129626274108887,0.5443671345710754
1750927212852237800,23.44223779296875,9.391230583190918,-3.2512478828430176,0.7166503667831421
1750927212871062300,23.461062255859375,9.386445045471191,-3.308675527572632,0.7357929348945618
1750927212889886500,23.479886474609376,8.845666885375977,-3.552743434906006,0.711864709854126
1750927212908711000,23.4987109375,8.845666885375977,-3.7250266075134277,0.8458628058433533
1750927212927535000,23.51753515625,9.443872451782227,-3.6053855419158936,0.745364248752594
1750927212946359300,23.536359375,9.726225852966309,-3.6293137073516846,0.7836494445800781
1750927212965183700,23.555183837890624,9.79801082611084,-3.7489547729492188,0.8027920126914978
1750927212984008000,23.574008056640626,10.075577735900879,-3.624528169631958,0.5252245664596558
1750927213002832400,23.592832275390624,10.329216957092285,-3.524029493331909,0.4821537733078003
1750927213021656600,23.611656494140625,10.228718757629395,-3.500101327896118,0.5060819983482361
1750927213040481000,23.63048095703125,10.180862426757812,-3.4331023693084717,0.43908295035362244
1750927213059305200,23.64930517578125,10.042078018188477,-3.318246841430664,0.30987054109573364
1750927213078129400,23.66812939453125,9.836296081542969,-3.1172497272491455,0.25244277715682983
1750927213096953900,23.686953857421877,9.501300811767578,-2.8588249683380127,0.3481557071208954
1750927213115778000,23.705778076171875,9.386445045471191,-2.609971284866333,0.5204389095306396
1750927213134602500,23.7246025390625,9.520442962646484,-2.2893331050872803,0.8315058946609497
1750927213153426700,23.7434267578125,9.721440315246582,-1.9830517768859863,0.9559326171875
1750927213172251000,23.7622509765625,9.673583984375,-1.5906288623809814,0.7980063557624817
1750927213191075300,23.781075439453126,9.534799575805664,-1.174277663230896,0.6975077986717224
1750927213209899500,23.7998994140625,9.233304023742676,-0.8584251403808594,0.8410771489143372
1750927213228724000,23.818723876953126,9.362516403198242,-0.42771705985069275,1.046859860420227
1750927213247548200,23.837548095703124,9.745368003845215,-0.24586252868175507,0.9224331378936768
1750927213266372400,23.856372314453125,10.013364791870117,0.07956135272979736,0.6400800347328186
1750927213285196800,23.87519677734375,10.118648529052734,0.39062830805778503,0.49172505736351013
1750927213304021000,23.89402099609375,10.027721405029297,0.6011967062950134,0.5252245664596558
1750927213322845400,23.912845458984375,10.075577735900879,0.9744769930839539,0.5874379873275757
1750927213341669600,23.931669677734376,10.013364791870117,1.2041879892349243,0.4342973232269287
1750927213360494000,23.950494140625,9.93679428100586,1.3860424757003784,0.3290131092071533
1750927213379318300,23.969318359375,9.731011390686035,1.9268203973770142,0.12801600992679596
1750927213398142500,23.988142578125,9.348159790039062,2.582453727722168,0.26201409101486206
1750927213416967000,24.006966796875,9.0514497756958,2.816950559616089,0.6735795736312866
1750927213435791000,24.025791015625,9.013164520263672,3.0514471530914307,0.898504912853241
1750927213454615600,24.044615478515624,8.984451293945312,3.3194432258605957,0.9080761671066284
1750927213473439700,24.063439697265625,8.807381629943848,3.6113674640655518,0.6592226624488831
1750927213492264200,24.08226416015625,8.525029182434082,3.951148271560669,0.5778666734695435
1750927213511088400,24.10108837890625,8.46760082244873,3.9798622131347656,0.9559326171875
1750927213529912600,24.11991259765625,8.529814720153809,3.9702908992767334,0.8937192559242249
1750927213548737000,24.138737060546877,8.68774127960205,3.817150354385376,0.7597211599349976
1750927213567561200,24.157561279296875,8.8648099899292,3.7022948265075684,0.6544370055198669
1750927213586385700,24.1763857421875,8.893523216247559,3.510869026184082,0.6352944374084473
1750927213605209900,24.1952099609375,8.85523796081543,3.391227960586548,0.6687939167022705
1750927213624034000,24.214033935546876,8.927022933959961,3.108874797821045,0.6209374666213989
1750927213642858500,24.2328583984375,9.19980525970459,2.836092948913574,0.9032905697822571
1750927213661682700,24.2516826171875,9.329017639160156,2.6015963554382324,0.898504912853241
